time,seconds_elapsed,z,y,x
1757088548210882000,0.005882080078125,8.190000534057617,-4.13100004196167,5.980950355529785
1757088548220435200,0.015435302734375,7.309050559997559,-3.642000198364258,4.912950038909912
1757088548229988400,0.02498828125,5.911050319671631,-4.273950099945068,4.935000419616699
1757088548239541500,0.03454150390625,4.879050254821777,-5.029050350189209,5.160000324249268
1757088548249095000,0.044094970703125,4.503000259399414,-5.25600004196167,5.0209503173828125
1757088548258648000,0.05364794921875,5.101950168609619,-5.278050422668457,5.104950428009033
1757088548268201200,0.063201171875,6.343950271606445,-5.638950347900391,5.430000305175781
1757088548277754600,0.072754638671875,7.6080002784729,-6.124950408935547,6.064950466156006
1757088548287307500,0.0823076171875,8.521050453186035,-6.529950141906738,6.60105037689209
1757088548296860700,0.091860595703125,8.959050178527832,-6.88200044631958,6.916950225830078
1757088548306414000,0.1014140625,8.632950782775879,-7.333950519561768,7.027050495147705
1757088548315967200,0.11096728515625,7.9770002365112305,-7.846950531005859,6.987000465393066
1757088548325520400,0.120520263671875,7.174950122833252,-8.199000358581543,6.853050231933594
1757088548335073500,0.130073486328125,6.094950199127197,-8.560050010681152,6.721050262451172
1757088548344627000,0.139626953125,5.305050373077393,-8.581950187683105,7.06095027923584
1757088548354180000,0.14918017578125,4.6180500984191895,-8.752050399780273,8.092950820922852
1757088548364733200,0.159733154296875,4.192049980163574,-9.21405029296875,9.84795093536377
1757088548374286600,0.16928662109375,3.973950147628784,-8.97195053100586,11.449950218200684
1757088548383839700,0.17883984375,3.68595027923584,-8.461950302124023,12.433950424194336
1757088548393393000,0.188392822265625,3.4260001182556152,-7.843950271606445,12.54900074005127
1757088548412499200,0.207499267578125,1.4839500188827515,-6.886950492858887,11.092950820922852
1757088548422052400,0.21705224609375,0.3850500285625458,-6.757050514221191,10.008000373840332
1757088548431605800,0.226605712890625,-0.6150000095367432,-6.717000484466553,9.975000381469727
1757088548441159000,0.236158935546875,-2.1090002059936523,-6.124950408935547,10.008000373840332
1757088548450712000,0.245712158203125,-3.198000192642212,-5.448000431060791,10.027050018310547
1757088548460265200,0.25526513671875,-4.603950023651123,-4.642950057983398,9.877050399780273
1757088548469818600,0.264818603515625,-5.314950466156006,-3.8580002784729004,9.201000213623047
1757088548479371800,0.274371826171875,-5.344050407409668,-3.520050048828125,8.71095085144043
1757088548498478000,0.29347802734375,-4.732950210571289,-1.9810501337051392,7.525050163269043
1757088548508031200,0.30303125,-4.414950370788574,-1.4010000228881836,7.642950534820557
1757088548517584400,0.31258447265625,-4.165950298309326,-1.4970000982284546,7.942050457000732
1757088548527137800,0.3221376953125,-3.751950263977051,-1.8799500465393066,7.396050453186035
1757088548536691000,0.33169091796875,-2.7910501956939697,-2.007000207901001,6.130050182342529
1757088548546244000,0.341244140625,-1.9560000896453857,-1.831950068473816,5.347050189971924
1757088548555797200,0.35079736328125,-2.5500001907348633,-2.0209500789642334,5.032950401306152
1757088548565350400,0.360350341796875,-3.1429500579833984,-1.9039500951766968,5.184000015258789
1757088548574903800,0.36990380859375,-2.940000057220459,-1.4970000982284546,5.359050273895264
1757088548584457000,0.37945703125,-2.9040000438690186,-1.9519500732421875,6.010050296783447
1757088548594010000,0.389010009765625,-2.69100022315979,-2.776050090789795,6.493950366973877
1757088548603563300,0.398563232421875,-1.9320000410079956,-3.2190001010894775,6.525000095367432
1757088548613116400,0.408116455078125,-1.467000126838684,-4.02495002746582,6.718950271606445
1757088548622669600,0.417669677734375,-1.8889501094818115,-5.07705020904541,6.490950107574463
1757088548632222700,0.42722265625,-1.4770500659942627,-5.740050315856934,5.8060503005981445
1757088548641775900,0.43677587890625,-0.9330000281333923,-6.544050216674805,5.482950210571289
1757088548651329300,0.446329345703125,-1.5540000200271606,-6.40500020980835,5.002050399780273
1757088548660882400,0.45588232421875,-2.49495005607605,-6.919950485229492,5.469000339508057
1757088548670435600,0.465435546875,-1.9939501285552979,-7.120950222015381,5.4280500411987305
1757088548679988700,0.47498876953125,0.27900001406669617,-7.737000465393066,6.189000129699707
1757088548689542000,0.4845419921875,-0.1270500123500824,-7.471050262451172,6.1650004386901855
1757088548699095000,0.494094970703125,0.45900002121925354,-7.389000415802002,7.240950107574463
1757088548708648400,0.5036484375,-1.615950107574463,-8.563050270080566,8.521050453186035
1757088548718201600,0.51320166015625,-1.582050085067749,-8.632050514221191,7.903950214385986
1757088548727754800,0.522754638671875,-0.5290500521659851,-8.287050247192383,7.683000564575195
1757088548737308200,0.53230810546875,-0.025950001552700996,-8.814000129699707,7.990050315856934
1757088548746861300,0.541861328125,0.4930500090122223,-9.802950859069824,8.284049987792969
1757088548756414500,0.55141455078125,1.8720000982284546,-8.433000564575195,6.811950206756592
1757088548765967600,0.560967529296875,2.110949993133545,-7.933050155639648,6.631950378417969
1757088548775521000,0.57052099609375,2.551950216293335,-7.762950420379639,5.767950057983398
1757088548785074200,0.58007421875,2.050950050354004,-6.441000461578369,4.698000431060791
1757088548794627000,0.589626953125,2.640000104904175,-6.067950248718262,3.169950246810913
1757088548804180500,0.599180419921875,1.287000060081482,-5.758950233459473,2.2240500450134277
1757088548813733600,0.608733642578125,-0.15495000779628754,-5.602950096130371,1.9990501403808594
1757088548823286800,0.618286865234375,-1.7710500955581665,-5.785050392150879,1.855950117111206
1757088548832840000,0.62783984375,-1.9410001039505005,-6.391050338745117,1.7700001001358032
1757088548842393300,0.637393310546875,-2.431950092315674,-7.342050552368164,1.798050045967102
1757088548851946500,0.646946533203125,-5.004000186920166,-5.718000411987305,3.931950092315674
1757088548861499600,0.656499755859375,-5.836950302124023,-5.365950107574463,4.093950271606445
1757088548871052800,0.666052734375,-3.2179501056671143,-5.7330002784729,3.7159502506256104
1757088548880606000,0.67560595703125,-1.3000500202178955,-5.716050148010254,2.4780001640319824
1757088548890159000,0.6851591796875,0.07800000160932541,-5.785050392150879,1.450950026512146
1757088548899712300,0.694712158203125,1.807050108909607,-5.722950458526611,0.51705002784729
1757088548909265400,0.704265380859375,2.6830501556396484,-5.232000350952148,0.32805001735687256
1757088548918818800,0.71381884765625,2.227950096130371,-4.215000152587891,0.453000009059906
1757088548928371700,0.723371826171875,2.3310000896453857,-3.7639501094818115,0.39795002341270447
1757088548937925000,0.732925048828125,2.032050132751465,-3.5899500846862793,-0.05100000277161598
1757088548947478300,0.742478271484375,1.2990000247955322,-3.9439501762390137,-0.5350500345230103
1757088548957031400,0.752031494140625,0.8350500464439392,-4.630950450897217,-0.6670500040054321
1757088548966584600,0.76158447265625,1.27305006980896,-5.7210001945495605,-0.06105000153183937
1757088548976137700,0.7711376953125,1.489050030708313,-7.2360005378723145,-0.5520000457763672
1757088548985691100,0.780691162109375,0.6720000505447388,-10.03695011138916,0.2659500241279602
1757088548995244300,0.790244384765625,0.7339500188827515,-19.135950088500977,3.1339502334594727
1757088549004797400,0.79979736328125,-0.9430500268936157,-36.10605239868164,2.77305006980896
1757088549014350800,0.809350830078125,-4.3909502029418945,-44.842952728271484,-0.286050021648407
1757088549023903700,0.81890380859375,-1.5750000476837158,-41.23305130004883,-0.30300000309944153
1757088549033457000,0.828456787109375,-0.8929500579833984,-36.07305145263672,2.7660000324249268
1757088549043010300,0.83801025390625,-1.683000087738037,-25.447052001953125,3.7710001468658447
1757088549052563500,0.8475634765625,-1.8460501432418823,-16.35795021057129,2.2129499912261963
1757088549062116600,0.85711669921875,-1.4359500408172607,-10.85205078125,0.8209500312805176
1757088549071669800,0.866669677734375,-0.7489500641822815,-7.959000587463379,-0.28905001282691956
1757088549081223000,0.876222900390625,-0.19095000624656677,-6.357000350952148,-1.0500000715255737
1757088549090776300,0.8857763671875,0.3540000021457672,-5.28000020980835,-1.4020500183105469
1757088549100329200,0.8953291015625,0.6240000128746033,-4.437000274658203,-1.2169500589370728
1757088549109882400,0.90488232421875,0.9160500168800354,-3.889050245285034,-0.9180000424385071
1757088549119435800,0.914435791015625,0.9400500655174255,-3.9300003051757812,-0.2550000250339508
1757088549128989000,0.923989013671875,0.7080000042915344,-5.8309502601623535,0.0070500001311302185
1757088549138542000,0.9335419921875,0.3540000021457672,-8.08395004272461,-0.28095000982284546
1757088549148095200,0.94309521484375,0.10200000554323196,-10.138050079345703,-0.4320000112056732
1757088549157648600,0.952648681640625,-0.08595000207424164,-11.931000709533691,-0.4819500148296356
1757088549167201800,0.962201904296875,-0.21495001018047333,-13.123950958251953,-0.4129500091075897
1757088549176754700,0.971754638671875,-0.3469500243663788,-13.186050415039062,-0.17595000565052032
1757088549186308000,0.98130810546875,-0.42795002460479736,-11.563050270080566,0.1270500123500824
1757088549195861200,0.990861328125,-0.46905001997947693,-10.428000450134277,0.2179500162601471
1757088549205414400,1.000414306640625,-0.35895001888275146,-9.820050239562988,0.33105000853538513
1757088549214967800,1.0099677734375,-0.1770000010728836,-9.409950256347656,0.41700002551078796
1757088549224521000,1.01952099609375,-0.06195000186562538,-9.304950714111328,0.4720500111579895
1757088549234074000,1.02907421875,-0.08595000207424164,-9.57300090789795,0.5820000171661377
1757088549243627300,1.038627197265625,-0.14100000262260437,-9.894000053405762,0.7300500273704529
1757088549253180700,1.0481806640625,-0.09795000404119492,-10.051950454711914,0.46905001997947693
1757088549262733600,1.057733642578125,0.009000000543892384,-10.162050247192383,0.2639999985694885
1757088549272286700,1.06728662109375,0.1360500007867813,-10.219050407409668,0.12000000476837158
1757088549281840000,1.076840087890625,0.21705001592636108,-10.186050415039062,-0.006000000052154064
1757088549291393300,1.086393310546875,0.19995000958442688,-10.11405086517334,-0.034950003027915955
1757088549300946400,1.095946533203125,0.07605000585317612,-10.05405044555664,0.07695000618696213
1757088549310499600,1.10549951171875,-0.05205000191926956,-10.063950538635254,0.2179500162601471
1757088549320052700,1.115052734375,-0.18195000290870667,-10.09005069732666,0.2950500249862671
1757088549329606000,1.12460595703125,-0.31800001859664917,-10.138050079345703,0.3349500298500061
1757088549339159000,1.134158935546875,-0.4830000102519989,-10.174050331115723,0.3379500210285187
1757088549348712200,1.143712158203125,-0.6030000448226929,-10.147950172424316,0.2989500164985657
1757088549358265600,1.153265625,-0.5890500545501709,-10.11405086517334,0.24000000953674316
1757088549367818800,1.16281884765625,-0.4330500066280365,-10.08495044708252,0.2179500162601471
1757088549377372000,1.172371826171875,-0.23205001652240753,-10.087950706481934,0.2160000056028366
1757088549386925000,1.181925048828125,-0.037950001657009125,-10.071000099182129,0.22800001502037048
1757088549396478500,1.191478515625,0.0970500037074089,-10.071000099182129,0.27300000190734863
1757088549406031400,1.20103125,0.16695000231266022,-10.057050704956055,0.3859500288963318
1757088549415584800,1.210584716796875,0.16395001113414764,-10.026000022888184,0.45795002579689026
1757088549425138000,1.220137939453125,0.14505000412464142,-10.018050193786621,0.5290500521659851
1757088549434691000,1.229691162109375,0.12405000627040863,-10.0489501953125,0.6060000061988831
1757088549444244200,1.239244140625,0.10500000417232513,-10.087950706481934,0.675000011920929
1757088549453797400,1.24879736328125,0.046950001269578934,-10.128000259399414,0.6990000605583191
1757088549463350500,1.2583505859375,-0.013950000517070293,-10.150050163269043,0.7159500122070312
1757088549472903700,1.267903564453125,-0.08400000631809235,-10.171950340270996,0.6949500441551208
1757088549482456800,1.277456787109375,-0.12195000797510147,-10.138050079345703,0.6630000472068787
1757088549492010000,1.287010009765625,-0.06705000251531601,-10.095000267028809,0.5680500268936157
1757088549501563400,1.2965634765625,0.037950001657009125,-10.059000015258789,0.45000001788139343
1757088549511116500,1.306116455078125,0.1380000114440918,-10.075950622558594,0.32100000977516174
1757088549520669700,1.315669677734375,0.20295001566410065,-10.105050086975098,0.21105000376701355
1757088549530222800,1.325222900390625,0.24795001745224,-10.105050086975098,0.10095000267028809
1757088549539776000,1.33477587890625,0.28200000524520874,-10.09695053100586,-0.05100000277161598
1757088549549329200,1.3443291015625,0.2770500183105469,-10.119000434875488,-0.19995000958442688
1757088549558882300,1.35388232421875,0.2770500183105469,-10.107000350952148,-0.3049500286579132
1757088549568435700,1.363435791015625,0.30300000309944153,-10.071000099182129,-0.41100001335144043
1757088549577988900,1.37298876953125,0.3270000219345093,-10.018050193786621,-0.5160000324249268
1757088549587541800,1.382541748046875,0.3150000274181366,-10.015950202941895,-0.5230500102043152
1757088549597095200,1.39209521484375,0.28395000100135803,-10.083000183105469,-0.527999997138977
1757088549606648300,1.4016484375,0.26295000314712524,-10.164000511169434,-0.544950008392334
1757088549616201500,1.411201416015625,0.2530499994754791,-10.191000938415527,-0.5470499992370605
1757088549625754600,1.420754638671875,0.23895001411437988,-10.180950164794922,-0.5040000081062317
1757088549635308000,1.43030810546875,0.23205001652240753,-10.156950950622559,-0.46800002455711365
1757088549644861200,1.439861083984375,0.23595000803470612,-10.150050163269043,-0.3720000088214874
1757088549654414300,1.449414306640625,0.2749500274658203,-10.12605094909668,-0.27195000648498535
1757088549663967500,1.458967529296875,0.3340500295162201,-10.075950622558594,-0.21900001168251038
1757088549673520600,1.468520751953125,0.3559500277042389,-10.09695053100586,-0.23295001685619354
1757088549683073800,1.47807373046875,0.3679500222206116,-10.167000770568848,-0.14205001294612885
1757088549692627200,1.487627197265625,0.3660000264644623,-10.192950248718262,-0.10695000737905502
1757088549702180400,1.497180419921875,0.33000001311302185,-10.21500015258789,-0.08505000174045563
1757088549711733500,1.5067333984375,0.2959500253200531,-10.20300006866455,-0.016050001606345177
1757088549721286400,1.516286376953125,0.2749500274658203,-10.171950340270996,0.07905000448226929
1757088549730839800,1.52583984375,0.29100000858306885,-10.128000259399414,0.1099500060081482
1757088549740393000,1.53539306640625,0.31095001101493835,-10.10205078125,0.14100000262260437
1757088549749946000,1.544946044921875,0.3270000219345093,-10.07295036315918,0.16095000505447388
1757088549759499300,1.554499267578125,0.3079500198364258,-10.05405044555664,0.14595000445842743
1757088549769052400,1.564052490234375,0.25995001196861267,-10.047000885009766,0.17295001447200775
1757088549778605800,1.573605712890625,0.23895001411437988,-10.06095027923584,0.18195000290870667
1757088549788158700,1.58315869140625,0.22005000710487366,-10.095000267028809,0.1969500035047531
1757088549797712100,1.592712158203125,0.21705001592636108,-10.116000175476074,0.22005000710487366
1757088549807265300,1.602265380859375,0.22005000710487366,-10.1089506149292,0.2350500077009201
1757088549816818400,1.611818359375,0.1980000138282776,-10.10205078125,0.2370000183582306
1757088549826371600,1.62137158203125,0.18105000257492065,-10.128000259399414,0.24705001711845398
1757088549835925000,1.630925048828125,0.18105000257492065,-10.12605094909668,0.27300000190734863
1757088549845478100,1.64047802734375,0.15300001204013824,-10.09695053100586,0.2440500110387802
1757088549855031300,1.65003125,0.16905000805854797,-10.06605052947998,0.22305001318454742
1757088549864584400,1.65958447265625,0.19305001199245453,-10.07805061340332,0.1969500035047531
1757088549874137600,1.6691376953125,0.26295000314712524,-10.081050872802734,0.13395000994205475
1757088549883690800,1.678690673828125,0.30300000309944153,-10.071000099182129,0.07395000010728836
1757088549893244000,1.688243896484375,0.286950021982193,-10.07805061340332,0.06195000186562538
1757088549902797300,1.69779736328125,0.24300001561641693,-10.105050086975098,0.08895000070333481
1757088549912350200,1.70735009765625,0.22005000710487366,-10.083000183105469,0.11295000463724136
1757088549921903400,1.7169033203125,0.22905001044273376,-10.059000015258789,0.1270500123500824
1757088549931456800,1.726456787109375,0.23400001227855682,-10.03695011138916,0.13905000686645508
1757088549941010000,1.736010009765625,0.23205001652240753,-10.030050277709961,0.13695000112056732
1757088549950563000,1.74556298828125,0.23595000803470612,-10.011000633239746,0.1579500138759613
1757088549960116200,1.7551162109375,0.22200001776218414,-10.03695011138916,0.1290000081062317
1757088549969669400,1.76466943359375,0.22905001044273376,-10.087950706481934,0.13395000994205475
1757088549979222500,1.774222412109375,0.21495001018047333,-10.099950790405273,0.13199999928474426
1757088549988775700,1.783775634765625,0.21000000834465027,-10.11405086517334,0.13199999928474426
1757088549998328800,1.793328857421875,0.21195000410079956,-10.111950874328613,0.13395000994205475
1757088550007882000,1.802882080078125,0.22905001044273376,-10.131000518798828,0.11805000901222229
1757088550017435400,1.812435302734375,0.21495001018047333,-10.12605094909668,0.06705000251531601
1757088550026988300,1.82198828125,0.16905000805854797,-10.123950004577637,0.05295000225305557
1757088550036541700,1.831541748046875,0.1360500007867813,-10.120950698852539,0.022050000727176666
1757088550046094800,1.8410947265625,0.10905000567436218,-10.11405086517334,-0.0010500000789761543
1757088550055648000,1.85064794921875,0.11205000430345535,-10.093050003051758,-0.05100000277161598
1757088550065201200,1.860201171875,0.12105000764131546,-10.07805061340332,-0.043950002640485764
1757088550074754300,1.86975439453125,0.13095000386238098,-10.09695053100586,-0.013050000183284283
1757088550084307500,1.879307373046875,0.15000000596046448,-10.140000343322754,0
1757088550093860600,1.888860595703125,0.1860000044107437,-10.171950340270996,0.027000000700354576
1757088550103413800,1.898413818359375,0.18105000257492065,-10.159950256347656,0.04800000041723251
1757088550112967200,1.90796728515625,0.1789500117301941,-10.120950698852539,0.07200000435113907
1757088550122520300,1.917520263671875,0.17595000565052032,-10.069050788879395,0.09795000404119492
1757088550132073200,1.9270732421875,0.21000000834465027,-10.093050003051758,0.10605000704526901
1757088550141626600,1.936626708984375,0.2460000067949295,-10.087950706481934,0.08895000070333481
1757088550151179800,1.9461796875,0.2580000162124634,-10.09695053100586,0.07695000618696213
1757088550160733000,1.95573291015625,0.23895001411437988,-10.093050003051758,0.06195000186562538
1757088550170286000,1.9652861328125,0.21000000834465027,-10.069050788879395,0.09795000404119492
1757088550179839500,1.974839599609375,0.18105000257492065,-10.030050277709961,0.1099500060081482
1757088550189392400,1.984392333984375,0.14505000412464142,-10.0420503616333,0.13199999928474426
1757088550198945500,1.993945556640625,0.1189500093460083,-10.059000015258789,0.1579500138759613
1757088550208498700,2.003498779296875,0.10905000567436218,-10.07805061340332,0.1579500138759613
1757088550218052000,2.013052001953125,0.1189500093460083,-10.071000099182129,0.14595000445842743
1757088550227605000,2.02260498046875,0.14505000412464142,-10.09695053100586,0.13199999928474426
1757088550237158400,2.032158447265625,0.16005000472068787,-10.111950874328613,0.14100000262260437
1757088550246711600,2.041711669921875,0.14805001020431519,-10.10205078125,0.11295000463724136
1757088550256264700,2.0512646484375,0.13095000386238098,-10.093050003051758,0.1080000028014183
1757088550265817900,2.06081787109375,0.1189500093460083,-10.083000183105469,0.08895000070333481
1757088550275371000,2.07037109375,0.1380000114440918,-10.081050872802734,0.08595000207424164
1757088550284924400,2.07992431640625,0.16005000472068787,-10.08495044708252,0.1080000028014183
1757088550294477300,2.089477294921875,0.15495000779628754,-10.083000183105469,0.11295000463724136
1757088550304030500,2.099030517578125,0.14505000412464142,-10.099950790405273,0.12000000476837158
1757088550313583900,2.108583984375,0.1380000114440918,-10.1089506149292,0.14100000262260437
1757088550323137000,2.118136962890625,0.11205000430345535,-10.144950866699219,0.11505000293254852
1757088550332690200,2.127690185546875,0.10500000417232513,-10.162050247192383,0.07200000435113907
1757088550342243000,2.1372431640625,0.0970500037074089,-10.138050079345703,0.024000000208616257
1757088550351796700,2.146796630859375,0.10905000567436218,-10.1089506149292,0.016950000077486038
1757088550361349600,2.156349609375,0.10695000737905502,-10.093050003051758,-0.006000000052154064
1757088550370902800,2.16590283203125,0.11400000751018524,-10.083000183105469,-0.031950000673532486
1757088550380456000,2.1754560546875,0.12105000764131546,-10.06605052947998,-0.06599999964237213
1757088550390009000,2.185009033203125,0.14505000412464142,-10.047000885009766,-0.1189500093460083
1757088550399562200,2.194562255859375,0.1860000044107437,-10.07805061340332,-0.12600000202655792
1757088550409115400,2.204115478515625,0.21000000834465027,-10.120950698852539,-0.10695000737905502
1757088550418668500,2.21366845703125,0.19995000958442688,-10.123950004577637,-0.07304999977350235
1757088550428221700,2.2232216796875,0.19305001199245453,-10.120950698852539,-0.016050001606345177
1757088550437774800,2.23277490234375,0.21495001018047333,-10.132950782775879,0.010050000622868538
1757088550447328000,2.242327880859375,0.20295001566410065,-10.12605094909668,0.027000000700354576
1757088550456881200,2.251881103515625,0.16695000231266022,-10.119000434875488,0.04605000093579292
1757088550466434600,2.2614345703125,0.14295001327991486,-10.123950004577637,0.0580500029027462
1757088550475987700,2.27098779296875,0.10200000554323196,-10.159950256347656,0.040950000286102295
1757088550485540900,2.280540771484375,0.046950001269578934,-10.132950782775879,0.06705000251531601
1757088550495094000,2.290093994140625,0.009000000543892384,-10.147950172424316,0.08400000631809235
1757088550504647200,2.299647216796875,-0.036000002175569534,-10.12605094909668,0.06705000251531601
1757088550514200300,2.309200439453125,-0.06705000251531601,-10.131000518798828,0.06495000422000885
1757088550523753500,2.31875341796875,-0.06705000251531601,-10.135950088500977,0.031050002202391624
1757088550533306600,2.328306640625,-0.09105000644922256,-10.144950866699219,0.04800000041723251
1757088550542860000,2.337860107421875,-0.11205000430345535,-10.147950172424316,0.09105000644922256
1757088550552413000,2.347412841796875,-0.14805001020431519,-10.162050247192383,0.13199999928474426
1757088550561966000,2.356966064453125,-0.18405000865459442,-10.162050247192383,0.1680000126361847
1757088550571519200,2.366519287109375,-0.1770000010728836,-10.08495044708252,0.24705001711845398
1757088550581072600,2.37607275390625,-0.13395000994205475,-10.0420503616333,0.3160500228404999
1757088550590625500,2.38562548828125,-0.06405000388622284,-10.01400089263916,0.32295000553131104
1757088550600178700,2.3951787109375,0.032999999821186066,-9.967950820922852,0.32100000977516174
1757088550609732000,2.404732177734375,0.1189500093460083,-9.975000381469727,0.2850000262260437
1757088550619285200,2.41428515625,0.20295001566410065,-9.991950035095215,0.16500000655651093
1757088550628838400,2.42383837890625,0.2530499994754791,-10.0489501953125,0.07005000114440918
1757088550638391300,2.433391357421875,0.21495001018047333,-10.018050193786621,0.039000000804662704
1757088550647945000,2.442945068359375,0.10500000417232513,-9.973050117492676,0.07695000618696213
1757088550657497900,2.452497802734375,0.021000001579523087,-9.97800064086914,0.11295000463724136
1757088550667051000,2.462051025390625,-0.04500000178813934,-9.99000072479248,0.14595000445842743
1757088550676604200,2.471604248046875,-0.10695000737905502,-10.011000633239746,0.19395001232624054
1757088550686157600,2.481157470703125,-0.1980000138282776,-10.0420503616333,0.22800001502037048
1757088550695710500,2.49071044921875,-0.2440500110387802,-10.021050453186035,0.24900001287460327
1757088550705263600,2.500263671875,-0.2440500110387802,-10.071000099182129,0.21300001442432404
1757088550714816800,2.509816650390625,-0.1980000138282776,-10.123950004577637,0.21300001442432404
1757088550724370200,2.5193701171875,-0.13095000386238098,-10.150050163269043,0.2370000183582306
1757088550733923300,2.52892333984375,-0.09795000404119492,-10.107000350952148,0.22800001502037048
1757088550743476200,2.538476318359375,-0.08100000023841858,-10.0420503616333,0.22005000710487366
1757088550753029600,2.548029541015625,-0.04500000178813934,-10.030050277709961,0.18195000290870667
1757088550762582800,2.557582763671875,-0.0019500000635161996,-10.039950370788574,0.18000000715255737
1757088550772136000,2.567135986328125,-0.019050000235438347,-10.07805061340332,0.1969500035047531
1757088550781689000,2.576689208984375,-0.10695000737905502,-10.087950706481934,0.24900001287460327
1757088550791242200,2.5862421875,-0.16695000231266022,-10.09005069732666,0.2160000056028366
1757088550800795400,2.59579541015625,-0.17205001413822174,-10.071000099182129,0.208950012922287
1757088550810348500,2.6053486328125,-0.16500000655651093,-10.039950370788574,0.19395001232624054
1757088550819901700,2.614901611328125,-0.16995000839233398,-10.01400089263916,0.22800001502037048
1757088550829454800,2.624454833984375,-0.15105000138282776,-9.999000549316406,0.24000000953674316
1757088550839008000,2.634008056640625,-0.10500000417232513,-10.035000801086426,0.21105000376701355
1757088550848561200,2.64356103515625,-0.06195000186562538,-10.087950706481934,0.22995001077651978
1757088550858114300,2.6531142578125,-0.032999999821186066,-10.11405086517334,0.24900001287460327
1757088550867667500,2.66266748046875,0.0019500000635161996,-10.147950172424316,0.27105000615119934
1757088550877220600,2.672220703125,0.034950003027915955,-10.159950256347656,0.26805001497268677
1757088550886774000,2.68177392578125,0.05700000375509262,-10.168950080871582,0.2850000262260437
1757088550896327200,2.6913271484375,0.05205000191926956,-10.174050331115723,0.29205000400543213
1757088550905880300,2.70088037109375,0.037950001657009125,-10.111950874328613,0.283050000667572
1757088550915433700,2.710433837890625,0.016050001606345177,-10.087950706481934,0.25200000405311584
1757088550924987000,2.71998681640625,0.0019500000635161996,-10.09695053100586,0.21300001442432404
1757088550934539800,2.729539794921875,-0.016050001606345177,-10.12605094909668,0.18195000290870667
1757088550944093000,2.739093017578125,-0.07200000435113907,-10.132950782775879,0.1489500105381012
1757088550953646000,2.74864599609375,-0.1579500138759613,-10.119000434875488,0.18000000715255737
1757088550963199500,2.758199462890625,-0.21000000834465027,-10.135950088500977,0.22005000710487366
1757088550972752400,2.76775244140625,-0.17205001413822174,-10.152000427246094,0.2350500077009201
1757088550982305500,2.777305419921875,-0.06195000186562538,-10.174050331115723,0.18900001049041748
1757088550991858700,2.786858642578125,0.04005000367760658,-10.152000427246094,0.15600000321865082
1757088551001412000,2.796412109375,0.07800000160932541,-10.140000343322754,0.15600000321865082
1757088551010965200,2.80596533203125,0.05895000323653221,-10.07805061340332,0.1579500138759613
1757088551020518100,2.81551806640625,0.021000001579523087,-10.033050537109375,0.19200000166893005
1757088551030071600,2.825071533203125,0.030000001192092896,-10.047000885009766,0.18495000898838043
1757088551039624700,2.834624755859375,0.05400000140070915,-10.095000267028809,0.16500000655651093
1757088551049177900,2.844177734375,0.030000001192092896,-10.128000259399414,0.18495000898838043
1757088551058730800,2.853730712890625,0.004050000105053186,-10.150050163269043,0.19395001232624054
1757088551068284200,2.8632841796875,0.030000001192092896,-10.164000511169434,0.1770000010728836
1757088551077837000,2.872837158203125,0.11205000430345535,-10.140000343322754,0.11295000463724136
1757088551087390500,2.882390380859375,0.16695000231266022,-10.143000602722168,0.06000000238418579
1757088551096943600,2.891943603515625,0.16200000047683716,-10.131000518798828,0
1757088551106496500,2.90149658203125,0.15300001204013824,-10.143000602722168,-0.05100000277161598
1757088551116050000,2.9110498046875,0.1860000044107437,-10.167000770568848,-0.05400000140070915
1757088551125603000,2.92060302734375,0.25095000863075256,-10.21500015258789,-0.06105000153183937
1757088551135156200,2.93015625,0.24795001745224,-10.248000144958496,-0.0799500048160553
1757088551144709400,2.93970947265625,0.19995000958442688,-10.243050575256348,-0.04005000367760658
1757088551154262500,2.949262451171875,0.15495000779628754,-10.212000846862793,-0.09195000678300858
1757088551163815700,2.958815673828125,0.14805001020431519,-10.123950004577637,-0.16905000805854797
1757088551173368800,2.968368896484375,0.22005000710487366,-10.045050621032715,-0.19500000774860382
1757088551182922200,2.977922119140625,0.3540000021457672,-10.006050109863281,-0.21195000410079956
1757088551192475100,2.98747509765625,0.41100001335144043,-9.994050025939941,-0.23100000619888306
1757088551202028300,2.9970283203125,0.4330500066280365,-10.00200080871582,-0.2530499994754791
1757088551211581400,3.00658154296875,0.3850500285625458,-10.039950370788574,-0.23595000803470612
1757088551221134800,3.016134765625,0.31095001101493835,-10.105050086975098,-0.1660500019788742
1757088551230687700,3.025687744140625,0.23595000803470612,-10.150050163269043,-0.10905000567436218
1757088551240241000,3.035240966796875,0.1290000081062317,-10.159950256347656,-0.04200000315904617
1757088551249794000,3.0447939453125,0.0499500036239624,-10.111950874328613,0.0580500029027462
1757088551259347500,3.054347412109375,0.010950000956654549,-10.021050453186035,0.13905000686645508
1757088551268900400,3.063900390625,-0.021000001579523087,-9.973050117492676,0.18900001049041748
1757088551278453800,3.073453857421875,-0.036000002175569534,-9.955950736999512,0.28005000948905945
1757088551288007000,3.0830068359375,-0.0690000057220459,-9.994050025939941,0.2970000207424164
1757088551297560000,3.09256005859375,-0.1360500007867813,-10.0489501953125,0.32100000977516174
1757088551307113200,3.10211328125,-0.23205001652240753,-10.071000099182129,0.3450000286102295
1757088551316666400,3.111666259765625,-0.39000001549720764,-10.03695011138916,0.3160500228404999
1757088551326219500,3.121219482421875,-0.5430000424385071,-10.10205078125,0.2560500204563141
1757088551335772700,3.130772705078125,-0.742050051689148,-10.075950622558594,0.2440500110387802
1757088551345326000,3.140326171875,-0.9790500402450562,-10.099950790405273,0.1680000126361847
1757088551354879200,3.149879150390625,-1.1680500507354736,-10.07805061340332,0.19905000925064087
1757088551364432100,3.15943212890625,-1.4119501113891602,-10.11405086517334,0.22800001502037048
1757088551373985300,3.1689853515625,-1.6210501194000244,-10.132950782775879,0.30195000767707825
1757088551383538700,3.17853857421875,-1.8000000715255737,-10.155000686645508,0.40995001792907715
1757088551393091600,3.188091552734375,-1.9459501504898071,-10.138050079345703,0.5029500126838684
1757088551402644700,3.197644775390625,-2.0710501670837402,-10.135950088500977,0.6160500049591064
1757088551412198100,3.2071982421875,-2.052000045776367,-9.999000549316406,0.7110000252723694
1757088551421751300,3.216751220703125,-1.675950050354004,-9.891000747680664,0.6709500551223755
1757088551431304200,3.22630419921875,-0.9720000624656677,-9.654000282287598,0.4140000343322754
1757088551440857300,3.235857421875,-0.9100500345230103,-9.481950759887695,0.37095001339912415
1757088551450410500,3.245410400390625,-1.2300000190734863,-9.349950790405273,0.20595000684261322
1757088551459964000,3.2549638671875,-1.3450500965118408,-9.358050346374512,-0.12300000339746475
1757088551469517000,3.26451708984375,-0.984000027179718,-9.50100040435791,-0.42000001668930054
1757088551479070000,3.274070068359375,-0.5940000414848328,-9.396000862121582,-0.6310500502586365
1757088551488623000,3.283623046875,-0.3949500322341919,-10.216950416564941,-0.40605002641677856
1757088551498176300,3.29317626953125,-0.14595000445842743,-11.199000358581543,0.12495000660419464
1757088551507729400,3.3027294921875,-0.08100000023841858,-10.22700023651123,0.5959500074386597
1757088551517282600,3.312282470703125,-0.5650500059127808,-9.268950462341309,0.43800002336502075
1757088551526835700,3.321835693359375,-1.0440000295639038,-9.037050247192383,0.38805001974105835
1757088551536388900,3.331388916015625,-1.434000015258789,-8.995950698852539,0.42900002002716064
1757088551545942000,3.34094189453125,-1.9180500507354736,-9.120000839233398,0.31905001401901245
1757088551555495400,3.350495361328125,-2.4160501956939697,-9.298050880432129,0.1489500105381012
1757088551565048300,3.36004833984375,-2.3770501613616943,-9.349950790405273,0.06000000238418579
1757088551574601500,3.3696015625,-1.8340500593185425,-9.360000610351562,-0.010950000956654549
1757088551584154600,3.379154541015625,-1.8240001201629639,-9.417000770568848,0.208950012922287
1757088551593707800,3.388707763671875,-1.9920001029968262,-9.421950340270996,0.41895002126693726
1757088551603261000,3.398260986328125,-2.193000078201294,-9.405000686645508,0.7159500122070312
1757088551612814000,3.40781396484375,-2.143050193786621,-9.312000274658203,0.7020000219345093
1757088551622367200,3.4173671875,-1.9410001039505005,-9.019950866699219,0.5149500370025635
1757088551631920400,3.42692041015625,-2.4469501972198486,-8.995950698852539,0.32295000553131104
1757088551641473500,3.4364736328125,-2.344050168991089,-9.010050773620605,0.3139500021934509
1757088551651026700,3.446026611328125,-2.182950019836426,-9.175950050354004,1.0900501012802124
1757088551660580000,3.455580078125,-2.722050189971924,-9.325950622558594,1.852950096130371
1757088551670133000,3.465133056640625,-3.268050193786621,-9.484050750732422,2.6389501094818115
1757088551679686100,3.47468603515625,-3.4740002155303955,-9.754950523376465,3.0430500507354736
1757088551689239300,3.4842392578125,-3.574050188064575,-9.822000503540039,2.9880001544952393
1757088551698792400,3.49379248046875,-4.123050212860107,-9.553950309753418,2.2080001831054688
1757088551708345600,3.503345703125,-4.087049961090088,-9.48900032043457,1.771950125694275
1757088551717898800,3.512898681640625,-3.6250500679016113,-9.304950714111328,1.7770501375198364
1757088551727452000,3.522451904296875,-3.6730501651763916,-9.15195083618164,1.7740501165390015
1757088551737005000,3.532005126953125,-3.807000160217285,-9.001049995422363,1.8130500316619873
1757088551746558200,3.54155810546875,-4.003050327301025,-8.740050315856934,1.8850500583648682
1757088551756111400,3.551111328125,-4.374000072479248,-8.304000854492188,1.771950125694275
1757088551765664500,3.56066455078125,-4.651950359344482,-7.9830002784729,1.446000099182129
1757088551775218000,3.570218017578125,-4.6780500411987305,-7.9860005378723145,0.8929500579833984
1757088551784770800,3.579770751953125,-4.565999984741211,-7.725000381469727,0.5989500284194946
1757088551794324000,3.589323974609375,-5.0970001220703125,-7.42995023727417,0.20400001108646393
1757088551803876900,3.598876953125,-6.061950206756592,-7.207050323486328,0.2989500164985657
1757088551813430300,3.60843017578125,-6.2659502029418945,-7.365000247955322,0.9820500612258911
1757088551822983400,3.6179833984375,-6.178950309753418,-7.705050468444824,1.8820500373840332
1757088551832536600,3.62753662109375,-6.213000297546387,-7.963950157165527,2.325000047683716
1757088551842089700,3.63708984375,-6.130950450897217,-7.786950588226318,2.2390501499176025
1757088551851643000,3.646642822265625,-5.923050403594971,-7.7560505867004395,2.1310501098632812
1757088551861196000,3.656196044921875,-6.043050289154053,-7.471050262451172,1.675950050354004
1757088551870749200,3.665749267578125,-6.193950176239014,-7.365000247955322,1.2619500160217285
1757088551880302300,3.67530224609375,-6.333000183105469,-7.116000175476074,0.7810500264167786
1757088551889855500,3.68485546875,-6.673050403594971,-6.889050483703613,0.42900002002716064
1757088551899408600,3.69440869140625,-7.087050437927246,-6.657000541687012,0.24000000953674316
1757088551908961800,3.7039619140625,-7.128000259399414,-6.5970001220703125,0.2440500110387802
1757088551918515000,3.713514892578125,-7.044000148773193,-6.586950302124023,0.4240500330924988
1757088551928068000,3.723068115234375,-6.988950252532959,-6.657000541687012,0.7230000495910645
1757088551937621200,3.732621337890625,-7.0249505043029785,-6.742950439453125,1.0489500761032104
1757088551947174400,3.74217431640625,-7.174950122833252,-6.700050354003906,1.1490000486373901
1757088551956727300,3.751727294921875,-7.216050148010254,-6.76200008392334,1.4220000505447388
1757088551966280700,3.76128076171875,-7.225950241088867,-6.742950439453125,1.7839500904083252
1757088551975833900,3.770833740234375,-7.1419501304626465,-6.721050262451172,1.9320000410079956
1757088551985387000,3.780386962890625,-7.185000419616699,-6.561000347137451,1.8409501314163208
1757088551994940200,3.789940185546875,-7.273950576782227,-6.043950080871582,1.4820001125335693
1757088552004493300,3.799493408203125,-7.336050510406494,-5.397000312805176,1.2790501117706299
1757088552014046500,3.80904638671875,-7.377000331878662,-4.890000343322754,1.276050090789795
1757088552023599600,3.818599609375,-7.609050273895264,-4.537950038909912,1.141950011253357
1757088552033152800,3.82815283203125,-7.966050148010254,-4.207050323486328,1.0939500331878662
1757088552042706000,3.837705810546875,-8.1670503616333,-4.282050132751465,1.2570000886917114
1757088552052259000,3.847259033203125,-8.124000549316406,-4.540050029754639,1.4269500970840454
1757088552061812000,3.85681201171875,-7.981950283050537,-4.863000392913818,1.8870000839233398
1757088552071365400,3.866365478515625,-7.915050506591797,-4.792050361633301,2.11395001411438
1757088552080918500,3.87591845703125,-7.815000534057617,-4.569000244140625,1.8079501390457153
1757088552090471700,3.8854716796875,-8.00100040435791,-4.291050434112549,1.5180001258850098
1757088552100024800,3.89502490234375,-8.503950119018555,-4.116000175476074,1.5540000200271606
1757088552109578000,3.904577880859375,-8.755949974060059,-4.063950061798096,1.432050108909607
1757088552119131100,3.914131103515625,-8.686050415039062,-4.018050193786621,1.5109500885009766
1757088552128684300,3.923684326171875,-8.629050254821777,-4.066050052642822,1.5040500164031982
1757088552138237200,3.9332373046875,-8.72700023651123,-4.069050312042236,1.4179500341415405
1757088552147790300,3.942790283203125,-8.653050422668457,-3.951000213623047,1.3459500074386597
1757088552157343700,3.95234375,-8.716950416564941,-3.949050188064575,1.3459500074386597
1757088552166896600,3.961896728515625,-8.61405086517334,-3.841050148010254,1.4440500736236572
1757088552176449800,3.97144970703125,-8.883000373840332,-4.114050388336182,1.1779500246047974
1757088552186003000,3.9810029296875,-8.995050430297852,-4.260000228881836,1.1730000972747803
1757088552195556400,3.990556396484375,-9.139050483703613,-4.381950378417969,1.6120500564575195
1757088552205109200,4.000109130859375,-9.00195026397705,-4.368000030517578,1.5370501279830933
1757088552214662400,4.009662353515625,-9.02400016784668,-4.219050407409668,1.4629501104354858
1757088552224215600,4.019215576171875,-9.481050491333008,-4.320000171661377,1.39395010471344
1757088552233768700,4.028768798828125,-9.382950782775879,-4.312950134277344,1.2000000476837158
1757088552243321900,4.03832177734375,-10.242000579833984,-4.341000080108643,1.114050030708313
1757088552252875000,4.047875,-10.543950080871582,-4.31505012512207,0.999000072479248
1757088552262428200,4.05742822265625,-10.3410005569458,-4.2270002365112305,1.0849500894546509
1757088552271981300,4.066981201171875,-10.14900016784668,-3.7380001544952393,1.1929500102996826
1757088552281534500,4.076534423828125,-10.305000305175781,-3.730950117111206,1.7670000791549683
1757088552291087600,4.086087646484375,-10.21095085144043,-3.693000078201294,2.1889500617980957
1757088552300640800,4.095640869140625,-10.093950271606445,-3.6660001277923584,2.5450501441955566
1757088552310193700,4.105193603515625,-9.931050300598145,-3.232950210571289,2.992950201034546
1757088552319747000,4.1147470703125,-9.400050163269043,-2.7799501419067383,3.082050085067749
1757088552329300000,4.124300048828125,-8.818050384521484,-2.448000192642212,3.1369502544403076
1757088552338853000,4.13385302734375,-8.808000564575195,-2.3329501152038574,2.920950174331665
1757088552348406300,4.14340625,-8.758049964904785,-2.215050220489502,2.3989500999450684
1757088552357959700,4.152959716796875,-8.679000854492188,-2.2699501514434814,1.908000111579895
1757088552367512600,4.1625126953125,-9.11205005645752,-1.9900500774383545,2.056950092315674
1757088552377065700,4.172065673828125,-9.27495002746582,-2.1289501190185547,1.8870000839233398
1757088552386619000,4.181618896484375,-9.784950256347656,-2.127000093460083,2.0779500007629395
1757088552396172300,4.19117236328125,-9.892950057983398,-2.158050060272217,2.3830502033233643
1757088552405725200,4.20072509765625,-9.964950561523438,-2.1030001640319824,2.2080001831054688
1757088552415278300,4.2102783203125,-10.044000625610352,-1.9060500860214233,2.2099502086639404
1757088552424831700,4.219831787109375,-10.027050018310547,-1.5780000686645508,2.442000150680542
1757088552434384600,4.229384521484375,-9.733050346374512,-1.2619500160217285,2.674950122833252
1757088552443937800,4.238937744140625,-10.03695011138916,-1.1160000562667847,2.8660502433776855
1757088552453491000,4.248490966796875,-10.362000465393066,-1.3579500913619995,3.06000018119812
1757088552463044000,4.258044189453125,-10.534950256347656,-1.3609501123428345,3.0840001106262207
1757088552472597200,4.26759716796875,-10.50105094909668,-1.1500500440597534,3.5340001583099365
1757088552482150400,4.277150390625,-10.43595027923584,-0.8869500160217285,3.7639501094818115
1757088552491703600,4.28670361328125,-10.357050895690918,-0.7909500598907471,3.5340001583099365
1757088552501256700,4.296256591796875,-10.261950492858887,-0.7090500593185425,3.192000150680542
1757088552510809900,4.305809814453125,-10.213950157165527,-0.6109500527381897,3.0550501346588135
1757088552520363000,4.315363037109375,-10.116000175476074,-0.4630500078201294,3.3229501247406006
1757088552529916000,4.324916015625,-9.804000854492188,-0.4600500166416168,3.472050189971924
1757088552539469300,4.33446923828125,-9.697050094604492,-0.6469500064849854,3.5530502796173096
1757088552549022500,4.3440224609375,-9.63705062866211,-0.8790000677108765,3.1650002002716064
1757088552558575400,4.353575439453125,-9.555000305175781,-1.0849500894546509,3.01200008392334
1757088552568128800,4.363128662109375,-9.558000564575195,-1.0800000429153442,3.082050085067749
1757088552577682000,4.372681884765625,-9.664950370788574,-0.8749500513076782,3.2089500427246094
1757088552587234800,4.38223486328125,-9.723000526428223,-0.6829500198364258,3.438000202178955
1757088552596788000,4.3917880859375,-9.685050010681152,-0.5419500470161438,3.5650501251220703
1757088552606341000,4.401341064453125,-9.510000228881836,-0.47895002365112305,3.6250500679016113
1757088552615894500,4.41089453125,-9.378000259399414,-0.45600003004074097,3.6319501399993896
1757088552625447700,4.42044775390625,-9.385050773620605,-0.43605002760887146,3.5839502811431885
1757088552635000600,4.43000048828125,-9.483000755310059,-0.41505002975463867,3.4740002155303955
1757088552644553700,4.4395537109375,-9.534000396728516,-0.40005001425743103,3.388050079345703
1757088552654107000,4.44910693359375,-9.462000846862793,-0.3570000231266022,3.2779500484466553
1757088552663660000,4.458659912109375,-9.376049995422363,-0.30705001950263977,3.249000072479248
1757088552673213200,4.468213134765625,-9.321000099182129,-0.29805001616477966,3.2470500469207764
1757088552682766300,4.477766357421875,-9.289950370788574,-0.2740500271320343,3.201000213623047
1757088552692319500,4.487319580078125,-9.175050735473633,-0.3139500021934509,3.121950149536133
1757088552701872600,4.49687255859375,-9.144000053405762,-0.4240500330924988,3.003000259399414
1757088552711425800,4.50642578125,-9.213000297546387,-0.45795002579689026,2.992950201034546
1757088552720979000,4.51597900390625,-9.373050689697266,-0.47505003213882446,3.120000123977661
1757088552730532000,4.525531982421875,-9.376049995422363,-0.6139500141143799,3.261000156402588
1757088552740085000,4.5350849609375,-9.357000350952148,-0.7600500583648682,3.373950242996216
1757088552749638400,4.544638427734375,-9.361050605773926,-0.7450500130653381,3.261000156402588
1757088552759191600,4.554191650390625,-9.462000846862793,-0.6760500073432922,3.0550501346588135
1757088552768744700,4.56374462890625,-9.390000343322754,-0.6660000085830688,2.7270002365112305
1757088552778297600,4.573297607421875,-9.403950691223145,-0.7690500617027283,2.3899500370025635
1757088552787850800,4.582850830078125,-9.457050323486328,-0.9270000457763672,2.116950035095215
1757088552797404000,4.59240380859375,-9.534000396728516,-1.1239500045776367,2.01104998588562
1757088552806957000,4.60195703125,-9.61305046081543,-1.210050106048584,2.0500500202178955
1757088552816510500,4.611510498046875,-9.682050704956055,-1.207050085067749,2.086050033569336
1757088552826063400,4.6210634765625,-9.61305046081543,-1.1860500574111938,2.116950035095215
1757088552835616500,4.630616455078125,-9.52695083618164,-1.1359500885009766,2.1720001697540283
1757088552845170000,4.640169921875,-9.427950859069824,-1.0330500602722168,2.2960500717163086
1757088552854722800,4.649722900390625,-9.270000457763672,-0.7480500340461731,2.3779501914978027
1757088552864275700,4.659275634765625,-9.151050567626953,-0.6660000085830688,2.3080501556396484
1757088552873829000,4.6688291015625,-9.0600004196167,-0.6540000438690186,2.3560500144958496
1757088552883382000,4.678382080078125,-9.028950691223145,-0.6850500106811523,2.4400501251220703
1757088552892935400,4.687935302734375,-9.079050064086914,-0.7309500575065613,2.512050151824951
1757088552902488300,4.69748828125,-9.175050735473633,-0.673050045967102,2.5600500106811523
1757088552912041500,4.70704150390625,-9.265950202941895,-0.6640500426292419,2.5639500617980957
1757088552921594600,4.7165947265625,-9.337050437927246,-0.6469500064849854,2.562000036239624
1757088552931147800,4.726147705078125,-9.393000602722168,-0.7020000219345093,2.4780001640319824
1757088552940701000,4.735700927734375,-9.427950859069824,-0.775950014591217,2.4019501209259033
1757088552950254000,4.745254150390625,-9.478950500488281,-0.7810500264167786,2.3299500942230225
1757088552959807200,4.75480712890625,-9.517050743103027,-0.7549500465393066,2.265000104904175
1757088552969360400,4.7643603515625,-9.53895092010498,-0.8340000510215759,2.2480502128601074
1757088552978913500,4.77391357421875,-9.517050743103027,-0.8290500640869141,2.3269500732421875
1757088552988466700,4.783466796875,-9.499950408935547,-0.8770500421524048,2.3800501823425293
1757088552998019600,4.79301953125,-9.490950584411621,-0.9130500555038452,2.5290000438690186
1757088553007573000,4.802572998046875,-9.466950416564941,-0.9220500588417053,2.632050037384033
1757088553017126100,4.812126220703125,-9.436050415039062,-0.9940500259399414,2.653050184249878
1757088553026679300,4.82167919921875,-9.439949989318848,-1.0489500761032104,2.701050043106079
1757088553036232400,4.831232421875,-9.397050857543945,-1.057050108909607,2.8279502391815186
1757088553045785600,4.84078564453125,-9.433050155639648,-0.987000048160553,2.8660502433776855
1757088553055338500,4.85033837890625,-9.472050666809082,-0.9679500460624695,2.908950090408325
1757088553064891600,4.8598916015625,-9.498000144958496,-0.9750000238418579,3.0240001678466797
1757088553074444800,4.86944482421875,-9.486000061035156,-1.0519500970840454,3.0840001106262207
1757088553083998000,4.878998046875,-9.466950416564941,-1.0609500408172607,3.1579501628875732
1757088553093551000,4.888551025390625,-9.430950164794922,-1.13100004196167,3.1249501705169678
1757088553103104300,4.898104248046875,-9.349050521850586,-1.1740500926971436,3.1180500984191895
1757088553112657200,4.9076572265625,-9.32295036315918,-1.059000015258789,3.0739500522613525
1757088553122210300,4.917210205078125,-9.32295036315918,-1.0249500274658203,3.0840001106262207
1757088553131763500,4.926763427734375,-9.325050354003906,-0.9610500335693359,3.0840001106262207
1757088553141316600,4.936316650390625,-9.321000099182129,-1.0609500408172607,3.0769500732421875
1757088553150869800,4.945869873046875,-9.378000259399414,-0.9970500469207764,3.0240001678466797
1757088553160423000,4.9554228515625,-9.342000007629395,-0.9439500570297241,2.9569501876831055
1757088553169976000,4.96497607421875,-9.349050521850586,-0.8890500664710999,2.8999500274658203
1757088553179529200,4.974529296875,-9.349050521850586,-0.859950065612793,2.7900002002716064
1757088553189082400,4.984082275390625,-9.366000175476074,-0.9079500436782837,2.682000160217285
1757088553198635500,4.993635498046875,-9.370950698852539,-0.89805006980896,2.602950096130371
1757088553208188700,5.003188720703125,-9.409049987792969,-0.831000030040741,2.5600500106811523
1757088553217741600,5.012741455078125,-9.403950691223145,-0.8239500522613525,2.514000177383423
1757088553227294700,5.022294677734375,-9.424050331115723,-0.8220000267028809,2.4810001850128174
1757088553236847900,5.031847900390625,-9.424050331115723,-0.8820000290870667,2.4570000171661377
1757088553246401300,5.0414013671875,-9.445050239562988,-0.906000018119812,2.4850502014160156
1757088553255954200,5.0509541015625,-9.439949989318848,-0.8269500136375427,2.454000234603882
1757088553265507300,5.06050732421875,-9.442950248718262,-0.8389500379562378,2.4660000801086426
1757088553275060500,5.070060546875,-9.421050071716309,-0.8700000643730164,2.45205020904541
1757088553284613600,5.079613525390625,-9.450000762939453,-0.8910000324249268,2.4210000038146973
1757088553294166800,5.089166748046875,-9.454950332641602,-0.8839500546455383,2.4690001010894775
1757088553303719700,5.0987197265625,-9.451950073242188,-0.9370500445365906,2.473950147628784
1757088553313273000,5.108273193359375,-9.438000679016113,-0.8910000324249268,2.4850502014160156
1757088553322826200,5.117826171875,-9.421050071716309,-0.8749500513076782,2.4780001640319824
1757088553332379100,5.127379150390625,-9.433050155639648,-0.906000018119812,2.4570000171661377
1757088553341932300,5.136932373046875,-9.473999977111816,-0.9250500202178955,2.4210000038146973
1757088553351485400,5.1464853515625,-9.511950492858887,-0.9490500688552856,2.3940000534057617
1757088553361038600,5.15603857421875,-9.499950408935547,-0.9460500478744507,2.4060001373291016
1757088553370591700,5.165591796875,-9.493050575256348,-0.9660000205039978,2.422950029373169
1757088553380145000,5.175144775390625,-9.475950241088867,-0.9510000348091125,2.425950050354004
1757088553389698000,5.184697998046875,-9.472050666809082,-0.8869500160217285,2.4499502182006836
1757088553399251200,5.194251220703125,-9.463950157165527,-0.8460000157356262,2.464050054550171
1757088553408804400,5.203804443359375,-9.483000755310059,-0.8550000190734863,2.4660000801086426
1757088553418357200,5.213357177734375,-9.502950668334961,-0.9340500235557556,2.5789501667022705
1757088553427910400,5.222910400390625,-9.402000427246094,-0.8790000677108765,2.599950075149536
1757088553437463800,5.2324638671875,-9.345000267028809,-0.8100000619888306,2.622000217437744
1757088553447016700,5.2420166015625,-9.385050773620605,-0.8269500136375427,2.6650500297546387
1757088553456569900,5.25156982421875,-9.400050163269043,-0.7810500264167786,2.713050127029419
1757088553466123000,5.261123046875,-9.475950241088867,-0.8190000653266907,3.199050188064575
1757088553475676200,5.27067626953125,-9.213000297546387,-0.8239500522613525,2.7180001735687256
1757088553485229300,5.280229248046875,-9.381000518798828,-0.8410500288009644,2.8090500831604004
1757088553494782500,5.289782470703125,-9.378000259399414,-0.8220000267028809,2.8969502449035645
1757088553504335400,5.29933544921875,-9.403950691223145,-0.8100000619888306,2.851950168609619
1757088553513888500,5.308888427734375,-9.36405086517334,-0.8080500364303589,2.8950002193450928
1757088553523442000,5.31844189453125,-9.321000099182129,-0.7909500598907471,2.9239501953125
1757088553532994800,5.327994873046875,-9.427950859069824,-0.8550000190734863,2.791950225830078
1757088553542548000,5.3375478515625,-9.366000175476074,-0.8359500169754028,2.8399500846862793
1757088553552101000,5.34710107421875,-9.369000434875488,-0.817050039768219,2.8540501594543457
1757088553561654500,5.356654541015625,-9.388050079345703,-0.8050500154495239,2.791950225830078
1757088553571207400,5.36620751953125,-9.369000434875488,-0.8389500379562378,2.860950231552124
1757088553580760300,5.37576025390625,-9.390000343322754,-0.843000054359436,2.8249502182006836
1757088553590313500,5.3853134765625,-9.373050689697266,-0.8650500178337097,2.8950002193450928
1757088553599866600,5.39486669921875,-9.378000259399414,-0.859950065612793,2.8759500980377197
1757088553609419800,5.404419677734375,-9.361050605773926,-0.8460000157356262,2.851950168609619
1757088553618973000,5.413972900390625,-9.376049995422363,-0.8290500640869141,2.7679500579833984
1757088553628526000,5.423526123046875,-9.370950698852539,-0.8550000190734863,2.803950071334839
1757088553638079000,5.433078857421875,-9.402000427246094,-0.8670000433921814,2.7660000324249268
1757088553647632100,5.442632080078125,-9.418950080871582,-0.8410500288009644,2.731950044631958
1757088553657185300,5.452185302734375,-9.436050415039062,-0.8700000643730164,2.7750000953674316
1757088553666738400,5.461738525390625,-9.438000679016113,-0.8890500664710999,2.731950044631958
1757088553676291600,5.47129150390625,-9.445050239562988,-0.8890500664710999,2.7300000190734863
1757088553685844700,5.4808447265625,-9.418950080871582,-0.8820000290870667,2.683950185775757
1757088553695398000,5.49039794921875,-9.415950775146484,-0.8820000290870667,2.6550002098083496
1757088553704951000,5.499950927734375,-9.412050247192383,-0.8770500421524048,2.641050100326538
1757088553714504000,5.50950390625,-9.402000427246094,-0.8650500178337097,2.632050037384033
1757088553724057300,5.519057373046875,-9.403950691223145,-0.8719500303268433,2.6479501724243164
1757088553733610500,5.528610595703125,-9.412050247192383,-0.8820000290870667,2.6770501136779785
1757088553743163400,5.538163330078125,-9.409049987792969,-0.8719500303268433,2.6959500312805176
1757088553752716500,5.547716552734375,-9.400050163269043,-0.8700000643730164,2.7079501152038574
1757088553762269700,5.557269775390625,-9.402000427246094,-0.8749500513076782,2.703000068664551
1757088553771822800,5.56682275390625,-9.393000602722168,-0.8770500421524048,2.683950185775757
1757088553781376000,5.5763759765625,-9.394950866699219,-0.8650500178337097,2.6770501136779785
1757088553790929000,5.585928955078125,-9.409049987792969,-0.8629500269889832,2.659950017929077
1757088553800482000,5.59548193359375,-9.415950775146484,-0.8670000433921814,2.659950017929077
1757088553810035200,5.60503515625,-9.397050857543945,-0.8580000400543213,2.6770501136779785
1757088553819588400,5.61458837890625,-9.409049987792969,-0.8650500178337097,2.653050184249878
1757088553829141500,5.6241416015625,-9.409049987792969,-0.8359500169754028,2.6550002098083496
1757088553838694700,5.633694580078125,-9.403950691223145,-0.8479500412940979,2.659950017929077
1757088553848247800,5.643247802734375,-9.400050163269043,-0.8359500169754028,2.6550002098083496
1757088553857801000,5.652801025390625,-9.409049987792969,-0.8269500136375427,2.6650500297546387
1757088553867354000,5.66235400390625,-9.400050163269043,-0.859950065612793,2.7150001525878906
1757088553876907000,5.671906982421875,-9.412050247192383,-0.843000054359436,2.7199501991271973
1757088553886460200,5.681460205078125,-9.415950775146484,-0.8410500288009644,2.725050210952759
1757088553896013300,5.691013427734375,-9.414000511169434,-0.8389500379562378,2.671950101852417
1757088553905566700,5.700566650390625,-9.381000518798828,-0.8770500421524048,2.7679500579833984
1757088553915119600,5.71011962890625,-9.385050773620605,-0.9010500311851501,2.7340500354766846
1757088553924672500,5.719672607421875,-9.381000518798828,-0.8719500303268433,2.743950128555298
1757088553934225700,5.7292255859375,-9.370950698852539,-0.8550000190734863,2.7340500354766846
1757088553943778800,5.73877880859375,-9.3589506149292,-0.9010500311851501,2.7580502033233643
1757088553953332000,5.74833203125,-9.370950698852539,-0.8940000534057617,2.7559502124786377
1757088553962885000,5.757885009765625,-9.378000259399414,-0.8959500193595886,2.7300000190734863
1757088553972438300,5.767438232421875,-9.370950698852539,-0.8910000324249268,2.731950044631958
1757088553981991400,5.776991455078125,-9.376049995422363,-0.8700000643730164,2.7460501194000244
1757088553991544600,5.786544677734375,-9.382950782775879,-0.8910000324249268,2.761050224304199
1757088554001097700,5.79609765625,-9.402000427246094,-0.8650500178337097,2.7460501194000244
1757088554010651000,5.80565087890625,-9.382950782775879,-0.8820000290870667,2.7799501419067383
1757088554020204000,5.8152041015625,-9.394950866699219,-0.9010500311851501,2.77305006980896
1757088554029757000,5.8247568359375,-9.382950782775879,-0.8790000677108765,2.761050224304199
1757088554039310000,5.83431005859375,-9.388050079345703,-0.8670000433921814,2.761050224304199
1757088554048863200,5.84386328125,-9.388050079345703,-0.8700000643730164,2.7370500564575195
1757088554058416400,5.85341650390625,-9.388050079345703,-0.8719500303268433,2.731950044631958
1757088554067969500,5.862969482421875,-9.373050689697266,-0.8839500546455383,2.7199501991271973
1757088554077522400,5.8725224609375,-9.378000259399414,-0.8869500160217285,2.731950044631958
1757088554087075600,5.88207568359375,-9.385050773620605,-0.8820000290870667,2.725050210952759
1757088554096629000,5.89162890625,-9.385050773620605,-0.8749500513076782,2.7109501361846924
1757088554106182100,5.90118212890625,-9.382950782775879,-0.8940000534057617,2.7559502124786377
1757088554115735000,5.910735107421875,-9.393000602722168,-0.9130500555038452,2.739000082015991
1757088554125288000,5.920287841796875,-9.409049987792969,-0.8910000324249268,2.7460501194000244
1757088554134841300,5.92984130859375,-9.390000343322754,-0.8940000534057617,2.7300000190734863
1757088554144394500,5.93939453125,-9.390000343322754,-0.8869500160217285,2.713050127029419
1757088554153947400,5.948947509765625,-9.394950866699219,-0.8670000433921814,2.725050210952759
1757088554163500500,5.95850048828125,-9.390000343322754,-0.8910000324249268,2.7270002365112305
1757088554173053700,5.9680537109375,-9.393000602722168,-0.8940000534057617,2.7150001525878906
1757088554182606800,5.97760693359375,-9.402000427246094,-0.8869500160217285,2.7229502201080322
1757088554192160000,5.987159912109375,-9.394950866699219,-0.8820000290870667,2.7079501152038574
1757088554201713000,5.996712890625,-9.390000343322754,-0.8839500546455383,2.703000068664551
1757088554211266000,6.00626611328125,-9.403950691223145,-0.8890500664710999,2.7079501152038574
1757088554220819200,6.015819091796875,-9.394950866699219,-0.906000018119812,2.7150001525878906
1757088554230372400,6.025372314453125,-9.403950691223145,-0.8940000534057617,2.7180001735687256
1757088554239925500,6.034925537109375,-9.394950866699219,-0.8770500421524048,2.7270002365112305
1757088554249478400,6.044478515625,-9.388050079345703,-0.8820000290870667,2.713050127029419
1757088554259031600,6.054031494140625,-9.388050079345703,-0.8839500546455383,2.7109501361846924
1757088554268584700,6.063584716796875,-9.390000343322754,-0.8940000534057617,2.7199501991271973
1757088554278137900,6.073137939453125,-9.378000259399414,-0.8700000643730164,2.713050127029419
1757088554287691000,6.08269091796875,-9.390000343322754,-0.8790000677108765,2.7300000190734863
1757088554297244200,6.092244140625,-9.400050163269043,-0.8890500664710999,2.7300000190734863
1757088554306797300,6.10179736328125,-9.409049987792969,-0.859950065612793,2.725050210952759
1757088554316350500,6.1113505859375,-9.400050163269043,-0.8770500421524048,2.739000082015991
1757088554325903400,6.1209033203125,-9.406949996948242,-0.8749500513076782,2.7300000190734863
1757088554335456800,6.130456787109375,-9.397050857543945,-0.8869500160217285,2.713050127029419
1757088554345010000,6.140010009765625,-9.388050079345703,-0.8940000534057617,2.7109501361846924
1757088554354562800,6.149562744140625,-9.382950782775879,-0.8749500513076782,2.713050127029419
1757088554364116000,6.159115966796875,-9.385050773620605,-0.8700000643730164,2.7180001735687256
1757088554373668900,6.1686689453125,-9.388050079345703,-0.8869500160217285,2.7150001525878906
1757088554383222000,6.178221923828125,-9.390000343322754,-0.8790000677108765,2.7079501152038574
1757088554392775200,6.187775146484375,-9.402000427246094,-0.8700000643730164,2.7060000896453857
1757088554402328300,6.197328369140625,-9.400050163269043,-0.8749500513076782,2.7150001525878906
1757088554411881200,6.206881103515625,-9.394950866699219,-0.8839500546455383,2.731950044631958
1757088554421434600,6.2164345703125,-9.409049987792969,-0.8770500421524048,2.7150001525878906
1757088554430987800,6.22598779296875,-9.403950691223145,-0.8890500664710999,2.7199501991271973
1757088554440540700,6.235540771484375,-9.402000427246094,-0.8959500193595886,2.7270002365112305
1757088554450093800,6.24509375,-9.403950691223145,-0.9010500311851501,2.7199501991271973
1757088554459646700,6.254646728515625,-9.390000343322754,-0.8790000677108765,2.725050210952759
1757088554469200100,6.2642001953125,-9.373050689697266,-0.906000018119812,2.754000186920166
1757088554478753300,6.273753173828125,-9.369000434875488,-0.8890500664710999,2.7300000190734863
1757088554488306200,6.28330615234375,-9.366000175476074,-0.8700000643730164,2.7270002365112305
1757088554497859300,6.292859375,-9.385050773620605,-0.8869500160217285,2.7229502201080322
1757088554507412500,6.30241259765625,-9.402000427246094,-0.8820000290870667,2.7340500354766846
1757088554516965600,6.311965576171875,-9.426000595092773,-0.89805006980896,2.7340500354766846
1757088554526518800,6.321518798828125,-9.409049987792969,-0.8940000534057617,2.761050224304199
1757088554536071700,6.33107177734375,-9.397050857543945,-0.8869500160217285,2.763000249862671
1757088554545624800,6.340624755859375,-9.378000259399414,-0.8820000290870667,2.7660000324249268
1757088554555178000,6.350177978515625,-9.376049995422363,-0.8890500664710999,2.7460501194000244
1757088554564731100,6.359731201171875,-9.369000434875488,-0.8890500664710999,2.7199501991271973
1757088554574284300,6.3692841796875,-9.376049995422363,-0.8839500546455383,2.69100022315979
1757088554583837200,6.378837158203125,-9.382950782775879,-0.8820000290870667,2.682000160217285
1757088554593390600,6.388390625,-9.406949996948242,-0.8910000324249268,2.683950185775757
1757088554602943700,6.39794384765625,-9.412050247192383,-0.8820000290870667,2.7180001735687256
1757088554612496600,6.40749658203125,-9.418950080871582,-0.8719500303268433,2.7370500564575195
1757088554622049800,6.4170498046875,-9.415950775146484,-0.8749500513076782,2.7460501194000244
1757088554631603000,6.42660302734375,-9.412050247192383,-0.8790000677108765,2.743950128555298
1757088554641156000,6.436156005859375,-9.390000343322754,-0.8790000677108765,2.7300000190734863
1757088554650709200,6.445709228515625,-9.382950782775879,-0.9010500311851501,2.713050127029419
1757088554660262100,6.45526220703125,-9.382950782775879,-0.8890500664710999,2.7180001735687256
1757088554669815300,6.464815185546875,-9.378000259399414,-0.8890500664710999,2.701050043106079
1757088554679368400,6.474368408203125,-9.376049995422363,-0.8940000534057617,2.713050127029419
1757088554688921600,6.483921630859375,-9.390000343322754,-0.8940000534057617,2.7060000896453857
1757088554698474800,6.493474853515625,-9.406949996948242,-0.9010500311851501,2.703000068664551
1757088554708027600,6.503027587890625,-9.414000511169434,-0.8910000324249268,2.7079501152038574
1757088554717580800,6.512580810546875,-9.406949996948242,-0.8959500193595886,2.7150001525878906
1757088554727134000,6.522134033203125,-9.400050163269043,-0.8940000534057617,2.7229502201080322
1757088554736687000,6.53168701171875,-9.388050079345703,-0.9030000567436218,2.7229502201080322
1757088554746240000,6.541239990234375,-9.388050079345703,-0.8770500421524048,2.7229502201080322
1757088554755793200,6.550793212890625,-9.388050079345703,-0.8790000677108765,2.7060000896453857
1757088554765346300,6.56034619140625,-9.378000259399414,-0.8790000677108765,2.7199501991271973
1757088554774899700,6.569899658203125,-9.393000602722168,-0.8910000324249268,2.7079501152038574
1757088554784452600,6.57945263671875,-9.394950866699219,-0.8910000324249268,2.7270002365112305
1757088554794005500,6.589005615234375,-9.403950691223145,-0.8890500664710999,2.7340500354766846
1757088554803558700,6.59855859375,-9.403950691223145,-0.8940000534057617,2.7199501991271973
1757088554813111800,6.60811181640625,-9.414000511169434,-0.8820000290870667,2.739000082015991
1757088554822665000,6.6176650390625,-9.393000602722168,-0.8820000290870667,2.725050210952759
1757088554832217900,6.6272177734375,-9.378000259399414,-0.8770500421524048,2.7270002365112305
1757088554841771000,6.63677099609375,-9.373050689697266,-0.8719500303268433,2.7229502201080322
1757088554851324200,6.64632421875,-9.382950782775879,-0.8700000643730164,2.7109501361846924
1757088554860877300,6.655877197265625,-9.378000259399414,-0.8790000677108765,2.7370500564575195
1757088554870430500,6.665430419921875,-9.397050857543945,-0.8770500421524048,2.7270002365112305
1757088554879983600,6.674983642578125,-9.388050079345703,-0.8790000677108765,2.7370500564575195
1757088554889536500,6.68453662109375,-9.394950866699219,-0.8670000433921814,2.7180001735687256
1757088554899089400,6.69408935546875,-9.412050247192383,-0.8770500421524048,2.7340500354766846
1757088554908642800,6.703642822265625,-9.402000427246094,-0.8719500303268433,2.7300000190734863
1757088554918196000,6.713196044921875,-9.394950866699219,-0.8770500421524048,2.725050210952759
1757088554927748900,6.722748779296875,-9.393000602722168,-0.8839500546455383,2.731950044631958
1757088554937302000,6.732302001953125,-9.393000602722168,-0.8790000677108765,2.739000082015991
1757088554946855200,6.741855224609375,-9.381000518798828,-0.8770500421524048,2.7300000190734863
1757088554956408300,6.751408203125,-9.388050079345703,-0.906000018119812,2.743950128555298
1757088554965961500,6.76096142578125,-9.381000518798828,-0.9030000567436218,2.731950044631958
1757088554975514600,6.7705146484375,-9.393000602722168,-0.9079500436782837,2.7340500354766846
1757088554985067800,6.78006787109375,-9.403950691223145,-0.9010500311851501,2.7370500564575195
1757088554994620700,6.78962060546875,-9.385050773620605,-0.9130500555038452,2.7340500354766846
1757088555004173800,6.799173828125,-9.397050857543945,-0.9030000567436218,2.7340500354766846
1757088555013727000,6.80872705078125,-9.397050857543945,-0.9150000214576721,2.7300000190734863
1757088555023279900,6.81827978515625,-9.397050857543945,-0.9100500345230103,2.7199501991271973
1757088555032833000,6.8278330078125,-9.394950866699219,-0.9150000214576721,2.713050127029419
1757088555042386200,6.83738623046875,-9.397050857543945,-0.8869500160217285,2.7079501152038574
1757088555051939300,6.846939208984375,-9.394950866699219,-0.8959500193595886,2.703000068664551
1757088555061492200,6.8564921875,-9.394950866699219,-0.8890500664710999,2.6959500312805176
1757088555071045600,6.866045654296875,-9.403950691223145,-0.8820000290870667,2.701050043106079
1757088555080598500,6.8755986328125,-9.393000602722168,-0.8890500664710999,2.6890501976013184
1757088555090151700,6.885151611328125,-9.397050857543945,-0.8820000290870667,2.7060000896453857
1757088555099704800,6.894704833984375,-9.397050857543945,-0.8749500513076782,2.683950185775757
1757088555109258000,6.904258056640625,-9.402000427246094,-0.8770500421524048,2.7109501361846924
1757088555118811100,6.91381103515625,-9.409049987792969,-0.8670000433921814,2.7060000896453857
1757088555128364000,6.923364013671875,-9.388050079345703,-0.859950065612793,2.7180001735687256
1757088555137917200,6.932917236328125,-9.390000343322754,-0.8719500303268433,2.7180001735687256
1757088555147470000,6.942469970703125,-9.388050079345703,-0.8749500513076782,2.7150001525878906
1757088555157023500,6.9520234375,-9.388050079345703,-0.8749500513076782,2.7270002365112305
1757088555166576600,6.96157666015625,-9.390000343322754,-0.8770500421524048,2.731950044631958
1757088555176129500,6.971129638671875,-9.397050857543945,-0.8719500303268433,2.7370500564575195
1757088555185682700,6.9806826171875,-9.394950866699219,-0.8749500513076782,2.742000102996826
1757088555195235600,6.990235595703125,-9.400050163269043,-0.8869500160217285,2.743950128555298
1757088555204788700,6.999788818359375,-9.373050689697266,-0.8959500193595886,2.7460501194000244
1757088555214342000,7.009341796875,-9.381000518798828,-0.8670000433921814,2.7460501194000244
1757088555223895000,7.01889501953125,-9.385050773620605,-0.8820000290870667,2.742000102996826
1757088555233448000,7.028447998046875,-9.388050079345703,-0.8839500546455383,2.739000082015991
1757088555243001000,7.0380009765625,-9.390000343322754,-0.8839500546455383,2.7460501194000244
1757088555252554500,7.047554443359375,-9.402000427246094,-0.8940000534057617,2.751000165939331
1757088555262107400,7.057107421875,-9.393000602722168,-0.8770500421524048,2.7580502033233643
1757088555271660500,7.06666064453125,-9.388050079345703,-0.8820000290870667,2.7460501194000244
1757088555281213400,7.07621337890625,-9.393000602722168,-0.8790000677108765,2.754000186920166
1757088555290766600,7.0857666015625,-9.393000602722168,-0.8940000534057617,2.763000249862671
1757088555300319700,7.09531982421875,-9.382950782775879,-0.8839500546455383,2.7559502124786377
1757088555309873000,7.104872802734375,-9.390000343322754,-0.8790000677108765,2.754000186920166
1757088555319425800,7.11442578125,-9.381000518798828,-0.8629500269889832,2.7660000324249268
1757088555328979200,7.123979248046875,-9.385050773620605,-0.8790000677108765,2.7580502033233643
1757088555338532400,7.133532470703125,-9.373050689697266,-0.8890500664710999,2.7460501194000244
1757088555348085200,7.143085205078125,-9.388050079345703,-0.8959500193595886,2.761050224304199
1757088555357638400,7.152638427734375,-9.382950782775879,-0.8910000324249268,2.763000249862671
1757088555367191600,7.162191650390625,-9.376049995422363,-0.8670000433921814,2.763000249862671
1757088555376744400,7.171744384765625,-9.361050605773926,-0.8820000290870667,2.7300000190734863
1757088555386297600,7.181297607421875,-9.373050689697266,-0.8940000534057617,2.7079501152038574
1757088555395850800,7.190850830078125,-9.385050773620605,-0.8410500288009644,2.686950206756592
1757088555405404000,7.20040380859375,-9.430950164794922,-0.8509500622749329,2.5290000438690186
1757088555414957000,7.20995703125,-9.430950164794922,-0.931950032711029,2.599950075149536
1757088555424510000,7.219510009765625,-9.478950500488281,-0.8670000433921814,2.611950159072876
1757088555434063000,7.22906298828125,-9.463950157165527,-0.8749500513076782,2.686950206756592
1757088555443616300,7.2386162109375,-9.438000679016113,-0.8530500531196594,2.682000160217285
1757088555453169400,7.24816943359375,-9.400050163269043,-0.8719500303268433,2.6460001468658447
1757088555462722600,7.25772265625,-9.378000259399414,-0.8910000324249268,2.6170501708984375
1757088555472275500,7.267275390625,-9.342000007629395,-0.8770500421524048,2.6200501918792725
1757088555481828600,7.27682861328125,-9.345000267028809,-0.9180000424385071,2.6290500164031982
1757088555491381500,7.286381591796875,-9.354000091552734,-0.9970500469207764,2.6770501136779785
1757088555500934700,7.2959345703125,-9.357000350952148,-0.9580500721931458,2.7490501403808594
1757088555510487800,7.30548779296875,-9.381000518798828,-0.8770500421524048,2.803950071334839
1757088555520041000,7.315041015625,-9.400050163269043,-0.8460000157356262,2.830050230026245
1757088555529594000,7.324593994140625,-9.412050247192383,-0.8100000619888306,2.8969502449035645
1757088555539147000,7.33414697265625,-9.390000343322754,-0.8550000190734863,2.8999500274658203
1757088555548700200,7.3437001953125,-9.394950866699219,-0.8700000643730164,2.8999500274658203
1757088555558253300,7.35325341796875,-9.369000434875488,-0.9100500345230103,2.893050193786621
1757088555567806500,7.362806396484375,-9.354000091552734,-0.9390000700950623,2.8570501804351807
1757088555577359400,7.372359375,-9.366000175476074,-0.9850500226020813,2.8180501461029053
1757088555586912500,7.38191259765625,-9.373050689697266,-0.9799500703811646,2.8399500846862793
1757088555596465700,7.391465576171875,-9.361050605773926,-0.931950032711029,2.845050096511841
1757088555606018800,7.401018798828125,-9.366000175476074,-0.906000018119812,2.8279502391815186
1757088555615572000,7.410572021484375,-9.412050247192383,-0.8820000290870667,2.7940502166748047
1757088555625124900,7.420124755859375,-9.403950691223145,-0.843000054359436,2.761050224304199
1757088555634678000,7.429677978515625,-9.414000511169434,-0.8629500269889832,2.731950044631958
1757088555644231200,7.439231201171875,-9.406949996948242,-0.8410500288009644,2.725050210952759
1757088555653784300,7.448784423828125,-9.412050247192383,-0.7860000133514404,2.7180001735687256
1757088555663337200,7.458337158203125,-9.400050163269043,-0.778950035572052,2.7079501152038574
1757088555672890400,7.467890380859375,-9.397050857543945,-0.7960500121116638,2.683950185775757
1757088555682443500,7.477443603515625,-9.402000427246094,-0.7879500389099121,2.682000160217285
1757088555691996700,7.48699658203125,-9.390000343322754,-0.8389500379562378,2.6290500164031982
1757088555701549600,7.496549560546875,-9.388050079345703,-0.8580000400543213,2.6080501079559326
1757088555711102700,7.506102783203125,-9.406949996948242,-0.8629500269889832,2.5909500122070312
1757088555720655600,7.515655517578125,-9.438000679016113,-0.8650500178337097,2.5759501457214355
1757088555730209000,7.525208984375,-9.457050323486328,-0.8580000400543213,2.5690500736236572
1757088555739762000,7.534761962890625,-9.483000755310059,-0.8839500546455383,2.5759501457214355
1757088555749315000,7.544315185546875,-9.486000061035156,-0.8790000677108765,2.5909500122070312
1757088555758868200,7.5538681640625,-9.475950241088867,-0.8749500513076782,2.634000062942505
1757088555768421400,7.56342138671875,-9.451950073242188,-0.8790000677108765,2.6170501708984375
1757088555777974500,7.572974609375,-9.424050331115723,-0.89805006980896,2.6389501094818115
1757088555787527400,7.58252734375,-9.370950698852539,-0.8839500546455383,2.6359500885009766
1757088555797080600,7.59208056640625,-9.3589506149292,-0.8890500664710999,2.634000062942505
1757088555806633700,7.6016337890625,-9.342000007629395,-0.8869500160217285,2.6269500255584717
1757088555816187000,7.611186767578125,-9.342000007629395,-0.8580000400543213,2.6290500164031982
1757088555825739800,7.62073974609375,-9.369000434875488,-0.843000054359436,2.622000217437744
1757088555835293000,7.63029296875,-9.390000343322754,-0.8550000190734863,2.622000217437744
1757088555844846000,7.63984619140625,-9.400050163269043,-0.8100000619888306,2.641050100326538
1757088555854399000,7.64939892578125,-9.402000427246094,-0.7720500230789185,2.6650500297546387
1757088555863952100,7.6589521484375,-9.421050071716309,-0.7840500473976135,2.682000160217285
1757088555873505300,7.66850537109375,-9.418950080871582,-0.8410500288009644,2.694000244140625
1757088555883058400,7.678058349609375,-9.390000343322754,-0.859950065612793,2.7180001735687256
1757088555892611300,7.687611328125,-9.378000259399414,-0.8410500288009644,2.739000082015991
1757088555902164500,7.69716455078125,-9.349050521850586,-0.8629500269889832,2.7940502166748047
1757088555911717600,7.706717529296875,-9.35205078125,-0.8670000433921814,2.8129501342773438
1757088555921270800,7.716270751953125,-9.3589506149292,-0.8959500193595886,2.842050075531006
1757088555930823700,7.72582373046875,-9.390000343322754,-0.9420000314712524,2.842050075531006
1757088555940376800,7.735376953125,-9.424050331115723,-0.9420000314712524,2.8180501461029053
1757088555949930000,7.744929931640625,-9.433050155639648,-0.9300000667572021,2.8570501804351807
1757088555959483000,7.75448291015625,-9.412050247192383,-0.9340500235557556,2.8780500888824463
1757088555969036000,7.7640361328125,-9.381000518798828,-0.999000072479248,2.9070000648498535
1757088555978589000,7.7735888671875,-9.393000602722168,-0.987000048160553,2.802000045776367
1757088555988142300,7.783142333984375,-9.403950691223145,-0.9130500555038452,2.7199501991271973
1757088555997695500,7.792695556640625,-9.393000602722168,-0.8820000290870667,2.659950017929077
1757088556007248400,7.802248291015625,-9.388050079345703,-0.8530500531196594,2.653050184249878
1757088556016801500,7.811801513671875,-9.393000602722168,-0.8410500288009644,2.686950206756592
1757088556026354400,7.8213544921875,-9.418950080871582,-0.8719500303268433,2.622000217437744
1757088556035907600,7.830907470703125,-9.462000846862793,-0.8530500531196594,2.5530002117156982
1757088556045461000,7.8404609375,-9.460050582885742,-0.7740000486373901,2.5600500106811523
1757088556055014000,7.850013916015625,-9.433050155639648,-0.7500000596046448,2.611950159072876
1757088556064566800,7.85956689453125,-9.424050331115723,-0.8290500640869141,2.6479501724243164
1757088556074120000,7.869119873046875,-9.438000679016113,-0.9030000567436218,2.632050037384033
1757088556083672800,7.8786728515625,-9.427950859069824,-0.8890500664710999,2.622000217437744
1757088556093226000,7.88822607421875,-9.385050773620605,-0.8719500303268433,2.602950096130371
1757088556102779100,7.897779052734375,-9.3589506149292,-0.859950065612793,2.683950185775757
1757088556112332300,7.907332275390625,-9.397050857543945,-0.8550000190734863,2.8180501461029053
1757088556121885200,7.91688525390625,-9.402000427246094,-0.8479500412940979,2.8810501098632812
1757088556131438300,7.926438232421875,-9.361050605773926,-0.7909500598907471,2.955000162124634
1757088556140991500,7.935991455078125,-9.385050773620605,-0.7810500264167786,2.940000057220459
1757088556150544600,7.945544677734375,-9.397050857543945,-0.778950035572052,2.8759500980377197
1757088556160097500,7.95509765625,-9.378000259399414,-0.7879500389099121,2.8780500888824463
1757088556169650700,7.964650634765625,-9.378000259399414,-0.8080500364303589,2.83305025100708
1757088556179203600,7.97420361328125,-9.349050521850586,-0.7500000596046448,2.823000192642212
1757088556188756700,7.9837568359375,-9.369000434875488,-0.7309500575065613,2.8590002059936523
1757088556198310100,7.99331005859375,-9.409049987792969,-0.7500000596046448,2.851950168609619
1757088556207863000,8.002863037109375,-9.424050331115723,-0.7740000486373901,2.8540501594543457
1757088556217416200,8.012416259765626,-9.406949996948242,-0.8269500136375427,2.8060500621795654
1757088556226969000,8.021968994140625,-9.385050773620605,-0.7999500632286072,2.739000082015991
1757088556236522200,8.031522216796875,-9.382950782775879,-0.7669500112533569,2.739000082015991
1757088556246075400,8.041075439453126,-9.414000511169434,-0.7050000429153442,2.7870001792907715
1757088556255628500,8.050628662109375,-9.454950332641602,-0.7639500498771667,2.7679500579833984
1757088556265181700,8.060181640625,-9.463950157165527,-0.817050039768219,2.683950185775757
1757088556274734600,8.069734619140625,-9.394950866699219,-0.8119500279426575,2.6550002098083496
1757088556284287700,8.079287841796875,-9.373050689697266,-0.843000054359436,2.6650500297546387
1757088556293841000,8.0888408203125,-9.394950866699219,-0.8340000510215759,2.6479501724243164
1757088556303393800,8.098393798828125,-9.388050079345703,-0.8719500303268433,2.641050100326538
1757088556312947000,8.107947021484375,-9.382950782775879,-0.8479500412940979,2.641050100326538
1757088556322500000,8.1175,-9.366000175476074,-0.8410500288009644,2.662950038909912
1757088556332053200,8.12705322265625,-9.357000350952148,-0.8410500288009644,2.6479501724243164
1757088556341606100,8.136606201171874,-9.382950782775879,-0.8790000677108765,2.599950075149536
1757088556351159300,8.1461591796875,-9.414000511169434,-0.9250500202178955,2.5570502281188965
1757088556360712200,8.155712158203125,-9.421050071716309,-0.9660000205039978,2.5380001068115234
1757088556370265300,8.165265380859376,-9.426000595092773,-0.9340500235557556,2.5290000438690186
1757088556379818500,8.174818603515625,-9.430950164794922,-0.8479500412940979,2.5530002117156982
1757088556389371600,8.18437158203125,-9.421050071716309,-0.7810500264167786,2.731950044631958
1757088556398924500,8.193924560546876,-9.390000343322754,-0.7549500465393066,2.823000192642212
1757088556408477700,8.203477783203125,-9.481050491333008,-0.8119500279426575,2.7970502376556396
1757088556418030800,8.21303076171875,-9.466950416564941,-0.8509500622749329,2.8399500846862793
1757088556427584000,8.222583984375,-9.289950370788574,-0.8460000157356262,2.6959500312805176
1757088556437137000,8.232136962890625,-9.064050674438477,-0.817050039768219,2.8780500888824463
1757088556446690000,8.24168994140625,-9.27495002746582,-0.9610500335693359,2.9070000648498535
1757088556456243200,8.2512431640625,-9.478950500488281,-1.1190000772476196,2.6670000553131104
1757088556465796400,8.26079638671875,-9.439949989318848,-1.15500009059906,2.641050100326538
1757088556475349200,8.270349365234376,-9.370950698852539,-1.0879501104354858,2.581050157546997
1757088556484902400,8.27990234375,-9.409049987792969,-0.8700000643730164,2.6700000762939453
1757088556494455600,8.28945556640625,-9.402000427246094,-0.8080500364303589,2.7799501419067383
1757088556504008700,8.2990087890625,-9.81195068359375,-1.6459500789642334,2.791950225830078
1757088556513561600,8.3085615234375,-9.646050453186035,-1.057050108909607,2.2510499954223633
1757088556523114800,8.31811474609375,-9.093000411987305,-0.36705002188682556,2.5450501441955566
1757088556532667600,8.327667724609375,-9.385050773620605,-0.22305001318454742,3.4140002727508545
1757088556542220800,8.337220703125,-9.448050498962402,-0.8029500246047974,2.9359500408172607
1757088556551774000,8.34677392578125,-9.354000091552734,-1.437000036239624,2.791950225830078
1757088556561327000,8.3563271484375,-9.445050239562988,-1.4830501079559326,2.410950183868408
1757088556570880000,8.3658798828125,-9.35205078125,-1.297950029373169,2.4090001583099365
1757088556580433200,8.37543310546875,-9.60105037689209,-0.9340500235557556,2.7990000247955322
1757088556589986000,8.384986083984375,-9.427950859069824,-0.597000002861023,3.0960001945495605
1757088556599539200,8.394539306640626,-9.253950119018555,-0.44805002212524414,3.094050168991089
1757088556609092400,8.40409228515625,-9.32805061340332,-0.5800500512123108,3.0240001678466797
1757088556618645500,8.4136455078125,-9.361050605773926,-0.9220500588417053,2.830050230026245
1757088556628198400,8.423198486328126,-9.30405044555664,-1.1329500675201416,2.584050178527832
1757088556637751800,8.432751708984375,-9.309000015258789,-1.1239500045776367,2.5530002117156982
1757088556647304700,8.4423046875,-9.237000465393066,-0.9100500345230103,2.5690500736236572
1757088556656857900,8.45185791015625,-9.306000709533691,-0.7600500583648682,2.602950096130371
1757088556666410800,8.46141064453125,-9.498000144958496,-0.8050500154495239,2.5759501457214355
1757088556675964000,8.4709638671875,-9.586050033569336,-0.775950014591217,2.6959500312805176
1757088556685517000,8.48051708984375,-9.510000228881836,-0.43905001878738403,2.848950147628784
1757088556695070200,8.4900703125,-8.650050163269043,1.059000015258789,2.9880001544952393
1757088556704623000,8.499623046875,-8.784000396728516,-0.62295001745224,1.9300501346588135
1757088556714176300,8.50917626953125,-10.393050193786621,-1.5709500312805176,2.9569501876831055
1757088556723729200,8.518729248046874,-9.90000057220459,-2.2110002040863037,1.9900500774383545
1757088556733282300,8.5282822265625,-9.499950408935547,-2.1409502029418945,2.641050100326538
1757088556742835500,8.53783544921875,-9.451950073242188,-1.2910500764846802,2.562000036239624
1757088556752388600,8.547388671875,-9.59595012664795,-0.5680500268936157,2.641050100326538
1757088556761941500,8.55694140625,-9.445050239562988,-0.4600500166416168,2.599950075149536
1757088556771494700,8.56649462890625,-9.32295036315918,-0.8119500279426575,2.3989500999450684
1757088556781047800,8.5760478515625,-9.321000099182129,-0.970050036907196,2.320050001144409
1757088556790601000,8.58560107421875,-9.268050193786621,-0.9940500259399414,2.3610000610351562
1757088556800153900,8.59515380859375,-9.31605052947998,-1.0009500980377197,2.4660000801086426
1757088556809707000,8.60470703125,-9.442950248718262,-0.9460500478744507,2.5789501667022705
1757088556819260200,8.61426025390625,-9.511950492858887,-0.8149500489234924,2.6290500164031982
1757088556828813300,8.623813232421876,-9.510000228881836,-0.6930000185966492,2.6290500164031982
1757088556838366200,8.6333662109375,-9.460050582885742,-0.7309500575065613,2.6650500297546387
1757088556847919400,8.64291943359375,-9.457050323486328,-0.4720500111579895,2.5189502239227295
1757088556857472500,8.652472412109375,-9.169950485229492,-0.7930500507354736,2.5500001907348633
1757088556867025700,8.662025634765625,-9.33495044708252,-0.9370500445365906,2.4180002212524414
1757088556876578600,8.67157861328125,-9.502950668334961,-1.1020500659942627,2.7559502124786377
1757088556886131700,8.681131591796875,-9.473999977111816,-1.237950086593628,2.215050220489502
1757088556895684600,8.6906845703125,-9.390000343322754,-1.1590501070022583,2.632050037384033
1757088556905237800,8.70023779296875,-9.400050163269043,-0.9559500217437744,2.7229502201080322
1757088556914791000,8.709791015625,-9.430950164794922,-0.8269500136375427,3.007050037384033
1757088556924344000,8.719343994140624,-9.473999977111816,-0.7260000109672546,2.9880001544952393
1757088556933897000,8.72889697265625,-9.409049987792969,-0.6540000438690186,2.920950174331665
1757088556943450000,8.7384501953125,-9.433050155639648,-0.5509500503540039,2.9239501953125
1757088556953003300,8.748003173828126,-9.361050605773926,-0.8580000400543213,2.823000192642212
1757088556962556200,8.75755615234375,-9.361050605773926,-1.0639500617980957,2.980950117111206
1757088556972109300,8.767109375,-9.306000709533691,-1.13100004196167,2.955000162124634
1757088556981662200,8.776662109375,-9.280050277709961,-1.072950005531311,2.9260501861572266
1757088556991215400,8.78621533203125,-9.333000183105469,-1.0110000371932983,2.9260501861572266
1757088557000768500,8.7957685546875,-9.412050247192383,-0.8719500303268433,2.7850501537323
1757088557010321700,8.80532177734375,-9.366000175476074,-0.6540000438690186,2.69100022315979
1757088557019874600,8.81487451171875,-9.427950859069824,-0.6400500535964966,2.7079501152038574
1757088557029427700,8.824427734375,-9.466950416564941,-0.8220000267028809,2.7079501152038574
1757088557038980600,8.833980712890625,-9.402000427246094,-0.9820500612258911,2.599950075149536
1757088557048533800,8.84353369140625,-9.450000762939453,-1.0830000638961792,2.4379501342773438
1757088557058087000,8.8530869140625,-9.409049987792969,-1.0110000371932983,2.425950050354004
1757088557067640000,8.86264013671875,-9.424050331115723,-0.8629500269889832,2.502000093460083
1757088557077193000,8.87219287109375,-9.438000679016113,-0.7980000376701355,2.5450501441955566
1757088557086746000,8.88174609375,-9.445050239562988,-0.7740000486373901,2.4660000801086426
1757088557096299000,8.891299072265625,-9.450000762939453,-0.8269500136375427,2.4060001373291016
1757088557105852200,8.90085205078125,-9.469050407409668,-0.8509500622749329,2.4850502014160156
1757088557115405300,8.9104052734375,-9.505050659179688,-0.970050036907196,2.55495023727417
1757088557124958500,8.91995849609375,-9.418950080871582,-0.9199500679969788,2.5570502281188965
1757088557134511400,8.929511474609376,-9.157950401306152,-1.114050030708313,1.9590001106262207
1757088557144064500,8.939064453125,-9.067049980163574,-1.0830000638961792,1.8439500331878662
1757088557153617700,8.94861767578125,-9.30405044555664,-0.8290500640869141,2.244000196456909
1757088557163170300,8.95817041015625,-9.493050575256348,-0.32895001769065857,2.493000030517578
1757088557172723700,8.9677236328125,-9.370950698852539,0.27900001406669617,3.1650002002716064
1757088557182276900,8.97727685546875,-9.412050247192383,0.17295001447200775,3.6439502239227295
1757088557191829800,8.986829833984375,-9.451950073242188,-0.4630500078201294,3.6060001850128174
1757088557201382700,8.996382568359374,-9.366000175476074,-0.9490500688552856,3.3829500675201416
1757088557210935800,9.005935791015625,-9.438000679016113,-1.4869500398635864,3.4740002155303955
1757088557220489000,9.015489013671875,-9.433050155639648,-1.5810000896453857,3.3379502296447754
1757088557230042000,9.0250419921875,-9.418950080871582,-1.0879501104354858,3.259050130844116
1757088557239595000,9.034594970703125,-9.393000602722168,-0.6709500551223755,3.201000213623047
1757088557249148200,9.044148193359375,-9.393000602722168,-0.5389500260353088,2.9190001487731934
1757088557258701300,9.053701416015626,-9.5149507522583,-0.5850000381469727,2.490000009536743
1757088557268254500,9.06325439453125,-9.403950691223145,-0.8119500279426575,2.512050151824951
1757088557277807400,9.072807373046874,-9.475950241088867,-1.0350000858306885,2.473950147628784
1757088557287360500,9.082360595703125,-9.309000015258789,-1.0039499998092651,2.422950029373169
1757088557296913700,9.09191357421875,-9.250950813293457,-0.4990500211715698,2.055000066757202
1757088557306466800,9.101466796875,-9.282000541687012,-0.2160000056028366,2.0280001163482666
1757088557316019700,9.111019775390625,-9.415950775146484,-0.08700000494718552,1.489050030708313
1757088557325572900,9.12057275390625,-9.472050666809082,-0.37905001640319824,1.8820500373840332
1757088557335125800,9.130125732421876,-9.579000473022461,-0.7399500608444214,2.2680001258850098
1757088557344679000,9.139678955078125,-9.622050285339355,-0.8479500412940979,2.6359500885009766
1757088557354232000,9.149232177734374,-9.567000389099121,-0.5250000357627869,2.464050054550171
1757088557363785000,9.158784912109375,-9.619950294494629,-0.10395000129938126,2.434950113296509
1757088557373338000,9.168338134765625,-9.60300064086914,0.013050000183284283,2.433000087738037
1757088557382891000,9.17789111328125,-9.451950073242188,-0.2740500271320343,2.4589500427246094
1757088557392444200,9.187444091796875,-9.333000183105469,-0.6330000162124634,2.599950075149536
1757088557401997300,9.196997314453125,-9.529050827026367,-0.9940500259399414,2.5669500827789307
1757088557411550500,9.206550537109376,-9.64905071258545,-1.519050121307373,2.385000228881836
1757088557421103400,9.216103271484375,-9.558000564575195,-1.453950047492981,2.3110501766204834
1757088557430656500,9.225656494140624,-9.555000305175781,-0.89805006980896,2.3269500732421875
1757088557440209400,9.23520947265625,-9.543000221252441,-0.48405003547668457,2.155050039291382
1757088557449762800,9.2447626953125,-9.571950912475586,-0.364950031042099,2.0280001163482666
1757088557459315700,9.254315673828126,-9.58395004272461,-0.2659500241279602,2.0659501552581787
1757088557468868900,9.263868896484375,-9.487950325012207,-0.15600000321865082,2.176950216293335
1757088557478421800,9.273421875,-9.436050415039062,0.019950000569224358,2.4280500411987305
1757088557487975000,9.282974853515626,-9.499950408935547,0.1680000126361847,2.514000177383423
1757088557497528000,9.292528076171875,-9.412050247192383,0.0970500037074089,2.1910500526428223
1757088557507081000,9.3020810546875,-9.32805061340332,-0.22095000743865967,2.0899500846862793
1757088557516634000,9.311634033203125,-9.229950904846191,-0.4459500312805176,2.0710501670837402
1757088557526187300,9.321187255859375,-9.349050521850586,-0.8479500412940979,2.482950210571289
1757088557535740400,9.330740478515626,-9.31605052947998,-1.1500500440597534,2.4660000801086426
1757088557545293300,9.340293212890625,-9.382950782775879,-1.1089500188827515,2.6100001335144043
1757088557554846500,9.349846435546874,-9.436050415039062,-0.9390000700950623,2.9950501918792725
1757088557564399400,9.3593994140625,-9.541050910949707,-0.6829500198364258,3.015000104904175
1757088557573952300,9.3689521484375,-9.651000022888184,-0.8940000534057617,3.022050142288208
1757088557583505700,9.378505615234374,-9.77595043182373,-0.9100500345230103,2.2870500087738037
1757088557593058600,9.38805859375,-9.715950012207031,-1.0519500970840454,2.7340500354766846
1757088557602611700,9.39761181640625,-9.475950241088867,-1.4419500827789307,3.38100004196167
1757088557612164600,9.40716455078125,-9.220050811767578,-2.3590500354766846,2.5000500679016113
1757088557621717800,9.4167177734375,-9.139050483703613,-2.8999500274658203,1.4299501180648804
1757088557631271000,9.42627099609375,-9.313050270080566,-1.8199501037597656,1.9519500732421875
1757088557640824000,9.435823974609375,-9.250950813293457,-0.5250000357627869,3.3160500526428223
1757088557650377000,9.445376953125,-9.436050415039062,-0.4939500093460083,4.425000190734863
1757088557659930000,9.45493017578125,-10.072050094604492,-1.4130001068115234,3.9679501056671143
1757088557669483000,9.46448291015625,-10.374000549316406,-1.957050085067749,3.2059502601623535
1757088557679036200,9.4740361328125,-10.458000183105469,-1.7100000381469727,2.7580502033233643
1757088557688589300,9.48358935546875,-10.384050369262695,-0.7140000462532043,2.6989500522613525
1757088557698142500,9.493142578125,-9.979050636291504,0.5179499983787537,3.309000253677368
1757088557707695400,9.5026953125,-9.208050727844238,1.168950080871582,3.702000141143799
1757088557717248300,9.512248291015625,-8.917950630187988,1.384950041770935,4.042050361633301
1757088557726801400,9.521801513671875,-8.619000434875488,1.1569499969482422,4.410000324249268
1757088557736354600,9.5313544921875,-8.182950019836426,0.6280500292778015,4.087049961090088
1757088557745907700,9.54090771484375,-8.140049934387207,0.1469999998807907,3.391050100326538
1757088557755460900,9.5504609375,-8.260050773620605,0.15405000746250153,2.634000062942505
1757088557765013800,9.560013671875,-8.860950469970703,0.33105000853538513,2.203050136566162
1757088557774567000,9.56956689453125,-8.992950439453125,-0.3049500286579132,2.725050210952759
1757088557784120000,9.5791201171875,-9.469050407409668,-0.4339500069618225,3.280050039291382
1757088557793673000,9.5886728515625,-9.61500072479248,0.5869500041007996,3.2250001430511475
1757088557803225900,9.598225830078125,-9.079050064086914,1.5640500783920288,3.3859500885009766
1757088557812779000,9.607779052734376,-8.847000122070312,1.5430500507354736,4.360050201416016
1757088557822332200,9.617332275390625,-8.743950843811035,1.1209501028060913,4.7220001220703125
1757088557831885300,9.62688525390625,-8.610000610351562,0.36000001430511475,4.999050140380859
1757088557841438200,9.636438232421876,-9.0600004196167,-0.5629500150680542,5.0400004386901855
1757088557850991400,9.645991455078125,-9.241950035095215,-1.3870500326156616,4.918050289154053
1757088557860544300,9.655544189453124,-9.226950645446777,-1.897050142288208,4.497000217437744
1757088557870097400,9.665097412109375,-8.824950218200684,-1.9300501346588135,4.948950290679932
1757088557879650600,9.674650634765625,-8.880000114440918,-1.7700001001358032,6.1180500984191895
1757088557889203700,9.68420361328125,-9.139050483703613,-1.4440500736236572,7.020000457763672
1757088557898756600,9.693756591796875,-9.157950401306152,-0.9850500226020813,8.092950820922852
1757088557908309500,9.7033095703125,-8.848950386047363,-0.9919500350952148,9.072000503540039
1757088557917863000,9.71286279296875,-8.574000358581543,-1.228950023651123,8.944950103759766
1757088557927415800,9.722415771484375,-8.278950691223145,-1.549950122833252,7.348050117492676
1757088557936969000,9.731968994140624,-8.17905044555664,-2.5069501399993896,4.762050151824951
1757088557946521900,9.74152197265625,-8.253000259399414,-3.2950501441955566,2.4379501342773438
1757088557956075000,9.751074951171875,-8.56605052947998,-1.855950117111206,3.8550002574920654
1757088557965628200,9.760628173828126,-9.246000289916992,-1.3819500207901,5.184000015258789
1757088557975181300,9.770181396484375,-9.5149507522583,-1.9759501218795776,6.429000377655029
1757088557984734200,9.779734130859374,-9.225000381469727,-3.2260501384735107,6.5560503005981445
1757088557994287000,9.789287109375,-7.9009504318237305,-3.184950113296509,6.445950508117676
1757088558003840300,9.79884033203125,-7.654050350189209,-3.6469502449035645,5.383050441741943
1757088558013393400,9.808393310546874,-7.932000160217285,-5.539050102233887,2.4090001583099365
1757088558022946600,9.817946533203125,-8.272050857543945,-4.114050388336182,2.2480502128601074
1757088558032499500,9.82749951171875,-8.20305061340332,0.18000000715255737,4.803000450134277
1757088558042052600,9.837052490234376,-7.2109503746032715,0.9130500555038452,4.618950366973877
1757088558051605500,9.84660546875,-6.61305046081543,-1.8829500675201416,2.2240500450134277
1757088558061158700,9.85615869140625,-7.209000110626221,-2.557950019836426,1.9969501495361328
1757088558070711800,9.8657119140625,-8.653050422668457,-3.4390501976013184,2.7180001735687256
1757088558080264700,9.8752646484375,-9.117000579833984,-4.902000427246094,3.421950101852417
1757088558089817900,9.88481787109375,-8.25,-4.45395040512085,3.8329501152038574
1757088558099370800,9.894370849609375,-6.390000343322754,-2.851950168609619,3.3229501247406006
1757088558108924000,9.903923828125,-7.9009504318237305,-2.803950071334839,3.321000099182129
1757088558118477000,9.91347705078125,-8.503950119018555,-4.749000072479248,1.4179500341415405
1757088558128030200,9.9230302734375,-9.958050727844238,-7.096950531005859,2.313000202178955
1757088558137583000,9.9325830078125,-10.19205093383789,-4.783950328826904,2.1889500617980957
1757088558147136300,9.94213623046875,-6.760950088500977,-5.728050231933594,1.4389500617980957
1757088558156689400,9.951689453125,-3.5269501209259033,-6.613950252532959,5.815950393676758
1757088558166242600,9.96124267578125,-5.595000267028809,-7.926000595092773,10.140000343322754
1757088558175795500,9.97079541015625,-7.479000568389893,-0.6930000185966492,21.477001190185547
1757088558185348400,9.980348388671874,-4.981950283050537,-3.034050226211548,32.72505187988281
1757088558194901500,9.989901611328126,-10.507950782775879,-10.456050872802734,17.932950973510742
1757088558204454400,9.999454345703125,-10.582050323486328,-5.2230000495910645,11.023950576782227
1757088558214007600,10.009007568359374,-11.48805046081543,-4.870950222015381,7.093950271606445
1757088558223560700,10.018560791015625,-11.100000381469727,-5.767950057983398,-0.35100001096725464
1757088558233113900,10.02811376953125,-10.44105052947998,-3.630000114440918,-3.025050163269043
1757088558242666800,10.037666748046876,-9.711000442504883,-1.8349500894546509,0.6180000305175781
1757088558252219600,10.0472197265625,-9.04995059967041,-7.342050552368164,-1.2769500017166138
1757088558261772800,10.056772705078124,-8.434950828552246,-8.284950256347656,-1.8829500675201416
1757088558271326000,10.066325927734376,-7.360050201416016,-6.499050140380859,2.1190500259399414
1757088558280879000,10.075879150390625,-5.752950191497803,-5.584050178527832,4.726950168609619
1757088558290432000,10.085431884765624,-5.245950222015381,-4.879950046539307,8.284049987792969
1757088558299985200,10.094985107421875,-6.061950206756592,-4.986000061035156,10.176000595092773
1757088558309538000,10.1045380859375,-6.862050533294678,-5.575050354003906,10.417950630187988
1757088558319091200,10.11409130859375,-7.498950481414795,-6.40500020980835,11.473950386047363
1757088558328644400,10.123644287109375,-7.570050239562988,-6.331050395965576,11.562000274658203
1757088558338197200,10.133197265625,-6.639000415802002,-5.6419501304626465,11.0910005569458
1757088558347750400,10.14275048828125,-3.89805006980896,-4.5259504318237305,9.56505012512207
1757088558357303600,10.152303466796875,-2.2170000076293945,-3.724050283432007,11.7610502243042
1757088558366856700,10.161856689453124,-6.354000091552734,-2.746950149536133,18.52695083618164
1757088558376409600,10.17140966796875,-7.987050533294678,-1.4080500602722168,19.450950622558594
1757088558385962800,10.180962646484375,-7.6210503578186035,-1.1329500675201416,19.071001052856445
1757088558395515600,10.190515625,-6.819000244140625,-1.3410000801086426,17.66295051574707
1757088558405068800,10.20006884765625,-5.724000453948975,-2.035950183868408,15.723000526428223
1757088558414621700,10.20962158203125,-4.365000247955322,-2.7109501361846924,13.906050682067871
1757088558424174800,10.2191748046875,-2.9569501876831055,-2.8309500217437744,12.25200080871582
1757088558433728000,10.22872802734375,-1.5370501279830933,-2.3519999980926514,10.92495059967041
1757088558443281000,10.238281005859376,-0.3520500063896179,-1.7509500980377197,9.838050842285156
1757088558452834000,10.247833984375,0.6580500602722168,-1.5349500179290771,9.063000679016113
1757088558462387000,10.257386962890624,1.519950032234192,-1.8780001401901245,8.244000434875488
1757088558471940000,10.266940185546876,2.2210500240325928,-2.31600022315979,7.498950481414795
1757088558481493200,10.2764931640625,2.808000087738037,-2.347050189971924,7.260000228881836
1757088558491046100,10.286046142578124,3.277050256729126,-1.746000051498413,7.129950523376465
1757088558500599300,10.295599365234375,5.427000045776367,-0.48705002665519714,7.165950298309326
1757088558510152200,10.305152099609375,8.218950271606445,0.22605000436306,6.838050365447998
1757088558519705300,10.314705322265626,9.414000511169434,0.7860000133514404,6.630000114440918
1757088558529258500,10.324258544921875,9.985950469970703,1.1929500102996826,6.292050361633301
1757088558538811600,10.333811767578124,8.413050651550293,-0.49605002999305725,5.940000057220459
1757088558548364500,10.343364501953126,5.379000186920166,-1.39395010471344,5.830050468444824
1757088558557917400,10.35291748046875,3.7420501708984375,-1.432050108909607,4.966050148010254
1757088558567470600,10.362470703125,2.9730000495910645,-1.5619500875473022,3.8430001735687256
1757088558577023700,10.372023681640625,2.4460501670837402,-1.5570000410079956,2.7370500564575195
1757088558586576600,10.38157666015625,2.0080502033233643,-1.1470500230789185,1.8649500608444214
1757088558596129800,10.3911298828125,1.6009501218795776,-0.5370000004768372,1.3290001153945923
1757088558605682700,10.4006826171875,1.231950044631958,0.10095000267028809,0.9600000381469727
1757088558615235800,10.41023583984375,1.1610000133514404,0.7500000596046448,0.42195001244544983
1757088558624789000,10.4197890625,0.9979500770568848,1.284000039100647,-0.07304999977350235
1757088558634342100,10.429342041015625,0.7849500179290771,1.8709501028060913,-0.2770500183105469
1757088558643895000,10.43889501953125,0.595050036907196,1.9780501127243042,-0.3559500277042389
1757088558653448200,10.4484482421875,0.6049500107765198,1.7010000944137573,-0.18300001323223114
1757088558663001000,10.4580009765625,3.7819502353668213,-0.35295000672340393,23.481000900268555
1757088558672554200,10.46755419921875,-0.49500003457069397,0.40800002217292786,32.625
1757088558682107400,10.477107421875,0.9810000658035278,-0.38100001215934753,12.121950149536133
1757088558691660300,10.486660400390624,5.032050132751465,-0.040950000286102295,8.611950874328613
1757088558701213400,10.49621337890625,4.402050018310547,0.6690000295639038,2.91195011138916
1757088558710766600,10.5057666015625,2.0629501342773438,1.5640500783920288,0.25200000405311584
1757088558720319500,10.515319580078126,0.5520000457763672,2.1700501441955566,-0.5110500454902649
1757088558729872600,10.52487255859375,0.1380000114440918,2.1220500469207764,-0.7170000076293945
1757088558739425500,10.534425537109374,0.05895000323653221,2.674950122833252,-1.3590000867843628
1757088558748978700,10.543978759765626,1.867050051689148,3.180000066757202,-2.4120001792907715
1757088558758531800,10.55353173828125,8.57805061340332,2.4379501342773438,-4.438050270080566
1757088558768085000,10.5630849609375,15.853950500488281,1.3459500074386597,-6.849000453948975
1757088558777638000,10.572637939453125,18.580951690673828,0.36000001430511475,-6.6499505043029785
1757088558787190800,10.582190673828125,20.212051391601562,-0.037050001323223114,-4.681950092315674
1757088558796744000,10.591743896484376,18.600000381469727,-0.06000000238418579,-1.9210500717163086
1757088558806297000,10.601297119140625,15.91395092010498,-0.0580500029027462,-0.3169500231742859
1757088558815850200,10.610850341796874,13.873950958251953,0.015000000596046448,0.11295000463724136
1757088558825403100,10.620403076171876,12.811050415039062,0.05100000277161598,0.22305001318454742
1757088558834956300,10.629956298828125,12.160050392150879,0.36000001430511475,-0.11100000888109207
1757088558844509200,10.63950927734375,11.032050132751465,1.0780500173568726,-0.5260500311851501
1757088558854062300,10.649062255859375,10.077000617980957,1.8490500450134277,-0.7339500188827515
1757088558863615500,10.658615478515625,9.307950019836426,2.2609500885009766,-0.6810000538825989
1757088558873168400,10.66816845703125,8.418000221252441,2.356950044631958,-0.3679500222206116
1757088558882721500,10.677721435546875,7.789950370788574,2.2320001125335693,-0.05400000140070915
1757088558892274700,10.687274658203124,7.785000324249268,2.0239500999450684,0.0580500029027462
1757088558901827800,10.696827880859376,8.194950103759766,1.9780501127243042,0.09795000404119492
1757088558911380700,10.706380615234375,8.788949966430664,2.067000150680542,0.08895000070333481
1757088558920933600,10.71593359375,9.315000534057617,2.2609500885009766,0.05505000427365303
1757088558930486800,10.72548681640625,10.13700008392334,2.3179500102996826,0.024000000208616257
1757088558940040000,10.7350400390625,9.164999961853027,2.6080501079559326,-0.4819500148296356
1757088558949593000,10.744593017578126,9.157050132751465,2.3329501152038574,-1.071000099182129
1757088558959146000,10.75414599609375,9.164999961853027,2.047950029373169,-1.3489500284194946
1757088558968699000,10.763698974609374,9.17400074005127,1.9260001182556152,-1.1100000143051147
1757088558978252000,10.773251953125,9.415950775146484,1.801050066947937,-0.6570000052452087
1757088558987805200,10.78280517578125,9.763050079345703,1.8469500541687012,-0.41100001335144043
