time,seconds_elapsed,z,y,x
1757088548210882000,0.005882080078125,7.249380111694336,-2.2780818939208984,6.187423229217529
1757088548220435200,0.015435302734375,7.201684951782227,-2.309520959854126,6.229042053222656
1757088548229988400,0.02498828125,7.149954795837402,-2.3408730030059814,6.273543834686279
1757088548239541500,0.03454150390625,7.092443943023682,-2.373223066329956,6.322038173675537
1757088548249095000,0.044094970703125,7.027528762817383,-2.4084010124206543,6.374897003173828
1757088548258648000,0.05364794921875,6.951304912567139,-2.456120014190674,6.4315338134765625
1757088548268201200,0.063201171875,6.862656116485596,-2.5152220726013184,6.49312686920166
1757088548277754600,0.072754638671875,6.757159233093262,-2.578195095062256,6.565996170043945
1757088548287307500,0.0823076171875,6.634422779083252,-2.643570899963379,6.64952278137207
1757088548296860700,0.091860595703125,6.494002819061279,-2.7092089653015137,6.743492126464844
1757088548306414000,0.1014140625,6.3351640701293945,-2.777651071548462,6.84666109085083
1757088548315967200,0.11096728515625,6.158992767333984,-2.848737955093384,6.956592082977295
1757088548325520400,0.120520263671875,5.967026233673096,-2.922677993774414,7.0706467628479
1757088548335073500,0.130073486328125,5.760944843292236,-3.00026798248291,7.186212062835693
1757088548344627000,0.139626953125,5.54241418838501,-3.082490921020508,7.300972938537598
1757088548354180000,0.14918017578125,5.313742160797119,-3.166882038116455,7.413393020629883
1757088548364733200,0.159733154296875,5.0746259689331055,-3.254709005355835,7.523262977600098
1757088548379062000,0.17406201171875,1.8639999628067017,-4.575565814971924,8.471131324768066
1757088548388615200,0.183615234375,1.8514020442962646,-4.584230899810791,8.468941688537598
1757088548398168300,0.193168212890625,1.8272340297698975,-4.600827217102051,8.464254379272461
1757088548407721700,0.2027216796875,1.792598009109497,-4.624571800231934,8.456905364990234
1757088548417275000,0.21227490234375,1.7487839460372925,-4.65505313873291,8.446593284606934
1757088548426827800,0.221827880859375,1.6975489854812622,-4.692287921905518,8.432794570922852
1757088548436381400,0.23138134765625,1.641137957572937,-4.736085891723633,8.415163040161133
1757088548445934300,0.240934326171875,1.5812259912490845,-4.786061763763428,8.3936185836792
1757088548455487700,0.25048779296875,1.5196980237960815,-4.841536998748779,8.36833667755127
1757088548465041000,0.260041015625,1.4582539796829224,-4.901830196380615,8.339566230773926
1757088548474594000,0.269593994140625,1.3973850011825562,-4.966462135314941,8.307534217834473
1757088548484147200,0.279147216796875,1.33843195438385,-5.0348310470581055,8.272507667541504
1757088548493700400,0.288700439453125,1.2653579711914062,-5.101667881011963,8.239633560180664
1757088548503253500,0.29825341796875,1.1788920164108276,-5.165119171142578,8.209755897521973
1757088548512807000,0.307806884765625,1.0803840160369873,-5.223394870758057,8.183687210083008
1757088548522359800,0.31735986328125,0.9708840250968933,-5.275994777679443,8.161361694335938
1757088548531913000,0.326912841796875,0.8621950149536133,-5.331361770629883,8.137112617492676
1757088548541466400,0.33646630859375,0.7539119720458984,-5.389466762542725,8.110918998718262
1757088548551019500,0.34601953125,0.6460450291633606,-5.45054817199707,8.082573890686035
1757088548560572700,0.35557275390625,0.5381709933280945,-5.514835834503174,8.051857948303223
1757088548570125800,0.365125732421875,0.4299300014972687,-5.582430839538574,8.018636703491211
1757088548579679200,0.37467919921875,0.33359700441360474,-5.644667148590088,7.985047817230225
1757088548589232400,0.384232421875,0.2475530058145523,-5.702066898345947,7.951488971710205
1757088548598785500,0.39378564453125,0.17018799483776093,-5.755165100097656,7.918254852294922
1757088548608338700,0.403338623046875,0.10011400282382965,-5.804254055023193,7.885692119598389
1757088548617891800,0.412891845703125,0.035819001495838165,-5.849254131317139,7.854348182678223
1757088548627445000,0.422445068359375,-0.024619000032544136,-5.890471935272217,7.824456214904785
1757088548636998100,0.431998046875,-0.08262400329113007,-5.92859411239624,7.795813083648682
1757088548646551300,0.44155126953125,-0.13978900015354156,-5.964629173278809,7.767931938171387
1757088548656104700,0.451104736328125,-0.1978909969329834,-5.999631881713867,7.740171909332275
1757088548665657900,0.460657958984375,-0.26400700211524963,-6.037542819976807,7.708524227142334
1757088548675211300,0.470211181640625,-0.3376779854297638,-6.079028129577637,7.672412872314453
1757088548684764400,0.479764404296875,-0.395332008600235,-6.128922939300537,7.627618789672852
1757088548694317300,0.4893173828125,-0.4383299946784973,-6.188258171081543,7.5738139152526855
1757088548703870500,0.498870361328125,-0.4661850035190582,-6.2566351890563965,7.5124711990356445
1757088548713424000,0.508423828125,-0.4833900034427643,-6.334015846252441,7.443800926208496
1757088548722977000,0.51797705078125,-0.500918984413147,-6.411917209625244,7.373518943786621
1757088548732530200,0.5275302734375,-0.517130970954895,-6.490569114685059,7.30147123336792
1757088548742083600,0.53708349609375,-0.5309829711914062,-6.569857120513916,7.227729797363281
1757088548751636700,0.54663671875,-0.5433589816093445,-6.649908065795898,7.151872158050537
1757088548761190000,0.55618994140625,-0.5550490021705627,-6.731053829193115,7.073291778564453
1757088548770743000,0.565742919921875,-0.5593879818916321,-6.813845157623291,6.991683006286621
1757088548780296200,0.575296142578125,-0.5560569763183594,-6.899885177612305,6.904804229736328
1757088548789849600,0.584849609375,-0.5558670163154602,-6.989357948303223,6.811625957489014
1757088548799402800,0.59440283203125,-0.5609989762306213,-7.083133220672607,6.7103271484375
1757088548808955600,0.60395556640625,-0.57396000623703,-7.181774139404297,6.599052906036377
1757088548818509000,0.613509033203125,-0.5970159769058228,-7.285511016845703,6.475831031799316
1757088548828062200,0.623062255859375,-0.631862998008728,-7.394096851348877,6.338809013366699
1757088548837615400,0.632615478515625,-0.6781870126724243,-7.5070061683654785,6.186607837677002
1757088548847168500,0.64216845703125,-0.734046995639801,-7.623427867889404,6.01865816116333
1757088548856722000,0.651721923828125,-0.7906299829483032,-7.738465785980225,5.840505123138428
1757088548866275000,0.661275146484375,-0.8612819910049438,-7.845768928527832,5.659698009490967
1757088548875828200,0.670828125,-0.9360589981079102,-7.949487209320068,5.475072860717773
1757088548885381400,0.68038134765625,-1.0119930505752563,-8.050021171569824,5.288315773010254
1757088548894934800,0.689934814453125,-1.0893019437789917,-8.149617195129395,5.097672939300537
1757088548904487700,0.69948779296875,-1.163243055343628,-8.249227523803711,4.9021477699279785
1757088548914041000,0.709041015625,-1.2339459657669067,-8.349145889282227,4.700629234313965
1757088548923594200,0.71859423828125,-1.3022899627685547,-8.449129104614258,4.492739200592041
1757088548933147400,0.7281474609375,-1.3686959743499756,-8.548954963684082,4.278422832489014
1757088548942700500,0.737700439453125,-1.4313019514083862,-8.648104667663574,4.058145999908447
1757088548952254000,0.74725390625,-1.4888410568237305,-8.745939254760742,3.832202911376953
1757088548961806800,0.756806884765625,-1.5479639768600464,-8.841594696044922,3.6005311012268066
1757088548971360000,0.766360107421875,-1.6082409620285034,-8.933377265930176,3.3652141094207764
1757088548980913400,0.775913330078125,-1.6580560207366943,-9.021058082580566,3.1271119117736816
1757088548990466600,0.785466552734375,-1.6894359588623047,-9.10439682006836,2.8861849308013916
1757088549000019700,0.795019775390625,-1.7059210538864136,-9.181479454040527,2.6479079723358154
1757088549009572900,0.80457275390625,-1.7080140113830566,-9.25144100189209,2.414961099624634
1757088549019126000,0.8141259765625,-1.6984950304031372,-9.313632011413574,2.189362049102783
1757088549028679400,0.823679443359375,-1.6786869764328003,-9.367995262145996,1.9737279415130615
1757088549038232300,0.833232421875,-1.649785041809082,-9.414917945861816,1.771981954574585
1757088549047785500,0.842785400390625,-1.6134920120239258,-9.455877304077148,1.585479974746704
1757088549057339000,0.8523388671875,-1.5578960180282593,-9.497211456298828,1.4087389707565308
1757088549066892000,0.86189208984375,-1.5001319646835327,-9.535250663757324,1.2428580522537231
1757088549076445200,0.871445068359375,-1.4423010349273682,-9.570446968078613,1.085942029953003
1757088549085998300,0.880998291015625,-1.3859000205993652,-9.602751731872559,0.937425971031189
1757088549095551700,0.8905517578125,-1.332123041152954,-9.631763458251953,0.7979519963264465
1757088549105105000,0.90010498046875,-1.2816200256347656,-9.65722942352295,0.6683760285377502
1757088549114657800,0.90965771484375,-1.2346689701080322,-9.679200172424316,0.5490790009498596
1757088549124211200,0.919211181640625,-1.191804051399231,-9.697787284851074,0.44036099314689636
1757088549133764400,0.928764404296875,-1.153617024421692,-9.713142395019531,0.34244799613952637
1757088549143317500,0.9383173828125,-1.1204060316085815,-9.725454330444336,0.2556320130825043
1757088549152870700,0.94787060546875,-1.0888530015945435,-9.735337257385254,0.17897699773311615
1757088549162424000,0.957424072265625,-1.0623669624328613,-9.742764472961426,0.1134520024061203
1757088549171977200,0.966977294921875,-1.0411920547485352,-9.748031616210938,0.05894500017166138
1757088549181530400,0.9765302734375,-1.0309809446334839,-9.750633239746094,0.017247000709176064
1757088549191083500,0.98608349609375,-1.0259720087051392,-9.751980781555176,-0.015281000174582005
1757088549200636700,0.99563671875,-1.0224570035934448,-9.75271224975586,-0.03844200074672699
1757088549210189800,1.00518994140625,-1.016185998916626,-9.75342845916748,-0.0517599992454052
1757088549219743000,1.014742919921875,-1.0060429573059082,-9.754406929016113,-0.05579699948430061
1757088549229296000,1.024296142578125,-0.9923359751701355,-9.755718231201172,-0.053293000906705856
1757088549238849500,1.033849609375,-0.975633978843689,-9.757303237915039,-0.04706700146198273
1757088549248402700,1.043402587890625,-0.9564930200576782,-9.759078979492188,-0.03843599930405617
1757088549257955800,1.052955810546875,-0.9352009892463684,-9.760992050170898,-0.029093999415636063
1757088549267509000,1.062509033203125,-0.9117950201034546,-9.763022422790527,-0.020027000457048416
1757088549277062100,1.072062255859375,-0.8861510157585144,-9.765168190002441,-0.01167600043118
1757088549286615300,1.081615234375,-0.8582509756088257,-9.767416954040527,-0.004253999795764685
1757088549296168700,1.091168701171875,-0.8283050060272217,-9.769744873046875,0.0023060000967234373
1757088549305721900,1.100721923828125,-0.7968819737434387,-9.772107124328613,0.008484999649226665
1757088549315275000,1.11027490234375,-0.7645639777183533,-9.774462699890137,0.014581999741494656
1757088549324828200,1.119828125,-0.7317559719085693,-9.776792526245117,0.020779000595211983
1757088549334381300,1.12938134765625,-0.6986969709396362,-9.779097557067871,0.027348000556230545
1757088549343934500,1.1389345703125,-0.6689239740371704,-9.781058311462402,0.035656001418828964
1757088549353487600,1.148487548828125,-0.6396219730377197,-9.782986640930176,0.04465600103139877
1757088549363041000,1.158041015625,-0.6108989715576172,-9.784878730773926,0.05430300161242485
1757088549372594200,1.16759423828125,-0.5824300050735474,-9.786746978759766,0.06452900171279907
1757088549382147300,1.177147216796875,-0.5536609888076782,-9.788614273071289,0.0752829983830452
1757088549391700500,1.186700439453125,-0.5253459811210632,-9.790374755859375,0.08576399832963943
1757088549401253600,1.196253662109375,-0.4971559941768646,-9.792036056518555,0.09570500254631042
1757088549410807000,1.20580712890625,-0.46932899951934814,-9.79356575012207,0.10502699762582779
1757088549420360000,1.21535986328125,-0.44224798679351807,-9.79493236541748,0.11369600147008896
1757088549429913300,1.224913330078125,-0.4159480035305023,-9.796147346496582,0.12158499658107758
1757088549439466500,1.234466552734375,-0.3903299868106842,-9.79722785949707,0.12843899428844452
1757088549449019600,1.24401953125,-0.3655110001564026,-9.798172950744629,0.13523699343204498
1757088549458572800,1.25357275390625,-0.34188100695610046,-9.798959732055664,0.14267799258232117
1757088549468126200,1.263126220703125,-0.31991899013519287,-9.79957389831543,0.15122200548648834
1757088549477679400,1.272679443359375,-0.3000369966030121,-9.800013542175293,0.161204993724823
1757088549487232300,1.282232177734375,-0.2822839915752411,-9.800296783447266,0.172667995095253
1757088549496785700,1.29178564453125,-0.26612499356269836,-9.800466537475586,0.18505200743675232
1757088549506338800,1.3013388671875,-0.2508369982242584,-9.800564765930176,0.1976429969072342
1757088549515892000,1.31089208984375,-0.23574599623680115,-9.800630569458008,0.20987699925899506
1757088549525445400,1.3204453125,-0.22029300034046173,-9.800688743591309,0.2213599979877472
1757088549534998500,1.32999853515625,-0.20387999713420868,-9.800768852233887,0.2318280041217804
1757088549544551400,1.339551513671875,-0.18602600693702698,-9.800896644592285,0.24101300537586212
1757088549554104600,1.3491044921875,-0.16675899922847748,-9.801077842712402,0.24873299896717072
1757088549563657700,1.35865771484375,-0.14651499688625336,-9.801301002502441,0.2548289895057678
1757088549573211000,1.3682109375,-0.12577399611473083,-9.801544189453125,0.25908398628234863
1757088549582764300,1.377764404296875,-0.104994997382164,-9.801786422729492,0.26124700903892517
1757088549592317400,1.3873173828125,-0.08461999893188477,-9.802009582519531,0.26128700375556946
1757088549601870600,1.39687060546875,-0.0649769976735115,-9.802209854125977,0.25898998975753784
1757088549611423700,1.406423828125,-0.046181000769138336,-9.802389144897461,0.2542150020599365
1757088549620977000,1.415976806640625,-0.028234999626874924,-9.802550315856934,0.24684900045394897
1757088549630530000,1.425530029296875,-0.011149000376462936,-9.802700996398926,0.23691000044345856
1757088549640083200,1.435083251953125,0.005055000074207783,-9.80284595489502,0.22441500425338745
1757088549649636600,1.44463671875,0.020521000027656555,-9.802992820739746,0.20967599749565125
1757088549659189800,1.454189697265625,0.03554600104689598,-9.80315113067627,0.19305099546909332
1757088549668742700,1.46374267578125,0.050554998219013214,-9.803319931030273,0.17482799291610718
1757088549678296000,1.473296142578125,0.06580399721860886,-9.803499221801758,0.15507900714874268
1757088549687849200,1.48284912109375,0.08123800158500671,-9.803683280944824,0.13435199856758118
1757088549697402400,1.49240234375,0.0965770035982132,-9.803865432739258,0.11306700110435486
1757088549706955500,1.50195556640625,0.11144500225782394,-9.804032325744629,0.09161199629306793
1757088549716509000,1.511509033203125,0.12557299435138702,-9.804181098937988,0.07045699656009674
1757088549726062000,1.52106201171875,0.13877299427986145,-9.80431079864502,0.05012999847531319
1757088549735615000,1.530614990234375,0.1510159969329834,-9.804408073425293,0.031112000346183777
1757088549745168400,1.54016845703125,0.162432000041008,-9.804466247558594,0.01385900005698204
1757088549754721500,1.549721435546875,0.17315900325775146,-9.80448055267334,-0.0013589999871328473
1757088549764274700,1.559274658203125,0.1831039935350418,-9.804451942443848,-0.01435299962759018
1757088549773828000,1.568828125,0.1920749992132187,-9.804388046264648,-0.024806000292301178
1757088549783381200,1.57838134765625,0.2000650018453598,-9.804300308227539,-0.03279399871826172
1757088549792934100,1.58793408203125,0.20717699825763702,-9.804200172424316,-0.038378000259399414
1757088549802487600,1.597487548828125,0.21354100108146667,-9.804091453552246,-0.04155699908733368
1757088549812040700,1.607040771484375,0.21924400329589844,-9.803980827331543,-0.0423940010368824
1757088549821593900,1.61659375,0.22431600093841553,-9.803875923156738,-0.041099999099969864
1757088549831147000,1.62614697265625,0.22879700362682343,-9.803780555725098,-0.03782700002193451
1757088549840700400,1.635700439453125,0.2327519953250885,-9.803693771362305,-0.032864999026060104
1757088549850253300,1.64525341796875,0.2360370010137558,-9.803620338439941,-0.026660999283194542
1757088549859806500,1.654806396484375,0.2385520040988922,-9.803561210632324,-0.01948999986052513
1757088549869359900,1.66435986328125,0.2403090000152588,-9.803520202636719,-0.01141900010406971
1757088549878913000,1.6739130859375,0.2415190041065216,-9.803489685058594,-0.002939000027254224
1757088549888466200,1.683466064453125,0.24237099289894104,-9.803467750549316,0.0056489999406039715
1757088549898019300,1.693019287109375,0.24295300245285034,-9.80345344543457,0.01423600036650896
1757088549907572700,1.70257275390625,0.24325600266456604,-9.80344295501709,0.022686999291181564
1757088549917125600,1.712125732421875,0.24331000447273254,-9.803436279296875,0.030784999951720238
1757088549926678800,1.7216787109375,0.2431430071592331,-9.803430557250977,0.03848600015044212
1757088549936232200,1.731232177734375,0.24273599684238434,-9.803426742553711,0.04574299976229668
1757088549945785300,1.740785400390625,0.24202699959278107,-9.803427696228027,0.05251700058579445
1757088549955338500,1.75033837890625,0.2410919964313507,-9.803430557250977,0.05893100053071976
1757088549964891600,1.7598916015625,0.24003000557422638,-9.803434371948242,0.0648220032453537
1757088549974445000,1.769445068359375,0.23893700540065765,-9.803438186645508,0.07019399851560593
1757088549983998000,1.778998046875,0.23783999681472778,-9.803442001342773,0.07503300160169601
1757088549993551000,1.788551025390625,0.23673799633979797,-9.803446769714355,0.07930699735879898
1757088550003104300,1.798104248046875,0.23565399646759033,-9.803450584411621,0.08303000032901764
1757088550012657700,1.80765771484375,0.2347400039434433,-9.803451538085938,0.08618800342082977
1757088550022210800,1.8172109375,0.23402200639247894,-9.803450584411621,0.08864100277423859
1757088550031763700,1.826763671875,0.23334600031375885,-9.80345344543457,0.09032099694013596
1757088550041317000,1.836317138671875,0.23267899453639984,-9.803462028503418,0.09125000238418579
1757088550050870300,1.845870361328125,0.2318979948759079,-9.803479194641113,0.09145200252532959
1757088550060423400,1.85542333984375,0.2309509962797165,-9.803504943847656,0.0908690020442009
1757088550069976600,1.8649765625,0.22965200245380402,-9.803543090820312,0.08973199874162674
1757088550079530000,1.874530029296875,0.22787000238895416,-9.803592681884766,0.0883290022611618
1757088550089083000,1.884082763671875,0.22569799423217773,-9.8036527633667,0.086776003241539
1757088550098636000,1.893635986328125,0.2233940064907074,-9.80371379852295,0.08511599898338318
1757088550108189400,1.903189453125,0.22104400396347046,-9.803777694702148,0.08337400108575821
1757088550117742600,1.91274267578125,0.21859200298786163,-9.803842544555664,0.08160299807786942
1757088550127295700,1.922295654296875,0.21599900722503662,-9.803912162780762,0.07986299693584442
1757088550136849000,1.931848876953125,0.2133529931306839,-9.803980827331543,0.07818199694156647
1757088550146401800,1.94140185546875,0.21075400710105896,-9.804048538208008,0.07646399736404419
1757088550155955200,1.950955078125,0.20830300450325012,-9.804116249084473,0.07477399706840515
1757088550165508600,1.960508544921875,0.2059450000524521,-9.804181098937988,0.07306499779224396
1757088550175061500,1.9700615234375,0.20365500450134277,-9.804243087768555,0.07144399732351303
1757088550184615000,1.979614990234375,0.20138700306415558,-9.804304122924805,0.06992000341415405
1757088550194167800,1.989167724609375,0.19902099668979645,-9.804365158081055,0.06852400302886963
1757088550203721000,1.998720947265625,0.19640100002288818,-9.80443000793457,0.06735300272703171
1757088550213274000,2.008274169921875,0.19352099299430847,-9.804496765136719,0.06652799993753433
1757088550222827300,2.0178271484375,0.19054099917411804,-9.804561614990234,0.06601600348949432
1757088550232380700,2.027380615234375,0.18766599893569946,-9.804619789123535,0.06584099680185318
1757088550241933600,2.03693359375,0.18503700196743011,-9.804669380187988,0.0660720020532608
1757088550251487000,2.046487060546875,0.18263399600982666,-9.804707527160645,0.06677000224590302
1757088550261040000,2.0560400390625,0.18039800226688385,-9.804741859436035,0.06788299977779388
1757088550270593300,2.06559326171875,0.17828500270843506,-9.804770469665527,0.06926999986171722
1757088550280146400,2.075146484375,0.17630599439144135,-9.804794311523438,0.07085900008678436
1757088550289699800,2.084699951171875,0.17443199455738068,-9.804814338684082,0.07260899990797043
1757088550299253000,2.0942529296875,0.17266300320625305,-9.804832458496094,0.07445800304412842
1757088550308806000,2.103805908203125,0.17099300026893616,-9.80484676361084,0.07634299993515015
1757088550318359300,2.113359375,0.1693979948759079,-9.804859161376953,0.07825999706983566
1757088550327912400,2.122912353515625,0.16770200431346893,-9.8048734664917,0.08013200014829636
1757088550337465600,2.132465576171875,0.1657620072364807,-9.804891586303711,0.08189699798822403
1757088550347018800,2.142018798828125,0.1635109931230545,-9.804916381835938,0.08346900343894958
1757088550356571600,2.151571533203125,0.16103099286556244,-9.804945945739746,0.08489300310611725
1757088550366125000,2.161125,0.15839199721813202,-9.804980278015137,0.08602199703454971
1757088550375678200,2.17067822265625,0.15566599369049072,-9.805018424987793,0.0867839977145195
1757088550385231400,2.1802314453125,0.15294699370861053,-9.805060386657715,0.08705300092697144
1757088550394784500,2.189784423828125,0.15035900473594666,-9.80510425567627,0.08660600334405899
1757088550404337700,2.199337646484375,0.1480329930782318,-9.805147171020508,0.08544400334358215
1757088550413890800,2.208890869140625,0.14600199460983276,-9.805190086364746,0.08368200063705444
1757088550423444000,2.21844384765625,0.14414699375629425,-9.805231094360352,0.08147700130939484
1757088550432997000,2.2279970703125,0.14237500727176666,-9.80527400970459,0.07899200171232224
1757088550442550500,2.237550537109375,0.1407800018787384,-9.805315017700195,0.07639899849891663
1757088550452103400,2.247103515625,0.139383003115654,-9.805352210998535,0.07378099858760834
1757088550461656600,2.256656494140625,0.13811799883842468,-9.805386543273926,0.07124499976634979
1757088550471210000,2.2662099609375,0.1368750035762787,-9.805419921875,0.068851999938488
1757088550480763100,2.27576318359375,0.1354680061340332,-9.805455207824707,0.06651099771261215
1757088550490316300,2.28531640625,0.1337520033121109,-9.80549430847168,0.06428299844264984
1757088550499869400,2.294869384765625,0.13163000345230103,-9.805538177490234,0.06219400092959404
1757088550509422600,2.304422607421875,0.12898500263690948,-9.805587768554688,0.06012500077486038
1757088550518975700,2.313975830078125,0.12581300735473633,-9.80564022064209,0.05813800171017647
1757088550528529000,2.32352880859375,0.12213899940252304,-9.805695533752441,0.056237999349832535
1757088550538082000,2.33308203125,0.11792899668216705,-9.805749893188477,0.05459599941968918
1757088550547635200,2.34263525390625,0.11310199648141861,-9.805803298950195,0.05333000048995018
1757088550557188400,2.352188232421875,0.1075579971075058,-9.805853843688965,0.05259399861097336
1757088550566741500,2.361741455078125,0.10119199752807617,-9.805898666381836,0.052531998604536057
1757088550576295000,2.371294921875,0.09405700117349625,-9.80593204498291,0.05342499911785126
1757088550585848000,2.38084814453125,0.08627200126647949,-9.805951118469238,0.05560300126671791
1757088550595401200,2.390401123046875,0.07797600328922272,-9.80595588684082,0.05907199904322624
1757088550604954400,2.399954345703125,0.06943300366401672,-9.805948257446289,0.06372900307178497
1757088550614507500,2.409507568359375,0.060954999178647995,-9.805931091308594,0.06933899968862534
1757088550624060700,2.419060791015625,0.05286800116300583,-9.80591106414795,0.07534100115299225
1757088550633613800,2.42861376953125,0.045292001217603683,-9.80589485168457,0.08132699877023697
1757088550643167000,2.4381669921875,0.03820699825882912,-9.80588436126709,0.08711899816989899
1757088550652720000,2.44772021484375,0.03142699971795082,-9.805874824523926,0.09275499731302261
1757088550662273300,2.457273193359375,0.02480500005185604,-9.805864334106445,0.0982780009508133
1757088550671826400,2.466826416015625,0.018292000517249107,-9.8058500289917,0.10380800068378448
1757088550681379600,2.476379638671875,0.011889000423252583,-9.805829048156738,0.109375
1757088550690932700,2.4859326171875,0.005458000116050243,-9.805798530578613,0.11500699818134308
1757088550700486000,2.49548583984375,-0.0009759999811649323,-9.805753707885742,0.12078999727964401
1757088550710039000,2.5050390625,-0.0073090000078082085,-9.805700302124023,0.12658299505710602
1757088550719592200,2.51459228515625,-0.013381999917328358,-9.805636405944824,0.13245299458503723
1757088550729145300,2.524145263671875,-0.018911000341176987,-9.805562973022461,0.13842999935150146
1757088550738698800,2.53369873046875,-0.023739999160170555,-9.805482864379883,0.14438199996948242
1757088550748252000,2.543251953125,-0.027747999876737595,-9.805400848388672,0.15018700063228607
1757088550757804800,2.5528046875,-0.030753999948501587,-9.805318832397461,0.15562400221824646
1757088550767358200,2.562358154296875,-0.032683998346328735,-9.805242538452148,0.16046500205993652
1757088550776911400,2.571911376953125,-0.03374600037932396,-9.805174827575684,0.16457200050354004
1757088550786464500,2.581464599609375,-0.034425001591444016,-9.805113792419434,0.16810399293899536
1757088550796017700,2.591017578125,-0.03520999848842621,-9.805059432983398,0.17100700736045837
1757088550805571000,2.600571044921875,-0.03638099879026413,-9.805009841918945,0.17339499294757843
1757088550815124200,2.610124267578125,-0.03819800168275833,-9.804960250854492,0.17560400068759918
1757088550824677000,2.619677001953125,-0.040883999317884445,-9.804903030395508,0.17803999781608582
1757088550834230500,2.62923046875,-0.044353000819683075,-9.804838180541992,0.18083399534225464
1757088550843783400,2.638783447265625,-0.04820699989795685,-9.804766654968262,0.18377099931240082
1757088550853336800,2.6483369140625,-0.0521170012652874,-9.804695129394531,0.18679000437259674
1757088550862889700,2.6578896484375,-0.055865999311208725,-9.804621696472168,0.18984399735927582
1757088550872443100,2.667443115234375,-0.059220001101493835,-9.804550170898438,0.19286499917507172
1757088550881996300,2.676996337890625,-0.061838001012802124,-9.804482460021973,0.19576199352741241
1757088550891549400,2.686549560546875,-0.06353899836540222,-9.804417610168457,0.1985359936952591
1757088550901102600,2.6961025390625,-0.0643640011548996,-9.804354667663574,0.20135700702667236
1757088550910655700,2.70565576171875,-0.06452299654483795,-9.80429458618164,0.20424999296665192
1757088550920209000,2.715208984375,-0.06433600187301636,-9.804235458374023,0.20706599950790405
1757088550929762000,2.724761962890625,-0.06396500021219254,-9.804180145263672,0.20971600711345673
1757088550939315200,2.734315185546875,-0.06345800310373306,-9.804132461547852,0.21211299300193787
1757088550948868400,2.743868408203125,-0.06304600089788437,-9.804086685180664,0.21429100632667542
1757088550958421500,2.75342138671875,-0.06312000006437302,-9.804041862487793,0.21636800467967987
1757088550967974700,2.762974609375,-0.06383900344371796,-9.803994178771973,0.21841299533843994
1757088550977527800,2.77252783203125,-0.06488599628210068,-9.803945541381836,0.2203039973974228
1757088550987081000,2.7820810546875,-0.06577099859714508,-9.803903579711914,0.2220029979944229
1757088550996634400,2.79163427734375,-0.06618200242519379,-9.803868293762207,0.2234320044517517
1757088551006187500,2.8011875,-0.06601999700069427,-9.803842544555664,0.2246440052986145
1757088551015740700,2.81074072265625,-0.06532800197601318,-9.803827285766602,0.22559300065040588
1757088551025293600,2.82029345703125,-0.0642779991030693,-9.803816795349121,0.22635599970817566
1757088551034847000,2.829846923828125,-0.0629820004105568,-9.803811073303223,0.22703200578689575
1757088551044400000,2.839400146484375,-0.0614980012178421,-9.80380916595459,0.22754399478435516
1757088551053953300,2.848953369140625,-0.05996900051832199,-9.803812026977539,0.22791899740695953
1757088551063506200,2.858506103515625,-0.05860299989581108,-9.803814888000488,0.2281630039215088
1757088551073059300,2.868059326171875,-0.057457998394966125,-9.80381965637207,0.2282550036907196
1757088551082612500,2.877612548828125,-0.05637500062584877,-9.803831100463867,0.22798100113868713
1757088551092166000,2.887165771484375,-0.05519400164484978,-9.803853988647461,0.22719499468803406
1757088551101719000,2.896718994140625,-0.053950000554323196,-9.803890228271484,0.2257709950208664
1757088551111272000,2.90627197265625,-0.052705999463796616,-9.80394172668457,0.2236669957637787
1757088551120825300,2.915825439453125,-0.05140300095081329,-9.804003715515137,0.22103099524974823
1757088551130378500,2.92537841796875,-0.04990300163626671,-9.804072380065918,0.21799899637699127
1757088551139931600,2.934931640625,-0.04813100025057793,-9.804143905639648,0.2146729975938797
1757088551149484500,2.944484619140625,-0.04602999985218048,-9.804222106933594,0.21115100383758545
1757088551159038000,2.954037841796875,-0.04362599924206734,-9.80431079864502,0.2072020024061203
1757088551168591000,2.963591064453125,-0.04115699976682663,-9.804410934448242,0.20259200036525726
1757088551178144300,2.973144287109375,-0.03886500000953674,-9.804518699645996,0.1973849982023239
1757088551187697400,2.982697509765625,-0.03674300014972687,-9.804630279541016,0.19164599478244781
1757088551197250600,2.99225048828125,-0.03476300090551376,-9.804743766784668,0.18533200025558472
1757088551206803700,3.0018037109375,-0.03280099853873253,-9.804861068725586,0.17836099863052368
1757088551216356900,3.01135693359375,-0.030863000079989433,-9.804984092712402,0.17068299651145935
1757088551225910000,3.020909912109375,-0.02916399948298931,-9.805107116699219,0.16252200305461884
1757088551235463400,3.03046337890625,-0.027941999956965446,-9.805230140686035,0.1540990024805069
1757088551245016300,3.040016357421875,-0.027365999296307564,-9.805350303649902,0.14552900195121765
1757088551254569700,3.04956982421875,-0.027494000270962715,-9.805468559265137,0.13704000413417816
1757088551264123000,3.059122802734375,-0.028425000607967377,-9.805580139160156,0.12889400124549866
1757088551273676000,3.068676025390625,-0.03042300045490265,-9.80567741394043,0.12138500064611435
1757088551283229200,3.078229248046875,-0.0336339995265007,-9.805753707885742,0.11489299684762955
1757088551292782300,3.0877822265625,-0.03806300088763237,-9.805804252624512,0.10958900302648544
1757088551302335500,3.09733544921875,-0.04374999925494194,-9.805817604064941,0.10566099733114243
1757088551311888600,3.106888671875,-0.05095599964261055,-9.805788040161133,0.10316500067710876
1757088551321441800,3.11644189453125,-0.06024299934506416,-9.805704116821289,0.10201600193977356
1757088551330995000,3.125994873046875,-0.07195699959993362,-9.805546760559082,0.10205300152301788
1757088551340548000,3.135548095703125,-0.0865119993686676,-9.80529499053955,0.10306400060653687
1757088551350101200,3.145101318359375,-0.10437899827957153,-9.804905891418457,0.10493200272321701
1757088551359654700,3.154654541015625,-0.12598100304603577,-9.804322242736816,0.10795299708843231
1757088551369207600,3.16420751953125,-0.15215100347995758,-9.803467750549316,0.11225999891757965
1757088551378760700,3.1737607421875,-0.18384400010108948,-9.80224323272705,0.11808600276708603
1757088551388313900,3.18331396484375,-0.22171300649642944,-9.800538063049316,0.12576299905776978
1757088551397867300,3.1928671875,-0.266167014837265,-9.798238754272461,0.13558100163936615
1757088551407420200,3.202420166015625,-0.31731000542640686,-9.795223236083984,0.14780600368976593
1757088551416973300,3.211973388671875,-0.374769002199173,-9.791406631469727,0.16251499950885773
1757088551426526500,3.2215263671875,-0.43701401352882385,-9.786882400512695,0.17945100367069244
1757088551436079600,3.23107958984375,-0.501350998878479,-9.781957626342773,0.1977889984846115
1757088551445632800,3.2406328125,-0.5671859979629517,-9.776677131652832,0.2172439992427826
1757088551455186200,3.250186279296875,-0.635450005531311,-9.770906448364258,0.23710599541664124
1757088551464739000,3.259739013671875,-0.7065560221672058,-9.764606475830078,0.256166011095047
1757088551474292500,3.26929248046875,-0.7793689966201782,-9.757983207702637,0.27305299043655396
1757088551483845400,3.278845458984375,-0.8525859713554382,-9.751262664794922,0.28678199648857117
1757088551493398500,3.2883984375,-0.9252399802207947,-9.744540214538574,0.29793301224708557
1757088551502951700,3.29795166015625,-1.000440001487732,-9.737174034118652,0.3086310029029846
1757088551512504800,3.3075048828125,-1.0731780529022217,-9.729920387268066,0.3197529911994934
1757088551522058000,3.31705810546875,-1.1446540355682373,-9.722530364990234,0.3310050070285797
1757088551531611100,3.326611083984375,-1.216025948524475,-9.714728355407715,0.3420949876308441
1757088551541164300,3.336164306640625,-1.2881449460983276,-9.70624828338623,0.35324400663375854
1757088551550717400,3.345717529296875,-1.3621840476989746,-9.696779251098633,0.3637959957122803
1757088551560270600,3.3552705078125,-1.4390360116958618,-9.685995101928711,0.3728860020637512
1757088551569823700,3.36482373046875,-1.5179589986801147,-9.673907279968262,0.37991100549697876
1757088551579377000,3.374376953125,-1.5966119766235352,-9.660961151123047,0.3844200074672699
1757088551588930000,3.383929931640625,-1.6742360591888428,-9.647272109985352,0.3870750069618225
1757088551598483200,3.393483154296875,-1.7506599426269531,-9.632843017578125,0.38857701420783997
1757088551608036400,3.403036376953125,-1.826174020767212,-9.617606163024902,0.3900040090084076
1757088551617589500,3.412589599609375,-1.901474952697754,-9.601572036743164,0.391838014125824
1757088551627142700,3.422142578125,-1.978052020072937,-9.584671020507812,0.3945600092411041
1757088551636695800,3.43169580078125,-2.057476043701172,-9.566482543945312,0.3975690007209778
1757088551646249000,3.4412490234375,-2.1379730701446533,-9.547350883483887,0.4010230004787445
1757088551655802000,3.450802001953125,-2.2181129455566406,-9.527471542358398,0.408066987991333
1757088551665355300,3.460355224609375,-2.300239086151123,-9.506040573120117,0.42158299684524536
1757088551674908700,3.46990869140625,-2.3867709636688232,-9.482138633728027,0.4443430006504059
1757088551684461600,3.479461669921875,-2.478951930999756,-9.455784797668457,0.47099798917770386
1757088551694014700,3.4890146484375,-2.573759078979492,-9.42734146118164,0.499765008687973
1757088551703567600,3.498567626953125,-2.677043914794922,-9.395071029663086,0.5329030156135559
1757088551713121000,3.50812109375,-2.7871439456939697,-9.359271049499512,0.5688549876213074
1757088551722674200,3.517674072265625,-2.9009220600128174,-9.320731163024902,0.6074219942092896
1757088551732227300,3.527227294921875,-3.016726016998291,-9.279733657836914,0.6481840014457703
1757088551741780500,3.536780517578125,-3.1328659057617188,-9.236459732055664,0.6918010115623474
1757088551751333600,3.546333740234375,-3.248039960861206,-9.190911293029785,0.7396529912948608
1757088551760886800,3.55588671875,-3.3635129928588867,-9.142431259155273,0.7919399738311768
1757088551770440000,3.56543994140625,-3.482059955596924,-9.090147972106934,0.8476420044898987
1757088551779993000,3.5749931640625,-3.603935956954956,-9.034279823303223,0.9036769866943359
1757088551789546200,3.584546142578125,-3.7287991046905518,-8.975127220153809,0.9575560092926025
1757088551799099400,3.594099365234375,-3.857769012451172,-8.912156105041504,1.0058809518814087
1757088551808652500,3.603652587890625,-3.9930419921875,-8.843891143798828,1.0482100248336792
1757088551818205700,3.613205810546875,-4.134245872497559,-8.770209312438965,1.0871649980545044
1757088551827758800,3.6227587890625,-4.277895927429199,-8.692294120788574,1.1269409656524658
1757088551837312000,3.63231201171875,-4.423083782196045,-8.610642433166504,1.169854998588562
1757088551846865200,3.641865234375,-4.569965839385986,-8.525531768798828,1.2138830423355103
1757088551856418300,3.651418212890625,-4.716447830200195,-8.438207626342773,1.2567460536956787
1757088551865971500,3.660971435546875,-4.861796855926514,-8.349209785461426,1.294924020767212
1757088551875524600,3.670524658203125,-5.005965232849121,-8.25834846496582,1.3313289880752563
1757088551885077800,3.680077880859375,-5.1492228507995605,-8.165639877319336,1.3636939525604248
1757088551894631000,3.689630859375,-5.291176795959473,-8.071395874023438,1.387624979019165
1757088551904184000,3.69918408203125,-5.432700157165527,-7.9747209548950195,1.404412031173706
1757088551913737200,3.7087373046875,-5.574850082397461,-7.875114917755127,1.4146039485931396
1757088551923290400,3.718290283203125,-5.716983795166016,-7.772968769073486,1.4192709922790527
1757088551932843800,3.72784375,-5.858108997344971,-7.66900110244751,1.4193700551986694
1757088551942396700,3.737396728515625,-5.997154235839844,-7.564022064208984,1.415421962738037
1757088551951949800,3.74694970703125,-6.132763862609863,-7.458817958831787,1.4078049659729004
1757088551961502700,3.756502685546875,-6.263548851013184,-7.354187965393066,1.398360013961792
1757088551971056000,3.76605615234375,-6.389291763305664,-7.250028133392334,1.3902989625930786
1757088551980609300,3.775609375,-6.509825229644775,-7.14644193649292,1.3857100009918213
1757088551990162400,3.785162353515625,-6.623999118804932,-7.04394006729126,1.3864760398864746
1757088551999715300,3.79471533203125,-6.731072902679443,-6.943056106567383,1.3914419412612915
1757088552009268700,3.804268798828125,-6.833255767822266,-6.842606067657471,1.397197961807251
1757088552018822000,3.81382177734375,-6.933338165283203,-6.741030216217041,1.3997550010681152
1757088552028375000,3.823375,-7.033352851867676,-6.637031078338623,1.3963359594345093
1757088552037928000,3.832927978515625,-7.1343607902526855,-6.5295491218566895,1.3865619897842407
1757088552047481300,3.8424814453125,-7.236484050750732,-6.418490886688232,1.3718169927597046
1757088552057034500,3.852034423828125,-7.338129043579102,-6.305221080780029,1.3548569679260254
1757088552066587600,3.861587646484375,-7.437716007232666,-6.191053867340088,1.3393100500106812
1757088552076140500,3.871140625,-7.5342559814453125,-6.076447010040283,1.3280370235443115
1757088552085693700,3.880693603515625,-7.626902103424072,-5.962087154388428,1.3215320110321045
1757088552095247000,3.8902470703125,-7.7151689529418945,-5.848419189453125,1.3193809986114502
1757088552104800300,3.89980029296875,-7.799595832824707,-5.7348737716674805,1.321405053138733
1757088552114353200,3.909353271484375,-7.880895137786865,-5.621160984039307,1.3263590335845947
1757088552123906300,3.91890625,-7.95962381362915,-5.507132053375244,1.333569049835205
1757088552133459700,3.928459716796875,-8.036218643188477,-5.3927412033081055,1.3420870304107666
1757088552143012600,3.9380126953125,-8.110897064208984,-5.277813911437988,1.3515280485153198
1757088552152565800,3.947565673828125,-8.184080123901367,-5.161913871765137,1.3614460229873657
1757088552162119000,3.957118896484375,-8.256068229675293,-5.044923782348633,1.370743989944458
1757088552171672300,3.96667236328125,-8.327171325683594,-4.926628112792969,1.378906011581421
1757088552181225200,3.97622509765625,-8.397098541259766,-4.807975769042969,1.3848600387573242
1757088552190778400,3.9857783203125,-8.464770317077637,-4.69035005569458,1.3898359537124634
1757088552200331500,3.99533154296875,-8.528976440429688,-4.575034141540527,1.3960200548171997
1757088552209884700,4.004884765625,-8.589139938354492,-4.46314811706543,1.4034199714660645
1757088552219437800,4.014437744140625,-8.645017623901367,-4.3551812171936035,1.4121860265731812
1757088552228991000,4.023990966796875,-8.696435928344727,-4.25171422958374,1.4221370220184326
1757088552238544000,4.0335439453125,-8.743936538696289,-4.152691841125488,1.4323480129241943
1757088552248097300,4.04309716796875,-8.789079666137695,-4.054978847503662,1.443079948425293
1757088552257650400,4.052650390625,-8.832852363586426,-3.957535982131958,1.452800989151001
1757088552267203600,4.06220361328125,-8.875364303588867,-3.8603758811950684,1.4613009691238403
1757088552276756700,4.0717568359375,-8.916367530822754,-3.7636830806732178,1.4699310064315796
1757088552286310000,4.081309814453125,-8.955350875854492,-3.6680080890655518,1.4802700281143188
1757088552295863000,4.090863037109375,-8.991947174072266,-3.5740768909454346,1.4925800561904907
1757088552305416200,4.100416259765625,-9.026123046875,-3.481818914413452,1.5075910091400146
1757088552314969300,4.10996923828125,-9.05823040008545,-3.3908050060272217,1.5247249603271484
1757088552324522500,4.1195224609375,-9.087626457214355,-3.301229953765869,1.5475070476531982
1757088552334075600,4.12907568359375,-9.114041328430176,-3.2132489681243896,1.5766960382461548
1757088552343628500,4.138628662109375,-9.13756275177002,-3.1272270679473877,1.6111030578613281
1757088552353182000,4.148181884765625,-9.15856647491455,-3.043299913406372,1.6489759683609009
1757088552362735000,4.157735107421875,-9.177345275878906,-2.9620370864868164,1.688696026802063
1757088552372288000,4.1672880859375,-9.194273948669434,-2.881650924682617,1.731590986251831
1757088552381841200,4.176841064453125,-9.209686279296875,-2.8022079467773438,1.776731014251709
1757088552391394600,4.18639453125,-9.223901748657227,-2.72324800491333,1.8230140209197998
1757088552400947700,4.19594775390625,-9.236818313598633,-2.6444809436798096,1.871500015258789
1757088552410500900,4.2055009765625,-9.248417854309082,-2.5662009716033936,1.9221659898757935
1757088552420053800,4.2150537109375,-9.258785247802734,-2.4881980419158936,1.9750579595565796
1757088552429607000,4.22460693359375,-9.268158912658691,-2.4093499183654785,2.030426025390625
1757088552439160000,4.23416015625,-9.275970458984375,-2.331238031387329,2.0874850749969482
1757088552448713200,4.243713134765625,-9.282347679138184,-2.2535059452056885,2.1460180282592773
1757088552458266400,4.253266357421875,-9.287428855895996,-2.177635908126831,2.204516887664795
1757088552467819800,4.26281982421875,-9.291485786437988,-2.1034460067749023,2.262140989303589
1757088552477372700,4.27237255859375,-9.294732093811035,-2.0309178829193115,2.318181037902832
1757088552486925800,4.28192578125,-9.297274589538574,-1.9600520133972168,2.372437000274658
1757088552496479000,4.29147900390625,-9.29919147491455,-1.890936017036438,2.4247050285339355
1757088552506032400,4.301032470703125,-9.300694465637207,-1.821951985359192,2.4751551151275635
1757088552515585300,4.310585205078125,-9.30302619934082,-1.7525449991226196,2.518968105316162
1757088552525138400,4.320138427734375,-9.30647087097168,-1.682446002960205,2.555424928665161
1757088552534691300,4.32969140625,-9.310787200927734,-1.6118860244750977,2.5858559608459473
1757088552544244700,4.33924462890625,-9.315413475036621,-1.5416719913482666,2.6125380992889404
1757088552553798000,4.3487978515625,-9.32033920288086,-1.4721729755401611,2.63611102104187
1757088552563351000,4.35835107421875,-9.325387001037598,-1.4053269624710083,2.656153917312622
1757088552572904000,4.367904052734375,-9.330374717712402,-1.3408429622650146,2.673927068710327
1757088552582457000,4.37745703125,-9.335173606872559,-1.2786600589752197,2.6898550987243652
1757088552592010500,4.387010498046875,-9.339775085449219,-1.21840500831604,2.7041399478912354
1757088552601563400,4.3965634765625,-9.343900680541992,-1.159741997718811,2.7180569171905518
1757088552611116800,4.40611669921875,-9.34724235534668,-1.1030189990997314,2.7325448989868164
1757088552620670000,4.415669921875,-9.349688529968262,-1.049111008644104,2.7475740909576416
1757088552630222800,4.425222900390625,-9.351384162902832,-0.9985830187797546,2.7624669075012207
1757088552639776000,4.43477587890625,-9.352490425109863,-0.9517109990119934,2.776719093322754
1757088552649329200,4.4443291015625,-9.353218078613281,-0.906853973865509,2.79071307182312
1757088552658882300,4.45388232421875,-9.353568077087402,-0.863985002040863,2.804532051086426
1757088552668435500,4.463435546875,-9.353506088256836,-0.8229780197143555,2.818419933319092
1757088552677988600,4.472988525390625,-9.35301399230957,-0.7837979793548584,2.8325119018554688
1757088552687541800,4.482541748046875,-9.35212516784668,-0.7463549971580505,2.846796989440918
1757088552697095000,4.492094970703125,-9.350692749023438,-0.7125089764595032,2.861083984375
1757088552706648000,4.50164794921875,-9.348550796508789,-0.6826279759407043,2.876038074493408
1757088552716201200,4.511201171875,-9.345758438110352,-0.6570219993591309,2.891529083251953
1757088552725754000,4.520754150390625,-9.342531204223633,-0.6352130174636841,2.907128095626831
1757088552735307300,4.530307373046875,-9.339048385620117,-0.6166009902954102,2.922550916671753
1757088552744860700,4.539860595703125,-9.334981918334961,-0.6005910038948059,2.93914794921875
1757088552754413600,4.54941357421875,-9.330301284790039,-0.5862889885902405,2.9572999477386475
1757088552763966700,4.558966796875,-9.325270652770996,-0.5732219815254211,2.9762868881225586
1757088552773520000,4.568519775390625,-9.320292472839355,-0.5617690086364746,2.9947500228881836
1757088552783073300,4.5780732421875,-9.315908432006836,-0.5525509715080261,3.0108261108398438
1757088552792626200,4.587626220703125,-9.312529563903809,-0.5461410284042358,3.023087978363037
1757088552802179300,4.597179443359375,-9.310370445251465,-0.5428860187530518,3.03075909614563
1757088552811732500,4.606732421875,-9.309467315673828,-0.5426220297813416,3.0337350368499756
1757088552821285600,4.61628564453125,-9.309759140014648,-0.5449870228767395,3.0322670936584473
1757088552830838800,4.6258388671875,-9.311017990112305,-0.5498120188713074,3.0271029472351074
1757088552840392000,4.635391845703125,-9.313011169433594,-0.5569310188293457,3.019028902053833
1757088552849945000,4.644945068359375,-9.315506935119629,-0.5660099983215332,3.0088729858398438
1757088552859498200,4.654498291015625,-9.318479537963867,-0.576125979423523,2.996983051300049
1757088552869051400,4.664051513671875,-9.322075843811035,-0.5868759751319885,2.9829890727996826
1757088552878604300,4.673604248046875,-9.326254844665527,-0.598173975944519,2.9670350551605225
1757088552888157700,4.68315771484375,-9.330894470214844,-0.609906017780304,2.949537992477417
1757088552897710800,4.6927109375,-9.335824966430664,-0.6218079924583435,2.931049108505249
1757088552907263700,4.702263671875,-9.340970039367676,-0.6335840225219727,2.9118740558624268
1757088552916817000,4.71181689453125,-9.346325874328613,-0.645218014717102,2.8920130729675293
1757088552926370000,4.7213701171875,-9.351968765258789,-0.6563190221786499,2.8712949752807617
1757088552935923200,4.730923095703125,-9.358114242553711,-0.6666669845581055,2.84907603263855
1757088552945476600,4.7404765625,-9.364801406860352,-0.6765040159225464,2.825145959854126
1757088552955029500,4.750029541015625,-9.37193775177002,-0.6860309839248657,2.799722909927368
1757088552964582700,4.759582763671875,-9.379291534423828,-0.69514399766922,2.7734949588775635
1757088552974135600,4.769135498046875,-9.386517524719238,-0.7037680149078369,2.7474939823150635
1757088552983689000,4.77868896484375,-9.393285751342773,-0.711480975151062,2.7228870391845703
1757088552993241900,4.788241943359375,-9.399456977844238,-0.7179759740829468,2.7002429962158203
1757088553002795000,4.797794921875,-9.404943466186523,-0.7232210040092468,2.679995059967041
1757088553012348400,4.807348388671875,-9.409688949584961,-0.7273390293121338,2.662400007247925
1757088553021901600,4.816901611328125,-9.413766860961914,-0.7305529713630676,2.6472420692443848
1757088553031454700,4.826454833984375,-9.417283058166504,-0.733057975769043,2.6341679096221924
1757088553041007600,4.836007568359375,-9.420319557189941,-0.7351570129394531,2.6228749752044678
1757088553050560800,4.845560791015625,-9.422906875610352,-0.737546980381012,2.613081932067871
1757088553060114000,4.855114013671875,-9.424910545349121,-0.740464985370636,2.6051828861236572
1757088553069667000,4.8646669921875,-9.426255226135254,-0.7440400123596191,2.599421977996826
1757088553079220200,4.87422021484375,-9.426937103271484,-0.7484380006790161,2.595750093460083
1757088553088773400,4.8837734375,-9.426947593688965,-0.7535669803619385,2.5942139625549316
1757088553098326500,4.893326416015625,-9.426304817199707,-0.7597969770431519,2.59462308883667
1757088553107879400,4.90287939453125,-9.425000190734863,-0.7672910094261169,2.5969510078430176
1757088553117432600,4.9124326171875,-9.423129081726074,-0.7757220268249512,2.6009581089019775
1757088553126985700,4.92198583984375,-9.420694351196289,-0.7847560048103333,2.6067469120025635
1757088553136539100,4.9315390625,-9.417715072631836,-0.7939109802246094,2.6143879890441895
1757088553146092000,4.941092041015625,-9.414155960083008,-0.8034219741821289,2.6239418983459473
1757088553155645200,4.950645263671875,-9.410077095031738,-0.8130729794502258,2.6352829933166504
1757088553165198300,4.9601982421875,-9.405595779418945,-0.8224560022354126,2.6481480598449707
1757088553174751500,4.96975146484375,-9.400884628295898,-0.8314020037651062,2.6619889736175537
1757088553184304600,4.9793046875,-9.396116256713867,-0.8397229909896851,2.6762568950653076
1757088553193857800,4.98885791015625,-9.391500473022461,-0.8475139737129211,2.690176010131836
1757088553203410700,4.99841064453125,-9.387186050415039,-0.8548020124435425,2.703187942504883
1757088553212963800,5.0079638671875,-9.383272171020508,-0.8612170219421387,2.715070962905884
1757088553222517200,5.017517333984375,-9.379826545715332,-0.8666880130767822,2.725593090057373
1757088553232070100,5.027070068359375,-9.376951217651367,-0.8712760210037231,2.7343668937683105
1757088553241623300,5.036623291015625,-9.37462329864502,-0.8754050135612488,2.741339921951294
1757088553251176400,5.046176513671875,-9.372823715209961,-0.8791859745979309,2.74653697013855
1757088553260729600,5.0557294921875,-9.371665954589844,-0.8823570013046265,2.749630928039551
1757088553270282800,5.06528271484375,-9.37119197845459,-0.8847159743309021,2.750554084777832
1757088553279835600,5.074835693359375,-9.37142562866211,-0.8863540291786194,2.749206066131592
1757088553289389000,5.08438916015625,-9.37233829498291,-0.8871809840202332,2.7457211017608643
1757088553298942200,5.093942138671875,-9.373862266540527,-0.8870840072631836,2.7403910160064697
1757088553308495400,5.103495361328125,-9.375864028930664,-0.8866069912910461,2.733520030975342
1757088553318048300,5.11304833984375,-9.378293991088867,-0.8857690095901489,2.7252800464630127
1757088553327601400,5.122601318359375,-9.381096839904785,-0.884768009185791,2.7158079147338867
1757088553337154600,5.132154541015625,-9.384269714355469,-0.8834189772605896,2.705169916152954
1757088553346707700,5.141707763671875,-9.387735366821289,-0.8820160031318665,2.6935338973999023
1757088553356260900,5.1512607421875,-9.391416549682617,-0.8807349801063538,2.6810929775238037
1757088553365814000,5.16081396484375,-9.395219802856445,-0.8797330260276794,2.668109893798828
1757088553375367200,5.1703671875,-9.399026870727539,-0.8791080117225647,2.654963970184326
1757088553384920300,5.17992041015625,-9.402754783630371,-0.8786680102348328,2.641995906829834
1757088553394473500,5.189473388671875,-9.406326293945312,-0.8782359957695007,2.6295270919799805
1757088553404026600,5.199026611328125,-9.409685134887695,-0.8779019713401794,2.617734909057617
1757088553413579800,5.208579833984375,-9.412775993347168,-0.8777089715003967,2.6068079471588135
1757088553423132700,5.218132568359375,-9.415434837341309,-0.8778979778289795,2.597266912460327
1757088553432685800,5.227685791015625,-9.417634963989258,-0.8781949877738953,2.5893189907073975
1757088553442239000,5.237239013671875,-9.419450759887695,-0.8783519864082336,2.582771062850952
1757088553451792400,5.24679248046875,-9.42084789276123,-0.8785920143127441,2.577691078186035
1757088553461345300,5.25634521484375,-9.421849250793457,-0.878724992275238,2.5740599632263184
1757088553470898400,5.2658984375,-9.42216682434082,-0.8786749839782715,2.5729429721832275
1757088553480451600,5.27545166015625,-9.422060012817383,-0.878616988658905,2.5733449459075928
1757088553490004700,5.285004638671875,-9.421587944030762,-0.8785529732704163,2.5750539302825928
1757088553499558000,5.294557861328125,-9.420741081237793,-0.878246009349823,2.5781750679016113
1757088553509110800,5.30411083984375,-9.41960334777832,-0.8777679800987244,2.5823819637298584
1757088553518664000,5.313663818359375,-9.418146133422852,-0.8771569728851318,2.5877718925476074
1757088553528217000,5.323217041015625,-9.416345596313477,-0.8762819766998291,2.594446897506714
1757088553537770200,5.332770263671875,-9.414366722106934,-0.8752779960632324,2.601809024810791
1757088553547323400,5.342323486328125,-9.412158966064453,-0.8740869760513306,2.610050916671753
1757088553556876500,5.35187646484375,-9.409748077392578,-0.8726720213890076,2.6190919876098633
1757088553566430000,5.361429931640625,-9.407235145568848,-0.8709629774093628,2.6286020278930664
1757088553575982800,5.37098291015625,-9.404594421386719,-0.8690950274467468,2.6386260986328125
1757088553585536000,5.380535888671875,-9.401872634887695,-0.8672530055046082,2.6489291191101074
1757088553595089000,5.3900888671875,-9.399023056030273,-0.8656100034713745,2.6596169471740723
1757088553604642000,5.39964208984375,-9.39608383178711,-0.8641149997711182,2.670559883117676
1757088553614195200,5.4091953125,-9.393210411071777,-0.862492024898529,2.681288957595825
1757088553623748400,5.418748291015625,-9.390509605407715,-0.8607990145683289,2.691396951675415
1757088553633301500,5.428301513671875,-9.387914657592773,-0.859300971031189,2.7010440826416016
1757088553642854400,5.4378544921875,-9.385466575622559,-0.8580219745635986,2.7100820541381836
1757088553652407600,5.447407470703125,-9.383204460144043,-0.8570410013198853,2.7183470726013184
1757088553661961000,5.4569609375,-9.381406784057617,-0.8564109802246094,2.7248270511627197
1757088553671513900,5.466513916015625,-9.379826545715332,-0.8559579849243164,2.730473041534424
1757088553681067000,5.47606689453125,-9.378461837768555,-0.8556960225105286,2.735304117202759
1757088553690620200,5.4856201171875,-9.377382278442383,-0.855675995349884,2.739053964614868
1757088553700173300,5.49517333984375,-9.376542091369629,-0.8559359908103943,2.7418830394744873
1757088553709726500,5.5047265625,-9.375994682312012,-0.8564329743385315,2.7436130046844482
1757088553719279400,5.514279296875,-9.375772476196289,-0.8571569919586182,2.744149923324585
1757088553728832500,5.52383251953125,-9.375677108764648,-0.8579390048980713,2.744235038757324
1757088553738385700,5.5333857421875,-9.375726699829102,-0.858830988407135,2.7437779903411865
1757088553747938800,5.542938720703125,-9.37590217590332,-0.859857976436615,2.7428500652313232
1757088553757492000,5.552491943359375,-9.37611198425293,-0.8610399961471558,2.7417519092559814
1757088553767045000,5.562045166015625,-9.376398086547852,-0.8623030185699463,2.7403690814971924
1757088553776598300,5.571598388671875,-9.376736640930176,-0.8636369705200195,2.7387800216674805
1757088553786151200,5.581151123046875,-9.377187728881836,-0.8649470210075378,2.73681902885437
1757088553795704600,5.59070458984375,-9.377747535705566,-0.866225004196167,2.7344870567321777
1757088553805257500,5.600257568359375,-9.378401756286621,-0.8675100207328796,2.731829881668091
1757088553814811000,5.609810791015625,-9.379077911376953,-0.8688049912452698,2.7291018962860107
1757088553824363800,5.61936376953125,-9.379819869995117,-0.8700600266456604,2.726151943206787
1757088553833917000,5.6289169921875,-9.38060474395752,-0.8711529970169067,2.7231099605560303
1757088553843470000,5.638469970703125,-9.381383895874023,-0.8721939921379089,2.720097064971924
1757088553853023000,5.64802294921875,-9.38219165802002,-0.8730790019035339,2.7170350551605225
1757088553862576000,5.657576171875,-9.383005142211914,-0.8737249970436096,2.7140250205993652
1757088553872129500,5.667129638671875,-9.38377571105957,-0.8742380142211914,2.7112059593200684
1757088553881682400,5.676682373046875,-9.384477615356445,-0.8745869994163513,2.7086730003356934
1757088553891235600,5.686235595703125,-9.385087966918945,-0.8747860193252563,2.706501007080078
1757088553900789000,5.6957890625,-9.385629653930664,-0.8748689889907837,2.704603910446167
1757088553910342000,5.705341796875,-9.386014938354492,-0.8749889731407166,2.7032339572906494
1757088553919895000,5.71489501953125,-9.386281967163086,-0.8752059936523438,2.7022359371185303
1757088553929448000,5.724447998046875,-9.386451721191406,-0.8754119873046875,2.70157790184021
1757088553939001000,5.7340009765625,-9.386556625366211,-0.8755810260772705,2.7011630535125732
1757088553948554500,5.743554443359375,-9.386582374572754,-0.8758410215377808,2.700990915298462
1757088553958107400,5.753107421875,-9.386541366577148,-0.8761360049247742,2.7010340690612793
1757088553967660500,5.76266064453125,-9.386455535888672,-0.8764560222625732,2.7012269496917725
1757088553977213700,5.772213623046875,-9.386322975158691,-0.8768180012702942,2.7015678882598877
1757088553986766800,5.781766845703125,-9.386133193969727,-0.8771629929542542,2.7021100521087646
1757088553996320000,5.791320068359375,-9.385875701904297,-0.8775489926338196,2.702876091003418
1757088554005873000,5.800872802734375,-9.385580062866211,-0.8779169917106628,2.703779935836792
1757088554015426000,5.810426025390625,-9.385201454162598,-0.878292977809906,2.704967975616455
1757088554024979500,5.8199794921875,-9.384739875793457,-0.8788170218467712,2.70639705657959
1757088554034532400,5.829532470703125,-9.384218215942383,-0.879381000995636,2.7080180644989014
1757088554044085500,5.83908544921875,-9.38364028930664,-0.8799669742584229,2.7098278999328613
1757088554053638400,5.848638427734375,-9.383026123046875,-0.8806130290031433,2.71174693107605
1757088554063191800,5.85819189453125,-9.382427215576172,-0.8812310099601746,2.7136189937591553
1757088554072745000,5.867744873046875,-9.381845474243164,-0.8819109797477722,2.7154150009155273
1757088554082297900,5.8772978515625,-9.381272315979004,-0.8826540112495422,2.7171530723571777
1757088554091851000,5.88685107421875,-9.380691528320312,-0.8834329843521118,2.718907117843628
1757088554101404400,5.896404296875,-9.380196571350098,-0.884119987487793,2.72039794921875
1757088554110957600,5.90595751953125,-9.37973403930664,-0.8846989870071411,2.721808910369873
1757088554120510500,5.915510498046875,-9.379313468933105,-0.8853060007095337,2.7230639457702637
1757088554130063400,5.9250634765625,-9.378922462463379,-0.8859239816665649,2.7242140769958496
1757088554139616500,5.934616455078125,-9.378594398498535,-0.8864439725875854,2.7251760959625244
1757088554149170000,5.944169921875,-9.37833023071289,-0.886883020401001,2.7259409427642822
1757088554158722800,5.953722900390625,-9.37809944152832,-0.8871930241584778,2.726630926132202
1757088554168276000,5.96327587890625,-9.377897262573242,-0.8874499797821045,2.727246046066284
1757088554177828900,5.972828857421875,-9.377729415893555,-0.8877410292625427,2.727726936340332
1757088554187382000,5.982382080078125,-9.37761116027832,-0.8879759907722473,2.7280609607696533
1757088554196935400,5.991935302734375,-9.377531051635742,-0.8882240056991577,2.728255033493042
1757088554206488300,6.00148828125,-9.377516746520996,-0.8884429931640625,2.728231906890869
1757088554216041500,6.01104150390625,-9.377561569213867,-0.8886039853096008,2.7280280590057373
1757088554225594600,6.0205947265625,-9.377635955810547,-0.8888090252876282,2.727705955505371
1757088554235147800,6.030147705078125,-9.377737045288086,-0.8890699744224548,2.727268934249878
1757088554244701000,6.039700927734375,-9.37784481048584,-0.8893160223960876,2.7268199920654297
1757088554254253800,6.04925390625,-9.377960205078125,-0.8895580172538757,2.7263400554656982
1757088554263807200,6.05880712890625,-9.37808609008789,-0.8897709846496582,2.7258410453796387
1757088554273360400,6.0683603515625,-9.378216743469238,-0.8899710178375244,2.7253239154815674
1757088554282913300,6.077913330078125,-9.3783540725708,-0.8901050090789795,2.72481107711792
1757088554292466400,6.087466552734375,-9.378472328186035,-0.8902209997177124,2.724364995956421
1757088554302019300,6.097019287109375,-9.378602981567383,-0.8903040289878845,2.7238879203796387
1757088554311572500,6.106572509765625,-9.378754615783691,-0.8902199864387512,2.7233920097351074
1757088554321126000,6.1161259765625,-9.378908157348633,-0.8900910019874573,2.7229080200195312
1757088554330678800,6.1256787109375,-9.379066467285156,-0.8898980021476746,2.722424030303955
1757088554340232000,6.13523193359375,-9.379223823547363,-0.8897029757499695,2.72194504737854
1757088554349785000,6.14478515625,-9.379379272460938,-0.8895859718322754,2.7214479446411133
1757088554359338000,6.154337890625,-9.379541397094727,-0.8894320130348206,2.7209420204162598
1757088554368891400,6.163891357421875,-9.3796968460083,-0.8892139792442322,2.7204771041870117
1757088554378444300,6.1734443359375,-9.379843711853027,-0.8890089988708496,2.7200369834899902
1757088554387997400,6.18299755859375,-9.379982948303223,-0.8888109922409058,2.7196240425109863
1757088554397550600,6.192550537109375,-9.38011646270752,-0.8885909914970398,2.719238042831421
1757088554407103700,6.202103759765625,-9.380236625671387,-0.8883429765701294,2.7188990116119385
1757088554416657000,6.211656982421875,-9.380341529846191,-0.8880529999732971,2.7186288833618164
1757088554426209800,6.221209716796875,-9.380447387695312,-0.887723982334137,2.718377113342285
1757088554435763000,6.230762939453125,-9.380544662475586,-0.8874549865722656,2.7181239128112793
1757088554445316000,6.240316162109375,-9.380621910095215,-0.8872470259666443,2.7179219722747803
1757088554454869200,6.249869140625,-9.380677223205566,-0.8871089816093445,2.7177810668945312
1757088554464422400,6.25942236328125,-9.38072681427002,-0.886946976184845,2.717660903930664
1757088554473975300,6.268975341796875,-9.38072681427002,-0.8869109749794006,2.7176730632781982
1757088554483528400,6.278528564453125,-9.380716323852539,-0.8869100213050842,2.7177109718322754
1757088554493081600,6.28808154296875,-9.380704879760742,-0.8868619799613953,2.717761993408203
1757088554502634800,6.297634765625,-9.380688667297363,-0.8868979811668396,2.7178099155426025
1757088554512188000,6.30718798828125,-9.380681991577148,-0.8869439959526062,2.717816114425659
1757088554521741000,6.316740966796875,-9.380678176879883,-0.8870580196380615,2.7177960872650146
1757088554531294200,6.326294189453125,-9.380640029907227,-0.8871939778327942,2.717880964279175
1757088554540847000,6.33584716796875,-9.380566596984863,-0.8873149752616882,2.7180941104888916
1757088554550400300,6.345400146484375,-9.380449295043945,-0.8874660134315491,2.718451976776123
1757088554559953400,6.354953369140625,-9.380301475524902,-0.8876739740371704,2.7188940048217773
1757088554569506600,6.364506591796875,-9.380147933959961,-0.88788902759552,2.7193500995635986
1757088554579059700,6.374059814453125,-9.380010604858398,-0.8881059885025024,2.719748020172119
1757088554588612900,6.38361279296875,-9.379899978637695,-0.8883339762687683,2.7200589179992676
1757088554598165800,6.393165771484375,-9.379823684692383,-0.8885809779167175,2.7202370166778564
1757088554607719200,6.40271923828125,-9.379777908325195,-0.8888019919395447,2.720323085784912
1757088554617272000,6.41227197265625,-9.379727363586426,-0.8889970183372498,2.720432996749878
1757088554626825200,6.4218251953125,-9.37966537475586,-0.8891519904136658,2.720597982406616
1757088554636378000,6.431378173828125,-9.379597663879395,-0.8892620205879211,2.7207980155944824
1757088554645931300,6.44093115234375,-9.379533767700195,-0.8893070220947266,2.721004009246826
1757088554655484700,6.450484619140625,-9.379472732543945,-0.889411985874176,2.721182107925415
1757088554665037600,6.46003759765625,-9.3794527053833,-0.8894550204277039,2.721234083175659
1757088554674590700,6.4695908203125,-9.379465103149414,-0.8894870281219482,2.7211780548095703
1757088554684143900,6.479143798828125,-9.379488945007324,-0.8895789980888367,2.7210679054260254
1757088554693697000,6.488697021484375,-9.379524230957031,-0.889680027961731,2.72091007232666
1757088554703250000,6.49825,-9.379575729370117,-0.8898280262947083,2.7206859588623047
1757088554712803000,6.507802978515625,-9.379636764526367,-0.8899419903755188,2.720438003540039
1757088554722356200,6.517356201171875,-9.379721641540527,-0.890047013759613,2.7201080322265625
1757088554731909400,6.526909423828125,-9.379830360412598,-0.8901579976081848,2.7197000980377197
1757088554741462500,6.536462646484375,-9.379963874816895,-0.8903080224990845,2.7191879749298096
1757088554751015400,6.546015380859375,-9.380117416381836,-0.8904060125350952,2.7186241149902344
1757088554760568600,6.555568603515625,-9.380285263061523,-0.8904539942741394,2.718029022216797
1757088554770121700,6.565121826171875,-9.380425453186035,-0.8904780149459839,2.717542886734009
1757088554779674600,6.574674560546875,-9.380531311035156,-0.890529990196228,2.7171568870544434
1757088554789228000,6.58422802734375,-9.38058853149414,-0.8905919790267944,2.7169361114501953
1757088554798781000,6.593781005859375,-9.380619049072266,-0.8906689882278442,2.7168118953704834
1757088554808334000,6.603333984375,-9.380640983581543,-0.8908169865608215,2.716686964035034
1757088554817887200,6.61288720703125,-9.380661964416504,-0.8909649848937988,2.7165679931640625
1757088554827440000,6.622440185546875,-9.380688667297363,-0.8910999894142151,2.716430902481079
1757088554836993500,6.63199365234375,-9.380708694458008,-0.8912190198898315,2.7163209915161133
1757088554846546400,6.64154638671875,-9.38072395324707,-0.8912510275840759,2.716264009475708
1757088554856099600,6.651099609375,-9.380743980407715,-0.8912360072135925,2.7161951065063477
1757088554865652500,6.660652587890625,-9.3807373046875,-0.891202986240387,2.7162270545959473
1757088554875206000,6.670205810546875,-9.380731582641602,-0.8911280035972595,2.7162740230560303
1757088554884758800,6.6797587890625,-9.380702018737793,-0.8910220265388489,2.7164111137390137
1757088554894312000,6.68931201171875,-9.380666732788086,-0.8908420205116272,2.716594934463501
1757088554903864800,6.69886474609375,-9.380613327026367,-0.8906350135803223,2.7168469429016113
1757088554913418200,6.708418212890625,-9.38055419921875,-0.8903809785842896,2.7171339988708496
1757088554922971400,6.717971435546875,-9.380495071411133,-0.8901000022888184,2.7174320220947266
1757088554932524300,6.727524169921875,-9.38043212890625,-0.8897899985313416,2.717747926712036
1757088554942077400,6.737077392578125,-9.380358695983887,-0.8895099759101868,2.718090057373047
1757088554951630600,6.746630615234375,-9.380269050598145,-0.8892499804496765,2.7184879779815674
1757088554961183700,6.756183837890625,-9.380159378051758,-0.8890920281410217,2.7189159393310547
1757088554970737000,6.76573681640625,-9.380030632019043,-0.8889880180358887,2.719393014907837
1757088554980289800,6.775289794921875,-9.379899978637695,-0.8889380097389221,2.7198638916015625
1757088554989843000,6.784843017578125,-9.379773139953613,-0.8889279961585999,2.7203030586242676
1757088554999396000,6.79439599609375,-9.379638671875,-0.8889610171318054,2.7207529544830322
1757088555008949200,6.80394921875,-9.379514694213867,-0.8890439867973328,2.7211499214172363
1757088555018502400,6.81350244140625,-9.379400253295898,-0.8892009854316711,2.721498966217041
1757088555028055300,6.82305517578125,-9.379303932189941,-0.8894190192222595,2.7217559814453125
1757088555037608400,6.8326083984375,-9.379228591918945,-0.8897219896316528,2.721916913986206
1757088555047161600,6.84216162109375,-9.379166603088379,-0.8900279998779297,2.7220311164855957
1757088555056714800,6.85171484375,-9.379138946533203,-0.8903399705886841,2.722027063369751
1757088555066267600,6.861267578125,-9.379133224487305,-0.8906509876251221,2.721942901611328
1757088555075820800,6.87082080078125,-9.379157066345215,-0.890936017036438,2.7217679023742676
1757088555085374200,6.880374267578125,-9.379192352294922,-0.8912500143051147,2.721544027328491
1757088555094927000,6.889927001953125,-9.379240036010742,-0.891556978225708,2.7212789058685303
1757088555104480300,6.899480224609375,-9.379318237304688,-0.8918470144271851,2.7209129333496094
1757088555114033200,6.909033203125,-9.379411697387695,-0.892096996307373,2.7205069065093994
1757088555123586300,6.91858642578125,-9.379533767700195,-0.8922659754753113,2.720031976699829
1757088555133139500,6.928139404296875,-9.379671096801758,-0.8923630118370056,2.719527006149292
1757088555142692600,6.937692626953125,-9.379814147949219,-0.8924319744110107,2.719011068344116
1757088555152245500,6.94724560546875,-9.379980087280273,-0.8924049735069275,2.718449115753174
1757088555161798700,6.956798583984375,-9.380147933959961,-0.8922910094261169,2.717905044555664
1757088555171351800,6.966351806640625,-9.380313873291016,-0.8920930027961731,2.7173988819122314
1757088555180905000,6.975905029296875,-9.380475044250488,-0.8918250203132629,2.7169299125671387
1757088555190458000,6.9854580078125,-9.380632400512695,-0.8914610147476196,2.7165069580078125
1757088555200011000,6.995010986328125,-9.380773544311523,-0.8910819888114929,2.7161409854888916
1757088555219117600,7.01411767578125,-9.380977630615234,-0.8902140259742737,2.7157270908355713
1757088555228670500,7.02367041015625,-9.381035804748535,-0.889693021774292,2.7156989574432373
1757088555238223400,7.033223388671875,-9.38105583190918,-0.8892160058021545,2.71578311920166
1757088555247776500,7.042776611328125,-9.381037712097168,-0.8887590169906616,2.715993881225586
1757088555257329700,7.05232958984375,-9.380975723266602,-0.888359010219574,2.716339111328125
1757088555266882800,7.0618828125,-9.380873680114746,-0.8879799842834473,2.716813087463379
1757088555276436000,7.07143603515625,-9.380741119384766,-0.8876129984855652,2.717392921447754
1757088555285988900,7.08098876953125,-9.38058090209961,-0.8872650265693665,2.718055009841919
1757088555295542000,7.0905419921875,-9.380373001098633,-0.8869900107383728,2.718863010406494
1757088555305095200,7.10009521484375,-9.38014030456543,-0.8867610096931458,2.7197389602661133
1757088555314648300,7.1096484375,-9.379884719848633,-0.8865860104560852,2.7206780910491943
1757088555333754400,7.12875439453125,-9.379327774047852,-0.886309027671814,2.722687005996704
1757088555343307500,7.1383076171875,-9.379036903381348,-0.8862329721450806,2.7237141132354736
1757088555352860700,7.147860595703125,-9.378740310668945,-0.8862159848213196,2.7247400283813477
1757088555362413800,7.157413818359375,-9.378438949584961,-0.8862299919128418,2.725770950317383
1757088555371966700,7.166966796875,-9.378138542175293,-0.8862069845199585,2.7268130779266357
1757088555381520000,7.176519775390625,-9.377862930297852,-0.8861879706382751,2.7277719974517822
1757088555391073000,7.186072998046875,-9.377635955810547,-0.8861569762229919,2.728563070297241
1757088555400626200,7.195626220703125,-9.377496719360352,-0.8859220147132874,2.7291181087493896
1757088555410179000,7.205178955078125,-9.377575874328613,-0.8856009840965271,2.7289509773254395
1757088555419732500,7.214732421875,-9.377774238586426,-0.8854179978370667,2.7283260822296143
1757088555429285600,7.22428564453125,-9.378103256225586,-0.885208010673523,2.7272560596466064
1757088555438838500,7.233838623046875,-9.378469467163086,-0.8850250244140625,2.726047992706299
1757088555448391700,7.2433916015625,-9.378862380981445,-0.884818971157074,2.7247610092163086
1757088555457944600,7.252944580078125,-9.379288673400879,-0.8847100138664246,2.723320960998535
1757088555467497700,7.262497802734375,-9.379751205444336,-0.8847240209579468,2.721713066101074
1757088555477051000,7.27205078125,-9.3802490234375,-0.8848080039024353,2.7199599742889404
1757088555486604000,7.28160400390625,-9.380796432495117,-0.8849930167198181,2.7180049419403076
1757088555496157000,7.291156982421875,-9.381348609924316,-0.885487973690033,2.7159299850463867
1757088555505710000,7.3007099609375,-9.38185977935791,-0.8861569762229919,2.7139360904693604
1757088555515263500,7.310263427734375,-9.382330894470215,-0.8867890238761902,2.712099075317383
1757088555524816400,7.31981640625,-9.382745742797852,-0.8872500061988831,2.7105140686035156
1757088555534369500,7.32936962890625,-9.383049964904785,-0.8874369859695435,2.7094030380249023
1757088555543922400,7.33892236328125,-9.3832368850708,-0.8874890208244324,2.7087419033050537
1757088555553475600,7.3484755859375,-9.38331127166748,-0.8874729871749878,2.708491086959839
1757088555563028700,7.35802880859375,-9.383268356323242,-0.8875769972801208,2.7086069583892822
1757088555572582000,7.367581787109375,-9.383108139038086,-0.8878260254859924,2.709069013595581
1757088555582134800,7.377134765625,-9.382843017578125,-0.8883069753646851,2.7098228931427
1757088555591688000,7.38668798828125,-9.382447242736816,-0.8891260027885437,2.7109110355377197
1757088555601240800,7.39624072265625,-9.381807327270508,-0.8900880217552185,2.712794065475464
1757088555610794200,7.405794189453125,-9.381038665771484,-0.8908399939537048,2.71518611907959
1757088555620347400,7.415347412109375,-9.380154609680176,-0.8914710283279419,2.71801495552063
1757088555629900300,7.424900390625,-9.379284858703613,-0.891851007938385,2.7208828926086426
1757088555639453200,7.434453125,-9.378451347351074,-0.8920860290527344,2.7236719131469727
1757088555649006600,7.444006591796875,-9.377649307250977,-0.8920649886131287,2.726439952850342
1757088555658559700,7.453559814453125,-9.376880645751953,-0.8916029930114746,2.729233980178833
1757088555668112600,7.463112548828125,-9.376153945922852,-0.8907619714736938,2.7320098876953125
1757088555677665800,7.472665771484375,-9.375466346740723,-0.8895440101623535,2.73478102684021
1757088555687219000,7.482218994140625,-9.374850273132324,-0.887736976146698,2.7374939918518066
1757088555696772000,7.491772216796875,-9.374364852905273,-0.8856419920921326,2.7398509979248047
1757088555706325000,7.501324951171875,-9.37402629852295,-0.8835660219192505,2.741694927215576
1757088555715878100,7.510878173828125,-9.373854637145996,-0.8816030025482178,2.7429189682006836
1757088555725431300,7.520431396484375,-9.373910903930664,-0.87984299659729,2.743288993835449
1757088555734984400,7.529984375,-9.37421703338623,-0.8781359791755676,2.7427780628204346
1757088555744537300,7.539537353515625,-9.374757766723633,-0.8765320181846619,2.741421937942505
1757088555754090500,7.549090576171875,-9.375517845153809,-0.874921977519989,2.7393178939819336
1757088555763643400,7.558643310546875,-9.376426696777344,-0.87323397397995,2.7367210388183594
1757088555773196800,7.56819677734375,-9.377453804016113,-0.8713750243186951,2.7337779998779297
1757088555782750000,7.57775,-9.378558158874512,-0.869454026222229,2.730592966079712
1757088555792302800,7.587302734375,-9.379704475402832,-0.8676019906997681,2.727242946624756
1757088555801856000,7.59685595703125,-9.38086986541748,-0.8658959865570068,2.72377610206604
1757088555811409000,7.606408935546875,-9.382036209106445,-0.864391028881073,2.720242977142334
1757088555820962000,7.615962158203125,-9.383187294006348,-0.8630599975585938,2.7167038917541504
1757088555830515200,7.62551513671875,-9.384328842163086,-0.8617810010910034,2.7131800651550293
1757088555840068400,7.635068359375,-9.385462760925293,-0.8606439828872681,2.7096240520477295
1757088555849621200,7.644621337890625,-9.386580467224121,-0.8596739768981934,2.706073045730591
1757088555859174400,7.65417431640625,-9.38766860961914,-0.8587870001792908,2.7025959491729736
1757088555868727600,7.6637275390625,-9.388710975646973,-0.8579639792442322,2.6992499828338623
1757088555878280700,7.67328076171875,-9.389689445495605,-0.8574010133743286,2.6960370540618896
1757088555887833600,7.68283349609375,-9.39055347442627,-0.8569959998130798,2.6931700706481934
1757088555897386800,7.69238671875,-9.391292572021484,-0.8566240072250366,2.6907238960266113
1757088555906940000,7.70193994140625,-9.391846656799316,-0.8563309907913208,2.688896894454956
1757088555916493000,7.7114931640625,-9.392194747924805,-0.8561149835586548,2.6877570152282715
1757088555926046000,7.7210458984375,-9.392306327819824,-0.8560569882392883,2.6873860359191895
1757088555935599000,7.73059912109375,-9.39219856262207,-0.8561990261077881,2.6877169609069824
1757088555945152000,7.740152099609375,-9.391923904418945,-0.8565430045127869,2.6885619163513184
1757088555954705400,7.749705322265625,-9.391509056091309,-0.8570320010185242,2.689847946166992
1757088555964258600,7.759258544921875,-9.390946388244629,-0.8576470017433167,2.691602945327759
1757088555973811500,7.7688115234375,-9.390231132507324,-0.8585129976272583,2.6938040256500244
1757088555983364600,7.778364501953125,-9.389447212219238,-0.8596190214157104,2.696161985397339
1757088555992917500,7.78791748046875,-9.388689041137695,-0.8607339859008789,2.69842791557312
1757088556002470700,7.797470703125,-9.387998580932617,-0.8617389798164368,2.700489044189453
1757088556012023800,7.80702392578125,-9.387392044067383,-0.862625002861023,2.7023088932037354
1757088556021577000,7.816576904296875,-9.38682746887207,-0.8634089827537537,2.7040200233459473
1757088556031129900,7.8261298828125,-9.386322975158691,-0.864175021648407,2.705526113510132
1757088556040683000,7.83568310546875,-9.385926246643066,-0.8650100231170654,2.706641912460327
1757088556050236000,7.84523583984375,-9.385648727416992,-0.8657699823379517,2.7073659896850586
1757088556059789300,7.854789306640625,-9.38546371459961,-0.8663570284843445,2.7078258991241455
1757088556069342200,7.86434228515625,-9.385318756103516,-0.8668509721755981,2.708178997039795
1757088556078895400,7.873895263671875,-9.38522720336914,-0.8674070239067078,2.7083239555358887
1757088556088448300,7.8834482421875,-9.385193824768066,-0.8680109977722168,2.7082479000091553
1757088556098001400,7.89300146484375,-9.385299682617188,-0.8685529828071594,2.707705020904541
1757088556107554600,7.902554443359375,-9.385491371154785,-0.8690140247344971,2.7068889141082764
1757088556117107700,7.912107666015625,-9.385702133178711,-0.8693079948425293,2.7060608863830566
1757088556126660600,7.92166064453125,-9.385913848876953,-0.8692910075187683,2.7053298950195312
1757088556136213800,7.9312138671875,-9.386051177978516,-0.8687760233879089,2.705014944076538
1757088556145766700,7.9407666015625,-9.386162757873535,-0.8677610158920288,2.7049520015716553
1757088556155319800,7.95031982421875,-9.386330604553223,-0.8662369847297668,2.704850912094116
1757088556164873200,7.959873291015625,-9.386588096618652,-0.8640559911727905,2.704648971557617
1757088556174426000,7.969426025390625,-9.386890411376953,-0.861320972442627,2.7044739723205566
1757088556183979000,7.97897900390625,-9.387170791625977,-0.8581680059432983,2.704498052597046
1757088556193532400,7.988532470703125,-9.38735580444336,-0.8547549843788147,2.704925060272217
1757088556203085600,7.99808544921875,-9.387418746948242,-0.8513000011444092,2.705777883529663
1757088556212638500,8.007638427734374,-9.387391090393066,-0.8479080200195312,2.7069239616394043
1757088556222191600,8.017191650390625,-9.387266159057617,-0.8446149826049805,2.7083730697631836
1757088556231744500,8.02674462890625,-9.387033462524414,-0.8413980007171631,2.710171937942505
1757088556241297700,8.036297607421876,-9.386663436889648,-0.8384379744529724,2.7123630046844482
1757088556250850800,8.045850830078125,-9.386137008666992,-0.8356959819793701,2.7150259017944336
1757088556260404000,8.055404052734374,-9.385504722595215,-0.8332129716873169,2.717971086502075
1757088556269956900,8.064956787109375,-9.384843826293945,-0.8309919834136963,2.7209489345550537
1757088556279510000,8.074510009765625,-9.384180068969727,-0.8290960192680359,2.7238340377807617
1757088556289063200,8.084063232421874,-9.383474349975586,-0.827646017074585,2.726736068725586
1757088556298616300,8.0936162109375,-9.382800102233887,-0.8265680074691772,2.729412078857422
1757088556308169200,8.103169189453125,-9.382257461547852,-0.8259099721908569,2.731503963470459
1757088556317722400,8.112722412109376,-9.381872177124023,-0.825547993183136,2.732954978942871
1757088556327275500,8.122275634765625,-9.381640434265137,-0.8256149888038635,2.7337329387664795
1757088556336828700,8.13182861328125,-9.381532669067383,-0.8261309862136841,2.7339460849761963
1757088556346381600,8.141381591796875,-9.381511688232422,-0.8271880149841309,2.7336840629577637
1757088556355934700,8.150934814453125,-9.381617546081543,-0.8288609981536865,2.732793092727661
1757088556365487900,8.16048779296875,-9.381843566894531,-0.8311730027198792,2.731292963027954
1757088556375041000,8.170041015625,-9.382196426391602,-0.8341019749641418,2.729145050048828
1757088556384594000,8.179593994140625,-9.382732391357422,-0.8373209834098816,2.7262818813323975
1757088556394147000,8.18914697265625,-9.383332252502441,-0.8404790163040161,2.723220109939575
1757088556403700000,8.198699951171875,-9.38386344909668,-0.8435519933700562,2.7204270362854004
1757088556413253000,8.208253173828124,-9.384346961975098,-0.8466439843177795,2.717798948287964
1757088556422806300,8.21780615234375,-9.384660720825195,-0.8499389886856079,2.7156920433044434
1757088556432359400,8.227359375,-9.384686470031738,-0.8534079790115356,2.7145299911499023
1757088556441912300,8.236912353515624,-9.38432502746582,-0.8569530248641968,2.714677095413208
1757088556451465500,8.246465576171875,-9.38379192352295,-0.8605279922485352,2.7153921127319336
1757088556461018400,8.256018310546875,-9.38327407836914,-0.864296019077301,2.715986967086792
1757088556470571800,8.26557177734375,-9.382658958435059,-0.868323028087616,2.716820001602173
1757088556480124700,8.275124755859375,-9.382046699523926,-0.8723180294036865,2.717647075653076
1757088556489677800,8.284677734375,-9.381513595581055,-0.8757209777832031,2.7183899879455566
1757088556499230700,8.294230712890625,-9.381057739257812,-0.8784549832344055,2.7190780639648438
1757088556508783900,8.303783935546875,-9.38072395324707,-0.8828809857368469,2.7187728881835938
1757088556518337000,8.3133369140625,-9.380934715270996,-0.8874989748001099,2.7165040969848633
1757088556527890200,8.32289013671875,-9.381261825561523,-0.890550971031189,2.7143630981445312
1757088556537443000,8.332443115234375,-9.381217956542969,-0.8915489912033081,2.7141969203948975
1757088556546996200,8.341996337890626,-9.381036758422852,-0.8921819925308228,2.714622974395752
1757088556556549000,8.351549072265625,-9.380619049072266,-0.8942059874534607,2.715398073196411
1757088556566102300,8.361102294921874,-9.380215644836426,-0.8977259993553162,2.7156078815460205
1757088556575655400,8.370655517578125,-9.379833221435547,-0.902400016784668,2.7153310775756836
1757088556585208600,8.38020849609375,-9.379552841186523,-0.9071609973907471,2.7146658897399902
1757088556594761500,8.389761474609376,-9.379389762878418,-0.9110730290412903,2.7139089107513428
1757088556604314600,8.399314697265625,-9.379255294799805,-0.9136589765548706,2.713515043258667
1757088556613868000,8.408867919921875,-9.379201889038086,-0.9152770042419434,2.713162899017334
1757088556623421000,8.4184208984375,-9.379441261291504,-0.9169859886169434,2.7117629051208496
1757088556632974000,8.42797412109375,-9.380243301391602,-0.9194989800453186,2.7081449031829834
1757088556642527000,8.43752685546875,-9.381414413452148,-0.9223470091819763,2.7031331062316895
1757088556652080000,8.447080078125,-9.38270378112793,-0.9244179725646973,2.6979548931121826
1757088556661633000,8.456633056640625,-9.384235382080078,-0.9251779913902283,2.692379951477051
1757088556671186200,8.466186279296876,-9.386012077331543,-0.9250320196151733,2.6862308979034424
1757088556680739300,8.4757392578125,-9.38786506652832,-0.92466801404953,2.6798739433288574
1757088556690292200,8.485292236328124,-9.389557838439941,-0.9232760071754456,2.674415111541748
1757088556699845400,8.494845458984376,-9.3904390335083,-0.9142789840698242,2.674180030822754
1757088556709398500,8.5043984375,-9.390451431274414,-0.9048449993133545,2.677107095718384
1757088556718951700,8.51395166015625,-9.390390396118164,-0.8967049717903137,2.6798288822174072
1757088556728504600,8.523504638671875,-9.391219139099121,-0.8941310048103333,2.677755117416382
1757088556738057700,8.5330576171875,-9.391861915588379,-0.8952159881591797,2.6751580238342285
1757088556747611000,8.54261083984375,-9.392622947692871,-0.8957200050354004,2.6723289489746094
1757088556757164000,8.5521640625,-9.393437385559082,-0.8934900164604187,2.670245885848999
1757088556766717000,8.561717041015624,-9.3942289352417,-0.888899028301239,2.6690540313720703
1757088556776270000,8.57127001953125,-9.395041465759277,-0.8842869997024536,2.6677889823913574
1757088556785823200,8.5808232421875,-9.396005630493164,-0.8808799982070923,2.665539026260376
1757088556795376000,8.590376220703124,-9.3970947265625,-0.8789309859275818,2.6623361110687256
1757088556804929500,8.599929443359375,-9.398250579833984,-0.8779280185699463,2.658581018447876
1757088556814482400,8.609482421875,-9.399389266967773,-0.8766610026359558,2.654968023300171
1757088556824035600,8.61903564453125,-9.400468826293945,-0.8742660284042358,2.651945114135742
1757088556833588700,8.628588623046875,-9.401561737060547,-0.8707510232925415,2.6492459774017334
1757088556843141600,8.6381416015625,-9.402630805969238,-0.8671000003814697,2.6466639041900635
1757088556852694800,8.64769482421875,-9.403708457946777,-0.8631229996681213,2.644131898880005
1757088556862247700,8.65724755859375,-9.404420852661133,-0.8597620129585266,2.642690896987915
1757088556871800800,8.66680078125,-9.404958724975586,-0.8573579788208008,2.6415560245513916
1757088556881354000,8.67635400390625,-9.405316352844238,-0.8569570183753967,2.640407085418701
1757088556890907100,8.6859072265625,-9.406388282775879,-0.8632019758224487,2.6346778869628906
1757088556900460000,8.6954599609375,-9.40764045715332,-0.8700730204582214,2.628148078918457
1757088556910013000,8.705012939453125,-9.408777236938477,-0.877007007598877,2.6220099925994873
1757088556919566000,8.714566162109374,-9.40915298461914,-0.8797760009765625,2.6197850704193115
1757088556929119500,8.724119384765626,-9.409588813781738,-0.8783419728279114,2.6187219619750977
1757088556938672400,8.73367236328125,-9.409882545471191,-0.8750789761543274,2.61877703666687
1757088556948225500,8.7432255859375,-9.409863471984863,-0.8719710111618042,2.619868040084839
1757088556957778700,8.75277880859375,-9.409553527832031,-0.8702890276908875,2.6215031147003174
1757088556967331600,8.76233154296875,-9.408745765686035,-0.8695480227470398,2.624587059020996
1757088556976884700,8.771884765625,-9.407419204711914,-0.8694750070571899,2.6292760372161865
1757088556986437600,8.781437744140625,-9.405694961547852,-0.869763970375061,2.63523006439209
1757088556995990800,8.79099072265625,-9.40373420715332,-0.8701800107955933,2.6419620513916016
1757088557005544000,8.8005439453125,-9.40172004699707,-0.8705019950866699,2.6489078998565674
1757088557015097000,8.81009716796875,-9.399703979492188,-0.870406985282898,2.6559970378875732
1757088557024650000,8.81964990234375,-9.397607803344727,-0.8700590133666992,2.6634609699249268
1757088557034203100,8.829203125,-9.395429611206055,-0.8697519898414612,2.6712019443511963
1757088557043756000,8.838756103515625,-9.393128395080566,-0.8706870079040527,2.679003953933716
1757088557053309200,8.84830908203125,-9.391122817993164,-0.8720020055770874,2.6856420040130615
1757088557062862000,8.857862060546875,-9.389350891113281,-0.8730409741401672,2.691577911376953
1757088557072415200,8.867415283203124,-9.387980461120605,-0.8731290102005005,2.696397066116333
1757088557081968400,8.876968505859375,-9.386663436889648,-0.871819019317627,2.7014999389648438
1757088557091521300,8.886521240234375,-9.385683059692383,-0.8694679737091064,2.7057580947875977
1757088557101074400,8.896074462890626,-9.38499927520752,-0.8668609857559204,2.709043025970459
1757088557110627600,8.905627685546875,-9.384702682495117,-0.8644329905509949,2.710886001586914
1757088557120180700,8.9151806640625,-9.384746551513672,-0.8626710176467896,2.7112979888916016
1757088557129734000,8.92473388671875,-9.385107040405273,-0.861519992351532,2.7103869915008545
1757088557139286800,8.934286865234375,-9.38617992401123,-0.8618540167808533,2.706450939178467
1757088557148840000,8.94383984375,-9.38797378540039,-0.8624590039253235,2.699798107147217
1757088557158392800,8.953392822265625,-9.390329360961914,-0.8618050217628479,2.6915481090545654
1757088557167945700,8.96294580078125,-9.393200874328613,-0.8582820296287537,2.68239688873291
1757088557177499000,8.972498779296876,-9.3962984085083,-0.850678026676178,2.673733949661255
1757088557187052000,8.982052001953125,-9.399125099182129,-0.8400760293006897,2.6669509410858154
1757088557196605200,8.991605224609375,-9.40125846862793,-0.8291559815406799,2.662722110748291
1757088557206158000,9.001157958984376,-9.402643203735352,-0.8200770020484924,2.6605749130249023
1757088557215711200,9.010711181640625,-9.403175354003906,-0.8142229914665222,2.660473108291626
1757088557225264400,9.020264404296874,-9.403061866760254,-0.8111439943313599,2.6617751121520996
1757088557234817500,9.029817626953125,-9.402478218078613,-0.808791995048523,2.66444993019104
1757088557244370400,9.039370361328125,-9.401445388793945,-0.8056240081787109,2.6688830852508545
1757088557253923600,9.048923583984376,-9.400227546691895,-0.8014219999313354,2.6742610931396484
1757088557263476700,9.058476806640625,-9.399271011352539,-0.7966830134391785,2.6789329051971436
1757088557273030000,9.06802978515625,-9.398557662963867,-0.7921680212020874,2.6827120780944824
1757088557282582800,9.077582763671876,-9.398059844970703,-0.7883319854736328,2.6855709552764893
1757088557292136000,9.087135986328125,-9.39790153503418,-0.7846590280532837,2.6872200965881348
1757088557301688800,9.096688720703124,-9.39869213104248,-0.7793009877204895,2.6859939098358154
1757088557311242000,9.106241943359375,-9.40056037902832,-0.7708140015602112,2.681701898574829
1757088557320795100,9.115795166015625,-9.403863906860352,-0.7589160203933716,2.6728439331054688
1757088557330348300,9.125348388671876,-9.407674789428711,-0.744117021560669,2.6625630855560303
1757088557339901200,9.134901123046875,-9.411410331726074,-0.7281540036201477,2.652698040008545
1757088557349454000,9.1444541015625,-9.414928436279297,-0.7127360105514526,2.6434590816497803
1757088557359007500,9.154007568359376,-9.418279647827148,-0.6987429857254028,2.634310007095337
1757088557368560400,9.163560302734375,-9.421788215637207,-0.6864979863166809,2.623857021331787
1757088557378113500,9.173113525390624,-9.425933837890625,-0.6748359799385071,2.6107048988342285
1757088557387666400,9.18266650390625,-9.430871963500977,-0.662418007850647,2.5948100090026855
1757088557397219600,9.192219482421875,-9.436314582824707,-0.6489610075950623,2.577507972717285
1757088557406772700,9.201772705078126,-9.442441940307617,-0.6341919898986816,2.558337926864624
1757088557416326000,9.211325927734375,-9.449281692504883,-0.6194440126419067,2.5368831157684326
1757088557425878800,9.220878662109374,-9.456705093383789,-0.6059139966964722,2.5131471157073975
1757088557435432000,9.230431884765625,-9.464600563049316,-0.5931090116500854,2.487484931945801
1757088557444985000,9.239985107421875,-9.472776412963867,-0.5802729725837708,2.4605789184570312
1757088557454538000,9.2495380859375,-9.480825424194336,-0.5671300292015076,2.433864116668701
1757088557464091100,9.259091064453125,-9.488677978515625,-0.5529860258102417,2.4078800678253174
1757088557473644300,9.268644287109375,-9.496039390563965,-0.5374360084533691,2.3839340209960938
1757088557483197200,9.278197265625,-9.502481460571289,-0.5205879807472229,2.3636529445648193
1757088557492750300,9.287750244140625,-9.507375717163086,-0.5039070248603821,2.348820924758911
1757088557502303500,9.297303466796874,-9.510869026184082,-0.4886710047721863,2.3385839462280273
1757088557511856400,9.3068564453125,-9.512649536132812,-0.4760259985923767,2.3340749740600586
1757088557521409500,9.316409423828125,-9.513205528259277,-0.4652320146560669,2.33388090133667
1757088557530962400,9.32596240234375,-9.512826919555664,-0.4557949900627136,2.3371670246124268
1757088557540515600,9.335515625,-9.512018203735352,-0.4477959871292114,2.3419060707092285
1757088557550068700,9.34506884765625,-9.5106782913208,-0.4416539967060089,2.348357915878296
1757088557559622000,9.354621826171876,-9.508460998535156,-0.43796399235725403,2.357645034790039
1757088557569174800,9.3641748046875,-9.505393981933594,-0.43631601333618164,2.369709014892578
1757088557578727700,9.373727783203124,-9.501601219177246,-0.43642500042915344,2.3840980529785156
1757088557588280800,9.38328076171875,-9.498090744018555,-0.437065988779068,2.397313117980957
1757088557597834000,9.392833984375,-9.494564056396484,-0.437267005443573,2.4106249809265137
1757088557607387100,9.40238720703125,-9.490242958068848,-0.4360789954662323,2.4271090030670166
1757088557616940000,9.41193994140625,-9.485447883605957,-0.43574899435043335,2.4452600479125977
1757088557626493200,9.4214931640625,-9.480802536010742,-0.43999698758125305,2.462002992630005
1757088557636046300,9.43104638671875,-9.476040840148926,-0.44742101430892944,2.4785850048065186
1757088557645599500,9.440599609375,-9.470233917236328,-0.45490598678588867,2.499077081680298
1757088557655152400,9.45015234375,-9.462358474731445,-0.4631969928741455,2.5266289710998535
1757088557664705500,9.45970556640625,-9.453542709350586,-0.47338101267814636,2.556791067123413
1757088557674258400,9.469258544921875,-9.443851470947266,-0.4862639904022217,2.5888559818267822
1757088557683811300,9.478811279296876,-9.433239936828613,-0.5026080012321472,2.622675895690918
1757088557693364700,9.48836474609375,-9.421712875366211,-0.5222160220146179,2.6584439277648926
1757088557702917600,9.497917724609374,-9.408278465270996,-0.5408520102500916,2.6999969482421875
1757088557712470800,9.507470703125,-9.392407417297363,-0.5562549829483032,2.748929977416992
1757088557722023700,9.517023681640625,-9.374232292175293,-0.5665959715843201,2.8043088912963867
1757088557731576800,9.526576904296874,-9.353368759155273,-0.5713610053062439,2.866703987121582
1757088557741130000,9.5361298828125,-9.3301420211792,-0.5717260241508484,2.934601068496704
1757088557750683100,9.54568310546875,-9.305486679077148,-0.5708529949188232,3.0048348903656006
1757088557760236000,9.555236083984376,-9.279314041137695,-0.5690209865570068,3.0775420665740967
1757088557769789000,9.564788818359375,-9.253689765930176,-0.5632219910621643,3.148466110229492
1757088557779342000,9.574342041015624,-9.22722053527832,-0.555637001991272,3.2215709686279297
1757088557788895200,9.583895263671875,-9.200153350830078,-0.5465919971466064,3.2959659099578857
1757088557798448400,9.593448486328125,-9.17419719696045,-0.532971978187561,3.3673698902130127
1757088557808001300,9.603001220703124,-9.149292945861816,-0.5105559825897217,3.4368350505828857
1757088557817554400,9.612554443359375,-9.12367057800293,-0.47798898816108704,3.509485960006714
1757088557827107300,9.622107421875,-9.097024917602539,-0.4395259916782379,3.5851809978485107
1757088557836660500,9.631660400390626,-9.070034980773926,-0.40136098861694336,3.6602768898010254
1757088557846213600,9.641213623046875,-9.043907165527344,-0.36567801237106323,3.730998992919922
1757088557855766800,9.650766845703124,-9.016853332519531,-0.333406001329422,3.8025600910186768
1757088557865319700,9.660319580078125,-8.989079475402832,-0.3051550090312958,3.874329090118408
1757088557874873000,9.669873046875,-8.959843635559082,-0.28059300780296326,3.9476239681243896
1757088557884425700,9.67942578125,-8.929400444030762,-0.2551040053367615,4.02236795425415
1757088557893979000,9.688978759765625,-8.898726463317871,-0.23230800032615662,4.094894886016846
1757088557903532000,9.698531982421875,-8.868471145629883,-0.21397800743579865,4.163369178771973
1757088557913085000,9.7080849609375,-8.839151382446289,-0.2006939947605133,4.227006912231445
1757088557922638000,9.71763818359375,-8.811856269836426,-0.19175000488758087,4.2841291427612305
1757088557932191200,9.727191162109374,-8.786785125732422,-0.18618500232696533,4.335102081298828
1757088557941744400,9.736744384765625,-8.762411117553711,-0.18843600153923035,4.382984161376953
1757088557951297300,9.74629736328125,-8.74128246307373,-0.20279599726200104,4.422738075256348
1757088557960850400,9.755850341796876,-8.719067573547363,-0.22724999487400055,4.46302604675293
1757088557970403300,9.7654033203125,-8.69503116607666,-0.25791698694229126,4.505163192749023
1757088557979956500,9.77495654296875,-8.668976783752441,-0.2933259904384613,4.549571990966797
1757088557989509600,9.784509521484376,-8.639562606811523,-0.33643099665641785,4.598683834075928
1757088557999062500,9.7940625,-8.604305267333984,-0.394991010427475,4.655211925506592
1757088558008615700,9.80361572265625,-8.565101623535156,-0.46985098719596863,4.714731216430664
1757088558018168800,9.8131689453125,-8.524747848510742,-0.5653529763221741,4.770224094390869
1757088558027721700,9.8227216796875,-8.484491348266602,-0.6752769947052002,4.819815158843994
1757088558037275000,9.83227490234375,-8.443371772766113,-0.7844089865684509,4.8695969581604
1757088558046828000,9.841828125,-8.400114059448242,-0.8994420170783997,4.917316913604736
1757088558056381000,9.851380859375,-8.355799674987793,-1.0211349725723267,4.960169792175293
1757088558065933800,9.860933837890625,-8.311783790588379,-1.150212049484253,4.994915962219238
1757088558075487200,9.8704873046875,-8.270578384399414,-1.292688012123108,5.016296863555908
1757088558085040400,9.880040283203124,-8.227930068969727,-1.4447250366210938,5.0325798988342285
1757088558094593300,9.88959326171875,-8.184313774108887,-1.6080960035324097,5.041399955749512
1757088558104146200,9.899146240234375,-8.137335777282715,-1.780076026916504,5.048213958740234
1757088558113699300,9.90869921875,-8.088151931762695,-1.9584929943084717,5.053038120269775
1757088558123252500,9.91825244140625,-8.037008285522461,-2.149678945541382,5.050104141235352
1757088558132805400,9.927805419921874,-7.98065710067749,-2.3429911136627197,5.047226905822754
1757088558142358500,9.937358642578126,-7.91758918762207,-2.5341711044311523,5.047848224639893
1757088558151911700,9.94691162109375,-7.850843906402588,-2.7350668907165527,5.038739204406738
1757088558161464600,9.956464599609374,-7.769959926605225,-2.949323892593384,5.031324863433838
1757088558171017700,9.966017822265625,-7.679728031158447,-3.171052932739258,5.024285793304443
1757088558180570600,9.975570556640625,-7.575864791870117,-3.400122880935669,5.021762847900391
1757088558190123800,9.985123779296876,-7.456155776977539,-3.6266679763793945,5.0296478271484375
1757088558199677000,9.994677001953125,-7.325615882873535,-3.845057964324951,5.046232223510742
1757088558209229800,10.004229736328124,-7.188178062438965,-4.0468430519104,5.073122024536133
1757088558218782700,10.01378271484375,-7.045481204986572,-4.233428001403809,5.110785961151123
1757088558228336000,10.023336181640625,-6.897985935211182,-4.417637825012207,5.152835845947266
1757088558237889300,10.03288916015625,-6.745645999908447,-4.592483997344971,5.199563026428223
1757088558247442200,10.042442138671875,-6.603452205657959,-4.751305103302002,5.245384216308594
1757088558256995000,10.0519951171875,-6.452031135559082,-4.8990559577941895,5.3017168045043945
1757088558266548200,10.06154833984375,-6.290352821350098,-5.0346150398254395,5.372480869293213
1757088558276101400,10.071101318359375,-6.133255958557129,-5.165134906768799,5.4385151863098145
1757088558285654500,10.080654541015624,-5.975995063781738,-5.285449028015137,5.508648872375488
1757088558295207400,10.09020751953125,-5.815719127655029,-5.39797306060791,5.58199405670166
1757088558304760300,10.09976025390625,-5.649802207946777,-5.504724979400635,5.66056489944458
1757088558314313500,10.1093134765625,-5.4766387939453125,-5.598605155944824,5.751855850219727
1757088558323866400,10.118866455078125,-5.299561023712158,-5.682019233703613,5.848211765289307
1757088558333419800,10.128419677734374,-5.117456912994385,-5.754265785217285,5.951857089996338
1757088558342972700,10.13797265625,-4.928937911987305,-5.807354927062988,6.07210111618042
1757088558352525800,10.14752587890625,-4.744357109069824,-5.839890956878662,6.194708824157715
1757088558362078700,10.15707861328125,-4.556983947753906,-5.858435153961182,6.3211750984191895
1757088558371631900,10.1666318359375,-4.371734142303467,-5.86024284362793,6.448231220245361
1757088558381184800,10.176184814453125,-4.195312976837158,-5.846965789794922,6.568471908569336
1757088558390738200,10.18573828125,-4.023561954498291,-5.820079803466797,6.686460971832275
1757088558400291000,10.195291015625,-3.851362943649292,-5.779804229736328,6.8070478439331055
1757088558409844000,10.204843994140624,-3.6762309074401855,-5.72634220123291,6.931163787841797
1757088558419397000,10.214397216796876,-3.497654914855957,-5.658096790313721,7.058959007263184
1757088558428950300,10.2239501953125,-3.3162529468536377,-5.572869777679443,7.189972877502441
1757088558438503400,10.23350341796875,-3.1142990589141846,-5.475379943847656,7.3318681716918945
1757088558448056300,10.243056396484375,-2.907581090927124,-5.354395866394043,7.476129055023193
1757088558457609200,10.252609130859375,-2.6912128925323486,-5.211084842681885,7.622855186462402
1757088558476715500,10.271715576171875,-2.211920976638794,-4.866964817047119,7.939925193786621
1757088558486268700,10.2812685546875,-1.9566600322723389,-4.671399116516113,8.097805976867676
1757088558495821600,10.290821533203125,-1.6921449899673462,-4.4616899490356445,8.25154972076416
1757088558505374500,10.30037451171875,-1.4037530422210693,-4.236208915710449,8.396954536437988
1757088558514927600,10.309927734375,-1.088189959526062,-3.995398998260498,8.529011726379395
1757088558524480800,10.319480712890625,-0.7631869912147522,-3.74377703666687,8.648966789245605
1757088558534034000,10.329033935546875,-0.4305799901485443,-3.4807209968566895,8.755821228027344
1757088558543586800,10.3385869140625,-0.0787770003080368,-3.2043099403381348,8.843228340148926
1757088558553140000,10.348139892578125,0.27292001247406006,-2.91418194770813,8.91604995727539
1757088558562692900,10.35769287109375,0.6227049827575684,-2.612550973892212,8.973180770874023
1757088558572246000,10.36724609375,0.9709579944610596,-2.302414894104004,9.014142990112305
1757088558581799000,10.376798828125,1.317829966545105,-1.987408995628357,9.038270950317383
1757088558591352000,10.38635205078125,1.6634459495544434,-1.6712219715118408,9.045167922973633
1757088558600905200,10.3959052734375,2.008047103881836,-1.3573529720306396,9.034235000610352
1757088558610458400,10.405458251953124,2.3516509532928467,-1.0489710569381714,9.004772186279297
1757088558620011300,10.41501123046875,2.6931068897247314,-0.7488560080528259,8.956960678100586
1757088558629564400,10.424564453125,3.0310089588165283,-0.45952901244163513,8.891603469848633
1757088558639117600,10.43411767578125,3.362600088119507,-0.188960999250412,8.807517051696777
1757088558648670500,10.44367041015625,3.685612916946411,0.06159500032663345,8.706565856933594
1757088558658223400,10.453223388671875,4.004493236541748,0.29488900303840637,8.591324806213379
1757088558667776500,10.462776611328126,4.322033882141113,0.5165370106697083,8.457725524902344
1757088558677329700,10.47232958984375,4.635382175445557,0.7313519716262817,8.306283950805664
1757088558686882800,10.4818828125,4.94506311416626,0.940214991569519,8.134904861450195
1757088558696435700,10.491435791015626,5.235902786254883,1.135185956954956,7.9465508460998535
1757088558705988900,10.50098876953125,5.511375904083252,1.321323037147522,7.7285990715026855
1757088558715542000,10.5105419921875,5.788603782653809,1.5002210140228271,7.472808837890625
1757088558725095000,10.520094970703125,6.066501140594482,1.6681569814682007,7.174458980560303
1757088558734648000,10.52964794921875,6.328210830688477,1.820844054222107,6.835689067840576
1757088558744201000,10.539200927734376,6.585428237915039,1.9519380331039429,6.456975936889648
1757088558753754000,10.548754150390625,6.836331844329834,2.0553669929504395,6.052379131317139
1757088558763307000,10.55830712890625,7.081132888793945,2.127948045730591,5.620782852172852
1757088558772860200,10.567860107421875,7.319809913635254,2.169922113418579,5.185241222381592
1757088558782413300,10.577413330078125,7.552391052246094,2.1855978965759277,4.750196933746338
1757088558791966200,10.58696630859375,7.7779541015625,2.1804919242858887,4.318481922149658
1757088558801519400,10.596519287109375,7.994999885559082,2.159950017929077,3.8931210041046143
1757088558811072300,10.606072265625,8.202696800231934,2.129012107849121,3.475266933441162
1757088558820625400,10.61562548828125,8.400484085083008,2.092573881149292,3.065196990966797
1757088558830178600,10.625178466796875,8.58780288696289,2.055030107498169,2.6632299423217773
1757088558839731700,10.634731689453124,8.763863563537598,2.0203070640563965,2.270314931869507
1757088558849284600,10.64428466796875,8.927666664123535,1.9914920330047607,1.8874670267105103
1757088558858837800,10.653837646484375,9.075722694396973,1.9647190570831299,1.519631028175354
1757088558868391000,10.663390869140626,9.209754943847656,1.9368510246276855,1.1675570011138916
1757088558877943800,10.67294384765625,9.328787803649902,1.9045490026474,0.8347780108451843
1757088558887497000,10.6824970703125,9.4326171875,1.8721599578857422,0.521094024181366
1757088558897049900,10.6920498046875,9.513858795166016,1.8328609466552734,0.24256600439548492
1757088558906603000,10.70160302734375,9.57313346862793,1.7877479791641235,0.005274000111967325
1757088558916156000,10.711156005859374,9.612669944763184,1.7404659986495972,-0.18366099894046783
1757088558925709000,10.720708984375,9.636187553405762,1.694303035736084,-0.3199250102043152
1757088558935262200,10.73026220703125,9.649023056030273,1.6554969549179077,-0.40976598858833313
1757088558944815000,10.739815185546876,9.654998779296875,1.6307810544967651,-0.467274010181427
1757088558954368300,10.7493681640625,9.656097412109375,1.6220959424972534,-0.4922820031642914
1757088558963921400,10.75892138671875,9.654121398925781,1.628517985343933,-0.5087640285491943
1757088558973474300,10.768474365234376,9.650308609008789,1.6460380554199219,-0.5206530094146729
1757088558983027500,10.77802734375,9.64574146270752,1.6698999404907227,-0.5290690064430237
1757088558992580600,10.78758056640625,9.640954971313477,1.6967519521713257,-0.5356280207633972
