time,seconds_elapsed,z,y,x
1757089330328281300,0.01328125,-0.9036712646484375,-0.169647216796875,0.1009674072265625
1757089330338236400,0.023236328125,-0.9053802490234375,-0.1698455810546875,0.104583740234375
1757089330348191500,0.03319140625,-0.90460205078125,-0.166107177734375,0.111846923828125
1757089330358145500,0.0431455078125,-0.903076171875,-0.1580657958984375,0.1184844970703125
1757089330368100400,0.053100341796875,-0.8799285888671875,-0.150421142578125,0.1251983642578125
1757089330378054400,0.063054443359375,-0.839813232421875,-0.1404571533203125,0.1427001953125
1757089330388009200,0.07300927734375,-0.778076171875,-0.1240692138671875,0.1663665771484375
1757089330397964500,0.082964599609375,-0.705841064453125,-0.1004180908203125,0.18646240234375
1757089330407918300,0.09291845703125,-0.640777587890625,-0.07110595703125,0.20648193359375
1757089330417873400,0.102873291015625,-0.6243438720703125,-0.0366058349609375,0.2221221923828125
1757089330427828200,0.112828125,-1.1076202392578125,-0.0172882080078125,0.0726470947265625
1757089330437782300,0.1227822265625,-1.7696380615234375,-0.15362548828125,-0.1246490478515625
1757089330447737300,0.1327373046875,-0.7752227783203125,-0.2653350830078125,0.149566650390625
1757089330457691400,0.14269140625,-0.70013427734375,-0.3702545166015625,0.114837646484375
1757089330467646500,0.152646484375,-0.7745208740234375,-0.2580718994140625,-0.067901611328125
1757089330477601300,0.162601318359375,-0.725006103515625,-0.1360015869140625,0.020172119140625
1757089330487555600,0.1725556640625,-0.7772216796875,0.0199737548828125,0.1126861572265625
1757089330497510400,0.182510498046875,-0.8546905517578125,0.133453369140625,0.226959228515625
1757089330507464400,0.19246435546875,-0.980926513671875,0.1600341796875,0.2806854248046875
1757089330517419300,0.202419189453125,-1.07135009765625,0.137481689453125,0.3249664306640625
1757089330527374600,0.21237451171875,-1.090362548828125,0.0761871337890625,0.3282012939453125
1757089330537328400,0.222328369140625,-1.1210479736328125,0.00018310546875,0.3753509521484375
1757089330547283500,0.232283447265625,-1.11041259765625,-0.0308380126953125,0.3249969482421875
1757089330557237800,0.24223779296875,-1.0615997314453125,-0.0789794921875,0.288482666015625
1757089330567192000,0.252192138671875,-0.9730072021484375,-0.1605987548828125,0.3026123046875
1757089330577147000,0.26214697265625,-0.805633544921875,-0.3664703369140625,0.4087677001953125
1757089330587101000,0.272100830078125,-0.6280059814453125,-0.437347412109375,0.498687744140625
1757089330597056000,0.282055908203125,-0.52398681640625,-0.3559417724609375,0.4730987548828125
1757089330607011000,0.292010986328125,-0.5080413818359375,-0.3223876953125,0.4226226806640625
1757089330616965000,0.301965087890625,-0.4879913330078125,-0.2756500244140625,0.413482666015625
1757089330626920000,0.311919921875,-0.443756103515625,-0.150848388671875,0.43988037109375
1757089330636875000,0.321875,-0.6905670166015625,-0.049957275390625,0.5268707275390625
1757089330646828800,0.331828857421875,-1.042083740234375,-0.0244903564453125,0.5982208251953125
1757089330656784100,0.3417841796875,-0.913330078125,-0.1040802001953125,0.3192291259765625
1757089330666738000,0.351738037109375,-0.8553466796875,-0.2219696044921875,0.385498046875
1757089330676693000,0.36169287109375,-0.7251739501953125,-0.23956298828125,0.3646087646484375
1757089330686647800,0.371647705078125,-0.654754638671875,-0.208038330078125,0.3365936279296875
1757089330696601900,0.381601806640625,-0.693511962890625,-0.1529083251953125,0.3839874267578125
1757089330706557000,0.391556884765625,-0.7113189697265625,-0.0477752685546875,0.341033935546875
1757089330716511000,0.401510986328125,-0.669647216796875,0.0750885009765625,0.302093505859375
1757089330726466000,0.411466064453125,-0.6239776611328125,0.1688690185546875,0.2960357666015625
1757089330736420900,0.4214208984375,-0.6270294189453125,0.21246337890625,0.212249755859375
1757089330746375200,0.431375244140625,-0.483795166015625,0.20654296875,0.193603515625
1757089330756330000,0.441330078125,-0.56317138671875,0.20489501953125,0.222930908203125
1757089330766285000,0.45128515625,-0.5954742431640625,0.226715087890625,0.2184295654296875
1757089330776238800,0.46123876953125,-0.5079193115234375,0.2301483154296875,0.196380615234375
1757089330786194200,0.471194091796875,-0.4792327880859375,0.2478790283203125,0.226531982421875
1757089330796148000,0.48114794921875,-0.4493255615234375,0.302276611328125,0.2472381591796875
1757089330806103000,0.49110302734375,-0.425689697265625,0.3655242919921875,0.3025360107421875
1757089330816057900,0.501057861328125,-0.388763427734375,0.40789794921875,0.416839599609375
1757089330826012000,0.511011962890625,-0.352508544921875,0.3956298828125,0.531585693359375
1757089330835967000,0.520967041015625,-0.3330841064453125,0.3376312255859375,0.6157073974609375
1757089330845922000,0.530922119140625,-0.339691162109375,0.2890777587890625,0.6847991943359375
1757089330855876000,0.5408759765625,-0.328125,0.318115234375,0.733245849609375
1757089330865831000,0.550830810546875,-0.23516845703125,0.513458251953125,0.7320709228515625
1757089330875785000,0.560784912109375,-0.2352294921875,0.549957275390625,0.9088287353515625
1757089330885740000,0.570739990234375,-0.304779052734375,0.371551513671875,1.1737213134765625
1757089330895694800,0.58069482421875,-0.374725341796875,0.2631378173828125,1.5068511962890625
1757089330905649000,0.59064892578125,-0.4116363525390625,0.21160888671875,1.9467926025390625
1757089330915604000,0.60060400390625,-0.442230224609375,0.272796630859375,2.2327423095703125
1757089330925558000,0.61055810546875,-0.5135040283203125,0.35467529296875,2.2693328857421875
1757089330935513000,0.62051318359375,-0.6470794677734375,0.3603973388671875,2.024444580078125
1757089330945468000,0.630468017578125,-0.8085174560546875,0.3361663818359375,1.706329345703125
1757089330955422000,0.640421875,-0.904815673828125,0.3455352783203125,1.4780120849609375
1757089330965377000,0.650376953125,-0.909210205078125,0.3744964599609375,1.4034881591796875
1757089330975332000,0.66033203125,-0.8640899658203125,0.4177398681640625,1.4631500244140625
1757089330985286000,0.670285888671875,-0.759613037109375,0.397857666015625,1.5516204833984375
1757089330995241000,0.680240966796875,-0.6010894775390625,0.3188934326171875,1.5869903564453125
1757089331005195000,0.690195068359375,-0.408233642578125,0.25347900390625,1.568817138671875
1757089331015150000,0.700150146484375,-0.210723876953125,0.243011474609375,1.506988525390625
1757089331025105000,0.71010498046875,-0.0408782958984375,0.2714080810546875,1.3854827880859375
1757089331035059000,0.720058837890625,0.0723114013671875,0.3028411865234375,1.209686279296875
1757089331045014000,0.730013916015625,0.1010589599609375,0.3542022705078125,1.0103302001953125
1757089331054969000,0.739968994140625,0.0896453857421875,0.3920135498046875,0.8658294677734375
1757089331064923100,0.749923095703125,0.0540008544921875,0.439849853515625,0.7875823974609375
1757089331074878000,0.7598779296875,-0.019927978515625,0.5061187744140625,0.771728515625
1757089331084832000,0.76983203125,-0.0941314697265625,0.531280517578125,0.78564453125
1757089331094786800,0.779786865234375,-0.137237548828125,0.5419769287109375,0.8016815185546875
1757089331104742100,0.7897421875,-0.1409912109375,0.5500335693359375,0.8316802978515625
1757089331114696000,0.799696044921875,-0.129241943359375,0.57672119140625,0.8574066162109375
1757089331124651000,0.809651123046875,-0.11834716796875,0.599273681640625,0.843017578125
1757089331134605000,0.81960498046875,-0.12213134765625,0.6098785400390625,0.8050384521484375
1757089331144559900,0.829559814453125,-0.14398193359375,0.6108551025390625,0.797698974609375
1757089331154515000,0.839514892578125,-0.2061004638671875,0.6048736572265625,0.8297576904296875
1757089331164469000,0.849468994140625,-0.2776641845703125,0.60308837890625,0.8521270751953125
1757089331174423800,0.859423828125,-0.3351898193359375,0.621002197265625,0.8438262939453125
1757089331184379000,0.86937890625,-0.3805389404296875,0.6387939453125,0.8221435546875
1757089331194333200,0.879333251953125,-0.4085693359375,0.6368865966796875,0.7966156005859375
1757089331204288000,0.8892880859375,-0.4246978759765625,0.61968994140625,0.79425048828125
1757089331214242000,0.899241943359375,-0.4361114501953125,0.6130218505859375,0.8282318115234375
1757089331224196900,0.90919677734375,-0.437469482421875,0.616943359375,0.8853912353515625
1757089331234152200,0.919152099609375,-0.4164886474609375,0.61798095703125,0.9256591796875
1757089331244106000,0.92910595703125,-0.378387451171875,0.5970458984375,0.92352294921875
1757089331254061000,0.93906103515625,-0.3445281982421875,0.5699462890625,0.912322998046875
1757089331264016000,0.949015869140625,-0.314117431640625,0.5474395751953125,0.910675048828125
1757089331273970000,0.958969970703125,-0.2859344482421875,0.5236053466796875,0.916046142578125
1757089331283925000,0.968925048828125,-0.272003173828125,0.5191192626953125,0.90521240234375
1757089331293879000,0.978879150390625,-0.281005859375,0.538818359375,0.8587646484375
1757089331303833900,0.988833740234375,-0.3112030029296875,0.5666961669921875,0.78167724609375
1757089331313789000,0.998788818359375,-0.3627471923828125,0.6009063720703125,0.7050628662109375
1757089331323743000,1.008742919921875,-0.4290618896484375,0.636962890625,0.6498260498046875
1757089331333698000,1.018697998046875,-0.513458251953125,0.6827392578125,0.6250152587890625
1757089331343652900,1.02865283203125,-0.6161651611328125,0.7250823974609375,0.592864990234375
1757089331353607000,1.03860693359375,-0.7050933837890625,0.7326202392578125,0.5345611572265625
1757089331363562000,1.04856201171875,-0.7566070556640625,0.7219390869140625,0.4763336181640625
1757089331373516000,1.05851611328125,-0.7692413330078125,0.708984375,0.4616546630859375
1757089331383471000,1.06847119140625,-0.774383544921875,0.7216949462890625,0.487457275390625
1757089331393426000,1.078426025390625,-0.7429351806640625,0.758392333984375,0.493133544921875
1757089331403380000,1.0883798828125,-0.66583251953125,0.764556884765625,0.4862060546875
1757089331413335000,1.0983349609375,-0.586883544921875,0.7331390380859375,0.5092620849609375
1757089331423289000,1.1082890625,-0.5052490234375,0.68438720703125,0.550201416015625
1757089331433244000,1.118243896484375,-0.4224853515625,0.646942138671875,0.598358154296875
1757089331443199000,1.128198974609375,-0.3693084716796875,0.6277923583984375,0.6617279052734375
1757089331453152800,1.13815283203125,-0.3311767578125,0.6085357666015625,0.7234954833984375
1757089331463108000,1.148108154296875,-0.3171234130859375,0.6100006103515625,0.743408203125
1757089331473063000,1.15806298828125,-0.3224029541015625,0.6247711181640625,0.73052978515625
1757089331483017000,1.168016845703125,-0.3305511474609375,0.6392822265625,0.6903076171875
1757089331492971800,1.1779716796875,-0.3399658203125,0.65081787109375,0.645050048828125
1757089331502925800,1.18792578125,-0.342681884765625,0.6497955322265625,0.622711181640625
1757089331512881200,1.197881103515625,-0.349700927734375,0.646026611328125,0.6026458740234375
1757089331522836000,1.2078359375,-0.3721160888671875,0.6458282470703125,0.5862274169921875
1757089331532790000,1.2177900390625,-0.390411376953125,0.6353759765625,0.585174560546875
1757089331542744800,1.227744873046875,-0.4117889404296875,0.62371826171875,0.5918731689453125
1757089331552699100,1.23769921875,-0.4346923828125,0.61663818359375,0.603515625
1757089331562654200,1.247654296875,-0.450408935546875,0.613189697265625,0.6175537109375
1757089331572609300,1.257609375,-0.468048095703125,0.613525390625,0.6285552978515625
1757089331582563000,1.26756298828125,-0.493194580078125,0.61956787109375,0.63995361328125
1757089331592518100,1.27751806640625,-0.5401611328125,0.6448516845703125,0.6484375
1757089331602473200,1.28747314453125,-0.5792388916015625,0.6716766357421875,0.6436920166015625
1757089331612427300,1.29742724609375,-0.601898193359375,0.6776123046875,0.6320343017578125
1757089331622382000,1.307382080078125,-0.6259002685546875,0.68572998046875,0.639068603515625
1757089331632336100,1.317336181640625,-0.6357269287109375,0.6901397705078125,0.6528778076171875
1757089331642291000,1.327291015625,-0.6306915283203125,0.6961822509765625,0.657989501953125
1757089331652246300,1.337246337890625,-0.6456756591796875,0.7056884765625,0.6713409423828125
1757089331662200300,1.347200439453125,-0.6446990966796875,0.697357177734375,0.696197509765625
1757089331672155100,1.357155029296875,-0.6059112548828125,0.6788787841796875,0.7309722900390625
1757089331682109200,1.367109130859375,-0.5511322021484375,0.6495208740234375,0.770782470703125
1757089331692064000,1.37706396484375,-0.456329345703125,0.615081787109375,0.7900238037109375
1757089331702019300,1.387019287109375,-0.3862762451171875,0.589630126953125,0.834136962890625
1757089331711973000,1.39697314453125,-0.3737030029296875,0.594696044921875,0.8943939208984375
1757089331721928200,1.40692822265625,-0.3837890625,0.6154022216796875,0.9329376220703125
1757089331731883000,1.416883056640625,-0.4109039306640625,0.61260986328125,0.9513397216796875
1757089331741837000,1.426837158203125,-0.4200286865234375,0.583953857421875,0.947540283203125
1757089331751792000,1.436792236328125,-0.41607666015625,0.5535125732421875,0.9250946044921875
1757089331761747200,1.446747314453125,-0.3954620361328125,0.5327301025390625,0.9004058837890625
1757089331771701000,1.456700927734375,-0.364959716796875,0.5252685546875,0.8863067626953125
1757089331781656000,1.466656005859375,-0.3369140625,0.5176239013671875,0.87445068359375
1757089331791610400,1.4766103515625,-0.347686767578125,0.5128173828125,0.8621063232421875
1757089331801565200,1.486565185546875,-0.3708648681640625,0.5136566162109375,0.8281097412109375
1757089331811520000,1.49652001953125,-0.390899658203125,0.5202484130859375,0.7769317626953125
1757089331821474000,1.50647412109375,-0.3963165283203125,0.5321044921875,0.7271270751953125
1757089331831429000,1.51642919921875,-0.3933258056640625,0.5308685302734375,0.684539794921875
1757089331841383200,1.526383056640625,-0.420867919921875,0.525665283203125,0.6510009765625
1757089331851338200,1.536338134765625,-0.4661712646484375,0.533782958984375,0.6104278564453125
1757089331861293000,1.54629296875,-0.51849365234375,0.5471954345703125,0.5760955810546875
1757089331871247000,1.5562470703125,-0.571868896484375,0.55474853515625,0.543304443359375
1757089331881202200,1.5662021484375,-0.62213134765625,0.5628662109375,0.52960205078125
1757089331891157200,1.5761572265625,-0.6463623046875,0.5723419189453125,0.5079345703125
1757089331901111000,1.586111083984375,-0.6336822509765625,0.5793304443359375,0.460540771484375
1757089331911066000,1.596066162109375,-0.62969970703125,0.57122802734375,0.4072418212890625
1757089331921020000,1.60602001953125,-0.6024627685546875,0.551483154296875,0.354217529296875
1757089331930975200,1.615975341796875,-0.574859619140625,0.5384063720703125,0.30364990234375
1757089331940930000,1.625929931640625,-0.55560302734375,0.5179290771484375,0.277496337890625
1757089331950884000,1.635884033203125,-0.52740478515625,0.4826507568359375,0.2992706298828125
1757089331960839000,1.6458388671875,-0.53485107421875,0.503173828125,0.3078155517578125
1757089331970794200,1.655794189453125,-0.626983642578125,0.5283355712890625,0.3045501708984375
1757089331980748300,1.665748291015625,-0.711883544921875,0.494171142578125,0.2943572998046875
1757089331990703000,1.675703125,-0.75445556640625,0.508544921875,0.2812042236328125
1757089332000657200,1.6856572265625,-0.8034515380859375,0.53338623046875,0.2957305908203125
1757089332010612200,1.6956123046875,-0.8240203857421875,0.52545166015625,0.302886962890625
1757089332020567300,1.7055673828125,-0.8000335693359375,0.510498046875,0.323272705078125
1757089332030521000,1.71552099609375,-0.77630615234375,0.501556396484375,0.359527587890625
1757089332040476200,1.72547607421875,-0.7688751220703125,0.4839630126953125,0.3852386474609375
1757089332050430000,1.735429931640625,-0.79840087890625,0.46240234375,0.4294586181640625
1757089332060385300,1.74538525390625,-0.8106689453125,0.4571075439453125,0.4735107421875
1757089332070340000,1.755340087890625,-0.7954864501953125,0.4656524658203125,0.5005645751953125
1757089332080294100,1.765294189453125,-0.7786407470703125,0.470245361328125,0.5277862548828125
1757089332090249000,1.7752490234375,-0.7572784423828125,0.46563720703125,0.5469512939453125
1757089332100204300,1.785204345703125,-0.748687744140625,0.464324951171875,0.5596771240234375
1757089332110158000,1.795157958984375,-0.7516021728515625,0.4658203125,0.5608062744140625
1757089332120113200,1.805113037109375,-0.7758941650390625,0.4685821533203125,0.5667266845703125
1757089332130067200,1.815067138671875,-0.8115081787109375,0.482147216796875,0.6087799072265625
1757089332140022000,1.82502197265625,-0.831817626953125,0.495452880859375,0.6449737548828125
1757089332149977000,1.83497705078125,-0.8457489013671875,0.4851226806640625,0.65771484375
1757089332159931100,1.84493115234375,-0.8559417724609375,0.459747314453125,0.68499755859375
1757089332169886200,1.85488623046875,-0.8486175537109375,0.4325103759765625,0.7320556640625
1757089332179841000,1.864841064453125,-0.8306121826171875,0.4221038818359375,0.7892608642578125
1757089332189795300,1.87479541015625,-0.817230224609375,0.4245452880859375,0.8221282958984375
1757089332199750100,1.884750244140625,-0.773712158203125,0.4165802001953125,0.778839111328125
1757089332209704200,1.8947041015625,-0.7368927001953125,0.395599365234375,0.7114715576171875
1757089332219659000,1.904658935546875,-0.740570068359375,0.3821563720703125,0.6890716552734375
1757089332229614300,1.9146142578125,-0.7493743896484375,0.3981781005859375,0.68310546875
1757089332239568100,1.924568115234375,-0.757965087890625,0.421905517578125,0.658721923828125
1757089332249523200,1.934523193359375,-0.726226806640625,0.4001922607421875,0.634765625
1757089332259478000,1.94447802734375,-0.64923095703125,0.3629913330078125,0.6234893798828125
1757089332269432000,1.95443212890625,-0.5756683349609375,0.336090087890625,0.6466522216796875
1757089332279387100,1.96438720703125,-0.507110595703125,0.3161163330078125,0.6820068359375
1757089332289341200,1.974341064453125,-0.4459381103515625,0.301544189453125,0.6646575927734375
1757089332299296300,1.984296142578125,-0.4344024658203125,0.2879486083984375,0.618804931640625
1757089332309251000,1.9942509765625,-0.4254913330078125,0.2835235595703125,0.586517333984375
1757089332319205000,2.004205078125,-0.41864013671875,0.2891693115234375,0.5601959228515625
1757089332329160200,2.01416015625,-0.4460296630859375,0.285919189453125,0.5394134521484375
1757089332339114200,2.0241142578125,-0.5048828125,0.280059814453125,0.5357818603515625
1757089332349069000,2.034069091796875,-0.551971435546875,0.2926788330078125,0.5356597900390625
1757089332359024000,2.044024169921875,-0.581390380859375,0.3139190673828125,0.53082275390625
1757089332368978200,2.053978271484375,-0.613189697265625,0.3168792724609375,0.531219482421875
1757089332378933200,2.063933349609375,-0.5720672607421875,0.3233642578125,0.553802490234375
1757089332388888000,2.07388818359375,-0.61700439453125,0.3345794677734375,0.563873291015625
1757089332398842000,2.083842041015625,-0.6530303955078125,0.349334716796875,0.5819244384765625
1757089332408797000,2.093796875,-0.69769287109375,0.3646697998046875,0.581939697265625
1757089332418751200,2.103751220703125,-0.767486572265625,0.3584442138671875,0.595001220703125
1757089332428706000,2.1137060546875,-0.842437744140625,0.3504791259765625,0.6515045166015625
1757089332438661000,2.1236611328125,-0.9255218505859375,0.3676605224609375,0.7104339599609375
1757089332448615200,2.133615234375,-0.9958343505859375,0.386322021484375,0.7234954833984375
1757089332458570200,2.1435703125,-1.024627685546875,0.394439697265625,0.6946868896484375
1757089332468525000,2.153525146484375,-1.0818939208984375,0.4158782958984375,0.66693115234375
1757089332478479000,2.16347900390625,-1.1512908935546875,0.435150146484375,0.664764404296875
1757089332488434200,2.17343408203125,-1.181732177734375,0.4415435791015625,0.6444091796875
1757089332498388000,2.183387939453125,-1.18212890625,0.4487762451171875,0.6043243408203125
1757089332508343300,2.19334326171875,-1.14788818359375,0.4650421142578125,0.5624237060546875
1757089332518298000,2.203298095703125,-1.1179656982421875,0.4572601318359375,0.532012939453125
1757089332528252200,2.213252197265625,-1.084808349609375,0.4298553466796875,0.543182373046875
1757089332538207000,2.22320703125,-1.005889892578125,0.4045257568359375,0.55206298828125
1757089332548161000,2.2331611328125,-0.946075439453125,0.3719482421875,0.5448455810546875
1757089332558116400,2.243116455078125,-0.9018402099609375,0.337249755859375,0.524017333984375
1757089332568071400,2.253071533203125,-0.8559112548828125,0.326995849609375,0.5037078857421875
1757089332578025500,2.263025390625,-0.8275604248046875,0.34857177734375,0.504852294921875
1757089332587980500,2.27298046875,-0.7746734619140625,0.3535308837890625,0.512969970703125
1757089332597935400,2.282935302734375,-0.67633056640625,0.328125,0.50653076171875
1757089332607889400,2.292889404296875,-0.57220458984375,0.297210693359375,0.5362091064453125
1757089332617844500,2.302844482421875,-0.5135498046875,0.2581024169921875,0.59576416015625
1757089332627798500,2.312798583984375,-0.5118865966796875,0.2075347900390625,0.6342926025390625
1757089332637753600,2.322753662109375,-0.5653839111328125,0.1885223388671875,0.655792236328125
1757089332647708400,2.33270849609375,-0.6041259765625,0.19989013671875,0.6753082275390625
1757089332657662500,2.342662353515625,-0.6002655029296875,0.220458984375,0.68963623046875
1757089332667617500,2.352617431640625,-0.5758514404296875,0.25225830078125,0.6833648681640625
1757089332677571600,2.362571533203125,-0.54083251953125,0.308837890625,0.664031982421875
1757089332687526400,2.3725263671875,-0.476318359375,0.360809326171875,0.6146087646484375
1757089332697481500,2.3824814453125,-0.38800048828125,0.3212738037109375,0.5597076416015625
1757089332707435300,2.392435302734375,-0.34197998046875,0.3254241943359375,0.5517120361328125
1757089332717390600,2.402390625,-0.3735504150390625,0.396270751953125,0.5117645263671875
1757089332727345400,2.412345458984375,-0.3663482666015625,0.3530426025390625,0.6194305419921875
1757089332737299500,2.422299560546875,-0.3127288818359375,0.267181396484375,0.6796722412109375
1757089332747254300,2.432254150390625,-0.355682373046875,0.2595367431640625,0.644134521484375
1757089332757208600,2.44220849609375,-0.41351318359375,0.253936767578125,0.67083740234375
1757089332767163400,2.452163330078125,-0.4428253173828125,0.24188232421875,0.7291412353515625
1757089332777118500,2.462118408203125,-0.4368743896484375,0.231201171875,0.756256103515625
1757089332787072500,2.472072509765625,-0.4216766357421875,0.2452239990234375,0.735321044921875
1757089332797027600,2.482027587890625,-0.43414306640625,0.235137939453125,0.7266082763671875
1757089332806981600,2.491981689453125,-0.4393768310546875,0.2036895751953125,0.7525634765625
1757089332816936400,2.5019365234375,-0.4438629150390625,0.203399658203125,0.761199951171875
1757089332826891500,2.5118916015625,-0.4669952392578125,0.2373504638671875,0.813018798828125
1757089332836845300,2.52184521484375,-0.5161285400390625,0.284942626953125,0.8758697509765625
1757089332846800600,2.531800537109375,-0.5545806884765625,0.3260345458984375,0.8376007080078125
1757089332856755500,2.54175537109375,-0.649505615234375,0.3675079345703125,0.7867584228515625
1757089332866709500,2.55170947265625,-0.8104400634765625,0.402252197265625,0.8459320068359375
1757089332876664300,2.561664306640625,-0.8662567138671875,0.37518310546875,0.8490753173828125
1757089332886618400,2.571618408203125,-0.7170257568359375,0.3555450439453125,0.8218536376953125
1757089332896573400,2.581573486328125,-0.502288818359375,0.29901123046875,0.8481597900390625
1757089332906528500,2.591528564453125,-0.3552703857421875,0.242645263671875,0.9338531494140625
1757089332916482600,2.601482666015625,-0.2602081298828125,0.2790985107421875,0.952117919921875
1757089332926437400,2.611437255859375,-0.1357879638671875,0.3370361328125,0.8837738037109375
1757089332936391700,2.6213916015625,0.0177154541015625,0.379058837890625,0.8614959716796875
1757089332946346500,2.631346435546875,0.094390869140625,0.400604248046875,0.8031768798828125
1757089332956301600,2.641301513671875,0.07757568359375,0.4374237060546875,0.724639892578125
1757089332966255400,2.65125537109375,-0.0221710205078125,0.479949951171875,0.6767120361328125
1757089332976210700,2.661210693359375,-0.1802520751953125,0.516998291015625,0.6981964111328125
1757089332986165500,2.67116552734375,-0.382080078125,0.506134033203125,0.7875823974609375
1757089332996119600,2.68111962890625,-0.631561279296875,0.4903564453125,0.8414459228515625
1757089333006074400,2.691074462890625,-0.5514678955078125,0.4927215576171875,0.896942138671875
1757089333016028400,2.7010283203125,-0.426055908203125,0.5380401611328125,0.8568115234375
1757089333025983500,2.7109833984375,-0.3609619140625,0.5556793212890625,0.792083740234375
1757089333035938600,2.7209384765625,-0.2967376708984375,0.5136260986328125,0.7496185302734375
1757089333045892400,2.730892333984375,-0.2548828125,0.438629150390625,0.744659423828125
1757089333055847400,2.740847412109375,-0.2632293701171875,0.3868865966796875,0.797698974609375
1757089333065801500,2.750801513671875,-0.3267364501953125,0.3763427734375,0.86456298828125
1757089333075756500,2.760756591796875,-0.4193115234375,0.337188720703125,0.9476318359375
1757089333085711400,2.77071142578125,-0.443450927734375,0.3363037109375,0.889617919921875
1757089333095665400,2.78066552734375,-0.4482421875,0.3897552490234375,0.797515869140625
1757089333105620500,2.790620361328125,-0.4889678955078125,0.418609619140625,0.753814697265625
1757089333115575600,2.800575439453125,-0.5297393798828125,0.426971435546875,0.680511474609375
1757089333125529600,2.810529541015625,-0.574554443359375,0.4662322998046875,0.596893310546875
1757089333135484400,2.820484375,-0.6019287109375,0.4559326171875,0.5804443359375
1757089333145438500,2.8304384765625,-0.300262451171875,0.376251220703125,0.701629638671875
1757089333155393300,2.840393310546875,0.0052337646484375,0.403778076171875,0.8152008056640625
1757089333165348600,2.8503486328125,0.0359039306640625,0.3620452880859375,0.7599334716796875
1757089333175302400,2.860302490234375,-0.168701171875,0.317108154296875,0.8302459716796875
1757089333185257500,2.870257568359375,-0.3253936767578125,0.331695556640625,0.8908233642578125
1757089333195211500,2.88021142578125,-0.2906646728515625,0.3895416259765625,0.919921875
1757089333205166600,2.89016650390625,-0.2360687255859375,0.466766357421875,0.799652099609375
1757089333215121400,2.900121337890625,-0.2472991943359375,0.5660858154296875,0.649444580078125
1757089333225075500,2.910075439453125,-0.26446533203125,0.567169189453125,0.67608642578125
1757089333235030500,2.920030517578125,-0.2103271484375,0.5417938232421875,0.6002349853515625
1757089333244984300,2.929984375,-0.2070465087890625,0.592803955078125,0.4544219970703125
1757089333254939600,2.939939697265625,-0.219970703125,0.765289306640625,0.46978759765625
1757089333264894500,2.94989453125,-0.1383056640625,0.7677154541015625,0.5465240478515625
1757089333274848500,2.9598486328125,-0.264923095703125,0.7270965576171875,0.570220947265625
1757089333284803300,2.96980322265625,-0.264404296875,0.71307373046875,0.6031036376953125
1757089333294758700,2.979758544921875,-0.20648193359375,0.73223876953125,0.6157073974609375
1757089333304712400,2.98971240234375,-0.1721649169921875,0.8453369140625,0.64501953125
1757089333314667500,2.99966748046875,-0.116943359375,0.9266510009765625,0.554901123046875
1757089333324621300,3.009621337890625,-0.2177886962890625,0.8500823974609375,0.48626708984375
1757089333334576400,3.019576416015625,-0.2949676513671875,0.859100341796875,0.5185699462890625
1757089333344531500,3.029531494140625,-0.302520751953125,0.8617706298828125,0.5645904541015625
1757089333354485500,3.039485595703125,-0.3550872802734375,0.861724853515625,0.91204833984375
1757089333364440300,3.0494404296875,-0.3347320556640625,0.8785247802734375,1.2092132568359375
1757089333374394400,3.059394287109375,-0.2828521728515625,0.7000732421875,0.89337158203125
1757089333384349700,3.069349609375,-0.2718048095703125,0.599700927734375,0.745269775390625
1757089333394304500,3.079304443359375,-0.152923583984375,0.6331329345703125,1.0018463134765625
1757089333404258600,3.089258544921875,-0.08209228515625,0.65899658203125,1.0699005126953125
1757089333414213400,3.09921337890625,-0.115997314453125,0.669342041015625,0.846343994140625
1757089333424167400,3.10916748046875,-0.1383514404296875,0.6351776123046875,0.6739044189453125
1757089333434122500,3.11912255859375,-0.1489105224609375,0.6141357421875,0.6279449462890625
1757089333444077600,3.12907763671875,-0.160797119140625,0.6339111328125,0.629913330078125
1757089333454031400,3.13903125,-0.1662139892578125,0.6532440185546875,0.675567626953125
1757089333463986400,3.148986328125,-0.1451568603515625,0.6614837646484375,0.7034912109375
1757089333473941500,3.15894140625,-0.1417694091796875,0.7145538330078125,0.6509246826171875
1757089333483895600,3.1688955078125,-0.151458740234375,0.7851409912109375,0.58074951171875
1757089333493850400,3.178850341796875,-0.166961669921875,0.846099853515625,0.55029296875
1757089333503804400,3.188804443359375,-0.1697235107421875,0.866058349609375,0.5558013916015625
1757089333513759500,3.198759521484375,-0.1727294921875,0.8495330810546875,0.5612640380859375
1757089333523714600,3.208714599609375,-0.1688079833984375,0.824249267578125,0.5657501220703125
1757089333533668600,3.218668701171875,-0.164520263671875,0.78363037109375,0.57867431640625
1757089333543623400,3.22862353515625,-0.1719207763671875,0.7425689697265625,0.586700439453125
1757089333553577500,3.238577392578125,-0.15863037109375,0.710113525390625,0.586029052734375
1757089333563532300,3.2485322265625,-0.1482086181640625,0.6712799072265625,0.5824127197265625
1757089333573487400,3.2584873046875,-0.1288909912109375,0.68121337890625,0.5934295654296875
1757089333583441200,3.268441162109375,-0.139495849609375,0.71856689453125,0.6013031005859375
1757089333593396500,3.278396484375,-0.149261474609375,0.6832275390625,0.535430908203125
1757089333603350500,3.2883505859375,-0.1734619140625,0.5189666748046875,0.3860015869140625
1757089333613305300,3.298305419921875,-0.1350555419921875,0.541656494140625,0.424591064453125
1757089333623260200,3.30826025390625,-0.1361236572265625,0.5890350341796875,0.408111572265625
1757089333633214200,3.318214111328125,-0.18353271484375,0.6950836181640625,0.4024505615234375
1757089333643169300,3.328169189453125,-0.17034912109375,0.780517578125,0.399017333984375
1757089333653123300,3.338123291015625,-0.1526336669921875,0.8416748046875,0.379852294921875
1757089333663078400,3.348078369140625,-0.136474609375,0.8738861083984375,0.3336334228515625
1757089333673033200,3.358033203125,-0.1073150634765625,0.9015960693359375,0.314544677734375
1757089333682987500,3.367987548828125,-0.0994110107421875,0.9703216552734375,0.3938751220703125
1757089333692942300,3.3779423828125,-0.178863525390625,1.0823974609375,0.5016021728515625
1757089333702897400,3.3878974609375,-0.2790069580078125,1.17706298828125,0.6510467529296875
1757089333712851200,3.397851318359375,-0.31292724609375,1.2568359375,0.7289886474609375
1757089333722806500,3.407806640625,-0.2627105712890625,1.371246337890625,0.6367340087890625
1757089333732760300,3.41776025390625,-0.1771240234375,1.4074249267578125,0.5099029541015625
1757089333742715400,3.42771533203125,-0.1593475341796875,1.1603240966796875,0.3827667236328125
1757089333752670200,3.437670166015625,-0.1619415283203125,0.8207244873046875,0.41094970703125
1757089333762624300,3.447624267578125,-0.12677001953125,0.802947998046875,0.4629974365234375
1757089333772579300,3.457579345703125,-0.15289306640625,0.8474884033203125,0.4554595947265625
1757089333782533400,3.467533447265625,-0.181671142578125,0.8788604736328125,0.4314422607421875
1757089333792488400,3.477488525390625,-0.1804962158203125,0.8822174072265625,0.42816162109375
1757089333802443300,3.487443359375,-0.161376953125,0.877288818359375,0.4293060302734375
1757089333812397300,3.497397216796875,-0.1415252685546875,0.8691253662109375,0.440521240234375
1757089333822352400,3.507352294921875,-0.1533355712890625,0.8734893798828125,0.4497222900390625
1757089333832306400,3.517306396484375,-0.154296875,0.889556884765625,0.4451904296875
1757089333842261200,3.52726123046875,-0.1593475341796875,0.895233154296875,0.449432373046875
1757089333852216300,3.53721630859375,-0.1662750244140625,0.8856658935546875,0.46246337890625
1757089333862170400,3.54717041015625,-0.1505889892578125,0.882568359375,0.4626007080078125
1757089333872125400,3.55712548828125,-0.140350341796875,0.8715972900390625,0.460052490234375
1757089333882079500,3.56707958984375,-0.144622802734375,0.875030517578125,0.446807861328125
1757089333892034300,3.577034423828125,-0.148223876953125,0.87579345703125,0.4507293701171875
1757089333901989400,3.5869892578125,-0.148223876953125,0.8692474365234375,0.45947265625
1757089333911943400,3.596943359375,-0.1534423828125,0.875732421875,0.4573211669921875
1757089333921898200,3.606898193359375,-0.16265869140625,0.885589599609375,0.453338623046875
1757089333931853300,3.616853271484375,-0.154937744140625,0.894134521484375,0.4415130615234375
1757089333941807400,3.626807373046875,-0.1373291015625,0.892608642578125,0.437042236328125
1757089333951762400,3.636762451171875,-0.13360595703125,0.8859100341796875,0.4431304931640625
1757089333961716500,3.646716552734375,-0.136077880859375,0.878692626953125,0.4456634521484375
1757089333971671300,3.65667138671875,-0.1286163330078125,0.8873443603515625,0.426788330078125
1757089333981626400,3.66662646484375,-0.116943359375,0.9127655029296875,0.4135589599609375
1757089333991580200,3.676580078125,-0.12109375,0.915863037109375,0.4245147705078125
1757089334001535500,3.686535400390625,-0.1435089111328125,0.9075927734375,0.427947998046875
1757089334011489300,3.6964892578125,-0.14019775390625,0.9102783203125,0.420257568359375
1757089334021444400,3.7064443359375,-0.138580322265625,0.9208984375,0.4278564453125
1757089334031399200,3.716399169921875,-0.159759521484375,0.8997955322265625,0.457305908203125
1757089334041353500,3.726353515625,-0.172271728515625,0.9067840576171875,0.4525146484375
1757089334051308300,3.736308349609375,-0.1697845458984375,0.9116668701171875,0.42681884765625
1757089334061262300,3.746262451171875,-0.1763763427734375,0.9463653564453125,0.4105682373046875
1757089334071217400,3.756217529296875,-0.1609954833984375,0.9882354736328125,0.35418701171875
1757089334081172500,3.76617236328125,-0.16546630859375,1.0020294189453125,0.3707427978515625
1757089334091126500,3.77612646484375,-0.172088623046875,0.96038818359375,0.352813720703125
1757089334101081300,3.786081298828125,-0.1400146484375,0.9582672119140625,0.2955169677734375
1757089334111035400,3.796035400390625,-0.1070098876953125,0.98138427734375,0.2567291259765625
1757089334120990200,3.805990234375,-0.06439208984375,0.986480712890625,0.2498016357421875
1757089334130945500,3.815945556640625,-0.093963623046875,0.979705810546875,0.2317962646484375
1757089334140899300,3.8258994140625,-0.1213226318359375,0.9324493408203125,0.255950927734375
1757089334150854400,3.8358544921875,-0.11859130859375,0.84136962890625,0.4144287109375
1757089334160808400,3.845808349609375,-0.15557861328125,0.810211181640625,0.4403076171875
1757089334170763300,3.85576318359375,-0.1505889892578125,0.850311279296875,0.4165191650390625
1757089334180718300,3.86571826171875,-0.119476318359375,0.873992919921875,0.3913421630859375
1757089334190672400,3.87567236328125,-0.1319427490234375,0.8940887451171875,0.3397979736328125
1757089334200627200,3.885627197265625,-0.1546173095703125,0.8936004638671875,0.3398590087890625
1757089334210581200,3.895581298828125,-0.138671875,0.8881378173828125,0.3796234130859375
1757089334220536600,3.90553662109375,-0.129150390625,0.88946533203125,0.3730926513671875
1757089334230491400,3.915491455078125,-0.119537353515625,0.8484344482421875,0.390716552734375
1757089334240445400,3.925445556640625,-0.1294097900390625,0.8569183349609375,0.4232635498046875
1757089334250400300,3.935400146484375,-0.1188201904296875,0.8629150390625,0.4576263427734375
1757089334260355300,3.945355224609375,-0.0948638916015625,0.8715972900390625,0.409088134765625
1757089334270309400,3.955309326171875,-0.0957794189453125,0.908447265625,0.2815399169921875
1757089334280264400,3.965264404296875,-0.12744140625,0.9276885986328125,0.2196807861328125
1757089334290218200,3.97521826171875,-0.133148193359375,0.93243408203125,0.177398681640625
1757089334300173300,3.98517333984375,-0.1482696533203125,0.935333251953125,0.214324951171875
1757089334310128400,3.99512841796875,-0.148223876953125,0.8911285400390625,0.354736328125
1757089334320082400,4.00508251953125,-0.1468963623046875,0.8002166748046875,0.5070648193359375
1757089334330037200,4.015037353515625,-0.153076171875,0.796142578125,0.4918670654296875
1757089334339991300,4.0249912109375,-0.1526336669921875,0.80657958984375,0.4040374755859375
1757089334349946400,4.0349462890625,-0.158966064453125,0.79925537109375,0.353607177734375
1757089334359901400,4.0449013671875,-0.1496124267578125,0.783416748046875,0.3486480712890625
1757089334369855500,4.05485546875,-0.0596466064453125,0.716949462890625,0.333770751953125
1757089334379810300,4.064810302734375,0.191314697265625,0.558258056640625,0.224395751953125
1757089334389764400,4.074764404296875,-0.0979156494140625,0.55181884765625,0.343353271484375
1757089334399719200,4.08471923828125,-0.06964111328125,0.6219635009765625,0.4049530029296875
1757089334409674500,4.094674560546875,-0.11029052734375,0.7925262451171875,0.3380126953125
1757089334419628300,4.104628173828125,-0.1714019775390625,1.122955322265625,0.1273193359375
1757089334429583400,4.114583251953125,-0.0382843017578125,1.32757568359375,0.0418701171875
1757089334439537400,4.124537353515625,-0.0301361083984375,1.0457611083984375,0.3304443359375
1757089334449492500,4.134492431640625,-0.40924072265625,0.6807403564453125,0.70135498046875
1757089334459447300,4.144447265625,-0.4746551513671875,1.2410125732421875,0.33831787109375
1757089334469401300,4.1544013671875,-0.255462646484375,1.41033935546875,-0.054595947265625
1757089334479356400,4.1643564453125,-0.15936279296875,1.4574432373046875,-0.282958984375
1757089334489311500,4.1743115234375,-0.0760955810546875,1.506805419921875,-0.324859619140625
1757089334499265500,4.184265625,-0.03851318359375,1.46368408203125,-0.3449249267578125
1757089334509220400,4.194220458984375,0.027313232421875,1.3459014892578125,-0.2152862548828125
1757089334519174400,4.20417431640625,0.068389892578125,1.027069091796875,0.2149810791015625
1757089334529129200,4.214129150390625,0.0307769775390625,0.999847412109375,0.4110870361328125
1757089334539084500,4.22408447265625,-0.02215576171875,1.08941650390625,0.3309173583984375
1757089334549038300,4.234038330078125,-0.02545166015625,1.0132904052734375,0.27191162109375
1757089334558993200,4.2439931640625,-0.0325469970703125,0.9576568603515625,0.2591705322265625
1757089334568947200,4.253947265625,-0.043975830078125,1.0050506591796875,0.342437744140625
1757089334578902000,4.263902099609375,-0.011474609375,0.977691650390625,0.3072509765625
1757089334588856800,4.27385693359375,-0.087738037109375,0.8494720458984375,0.2037200927734375
1757089334598811000,4.283810791015625,-0.1662139892578125,0.7126922607421875,0.128570556640625
1757089334608766000,4.293765869140625,-0.1724700927734375,0.5876007080078125,0.1430816650390625
1757089334618721000,4.303720947265625,-0.136688232421875,0.523895263671875,0.1760711669921875
1757089334628675000,4.313675048828125,-0.1153717041015625,0.4868621826171875,0.2096405029296875
1757089334638630000,4.3236298828125,-0.130096435546875,0.4862060546875,0.2083892822265625
1757089334648584200,4.333584228515625,-0.194580078125,0.5165557861328125,0.1887359619140625
1757089334658539000,4.3435390625,-0.193634033203125,0.549560546875,0.1696624755859375
1757089334668494000,4.353494140625,-0.13916015625,0.5842742919921875,0.158416748046875
1757089334678447900,4.36344775390625,-0.0766143798828125,0.6026153564453125,0.1725921630859375
1757089334688403200,4.3734033203125,-0.0506439208984375,0.6161956787109375,0.1673583984375
1757089334698358000,4.38335791015625,-0.04498291015625,0.6024169921875,0.1269989013671875
1757089334708312000,4.39331201171875,-0.0247955322265625,0.54156494140625,0.0711517333984375
1757089334718267000,4.403266845703125,0.023101806640625,0.504364013671875,0.0730133056640625
1757089334728221000,4.413220947265625,0.0494384765625,0.391998291015625,0.0361480712890625
1757089334738176000,4.423176025390625,0.01751708984375,0.3337249755859375,0.0446014404296875
1757089334748131000,4.433131103515625,-0.099029541015625,0.2253570556640625,0.022735595703125
1757089334758085000,4.443085205078125,-0.1269989013671875,0.1955108642578125,0.0152130126953125
1757089334768040000,4.4530400390625,-0.052154541015625,0.166290283203125,-0.0052947998046875
1757089334777995000,4.4629951171875,0.001678466796875,0.1929473876953125,0.0008087158203125
1757089334787949000,4.472948974609375,0.26104736328125,0.3174285888671875,0.00836181640625
1757089334797904100,4.482904052734375,-0.130401611328125,0.279632568359375,0.062164306640625
1757089334807858000,4.49285791015625,-0.3539276123046875,0.854095458984375,-0.00738525390625
1757089334817813000,4.50281298828125,-0.128173828125,4.27630615234375,-1.317779541015625
1757089334827768000,4.51276806640625,0.4327239990234375,6.5046539306640625,-1.331787109375
1757089334837722000,4.52272216796875,0.4495849609375,3.7848358154296875,0.851776123046875
1757089334847677000,4.532677001953125,0.3559112548828125,2.09234619140625,1.1620941162109375
1757089334857632000,4.542632080078125,0.282562255859375,1.3397674560546875,0.73309326171875
1757089334867586000,4.5525859375,0.17169189453125,0.432464599609375,-0.3396453857421875
1757089334877541000,4.562541015625,0.0099639892578125,0.33245849609375,-1.213592529296875
1757089334887495200,4.5724951171875,-0.1759033203125,0.6169586181640625,-1.3567047119140625
1757089334897450000,4.582449951171875,-0.2116241455078125,0.7444610595703125,-0.6635589599609375
1757089334907404800,4.59240478515625,-0.071044921875,0.825897216796875,-0.228302001953125
1757089334917359000,4.602359130859375,0.0123138427734375,0.9020538330078125,-0.3029632568359375
1757089334927314000,4.61231396484375,0.082489013671875,0.96240234375,-0.1901702880859375
1757089334937268000,4.62226806640625,0.0710601806640625,1.0026702880859375,-0.1504669189453125
1757089334947223000,4.63222314453125,0.063079833984375,1.0317840576171875,-0.1554718017578125
1757089334957178000,4.64217822265625,0.0816497802734375,1.0092010498046875,-0.1497344970703125
1757089334967132200,4.652132080078125,0.0694732666015625,0.99176025390625,-0.1827392578125
1757089334977087000,4.6620869140625,0.0540618896484375,0.9854888916015625,-0.21978759765625
1757089334987042000,4.6720419921875,0.0440216064453125,0.9761810302734375,-0.2388763427734375
1757089334996995800,4.681995849609375,0.03131103515625,0.9810028076171875,-0.2544708251953125
1757089335006951200,4.691951171875,0.0178070068359375,0.991485595703125,-0.2765655517578125
1757089335016906000,4.701906005859375,0.0105133056640625,0.98577880859375,-0.282257080078125
1757089335026860000,4.711860107421875,0.0192718505859375,0.9691925048828125,-0.2901458740234375
1757089335036814800,4.72181494140625,0.0326080322265625,0.9601287841796875,-0.2992401123046875
1757089335046769000,4.731768798828125,0.0435333251953125,0.9540863037109375,-0.290740966796875
1757089335056724000,4.741723876953125,0.0485687255859375,0.9590606689453125,-0.27642822265625
1757089335066679000,4.751678955078125,0.0455474853515625,0.9817657470703125,-0.2946319580078125
1757089335076633000,4.761633056640625,0.026031494140625,0.9811248779296875,-0.348968505859375
1757089335086588000,4.771587890625,-0.0135498046875,0.963134765625,-0.3489532470703125
1757089335096542200,4.781542236328125,-0.0435943603515625,0.9740753173828125,-0.3321685791015625
1757089335106497000,4.7914970703125,-0.051910400390625,0.9596710205078125,-0.313385009765625
1757089335116452000,4.8014521484375,-0.0559539794921875,0.95416259765625,-0.307891845703125
1757089335126406000,4.811406005859375,-0.0567626953125,0.943267822265625,-0.287017822265625
1757089335136361200,4.821361328125,-0.06036376953125,0.9323883056640625,-0.28271484375
1757089335146316000,4.83131591796875,-0.055267333984375,0.9309539794921875,-0.2850341796875
1757089335156270000,4.84127001953125,-0.0474700927734375,0.934356689453125,-0.28509521484375
1757089335166225000,4.851224853515625,-0.02642822265625,0.942169189453125,-0.2846527099609375
1757089335176179000,4.861178955078125,-0.0083160400390625,0.9517822265625,-0.27862548828125
1757089335186134000,4.871134033203125,0.010650634765625,0.9519195556640625,-0.266815185546875
1757089335196089000,4.881089111328125,0.026824951171875,0.9523162841796875,-0.2530364990234375
1757089335206043000,4.89104296875,0.0363006591796875,0.9576416015625,-0.2398681640625
1757089335215998000,4.900998046875,0.043792724609375,0.9634246826171875,-0.2290802001953125
1757089335225953000,4.910953125,0.047027587890625,0.9757537841796875,-0.2253875732421875
1757089335235907000,4.920906982421875,0.04388427734375,0.9825592041015625,-0.2224578857421875
1757089335245862000,4.93086181640625,0.0454864501953125,0.9816131591796875,-0.2170867919921875
1757089335255817000,4.94081689453125,0.050079345703125,0.9842529296875,-0.2110748291015625
1757089335265771000,4.95077099609375,0.0542755126953125,0.9815826416015625,-0.200775146484375
1757089335275726000,4.96072607421875,0.0625,0.98004150390625,-0.1988372802734375
1757089335285680000,4.97068017578125,0.065185546875,0.9824981689453125,-0.20306396484375
1757089335295635000,4.980635009765625,0.06817626953125,0.9847412109375,-0.216949462890625
1757089335305590000,4.990590087890625,0.075653076171875,0.978302001953125,-0.2281494140625
1757089335315544000,5.0005439453125,0.077056884765625,0.979522705078125,-0.23577880859375
1757089335325499100,5.0104990234375,0.062713623046875,0.9841156005859375,-0.24285888671875
1757089335335453000,5.020452880859375,0.06951904296875,0.98126220703125,-0.228271484375
1757089335345408000,5.030407958984375,0.0958709716796875,0.991241455078125,-0.2280426025390625
1757089335355363000,5.040363037109375,0.0789947509765625,0.988372802734375,-0.248138427734375
1757089335365317000,5.050317138671875,0.071563720703125,0.9898529052734375,-0.244720458984375
1757089335375272000,5.06027197265625,0.0373077392578125,0.9988250732421875,-0.2808837890625
1757089335385227000,5.07022705078125,0.0214080810546875,0.9822845458984375,-0.26739501953125
1757089335395181000,5.08018115234375,0.019989013671875,0.9716949462890625,-0.26141357421875
1757089335405136100,5.09013623046875,0.0366973876953125,0.9642181396484375,-0.2547149658203125
1757089335415090200,5.100090087890625,0.012786865234375,0.96856689453125,-0.2810211181640625
1757089335425045000,5.110044921875,-0.0136260986328125,0.970855712890625,-0.2945098876953125
1757089335435000000,5.12,-0.025909423828125,0.9644927978515625,-0.3179168701171875
1757089335444953900,5.129953857421875,-0.0166473388671875,0.957183837890625,-0.3543243408203125
1757089335454909200,5.1399091796875,-0.00750732421875,0.9553070068359375,-0.38214111328125
1757089335464864000,5.149864013671875,0.0088348388671875,0.9475860595703125,-0.3876800537109375
1757089335474818000,5.159818115234375,0.026947021484375,0.940887451171875,-0.3781585693359375
1757089335484772900,5.16977294921875,0.0414581298828125,0.9408721923828125,-0.38446044921875
1757089335494727200,5.17972705078125,0.061431884765625,0.93865966796875,-0.3889007568359375
1757089335504682000,5.189681884765625,0.0838775634765625,0.9267425537109375,-0.3842315673828125
1757089335514637000,5.199636962890625,0.0986480712890625,0.929595947265625,-0.37432861328125
1757089335524590800,5.2095908203125,0.0893402099609375,0.942474365234375,-0.3591156005859375
1757089335534546200,5.219546142578125,0.0617218017578125,0.9662322998046875,-0.3646087646484375
1757089335544501000,5.2295009765625,0.040771484375,0.9795074462890625,-0.3464508056640625
1757089335554455000,5.239455078125,0.03155517578125,0.9818878173828125,-0.3289337158203125
1757089335564411000,5.249410888671875,0.0254974365234375,0.9898681640625,-0.313873291015625
1757089335574365000,5.259364990234375,0.0046844482421875,1.0057525634765625,-0.2931976318359375
1757089335584319700,5.26931982421875,-0.011871337890625,1.000640869140625,-0.274993896484375
1757089335594274800,5.27927490234375,-0.0126190185546875,1.004364013671875,-0.2621002197265625
1757089335604228600,5.289228515625,0.030120849609375,1.014678955078125,-0.239349365234375
1757089335614184000,5.299183837890625,0.0939483642578125,1.0157470703125,-0.15399169921875
1757089335624138800,5.309138671875,0.125946044921875,1.0125732421875,-0.0997314453125
1757089335634092800,5.3190927734375,0.144378662109375,0.994232177734375,-0.093475341796875
1757089335644047600,5.329047607421875,0.1360931396484375,0.984222412109375,-0.0908203125
1757089335654002000,5.339001953125,0.0817108154296875,0.974945068359375,-0.147491455078125
1757089335663957000,5.34895703125,0.0477752685546875,0.950439453125,-0.1800689697265625
1757089335673911800,5.358911865234375,0.0342254638671875,0.9254608154296875,-0.2089385986328125
1757089335683865900,5.368865966796875,0.0397796630859375,0.9204864501953125,-0.2255401611328125
1757089335693821000,5.378821044921875,0.05877685546875,0.9244232177734375,-0.2328948974609375
1757089335703776000,5.38877587890625,0.0757904052734375,0.926177978515625,-0.2515869140625
1757089335713729800,5.398729736328125,0.1027679443359375,0.9218902587890625,-0.2657012939453125
1757089335723684900,5.408684814453125,0.1283111572265625,0.92071533203125,-0.28192138671875
1757089335733638700,5.418638671875,0.14849853515625,0.9173126220703125,-0.291107177734375
1757089335743594000,5.428593994140625,0.160491943359375,0.9148101806640625,-0.2900238037109375
1757089335753548800,5.438548828125,0.163604736328125,0.9258880615234375,-0.2756500244140625
1757089335763502800,5.4485029296875,0.157958984375,0.9357757568359375,-0.254150390625
1757089335773457700,5.458457763671875,0.1460113525390625,0.9412994384765625,-0.2489471435546875
1757089335783413000,5.4684130859375,0.12408447265625,0.940032958984375,-0.2595977783203125
1757089335793366800,5.47836669921875,0.0999603271484375,0.938720703125,-0.271942138671875
1757089335803321900,5.48832177734375,0.090606689453125,0.9432220458984375,-0.2863006591796875
1757089335813276000,5.49827587890625,0.0940399169921875,0.9449005126953125,-0.287109375
1757089335823230700,5.508230712890625,0.09942626953125,0.95172119140625,-0.279449462890625
1757089335833185800,5.518185791015625,0.1069793701171875,0.9593353271484375,-0.2702789306640625
1757089335843139800,5.528139892578125,0.1145172119140625,0.9636383056640625,-0.26922607421875
1757089335853095000,5.538094970703125,0.1131134033203125,0.961639404296875,-0.2641143798828125
1757089335863048700,5.548048583984375,0.1063079833984375,0.9593963623046875,-0.2608795166015625
1757089335873004000,5.558004150390625,0.1200103759765625,0.9647674560546875,-0.2505340576171875
1757089335882958800,5.567958740234375,0.090667724609375,0.9751739501953125,-0.2480010986328125
1757089335892913000,5.577912841796875,0.0600738525390625,0.97900390625,-0.26513671875
1757089335902867700,5.58786767578125,0.0724639892578125,1.008087158203125,-0.2379302978515625
1757089335912823000,5.597822998046875,0.0782012939453125,1.009979248046875,-0.246795654296875
1757089335922776800,5.60777685546875,0.0969390869140625,1.006317138671875,-0.2574005126953125
1757089335932732000,5.61773193359375,0.1098785400390625,0.961395263671875,-0.2559051513671875
1757089335942686000,5.62768603515625,0.1394805908203125,0.958587646484375,-0.237579345703125
1757089335952640800,5.637640869140625,0.12005615234375,0.94659423828125,-0.253570556640625
1757089335962595800,5.647595947265625,0.0936737060546875,0.9204864501953125,-0.2727203369140625
1757089335972550000,5.6575498046875,0.096771240234375,0.923248291015625,-0.2572784423828125
1757089335982505000,5.6675048828125,0.099639892578125,0.9301605224609375,-0.2562713623046875
1757089335992459800,5.677459716796875,0.0941619873046875,0.9391632080078125,-0.2484130859375
1757089336002413800,5.687413818359375,0.09423828125,0.9491119384765625,-0.2445068359375
1757089336012369000,5.697368896484375,0.060333251953125,0.9505462646484375,-0.25048828125
1757089336022323000,5.707322998046875,0.0484466552734375,0.9755401611328125,-0.2405853271484375
1757089336032277800,5.71727783203125,0.06732177734375,0.9808349609375,-0.2407684326171875
1757089336042232800,5.72723291015625,0.0751800537109375,0.975372314453125,-0.23760986328125
1757089336052187000,5.737186767578125,0.08056640625,0.9740142822265625,-0.2290496826171875
1757089336062142000,5.747141845703125,0.079742431640625,0.9810943603515625,-0.2332305908203125
1757089336072096800,5.7570966796875,0.0829925537109375,0.9785919189453125,-0.235565185546875
1757089336082050800,5.76705078125,0.08209228515625,0.973297119140625,-0.246917724609375
1757089336092006000,5.777005859375,0.07733154296875,0.9682159423828125,-0.2564849853515625
1757089336101960000,5.7869599609375,0.0698089599609375,0.96795654296875,-0.265960693359375
1757089336111914800,5.796914794921875,0.0653839111328125,0.9685211181640625,-0.268890380859375
1757089336121869800,5.806869873046875,0.0675201416015625,0.9676513671875,-0.266632080078125
1757089336131823900,5.816823974609375,0.0688629150390625,0.9670867919921875,-0.2609710693359375
1757089336141779000,5.826779052734375,0.0732269287109375,0.9677734375,-0.25103759765625
1757089336151733000,5.83673291015625,0.074188232421875,0.9684295654296875,-0.247772216796875
1757089336161687800,5.846687744140625,0.07342529296875,0.9709320068359375,-0.24444580078125
1757089336171643000,5.856642822265625,0.0714874267578125,0.9685821533203125,-0.2476959228515625
1757089336181596700,5.8665966796875,0.0699462890625,0.9654388427734375,-0.2519683837890625
1757089336191552000,5.876552001953125,0.070465087890625,0.9624786376953125,-0.2566986083984375
1757089336201506800,5.8865068359375,0.071502685546875,0.9630889892578125,-0.2588043212890625
1757089336211460900,5.8964609375,0.0743255615234375,0.962249755859375,-0.2593231201171875
1757089336221415700,5.906415771484375,0.08203125,0.9629058837890625,-0.2587890625
1757089336231369700,5.91636962890625,0.0867919921875,0.96636962890625,-0.255859375
1757089336241324800,5.92632470703125,0.0894317626953125,0.968109130859375,-0.2564544677734375
1757089336251280000,5.93627978515625,0.09033203125,0.9697113037109375,-0.2568206787109375
1757089336261234000,5.94623388671875,0.092681884765625,0.97064208984375,-0.258880615234375
1757089336271188700,5.956188720703125,0.09039306640625,0.96942138671875,-0.2605133056640625
1757089336281143800,5.966143798828125,0.0915069580078125,0.967193603515625,-0.263885498046875
1757089336291097900,5.976097900390625,0.092987060546875,0.967041015625,-0.269775390625
1757089336301053000,5.986052978515625,0.0974273681640625,0.9673614501953125,-0.2710113525390625
1757089336311006700,5.9960068359375,0.101959228515625,0.969635009765625,-0.26806640625
1757089336320962000,6.005962158203125,0.105560302734375,0.9710693359375,-0.261444091796875
1757089336330916900,6.015916748046875,0.1064300537109375,0.9688720703125,-0.251068115234375
1757089336340871000,6.025870849609375,0.1090545654296875,0.9676666259765625,-0.241790771484375
1757089336350825700,6.03582568359375,0.112396240234375,0.96551513671875,-0.236602783203125
1757089336360781000,6.045781005859375,0.116241455078125,0.9636077880859375,-0.231597900390625
1757089336370734800,6.05573486328125,0.1190185546875,0.964752197265625,-0.2265777587890625
1757089336380690000,6.06568994140625,0.1197052001953125,0.9670867919921875,-0.21710205078125
1757089336390643700,6.075643798828125,0.1226959228515625,0.9670562744140625,-0.2073211669921875
1757089336400598800,6.085598876953125,0.1256561279296875,0.9700469970703125,-0.2010498046875
1757089336410553900,6.095553955078125,0.127960205078125,0.9697418212890625,-0.196136474609375
1757089336420508000,6.1055078125,0.1290435791015625,0.969940185546875,-0.1915435791015625
1757089336430462700,6.115462646484375,0.1285247802734375,0.9666748046875,-0.1921234130859375
1757089336440416800,6.125416748046875,0.125732421875,0.9636383056640625,-0.1976165771484375
1757089336450371800,6.135371826171875,0.12237548828125,0.96160888671875,-0.20672607421875
1757089336460327000,6.145326904296875,0.12060546875,0.9585113525390625,-0.217864990234375
1757089336470281000,6.155281005859375,0.121856689453125,0.956787109375,-0.22637939453125
1757089336480235800,6.16523583984375,0.1252593994140625,0.9568634033203125,-0.232330322265625
1757089336490190800,6.17519091796875,0.125732421875,0.962066650390625,-0.2335205078125
1757089336500145000,6.185144775390625,0.128814697265625,0.96905517578125,-0.229766845703125
1757089336510100000,6.195099853515625,0.131744384765625,0.9738922119140625,-0.225799560546875
1757089336520053800,6.2050537109375,0.13226318359375,0.97637939453125,-0.2232513427734375
1757089336530008800,6.2150087890625,0.1296234130859375,0.9762725830078125,-0.221771240234375
1757089336539964000,6.2249638671875,0.1279296875,0.96954345703125,-0.2232208251953125
1757089336549918000,6.23491796875,0.1270294189453125,0.9644927978515625,-0.2258758544921875
1757089336559872500,6.24487255859375,0.123382568359375,0.9605560302734375,-0.2290496826171875
1757089336569827600,6.25482763671875,0.116119384765625,0.957977294921875,-0.232818603515625
1757089336579781600,6.26478173828125,0.111572265625,0.9599456787109375,-0.23565673828125
1757089336589736400,6.274736328125,0.1086883544921875,0.9626922607421875,-0.236114501953125
1757089336599690500,6.2846904296875,0.1035919189453125,0.9618072509765625,-0.2331390380859375
1757089336609645300,6.294645263671875,0.1031951904296875,0.9618377685546875,-0.2325592041015625
1757089336619600600,6.3046005859375,0.101898193359375,0.964569091796875,-0.2335968017578125
1757089336629554400,6.314554443359375,0.1011962890625,0.966796875,-0.2330169677734375
1757089336639509500,6.324509521484375,0.1027679443359375,0.97174072265625,-0.231414794921875
1757089336649463300,6.33446337890625,0.1020050048828125,0.9744873046875,-0.2287139892578125
1757089336659418600,6.344418701171875,0.0997161865234375,0.9752044677734375,-0.231109619140625
1757089336669373400,6.35437353515625,0.0930023193359375,0.972869873046875,-0.236907958984375
1757089336679327500,6.364327392578125,0.08978271484375,0.9712066650390625,-0.2420196533203125
1757089336689282300,6.3742822265625,0.089508056640625,0.9694366455078125,-0.2479095458984375
1757089336699237600,6.384237548828125,0.092376708984375,0.968353271484375,-0.2515869140625
1757089336709191700,6.394191650390625,0.094696044921875,0.967254638671875,-0.2566070556640625
1757089336719146500,6.404146484375,0.09613037109375,0.965087890625,-0.2593841552734375
1757089336729100500,6.4141005859375,0.102203369140625,0.96295166015625,-0.263702392578125
1757089336739055400,6.424055419921875,0.1017913818359375,0.961700439453125,-0.262847900390625
1757089336749010700,6.4340107421875,0.0987548828125,0.9608154296875,-0.25775146484375
1757089336758964500,6.443964599609375,0.096435546875,0.9602203369140625,-0.2506256103515625
1757089336768919600,6.45391943359375,0.0959930419921875,0.963958740234375,-0.24517822265625
1757089336778874400,6.463874267578125,0.09442138671875,0.9697723388671875,-0.236785888671875
1757089336788828400,6.473828369140625,0.09271240234375,0.9769439697265625,-0.229888916015625
1757089336798783500,6.483783447265625,0.0932159423828125,0.97637939453125,-0.2249908447265625
1757089336808737500,6.493737548828125,0.09564208984375,0.9717864990234375,-0.223358154296875
1757089336818692400,6.5036923828125,0.0969085693359375,0.965850830078125,-0.22119140625
1757089336828647400,6.5136474609375,0.0977935791015625,0.9612884521484375,-0.2217559814453125
1757089336838601500,6.5236015625,0.0968475341796875,0.95782470703125,-0.22332763671875
1757089336848556500,6.533556640625,0.0952911376953125,0.960235595703125,-0.228607177734375
1757089336858511400,6.543511474609375,0.096160888671875,0.9631805419921875,-0.2310333251953125
1757089336868465400,6.55346533203125,0.09832763671875,0.9659423828125,-0.22979736328125
1757089336878420500,6.56342041015625,0.0989532470703125,0.9707183837890625,-0.2302703857421875
1757089336888374500,6.57337451171875,0.0985107421875,0.9722442626953125,-0.2324981689453125
1757089336898329600,6.58332958984375,0.09918212890625,0.9722747802734375,-0.2330322265625
1757089336908284400,6.593284423828125,0.100189208984375,0.9686126708984375,-0.232574462890625
1757089336918238500,6.603238525390625,0.1005401611328125,0.96295166015625,-0.23382568359375
1757089336928193500,6.613193603515625,0.101593017578125,0.956573486328125,-0.2382049560546875
1757089336938148600,6.623148681640625,0.105255126953125,0.956024169921875,-0.2439422607421875
1757089336948102400,6.633102294921875,0.1035919189453125,0.9604949951171875,-0.2505035400390625
1757089336958057500,6.643057373046875,0.100738525390625,0.966705322265625,-0.2561492919921875
1757089336968011300,6.65301123046875,0.1001129150390625,0.9712677001953125,-0.2588043212890625
1757089336977966600,6.662966552734375,0.1009063720703125,0.9746246337890625,-0.2607879638671875
1757089336987921400,6.67292138671875,0.10076904296875,0.9735107421875,-0.260009765625
1757089336997875500,6.68287548828125,0.099945068359375,0.9694366455078125,-0.262451171875
1757089337007830300,6.692830322265625,0.0998382568359375,0.965118408203125,-0.2647857666015625
1757089337017785600,6.70278564453125,0.098663330078125,0.9593963623046875,-0.266326904296875
1757089337027739600,6.71273974609375,0.0989990234375,0.9553680419921875,-0.266143798828125
1757089337037694500,6.722694580078125,0.103057861328125,0.9572601318359375,-0.26104736328125
1757089337047648500,6.7326484375,0.105712890625,0.9582977294921875,-0.2538909912109375
1757089337057603300,6.742603271484375,0.104217529296875,0.9607086181640625,-0.242584228515625
1757089337067558400,6.752558349609375,0.0995025634765625,0.964599609375,-0.233428955078125
1757089337077512400,6.762512451171875,0.0964508056640625,0.96942138671875,-0.22613525390625
1757089337087467500,6.772467529296875,0.0924072265625,0.9718017578125,-0.222625732421875
1757089337097421300,6.78242138671875,0.0900726318359375,0.9753265380859375,-0.2245025634765625
1757089337107376600,6.792376708984375,0.088165283203125,0.9759979248046875,-0.227142333984375
1757089337117331500,6.80233154296875,0.087615966796875,0.9745941162109375,-0.2298583984375
1757089337127285500,6.812285400390625,0.0913848876953125,0.9735260009765625,-0.2303619384765625
1757089337137240300,6.822240234375,0.092559814453125,0.970611572265625,-0.228302001953125
1757089337147195600,6.832195556640625,0.0970306396484375,0.9711761474609375,-0.228790283203125
1757089337157149400,6.8421494140625,0.0956573486328125,0.972930908203125,-0.23089599609375
1757089337167104500,6.8521044921875,0.0925750732421875,0.973480224609375,-0.2328033447265625
1757089337177058600,6.86205859375,0.0885772705078125,0.9733123779296875,-0.2357177734375
1757089337187013400,6.872013427734375,0.0848846435546875,0.9687652587890625,-0.2412109375
1757089337196968400,6.881968505859375,0.0846710205078125,0.964599609375,-0.2437591552734375
1757089337206922500,6.891922607421875,0.089080810546875,0.9622650146484375,-0.242523193359375
1757089337216877600,6.901877685546875,0.0926971435546875,0.96453857421875,-0.238616943359375
1757089337226832400,6.911832275390625,0.0929107666015625,0.9662628173828125,-0.2363433837890625
1757089337236786400,6.921786376953125,0.0932769775390625,0.970428466796875,-0.2339935302734375
1757089337246741500,6.931741455078125,0.08782958984375,0.9689483642578125,-0.2316741943359375
1757089337256695600,6.941695556640625,0.0817413330078125,0.9701995849609375,-0.22967529296875
1757089337266650400,6.951650390625,0.079498291015625,0.9690704345703125,-0.2306060791015625
1757089337276605400,6.96160546875,0.0814361572265625,0.9673309326171875,-0.23223876953125
1757089337286559500,6.9715595703125,0.0850982666015625,0.9683074951171875,-0.2278900146484375
1757089337296514600,6.9815146484375,0.0884552001953125,0.96759033203125,-0.227081298828125
1757089337306469400,6.991469482421875,0.0907135009765625,0.9683380126953125,-0.22607421875
1757089337316423400,7.00142333984375,0.091064453125,0.9686126708984375,-0.2295684814453125
1757089337326378500,7.01137841796875,0.0882720947265625,0.9686126708984375,-0.2343902587890625
1757089337336332500,7.02133251953125,0.0870208740234375,0.9662628173828125,-0.2380218505859375
1757089337346287600,7.03128759765625,0.0879364013671875,0.967041015625,-0.243408203125
1757089337356242400,7.041242431640625,0.09393310546875,0.9677734375,-0.2486419677734375
1757089337366196500,7.051196533203125,0.09857177734375,0.971771240234375,-0.250396728515625
1757089337376151600,7.061151611328125,0.099761962890625,0.9738311767578125,-0.2479705810546875
1757089337386105600,7.071105712890625,0.096435546875,0.975738525390625,-0.243896484375
1757089337396060400,7.081060302734375,0.0904083251953125,0.973846435546875,-0.2408447265625
1757089337406015500,7.091015380859375,0.0836029052734375,0.96929931640625,-0.2371978759765625
1757089337415969300,7.10096923828125,0.0779266357421875,0.9656219482421875,-0.231658935546875
1757089337425924600,7.110924560546875,0.0748291015625,0.9623260498046875,-0.2336273193359375
1757089337435879400,7.12087939453125,0.076324462890625,0.963714599609375,-0.2337493896484375
1757089337445833500,7.13083349609375,0.0796661376953125,0.9640655517578125,-0.2342376708984375
1757089337455788300,7.140788330078125,0.0839691162109375,0.9685821533203125,-0.2325439453125
1757089337465742600,7.15074267578125,0.0844268798828125,0.968902587890625,-0.2346649169921875
1757089337475697400,7.160697509765625,0.0858612060546875,0.971588134765625,-0.24005126953125
1757089337485652500,7.170652587890625,0.0833282470703125,0.97027587890625,-0.24365234375
1757089337495606500,7.1806064453125,0.07861328125,0.969146728515625,-0.2490386962890625
1757089337505561600,7.1905615234375,0.0769500732421875,0.967376708984375,-0.2528076171875
1757089337515515600,7.200515625,0.074615478515625,0.9677276611328125,-0.2561492919921875
1757089337525470500,7.210470458984375,0.076934814453125,0.9654541015625,-0.2606353759765625
1757089337535425500,7.220425537109375,0.0742340087890625,0.964630126953125,-0.263275146484375
1757089337545379300,7.23037939453125,0.071441650390625,0.963409423828125,-0.265045166015625
1757089337555334700,7.240334716796875,0.072723388671875,0.95721435546875,-0.2640380859375
1757089337565289700,7.250289794921875,0.07574462890625,0.9515533447265625,-0.260345458984375
1757089337575244000,7.260244140625,0.0785064697265625,0.9497222900390625,-0.2602386474609375
1757089337585198800,7.27019873046875,0.0789642333984375,0.952117919921875,-0.25811767578125
1757089337595153000,7.28015283203125,0.078826904296875,0.9524383544921875,-0.2593841552734375
1757089337605107700,7.290107666015625,0.0750732421875,0.955810546875,-0.2641143798828125
1757089337615063000,7.30006298828125,0.0727386474609375,0.959930419921875,-0.2690887451171875
1757089337625016800,7.310016845703125,0.0744781494140625,0.9630584716796875,-0.270263671875
1757089337634972000,7.319971923828125,0.0765838623046875,0.967529296875,-0.2694244384765625
1757089337644926000,7.329926025390625,0.0756072998046875,0.96929931640625,-0.263916015625
1757089337654880800,7.339880859375,0.079193115234375,0.9679412841796875,-0.259521484375
1757089337664835800,7.3498359375,0.08282470703125,0.97119140625,-0.2522430419921875
1757089337674790000,7.359789794921875,0.0856170654296875,0.9720458984375,-0.2490234375
1757089337684745000,7.369744873046875,0.0926666259765625,0.9752197265625,-0.243133544921875
1757089337694699800,7.37969970703125,0.094940185546875,0.9777679443359375,-0.2389068603515625
1757089337704653800,7.38965380859375,0.0940704345703125,0.9759521484375,-0.2334136962890625
1757089337714609000,7.39960888671875,0.0958251953125,0.974945068359375,-0.2280731201171875
1757089337724563000,7.40956298828125,0.0966796875,0.9757843017578125,-0.226898193359375
1757089337734517800,7.419517822265625,0.10003662109375,0.9772796630859375,-0.22869873046875
1757089337744472800,7.429472900390625,0.101654052734375,0.975372314453125,-0.232421875
1757089337754427000,7.439427001953125,0.1006622314453125,0.970306396484375,-0.233551025390625
1757089337764382000,7.4493818359375,0.0990753173828125,0.9694366455078125,-0.23211669921875
1757089337774335700,7.459335693359375,0.0982666015625,0.967620849609375,-0.2239227294921875
1757089337784290800,7.469290771484375,0.0992584228515625,0.969512939453125,-0.217926025390625
1757089337794246000,7.479245849609375,0.1010894775390625,0.969146728515625,-0.2125244140625
1757089337804200000,7.489199951171875,0.1018829345703125,0.965484619140625,-0.2042083740234375
1757089337814154800,7.49915478515625,0.095611572265625,0.9617919921875,-0.1969451904296875
1757089337824108800,7.50910888671875,0.0887908935546875,0.9549102783203125,-0.18829345703125
1757089337834064000,7.51906396484375,0.08306884765625,0.942413330078125,-0.1836090087890625
1757089337844019000,7.52901904296875,0.07464599609375,0.93389892578125,-0.1877899169921875
1757089337853973000,7.538972900390625,0.065032958984375,0.9298553466796875,-0.193756103515625
1757089337863927800,7.548927734375,0.05926513671875,0.928802490234375,-0.204345703125
1757089337873881900,7.5588818359375,0.068267822265625,0.923553466796875,-0.210296630859375
1757089337883836700,7.568836669921875,0.0841217041015625,0.916259765625,-0.2050628662109375
1757089337893792000,7.5787919921875,0.09759521484375,0.918853759765625,-0.1965484619140625
1757089337903745800,7.588745849609375,0.1053009033203125,0.9302978515625,-0.19342041015625
1757089337913700900,7.598700927734375,0.11260986328125,0.9576416015625,-0.18804931640625
1757089337923655700,7.60865576171875,0.1136016845703125,0.996185302734375,-0.177490234375
1757089337933610000,7.61860986328125,0.1159820556640625,1.029205322265625,-0.1626739501953125
1757089337943564800,7.628564697265625,0.1168212890625,1.0572052001953125,-0.1481781005859375
1757089337953518800,7.638518798828125,0.0980072021484375,1.0639801025390625,-0.1451263427734375
1757089337963474000,7.648473876953125,0.08843994140625,1.0416412353515625,-0.1441650390625
1757089337973429000,7.658428955078125,0.092681884765625,1.01312255859375,-0.171844482421875
1757089337983383000,7.668383056640625,0.0946807861328125,0.983306884765625,-0.19818115234375
1757089337993337900,7.678337890625,0.1020355224609375,0.954864501953125,-0.22320556640625
1757089338003292000,7.6882919921875,0.119476318359375,0.94281005859375,-0.233978271484375
1757089338013246700,7.698246826171875,0.145660400390625,0.9405670166015625,-0.2345428466796875
1757089338023202000,7.7082021484375,0.1663055419921875,0.9456024169921875,-0.2275848388671875
1757089338033155800,7.71815576171875,0.1892547607421875,0.957550048828125,-0.2135009765625
1757089338043111000,7.72811083984375,0.1969451904296875,0.96978759765625,-0.1984100341796875
1757089338053064700,7.738064697265625,0.1865234375,0.9727630615234375,-0.171051025390625
1757089338063019800,7.748019775390625,0.15966796875,0.97625732421875,-0.1583404541015625
1757089338072974800,7.757974853515625,0.1382598876953125,0.973724365234375,-0.1487274169921875
1757089338082929000,7.767928955078125,0.12725830078125,0.9696197509765625,-0.137603759765625
1757089338092883700,7.7778837890625,0.1051788330078125,0.9756317138671875,-0.10968017578125
1757089338102837800,7.787837646484375,0.08013916015625,0.99664306640625,-0.0970001220703125
1757089338112793000,7.79779296875,0.075225830078125,0.9929962158203125,-0.110198974609375
1757089338122748000,7.807747802734375,0.085418701171875,0.9794769287109375,-0.1162261962890625
1757089338132702000,7.817701904296875,0.1074676513671875,0.9699249267578125,-0.129364013671875
1757089338142656800,7.82765673828125,0.1276397705078125,0.962005615234375,-0.1469879150390625
1757089338152611800,7.83761181640625,0.147186279296875,0.9527587890625,-0.1630096435546875
1757089338162566000,7.84756591796875,0.1556243896484375,0.9512939453125,-0.1701812744140625
1757089338172521000,7.85752099609375,0.15496826171875,0.952484130859375,-0.1767578125
1757089338182474800,7.867474853515625,0.1514739990234375,0.9484405517578125,-0.17962646484375
1757089338192429800,7.877429931640625,0.1445465087890625,0.948211669921875,-0.1856231689453125
1757089338202385000,7.887385009765625,0.1368560791015625,0.948760986328125,-0.196075439453125
1757089338212339000,7.8973388671875,0.1375579833984375,0.9476318359375,-0.1971435546875
1757089338222293800,7.907293701171875,0.138458251953125,0.944427490234375,-0.196990966796875
1757089338232247800,7.917247802734375,0.141265869140625,0.943756103515625,-0.193084716796875
1757089338242203000,7.927202880859375,0.144805908203125,0.9456787109375,-0.1828460693359375
1757089338252158000,7.937157958984375,0.1473846435546875,0.949615478515625,-0.1725006103515625
1757089338262112000,7.947112060546875,0.146026611328125,0.9568328857421875,-0.157684326171875
1757089338272066800,7.95706689453125,0.13836669921875,0.96478271484375,-0.14532470703125
1757089338282020900,7.967020751953125,0.1204376220703125,0.9673004150390625,-0.1378631591796875
1757089338291975700,7.9769755859375,0.1027069091796875,0.9755096435546875,-0.1501617431640625
1757089338301931000,7.986930908203125,0.101959228515625,0.970550537109375,-0.172882080078125
1757089338311884800,7.996884765625,0.077606201171875,0.9847869873046875,-0.16070556640625
1757089338321839900,8.00683984375,0.062744140625,1.00994873046875,-0.1624298095703125
1757089338331793700,8.016793701171874,0.0578765869140625,1.0025177001953125,-0.19244384765625
1757089338341749000,8.0267490234375,0.0581207275390625,0.9874420166015625,-0.2064208984375
1757089338351703800,8.036703857421875,0.0675506591796875,0.96038818359375,-0.2130889892578125
1757089338361657900,8.046657958984374,0.069122314453125,0.9391937255859375,-0.2164154052734375
1757089338371612700,8.05661279296875,0.06097412109375,0.9242401123046875,-0.2392730712890625
1757089338381566700,8.066566650390625,0.0579376220703125,0.9171600341796875,-0.2391815185546875
1757089338391522000,8.07652197265625,0.0622711181640625,0.93292236328125,-0.217041015625
1757089338401476900,8.086476806640626,0.0735321044921875,0.9546966552734375,-0.209716796875
1757089338411431000,8.096430908203125,0.07318115234375,0.9801025390625,-0.1875457763671875
1757089338421385700,8.1063857421875,0.0872650146484375,1.0025482177734375,-0.174713134765625
1757089338431339800,8.11633984375,0.10400390625,1.0181427001953125,-0.1622772216796875
1757089338441294800,8.126294921875,0.100860595703125,1.04345703125,-0.149810791015625
1757089338451250000,8.13625,0.09454345703125,1.046295166015625,-0.1493988037109375
1757089338461203700,8.14620361328125,0.094970703125,1.0374298095703125,-0.160858154296875
1757089338471158800,8.15615869140625,0.09283447265625,1.038482666015625,-0.1667938232421875
1757089338481112800,8.16611279296875,0.09466552734375,1.04803466796875,-0.172332763671875
1757089338491068000,8.17606787109375,0.1084136962890625,1.0793304443359375,-0.1830291748046875
1757089338501022700,8.186022705078125,0.1410675048828125,1.1330413818359375,-0.1887054443359375
1757089338510976800,8.195976806640624,0.17401123046875,1.171783447265625,-0.1787567138671875
1757089338520931800,8.205931884765626,0.2044830322265625,1.1992340087890625,-0.1424713134765625
1757089338530887000,8.215886962890625,0.2173614501953125,1.22442626953125,-0.1011505126953125
1757089338540841000,8.225841064453125,0.213043212890625,1.2478790283203125,-0.076629638671875
1757089338550795800,8.235795654296876,0.186248779296875,1.2740325927734375,-0.0762786865234375
1757089338560749600,8.24574951171875,0.1488189697265625,1.29132080078125,-0.0682373046875
1757089338570704600,8.25570458984375,0.117950439453125,1.2985382080078125,-0.0759735107421875
1757089338580659700,8.26565966796875,0.0914764404296875,1.295318603515625,-0.0938873291015625
1757089338590613500,8.275613525390625,0.0737152099609375,1.2868804931640625,-0.123687744140625
1757089338600568600,8.285568603515625,0.068817138671875,1.2628021240234375,-0.1610107421875
1757089338610522600,8.295522705078126,0.074432373046875,1.2260894775390625,-0.1977996826171875
1757089338620477700,8.305477783203125,0.0723724365234375,1.16558837890625,-0.2434844970703125
1757089338630432500,8.3154326171875,0.0420989990234375,1.073272705078125,-0.285064697265625
1757089338640386600,8.325386474609376,0.019775390625,0.965240478515625,-0.3187713623046875
1757089338650341600,8.335341552734375,0.05572509765625,0.8670196533203125,-0.3726959228515625
1757089338660295400,8.34529541015625,0.1675567626953125,0.8341217041015625,-0.4557952880859375
1757089338670250800,8.355250732421876,0.275360107421875,0.834747314453125,-0.5351715087890625
1757089338680205600,8.36520556640625,0.3354949951171875,0.8558807373046875,-0.587860107421875
1757089338690159600,8.37515966796875,0.325347900390625,0.9195098876953125,-0.6136474609375
1757089338700114400,8.385114501953124,0.265960693359375,1.009063720703125,-0.6090240478515625
1757089338710068700,8.39506884765625,0.1988983154296875,1.1035308837890625,-0.5915985107421875
1757089338720023600,8.4050234375,0.10662841796875,1.165191650390625,-0.58740234375
1757089338729978600,8.414978515625,0.046905517578125,1.178985595703125,-0.5624847412109375
1757089338739932400,8.424932373046875,0.02703857421875,1.152740478515625,-0.4525299072265625
1757089338749887700,8.4348876953125,0.0108184814453125,1.11309814453125,-0.313323974609375
1757089338759841800,8.444841796875,-0.0247650146484375,1.0799102783203125,-0.1630401611328125
1757089338769796600,8.454796630859375,-0.053863525390625,1.01611328125,-0.07916259765625
1757089338779751400,8.46475146484375,-0.0640716552734375,0.95135498046875,-0.049285888671875
1757089338789705500,8.47470556640625,-0.0734100341796875,0.9270477294921875,-0.0382232666015625
1757089338799660800,8.484660888671876,-0.0535888671875,0.9382171630859375,-0.044891357421875
1757089338809614600,8.494614501953125,-0.000701904296875,0.9532928466796875,-0.0497589111328125
1757089338819569700,8.504569580078124,0.0591278076171875,0.9540252685546875,-0.08917236328125
1757089338829524500,8.5145244140625,0.0849761962890625,0.9483184814453125,-0.1407928466796875
1757089338839478500,8.524478515625,0.1023101806640625,0.9380950927734375,-0.1717529296875
1757089338849433600,8.53443359375,0.138671875,0.9205474853515625,-0.1990509033203125
1757089338859387600,8.5443876953125,0.1670989990234375,0.89276123046875,-0.2227020263671875
1757089338869342500,8.554342529296875,0.1847686767578125,0.86151123046875,-0.2527923583984375
1757089338879297500,8.564297607421874,0.175567626953125,0.8347930908203125,-0.280029296875
1757089338889251600,8.57425146484375,0.155853271484375,0.8153228759765625,-0.2989654541015625
1757089338899206700,8.58420654296875,0.1474609375,0.7998504638671875,-0.3212890625
1757089338909160700,8.59416064453125,0.160919189453125,0.8075408935546875,-0.326385498046875
1757089338919115500,8.604115478515626,0.1727752685546875,0.75469970703125,-0.312164306640625
1757089338929070600,8.614070556640625,0.1874542236328125,0.646514892578125,-0.3187255859375
1757089338939024600,8.624024658203124,0.19268798828125,0.5841522216796875,-0.2924957275390625
1757089338948979700,8.633979736328126,0.2305450439453125,0.54644775390625,-0.2963714599609375
1757089338958933500,8.64393359375,0.2071990966796875,0.53887939453125,-0.3350830078125
1757089338968888600,8.653888671875,0.1613922119140625,0.5590972900390625,-0.3902130126953125
1757089338978843600,8.66384375,0.1253814697265625,0.5761566162109375,-0.4322967529296875
1757089338988797700,8.673797607421875,0.1101226806640625,0.6019287109375,-0.4331817626953125
1757089338998752500,8.68375244140625,0.107940673828125,0.614227294921875,-0.407135009765625
1757089339008706600,8.69370654296875,0.124664306640625,0.60308837890625,-0.3760528564453125
1757089339018661400,8.703661376953125,0.14593505859375,0.5849151611328125,-0.358917236328125
1757089339028616700,8.71361669921875,0.1591949462890625,0.55792236328125,-0.351165771484375
1757089339038570800,8.72357080078125,0.163665771484375,0.5408172607421875,-0.3435211181640625
1757089339048525600,8.733525634765625,0.1707000732421875,0.54083251953125,-0.33740234375
1757089339058479600,8.743479736328124,0.182830810546875,0.552825927734375,-0.3215484619140625
1757089339068434700,8.7534345703125,0.210296630859375,0.5745849609375,-0.3041229248046875
1757089339078389800,8.7633896484375,0.2502593994140625,0.611602783203125,-0.300262451171875
1757089339088343600,8.773343505859375,0.3069915771484375,0.668853759765625,-0.3088836669921875
1757089339098298600,8.783298583984376,0.3760986328125,0.746124267578125,-0.3201751708984375
1757089339108252400,8.79325244140625,0.4479217529296875,0.8253631591796875,-0.3365020751953125
1757089339118207700,8.803207763671875,0.51416015625,0.8971099853515625,-0.3458404541015625
1757089339128162600,8.81316259765625,0.59588623046875,0.9770660400390625,-0.367919921875
1757089339138116600,8.82311669921875,0.6920928955078125,1.082763671875,-0.40692138671875
1757089339148071400,8.833071533203125,0.776641845703125,1.2258148193359375,-0.4045867919921875
1757089339158025500,8.843025390625,0.8430023193359375,1.3783416748046875,-0.3846893310546875
1757089339167980500,8.85298046875,0.8744659423828125,1.4724273681640625,-0.4014892578125
1757089339177935600,8.862935546875,0.8435821533203125,1.4892120361328125,-0.42938232421875
1757089339187889700,8.8728896484375,0.77996826171875,1.4460296630859375,-0.4272613525390625
1757089339197844500,8.882844482421875,0.714813232421875,1.318267822265625,-0.4264373779296875
1757089339207798800,8.892798828125,0.6657867431640625,1.1443023681640625,-0.42694091796875
1757089339217753600,8.902753662109374,0.6200714111328125,0.950958251953125,-0.4097442626953125
1757089339227708700,8.912708740234375,0.578216552734375,0.7894439697265625,-0.3967132568359375
1757089339237662500,8.922662353515625,0.5288848876953125,0.653045654296875,-0.36920166015625
1757089339247617500,8.932617431640624,0.4801177978515625,0.568695068359375,-0.3256683349609375
1757089339257571600,8.942571533203125,0.38397216796875,0.5902557373046875,-0.2897186279296875
1757089339267526700,8.952526611328125,0.2635955810546875,0.72760009765625,-0.2411346435546875
1757089339277481500,8.9624814453125,0.29913330078125,0.84521484375,-0.2156829833984375
1757089339287435500,8.972435546875,0.4118804931640625,0.8894805908203125,-0.293060302734375
1757089339297390600,8.982390625,0.450103759765625,0.9460906982421875,-0.4185333251953125
1757089339307344600,8.9923447265625,0.4359130859375,1.0465850830078125,-0.4898681640625
1757089339317299700,9.0022998046875,0.3950347900390625,1.1420440673828125,-0.5508575439453125
1757089339327254500,9.012254638671875,0.3006439208984375,1.20562744140625,-0.640594482421875
1757089339337208600,9.02220849609375,0.175872802734375,1.24920654296875,-0.7339630126953125
1757089339347163600,9.03216357421875,0.069671630859375,1.303558349609375,-0.806121826171875
1757089339357117700,9.04211767578125,0.0344390869140625,1.3516845703125,-0.7901458740234375
1757089339367072500,9.052072509765624,0.150726318359375,1.3289794921875,-0.70587158203125
1757089339377027600,9.062027587890626,0.2836151123046875,1.15460205078125,-0.6166534423828125
1757089339386981400,9.0719814453125,0.2658843994140625,0.855743408203125,-0.54486083984375
1757089339396936700,9.081936767578124,0.1322021484375,0.6053924560546875,-0.3863677978515625
1757089339406890800,9.091890869140625,-0.0522003173828125,0.435272216796875,-0.2820587158203125
1757089339416845600,9.101845458984375,-0.1900634765625,0.3930206298828125,-0.21905517578125
1757089339426800400,9.11180029296875,-0.2084808349609375,0.44580078125,-0.1315460205078125
1757089339436754700,9.121754638671876,-0.1513824462890625,0.52020263671875,-0.1088104248046875
1757089339446709800,9.131709716796875,-0.09930419921875,0.6396942138671875,-0.119384765625
1757089339456663600,9.14166357421875,-0.0612335205078125,0.844970703125,-0.0817108154296875
1757089339466618600,9.15161865234375,-0.0450592041015625,1.095184326171875,-0.0216217041015625
1757089339476573700,9.16157373046875,0.0019073486328125,1.24407958984375,-0.000213623046875
1757089339486527700,9.17152783203125,0.0362701416015625,1.28240966796875,-0.0307159423828125
1757089339496482600,9.181482666015626,0.0766143798828125,1.233856201171875,-0.0976409912109375
1757089339506436600,9.1914365234375,0.12994384765625,1.1460113525390625,-0.1811676025390625
1757089339516391400,9.201391357421874,0.1747894287109375,1.0351104736328125,-0.277618408203125
1757089339526346800,9.2113466796875,0.191192626953125,0.9342041015625,-0.334564208984375
1757089339536300500,9.221300537109375,0.1522674560546875,0.8611297607421875,-0.3483123779296875
1757089339546255600,9.231255615234375,0.0557861328125,0.8498687744140625,-0.32257080078125
1757089339556209700,9.241209716796876,0.0231781005859375,0.8766632080078125,-0.2860565185546875
1757089339566164000,9.2511640625,0.0327301025390625,0.8979949951171875,-0.204498291015625
1757089339576119000,9.261119140625,0.053253173828125,0.929412841796875,-0.1346282958984375
1757089339586072800,9.27107275390625,0.0733795166015625,0.95758056640625,-0.1073455810546875
1757089339596028200,9.281028076171875,0.0578460693359375,0.9588775634765625,-0.073455810546875
1757089339605982000,9.29098193359375,0.038482666015625,0.94970703125,-0.05078125
1757089339615937000,9.30093701171875,0.0469970703125,0.9320220947265625,-0.0827789306640625
1757089339625891000,9.31089111328125,0.103607177734375,0.88604736328125,-0.139129638671875
1757089339635846000,9.320845947265624,0.1508941650390625,0.8393402099609375,-0.1951141357421875
1757089339645801000,9.330801025390626,0.1620330810546875,0.8315887451171875,-0.24639892578125
1757089339655755000,9.340755126953125,0.17242431640625,0.8312530517578125,-0.296478271484375
1757089339665710000,9.3507099609375,0.1959381103515625,0.8271942138671875,-0.2685546875
1757089339675665000,9.360664794921876,0.2113189697265625,0.82232666015625,-0.2148895263671875
1757089339685619200,9.370619140625,0.1660614013671875,0.8088836669921875,-0.169830322265625
1757089339695574000,9.380573974609375,0.084228515625,0.79217529296875,-0.1547698974609375
1757089339705528000,9.390528076171876,0.005584716796875,0.7888641357421875,-0.1716461181640625
1757089339715483000,9.40048291015625,-0.0455474853515625,0.7815399169921875,-0.18402099609375
1757089339725438200,9.410438232421875,-0.060150146484375,0.7913055419921875,-0.1986236572265625
1757089339735392000,9.42039208984375,-0.03173828125,0.8000335693359375,-0.2261810302734375
1757089339745347000,9.43034716796875,0.0204010009765625,0.802581787109375,-0.2410888671875
1757089339755301000,9.440301025390625,0.0862579345703125,0.8329010009765625,-0.2516021728515625
1757089339765256000,9.450255859375,0.15228271484375,0.87835693359375,-0.259033203125
1757089339775211000,9.4602109375,0.2070159912109375,0.9215087890625,-0.2590789794921875
1757089339785165000,9.4701650390625,0.2340545654296875,0.96923828125,-0.233428955078125
1757089339795120000,9.4801201171875,0.2162628173828125,1.012359619140625,-0.20806884765625
1757089339805074000,9.490073974609375,0.1665802001953125,1.0565643310546875,-0.2035675048828125
1757089339815029000,9.500029052734375,0.123199462890625,1.10052490234375,-0.185272216796875
1757089339824984000,9.509984130859374,0.0956573486328125,1.123321533203125,-0.15301513671875
1757089339834938000,9.519938232421875,0.071136474609375,1.1333465576171875,-0.087066650390625
1757089339844893000,9.529892822265625,0.030792236328125,1.1396942138671875,-0.00811767578125
1757089339854847000,9.539846923828126,-0.0091705322265625,1.17742919921875,0.0638275146484375
1757089339864802000,9.549802001953125,-0.0120391845703125,1.241119384765625,0.149810791015625
1757089339874756000,9.559756103515625,0.0109100341796875,1.2919921875,0.21221923828125
1757089339884711000,9.5697109375,0.0457916259765625,1.309326171875,0.189697265625
1757089339894666000,9.579666015625,0.12054443359375,1.2831878662109375,0.063629150390625
1757089339904620000,9.5896201171875,0.2003631591796875,1.26141357421875,-0.0930938720703125
1757089339914575000,9.5995751953125,0.2185211181640625,1.25946044921875,-0.1998748779296875
1757089339924529200,9.609529052734375,0.204925537109375,1.264801025390625,-0.2615966796875
1757089339934484000,9.61948388671875,0.183990478515625,1.2606658935546875,-0.2467041015625
1757089339944439000,9.62943896484375,0.1425933837890625,1.2267303466796875,-0.1690826416015625
1757089339954392800,9.639392822265625,0.115264892578125,1.2151336669921875,-0.1198883056640625
1757089339964348200,9.64934814453125,0.1017913818359375,1.23681640625,-0.118743896484375
1757089339974302000,9.659302001953124,0.07891845703125,1.2715606689453125,-0.1336212158203125
1757089339984257000,9.669257080078125,0.0535736083984375,1.287322998046875,-0.149749755859375
1757089339994211800,9.6792119140625,0.0277557373046875,1.2741241455078125,-0.1904449462890625
1757089340004166100,9.689166259765624,-0.005706787109375,1.216583251953125,-0.2245635986328125
1757089340014121000,9.699120849609375,-0.04949951171875,1.1309967041015625,-0.2627410888671875
1757089340024075000,9.709074951171875,-0.0527496337890625,1.046112060546875,-0.3035888671875
1757089340034030000,9.719030029296874,-0.0134735107421875,0.9325714111328125,-0.420501708984375
1757089340043985200,9.728985107421876,0.1116790771484375,0.8718414306640625,-0.5726318359375
1757089340053939200,9.738939208984375,0.1890106201171875,0.87445068359375,-0.66192626953125
1757089340063894000,9.74889404296875,0.1332244873046875,0.9295654296875,-0.7514495849609375
1757089340073848000,9.75884814453125,0.0718841552734375,1.03350830078125,-0.8616485595703125
1757089340083803000,9.768802978515625,0.0735015869140625,1.14813232421875,-0.9027557373046875
1757089340093758200,9.77875830078125,0.096893310546875,1.2099151611328125,-0.82171630859375
1757089340103712000,9.7887119140625,0.0500335693359375,1.23846435546875,-0.6996307373046875
1757089340113667000,9.7986669921875,0.0920257568359375,1.248748779296875,-0.6427459716796875
1757089340123620900,9.808620849609374,0.21331787109375,1.24237060546875,-0.4715118408203125
1757089340133576000,9.818575927734376,0.324249267578125,1.205413818359375,-0.2098388671875
1757089340143531000,9.828531005859375,0.277069091796875,1.173919677734375,-0.07672119140625
1757089340153485000,9.838485107421874,0.1001434326171875,1.1800994873046875,-0.0103607177734375
1757089340163439900,9.84843994140625,-0.0532989501953125,1.183380126953125,-0.01885986328125
1757089340173394000,9.858393798828125,-0.0458831787109375,1.17913818359375,0.02618408203125
1757089340183349200,9.868349365234375,0.0406341552734375,1.0885162353515625,-0.0169525146484375
1757089340193304000,9.878303955078126,0.0611114501953125,0.9667205810546875,-0.078582763671875
1757089340203258000,9.888258056640625,0.04193115234375,0.822235107421875,-0.1109466552734375
1757089340213213000,9.898212890625,0.0222625732421875,0.6782379150390625,-0.1360015869140625
1757089340223167000,9.9081669921875,0.011199951171875,0.598114013671875,-0.1533203125
1757089340233122000,9.9181220703125,0.0567474365234375,0.626678466796875,-0.15301513671875
1757089340243076000,9.928076171875,0.1130523681640625,0.66278076171875,-0.2094879150390625
1757089340253031000,9.938031005859376,0.1495513916015625,0.683197021484375,-0.294525146484375
1757089340262986000,9.947986083984375,0.165191650390625,0.6775360107421875,-0.3844757080078125
1757089340272940000,9.95793994140625,0.2194976806640625,0.60009765625,-0.4698028564453125
1757089340282895000,9.96789501953125,0.2349700927734375,0.51531982421875,-0.4917144775390625
1757089340292849200,9.97784912109375,0.20654296875,0.4454803466796875,-0.45831298828125
1757089340302804000,9.987803955078125,0.1889495849609375,0.4159393310546875,-0.400543212890625
1757089340312759000,9.997759033203126,0.140655517578125,0.42236328125,-0.359405517578125
1757089340322713000,10.007713134765625,0.0872344970703125,0.4426422119140625,-0.3376617431640625
1757089340332668200,10.017668212890625,0.0668182373046875,0.4677886962890625,-0.3142242431640625
1757089340342622000,10.0276220703125,0.064178466796875,0.473358154296875,-0.294891357421875
1757089340352577000,10.037576904296875,0.0761566162109375,0.474212646484375,-0.2789306640625
1757089340362531800,10.04753173828125,0.10791015625,0.4814300537109375,-0.2699432373046875
1757089340372486100,10.057486083984376,0.13885498046875,0.4702301025390625,-0.2693328857421875
1757089340382441000,10.06744091796875,0.15679931640625,0.455047607421875,-0.2687530517578125
1757089340392395000,10.07739501953125,0.1751251220703125,0.449188232421875,-0.2723388671875
1757089340402349800,10.087349853515626,0.1986541748046875,0.459136962890625,-0.27978515625
1757089340412305200,10.09730517578125,0.2393035888671875,0.471435546875,-0.290618896484375
1757089340422259200,10.10725927734375,0.2861175537109375,0.4875640869140625,-0.2934722900390625
1757089340432214000,10.117214111328124,0.3321075439453125,0.5252838134765625,-0.2982330322265625
1757089340442168000,10.12716796875,0.3985137939453125,0.584136962890625,-0.3144683837890625
1757089340452123000,10.137122802734375,0.484954833984375,0.684356689453125,-0.3572540283203125
1757089340462078200,10.147078125,0.5919342041015625,0.84442138671875,-0.3824615478515625
1757089340472032000,10.157031982421875,0.72711181640625,1.067138671875,-0.3880615234375
1757089340481987000,10.166987060546875,0.86517333984375,1.348785400390625,-0.409942626953125
1757089340491940900,10.17694091796875,0.9563446044921875,1.700286865234375,-0.3947601318359375
1757089340501896000,10.18689599609375,0.966766357421875,1.99505615234375,-0.4088287353515625
1757089340511851000,10.19685107421875,0.8836669921875,2.08111572265625,-0.4309234619140625
1757089340521805000,10.20680517578125,0.8033294677734375,1.9503631591796875,-0.3580474853515625
1757089340531759900,10.216759765625,0.82147216796875,1.69921875,-0.2575836181640625
1757089340541714000,10.2267138671875,0.8633880615234375,1.3036956787109375,-0.2425079345703125
1757089340551669200,10.236669189453124,0.8827972412109375,0.9316558837890625,-0.26702880859375
1757089340561624000,10.2466240234375,0.8143157958984375,0.6829376220703125,-0.3646240234375
1757089340571578000,10.256578125,0.6075592041015625,0.56201171875,-0.4400482177734375
1757089340581533000,10.266532958984374,0.4200439453125,0.523468017578125,-0.38348388671875
1757089340591487000,10.276487060546875,0.3176422119140625,0.5620574951171875,-0.3647003173828125
1757089340601441800,10.28644189453125,0.240142822265625,0.717254638671875,-0.4156036376953125
1757089340611397000,10.296397216796874,0.2011566162109375,0.8754425048828125,-0.4220428466796875
1757089340621351000,10.306350830078125,0.197845458984375,0.992034912109375,-0.4181060791015625
1757089340631306000,10.316305908203125,0.1252288818359375,1.1013946533203125,-0.430633544921875
1757089340641260000,10.326260009765624,0.0110931396484375,1.210601806640625,-0.4836883544921875
1757089340651215000,10.336215087890626,-0.0473480224609375,1.2955780029296875,-0.5472564697265625
1757089340661169200,10.346169189453125,0.0050201416015625,1.33782958984375,-0.56353759765625
1757089340671124000,10.3561240234375,0.194976806640625,1.349609375,-0.5387115478515625
1757089340681078800,10.366078857421876,0.4207305908203125,1.2390899658203125,-0.503173828125
1757089340691032800,10.37603271484375,0.5279998779296875,1.02105712890625,-0.4709625244140625
1757089340700988200,10.38598828125,0.3203887939453125,0.7745819091796875,-0.389129638671875
1757089340710942000,10.39594189453125,-0.0466766357421875,0.553466796875,-0.3462066650390625
1757089340720897000,10.40589697265625,-0.273590087890625,0.399017333984375,-0.3048858642578125
1757089340730851800,10.415851806640624,-0.3138580322265625,0.36334228515625,-0.2802886962890625
1757089340740806000,10.425805908203126,-0.258758544921875,0.365966796875,-0.3456573486328125
1757089340750761000,10.435760986328125,-0.154632568359375,0.4402923583984375,-0.439056396484375
1757089340760715000,10.445715087890624,-0.0549163818359375,0.6369781494140625,-0.4018096923828125
1757089340770669800,10.455669921875,0.0621490478515625,0.92974853515625,-0.246185302734375
1757089340780625000,10.465625,0.1332244873046875,1.2005615234375,-0.0600128173828125
1757089340790579200,10.4755791015625,0.1851043701171875,1.3372650146484375,0.032135009765625
1757089340800534000,10.485533935546876,0.19866943359375,1.359619140625,0.0265045166015625
1757089340810488000,10.495488037109375,0.1560821533203125,1.3450775146484375,-0.0035247802734375
1757089340820443000,10.50544287109375,0.1464996337890625,1.2355804443359375,-0.06640625
1757089340830398200,10.515398193359376,0.13458251953125,1.0641021728515625,-0.1029815673828125
1757089340840352000,10.52535205078125,0.071319580078125,0.9380645751953125,-0.1382598876953125
1757089340850307000,10.53530712890625,-0.0005340576171875,0.8937530517578125,-0.196136474609375
1757089340860260900,10.5452607421875,-0.04364013671875,0.8863677978515625,-0.209197998046875
1757089340870216000,10.5552158203125,-0.046539306640625,0.89739990234375,-0.1902923583984375
1757089340880171000,10.5651708984375,-0.023956298828125,0.9116363525390625,-0.1777191162109375
1757089340890125000,10.575125,0.0174713134765625,0.9094085693359375,-0.18280029296875
1757089340900079900,10.585079833984375,0.059478759765625,0.8981475830078125,-0.1944732666015625
1757089340910034000,10.595033935546875,0.102813720703125,0.877044677734375,-0.210113525390625
1757089340919989000,10.604989013671876,0.152679443359375,0.8601531982421875,-0.211181640625
1757089340929944000,10.614944091796875,0.1686859130859375,0.880615234375,-0.1993560791015625
1757089340939898000,10.624898193359375,0.1922454833984375,0.91363525390625,-0.2277374267578125
1757089340949853000,10.63485302734375,0.213226318359375,0.92437744140625,-0.2311553955078125
1757089340959807000,10.644806884765625,0.223602294921875,0.92816162109375,-0.2212371826171875
1757089340969762000,10.654761962890625,0.2054290771484375,0.91546630859375,-0.222137451171875
1757089340979716000,10.664716064453126,0.1649017333984375,0.8933563232421875,-0.21881103515625
1757089340989671000,10.6746708984375,0.0907440185546875,0.8862457275390625,-0.205780029296875
1757089340999626000,10.6846259765625,0.044952392578125,0.8596038818359375,-0.187713623046875
1757089341009579800,10.694579833984376,0.0262451171875,0.8369598388671875,-0.1818695068359375
1757089341019535000,10.70453515625,0.0117340087890625,0.84942626953125,-0.164154052734375
1757089341029489200,10.7144892578125,0.03826904296875,0.834930419921875,-0.1593475341796875
1757089341039444000,10.72444384765625,0.0780792236328125,0.8076019287109375,-0.1508026123046875
1757089341049398800,10.734398681640625,0.122222900390625,0.7870941162109375,-0.138397216796875
1757089341059352800,10.744352783203125,0.1702728271484375,0.789337158203125,-0.1394805908203125
1757089341069308200,10.75430810546875,0.2065582275390625,0.8045806884765625,-0.1490936279296875
1757089341079262000,10.764261962890625,0.2206573486328125,0.8216400146484375,-0.162384033203125
1757089341089217000,10.774217041015625,0.2102813720703125,0.850433349609375,-0.1798095703125
1757089341099171800,10.784171875,0.1773223876953125,0.8820037841796875,-0.18359375
1757089341109126100,10.794126220703125,0.135986328125,0.91400146484375,-0.175567626953125
1757089341119081000,10.8040810546875,0.0985565185546875,0.962554931640625,-0.1517181396484375
1757089341129035000,10.814034912109374,0.052398681640625,1.00360107421875,-0.1232452392578125
1757089341138989800,10.82398974609375,0.0181427001953125,1.0409393310546875,-0.0952606201171875
1757089341148945200,10.833945068359375,0.0135345458984375,1.0774383544921875,-0.044464111328125
1757089341158899000,10.84389892578125,-0.0103759765625,1.1130218505859375,0.0240631103515625
1757089341168854000,10.85385400390625,-0.0361785888671875,1.1566925048828125,0.0882568359375
1757089341178808000,10.86380810546875,-0.0389404296875,1.1995849609375,0.12054443359375
1757089341188763000,10.873762939453124,0.0047149658203125,1.2256317138671875,0.0686187744140625
1757089341198717000,10.883717041015625,0.117584228515625,1.222412109375,-0.0753173828125
1757089341208672000,10.893672119140625,0.259307861328125,1.2154388427734375,-0.2404327392578125
1757089341218627000,10.903626953125,0.3673553466796875,1.2080230712890625,-0.3660430908203125
1757089341228580900,10.913580810546875,0.398406982421875,1.222930908203125,-0.4032745361328125
1757089341238536000,10.923535888671875,0.363677978515625,1.2397003173828125,-0.3643646240234375
1757089341248490000,10.933489990234374,0.316253662109375,1.25103759765625,-0.3018341064453125
1757089341258445000,10.943445068359376,0.269073486328125,1.2643280029296875,-0.2188262939453125
1757089341268399900,10.95339990234375,0.22119140625,1.2354278564453125,-0.1438751220703125
1757089341278354000,10.96335400390625,0.192474365234375,1.2204437255859375,-0.0914306640625
1757089341288308700,10.973308837890626,0.1616058349609375,1.2129974365234375,-0.033355712890625
1757089341298263000,10.983262939453125,0.1060943603515625,1.188995361328125,-0.0155792236328125
1757089341308218000,10.993218017578124,0.049560546875,1.1742401123046875,0.0138397216796875
1757089341318173000,11.0031728515625,-0.0261077880859375,1.12042236328125,0.0234527587890625
1757089341328127000,11.013126953125,-0.077392578125,1.0557403564453125,-0.0247802734375
1757089341338082000,11.02308203125,-0.0218048095703125,1.011566162109375,-0.148040771484375
1757089341348036000,11.0330361328125,0.0735015869140625,1.0012054443359375,-0.325408935546875
1757089341357991000,11.042990966796875,0.102264404296875,1.023193359375,-0.4963836669921875
1757089341367946000,11.052946044921875,0.09259033203125,1.0825347900390625,-0.6109619140625
1757089341377899800,11.062899658203126,0.1064910888671875,1.1600341796875,-0.7337799072265625
1757089341387855000,11.072855224609375,0.1180267333984375,1.207000732421875,-0.83587646484375
1757089341397809200,11.08280908203125,0.0801849365234375,1.21600341796875,-0.851409912109375
1757089341407764000,11.092763916015626,0.0636749267578125,1.2138824462890625,-0.7760009765625
1757089341417718800,11.10271875,0.13665771484375,1.189697265625,-0.633544921875
1757089341427672800,11.1126728515625,0.214599609375,1.1455230712890625,-0.441192626953125
1757089341437628000,11.1226279296875,0.2256317138671875,1.1064910888671875,-0.2634735107421875
1757089341447582000,11.13258203125,0.189697265625,1.0609283447265625,-0.165435791015625
1757089341457537000,11.142537109375,0.112640380859375,1.0304412841796875,-0.0859527587890625
1757089341467490800,11.15249072265625,0.017486572265625,1.0114288330078125,-0.0508270263671875
1757089341477446100,11.162446044921875,-0.0339508056640625,1.006561279296875,0.013214111328125
1757089341487401000,11.17240087890625,-0.0014801025390625,0.9857025146484375,0.044097900390625
1757089341497355000,11.18235498046875,0.0341033935546875,0.942474365234375,-0.010589599609375
1757089341507309800,11.192309814453125,0.0576324462890625,0.8995819091796875,-0.0968170166015625
1757089341517264000,11.202263916015625,0.08154296875,0.85906982421875,-0.1571807861328125
1757089341527219000,11.212218994140626,0.112060546875,0.82989501953125,-0.1933135986328125
1757089341537174000,11.222174072265625,0.1446075439453125,0.808685302734375,-0.24017333984375
1757089341547128000,11.232128173828125,0.143524169921875,0.8003997802734375,-0.303070068359375
1757089341557083000,11.242082763671876,0.1657867431640625,0.794219970703125,-0.3777313232421875
1757089341567036700,11.25203662109375,0.1958465576171875,0.7550201416015625,-0.434844970703125
1757089341576991500,11.261991455078125,0.27117919921875,0.664031982421875,-0.4965362548828125
1757089341586946800,11.27194677734375,0.3203277587890625,0.5747222900390625,-0.495635986328125
1757089341596900600,11.281900634765625,0.335906982421875,0.493865966796875,-0.435760498046875
1757089341606855700,11.291855712890625,0.270782470703125,0.4284210205078125,-0.3863067626953125
1757089341616809700,11.301809814453126,0.1797027587890625,0.450592041015625,-0.341064453125
1757089341626764500,11.3117646484375,0.1355133056640625,0.497833251953125,-0.3051300048828125
1757089341636719600,11.3217197265625,0.0951080322265625,0.526153564453125,-0.280670166015625
1757089341646673700,11.331673583984376,0.0614776611328125,0.5300140380859375,-0.2660675048828125
1757089341656628700,11.341628662109375,0.0506591796875,0.518218994140625,-0.2606201171875
1757089341666582500,11.35158251953125,0.062896728515625,0.5007476806640625,-0.2617645263671875
1757089341676537900,11.361537841796874,0.0802459716796875,0.48138427734375,-0.2717742919921875
1757089341686491600,11.37149169921875,0.099029541015625,0.4553375244140625,-0.2800445556640625
1757089341696446700,11.38144677734375,0.122833251953125,0.4395599365234375,-0.2826690673828125
1757089341706401500,11.391401611328124,0.15545654296875,0.4466705322265625,-0.2900543212890625
1757089341716355600,11.40135546875,0.1887359619140625,0.4743804931640625,-0.2919769287109375
1757089341726310700,11.411310546875,0.216339111328125,0.5177154541015625,-0.2945556640625
1757089341736264700,11.4212646484375,0.233001708984375,0.5882415771484375,-0.3248138427734375
1757089341746219500,11.431219482421875,0.26202392578125,0.684814453125,-0.3635101318359375
1757089341756174600,11.441174560546875,0.2946624755859375,0.8324737548828125,-0.3590850830078125
1757089341766128600,11.451128662109374,0.392059326171875,0.9965057373046875,-0.3488922119140625
1757089341776083700,11.461083740234375,0.541656494140625,1.14642333984375,-0.3565826416015625
1757089341786037800,11.471037841796875,0.6579742431640625,1.3050689697265625,-0.383575439453125
1757089341795992600,11.48099267578125,0.7904052734375,1.4742584228515625,-0.431549072265625
1757089341805947600,11.49094775390625,0.912628173828125,1.640106201171875,-0.4480133056640625
1757089341815901700,11.500901611328125,0.9801483154296875,1.714111328125,-0.4561920166015625
1757089341825856800,11.510856689453124,1.0040130615234375,1.5848541259765625,-0.41436767578125
1757089341835810600,11.520810546875,0.95343017578125,1.3643951416015625,-0.2987060546875
1757089341845765600,11.530765625,0.8128662109375,1.1353302001953125,-0.269378662109375
1757089341855719700,11.5407197265625,0.7004852294921875,0.9417266845703125,-0.3035125732421875
1757089341865674800,11.5506748046875,0.600799560546875,0.85076904296875,-0.357879638671875
1757089341875629600,11.560629638671875,0.4485931396484375,0.8329620361328125,-0.4240570068359375
1757089341885583600,11.57058349609375,0.3362274169921875,0.8097686767578125,-0.4373931884765625
1757089341895538700,11.58053857421875,0.290618896484375,0.7713470458984375,-0.395965576171875
1757089341905492500,11.590492431640625,0.277099609375,0.7681427001953125,-0.3870697021484375
1757089341915447800,11.60044775390625,0.269439697265625,0.8205108642578125,-0.4281463623046875
1757089341925402600,11.610402587890626,0.250946044921875,0.90289306640625,-0.4752349853515625
1757089341935356700,11.620356689453125,0.2356719970703125,1.011138916015625,-0.5218658447265625
1757089341945311500,11.6303115234375,0.213043212890625,1.1589202880859375,-0.5938262939453125
1757089341955265800,11.640265869140626,0.183380126953125,1.3295745849609375,-0.681671142578125
1757089341965220600,11.650220703125,0.150054931640625,1.47113037109375,-0.75579833984375
1757089341975175700,11.66017578125,0.1128692626953125,1.503204345703125,-0.7811431884765625
1757089341985129500,11.67012939453125,0.1320648193359375,1.3907012939453125,-0.717803955078125
1757089341995084500,11.68008447265625,0.1844940185546875,1.131744384765625,-0.5671234130859375
1757089342005038800,11.690038818359374,0.1958770751953125,0.8581390380859375,-0.469970703125
1757089342014993700,11.69999365234375,0.136627197265625,0.6975250244140625,-0.395751953125
1757089342024948500,11.709948486328125,-0.010955810546875,0.5924835205078125,-0.2838897705078125
1757089342034902500,11.719902587890624,-0.203155517578125,0.488372802734375,-0.1898040771484375
1757089342044857900,11.72985791015625,-0.3272247314453125,0.4215240478515625,-0.1437835693359375
1757089342054811600,11.739811767578125,-0.3777618408203125,0.423858642578125,-0.1261444091796875
1757089342064766700,11.7497666015625,-0.3697662353515625,0.484588623046875,-0.16943359375
1757089342074720500,11.759720458984376,-0.29351806640625,0.6120147705078125,-0.2616119384765625
1757089342084675600,11.769675537109375,-0.2013092041015625,0.8220367431640625,-0.3531951904296875
1757089342094630700,11.779630615234375,-0.1005401611328125,1.09796142578125,-0.3546295166015625
1757089342104584700,11.789584716796876,0.07147216796875,1.3301544189453125,-0.2910308837890625
1757089342114539500,11.79953955078125,0.231964111328125,1.4629974365234375,-0.2202606201171875
1757089342124493600,11.80949365234375,0.2991943359375,1.419769287109375,-0.179046630859375
1757089342134448600,11.81944873046875,0.274078369140625,1.19134521484375,-0.1964111328125
1757089342144403700,11.82940380859375,0.1641845703125,0.9654541015625,-0.24212646484375
1757089342154357800,11.839357666015625,0.03387451171875,0.84521484375,-0.2845611572265625
1757089342164312600,11.8493125,-0.0429534912109375,0.806610107421875,-0.2962188720703125
1757089342174266600,11.8592666015625,-0.0630035400390625,0.8224945068359375,-0.27313232421875
1757089342184221700,11.8692216796875,-0.0590667724609375,0.85186767578125,-0.178955078125
1757089342194176800,11.8791767578125,-0.01324462890625,0.8803863525390625,-0.089569091796875
1757089342204130600,11.889130615234375,0.00250244140625,0.8970489501953125,-0.0514678955078125
1757089342214085600,11.899085693359375,-0.0229644775390625,0.8985595703125,-0.037750244140625
1757089342224039700,11.909039794921876,-0.052093505859375,0.89117431640625,-0.03955078125
1757089342233994800,11.918994873046875,-0.05694580078125,0.874420166015625,-0.072540283203125
1757089342243949600,11.928949462890625,-0.0102386474609375,0.8913116455078125,-0.0926513671875
1757089342253903600,11.938903564453126,0.04833984375,0.9428558349609375,-0.1405029296875
1757089342263858400,11.9488583984375,0.0821533203125,0.9745330810546875,-0.182769775390625
1757089342273812500,11.9588125,0.1272125244140625,0.9908905029296875,-0.1821441650390625
1757089342283767800,11.968767822265624,0.1983795166015625,1.00128173828125,-0.1844635009765625
1757089342293721600,11.9787216796875,0.21844482421875,0.9965362548828125,-0.1766815185546875
1757089342303676700,11.9886767578125,0.1434173583984375,0.988494873046875,-0.175567626953125
1757089342313631500,11.998631591796874,0.064178466796875,0.9706573486328125,-0.168701171875
1757089342323585800,12.008585693359375,0.027435302734375,0.9446258544921875,-0.1666717529296875
1757089342333540600,12.01854052734375,0.008087158203125,0.92138671875,-0.173248291015625
1757089342343494700,12.02849462890625,-0.004425048828125,0.8983154296875,-0.179901123046875
1757089342353449500,12.038449462890625,-0.0160675048828125,0.87103271484375,-0.18768310546875
1757089342363404800,12.04840478515625,-0.009796142578125,0.84857177734375,-0.204742431640625
1757089342373358800,12.05835888671875,0.0225372314453125,0.8293914794921875,-0.2234344482421875
1757089342383313700,12.068313720703125,0.0663299560546875,0.8200531005859375,-0.220947265625
1757089342393267700,12.078267822265625,0.101593017578125,0.83270263671875,-0.2096710205078125
1757089342403222500,12.088222412109374,0.1356353759765625,0.875762939453125,-0.1776885986328125
1757089342413177900,12.098177734375,0.1394805908203125,0.946136474609375,-0.124114990234375
1757089342423131600,12.108131591796875,0.1099853515625,1.024627685546875,-0.0572357177734375
1757089342433086700,12.118086669921874,0.0609588623046875,1.0870819091796875,0.010955810546875
1757089342443040500,12.12804052734375,0.0135040283203125,1.1259002685546875,0.07659912109375
1757089342452995600,12.13799560546875,-0.019378662109375,1.1441802978515625,0.112213134765625
1757089342462949600,12.14794970703125,-0.0144805908203125,1.1361846923828125,0.0970001220703125
1757089342472904700,12.15790478515625,0.0430450439453125,1.1137542724609375,0.0396881103515625
1757089342482859500,12.167859619140625,0.1358184814453125,1.09417724609375,-0.026336669921875
1757089342492813600,12.1778134765625,0.1915740966796875,1.078369140625,-0.0579833984375
1757089342502768600,12.1877685546875,0.1774139404296875,1.0710601806640625,-0.0504608154296875
1757089342512722700,12.19772265625,0.1254730224609375,1.075103759765625,-0.02813720703125
1757089342522677800,12.207677734375,0.094482421875,1.084259033203125,-0.0120697021484375
1757089342532632600,12.217632568359376,0.0787506103515625,1.0867462158203125,-0.0148162841796875
1757089342542586600,12.227586669921875,0.07513427734375,1.0802764892578125,-0.0534820556640625
1757089342552541700,12.237541748046874,0.0896759033203125,1.0600128173828125,-0.1250152587890625
1757089342562495700,12.247495849609376,0.147430419921875,1.0461883544921875,-0.211883544921875
1757089342572451000,12.257451171875,0.21905517578125,1.055145263671875,-0.2959747314453125
1757089342582406100,12.26740625,0.243316650390625,1.0832061767578125,-0.349334716796875
1757089342592360000,12.27735986328125,0.2215728759765625,1.1609039306640625,-0.3509521484375
1757089342602315300,12.287315185546875,0.186126708984375,1.2168121337890625,-0.32855224609375
1757089342612269000,12.29726904296875,0.1471405029296875,1.246368408203125,-0.307647705078125
1757089342622224100,12.30722412109375,0.093170166015625,1.28839111328125,-0.2798004150390625
1757089342632178200,12.31717822265625,0.0348968505859375,1.3461151123046875,-0.2305908203125
1757089342642133000,12.327133056640625,-0.0258331298828125,1.33984375,-0.201812744140625
1757089342652088000,12.337088134765626,-0.0730133056640625,1.2623291015625,-0.2103424072265625
1757089342662042000,12.3470419921875,-0.084442138671875,1.14324951171875,-0.2462005615234375
1757089342671997200,12.3569970703125,-0.017242431640625,1.0247344970703125,-0.3128509521484375
1757089342681951000,12.366950927734376,0.116943359375,0.9170379638671875,-0.3866729736328125
1757089342691906300,12.37690625,0.222900390625,0.8555145263671875,-0.4376068115234375
1757089342701861000,12.386861083984375,0.25775146484375,0.8495941162109375,-0.52838134765625
1757089342711815200,12.396815185546876,0.22564697265625,0.8647613525390625,-0.627044677734375
1757089342721770000,12.40677001953125,0.205047607421875,0.931915283203125,-0.76116943359375
1757089342731724000,12.41672412109375,0.23321533203125,1.0276336669921875,-0.8750762939453125
1757089342741679000,12.42667919921875,0.2317962646484375,1.1247406005859375,-0.8971405029296875
1757089342751634200,12.43663427734375,0.1674652099609375,1.175994873046875,-0.8923492431640625
1757089342761588200,12.446588134765625,0.1416778564453125,1.17779541015625,-0.7160186767578125
1757089342771543000,12.45654296875,0.148956298828125,1.1507720947265625,-0.4544830322265625
1757089342781497000,12.4664970703125,0.077423095703125,1.115478515625,-0.2828216552734375
1757089342791452200,12.4764521484375,0.060882568359375,1.1033172607421875,-0.1590728759765625
1757089342801406200,12.48640625,0.1177978515625,1.100372314453125,-0.0578155517578125
1757089342811361000,12.496361083984375,0.1566619873046875,1.1064605712890625,0.01556396484375
1757089342821316000,12.506316162109375,0.1867218017578125,1.054534912109375,0.006378173828125
1757089342831270100,12.516270263671874,0.1973724365234375,0.965911865234375,-0.0328826904296875
1757089342841225200,12.52622509765625,0.14404296875,0.8514404296875,-0.082550048828125
1757089342851179000,12.536178955078125,0.0572052001953125,0.778594970703125,-0.1112060546875
1757089342861134000,12.546134033203124,0.00335693359375,0.7884521484375,-0.1699981689453125
1757089342871089200,12.556089111328125,0.0352630615234375,0.7518310546875,-0.2652435302734375
1757089342881043200,12.566043212890625,0.099456787109375,0.7153778076171875,-0.3528594970703125
1757089342890998000,12.575998046875,0.1301116943359375,0.6970977783203125,-0.44964599609375
1757089342900952000,12.5859521484375,0.1465301513671875,0.6975555419921875,-0.5370025634765625
1757089342910907100,12.5959072265625,0.1570892333984375,0.7076568603515625,-0.60174560546875
1757089342920862200,12.6058623046875,0.203125,0.69207763671875,-0.630767822265625
1757089342930816300,12.615816162109375,0.2538299560546875,0.6623077392578125,-0.60931396484375
1757089342940771000,12.62577099609375,0.2892913818359375,0.63653564453125,-0.5547943115234375
1757089342950725000,12.63572509765625,0.330596923828125,0.5997161865234375,-0.4971771240234375
1757089342960680000,12.645679931640625,0.3461456298828125,0.5887298583984375,-0.42486572265625
1757089342970634000,12.655634033203125,0.343536376953125,0.5987701416015625,-0.3629302978515625
1757089342980589000,12.665589111328124,0.330780029296875,0.6396942138671875,-0.295654296875
1757089342990544100,12.675544189453126,0.308258056640625,0.639862060546875,-0.2457122802734375
1757089343000498200,12.685498291015625,0.2747802734375,0.65216064453125,-0.208282470703125
1757089343010453000,12.695452880859374,0.267578125,0.679351806640625,-0.16619873046875
1757089343020407300,12.7054072265625,0.2654266357421875,0.6847381591796875,-0.1352691650390625
1757089343030362000,12.715362060546875,0.2547149658203125,0.6683807373046875,-0.125030517578125
1757089343040317200,12.725317138671874,0.2489166259765625,0.6286468505859375,-0.1381988525390625
1757089343050271000,12.73527099609375,0.254119873046875,0.5855255126953125,-0.1626434326171875
1757089343060226300,12.745226318359375,0.273406982421875,0.552764892578125,-0.1851654052734375
1757089343070180000,12.75518017578125,0.2933197021484375,0.53363037109375,-0.20587158203125
1757089343080135200,12.76513525390625,0.3075714111328125,0.53436279296875,-0.2233428955078125
1757089343090090000,12.775090087890625,0.32745361328125,0.553924560546875,-0.242462158203125
1757089343100044000,12.7850439453125,0.34515380859375,0.590911865234375,-0.258880615234375
1757089343109999000,12.7949990234375,0.361175537109375,0.6407470703125,-0.260528564453125
1757089343119953200,12.804953125,0.381744384765625,0.702362060546875,-0.2645721435546875
1757089343129908000,12.814907958984374,0.430023193359375,0.7723388671875,-0.296051025390625
1757089343139862000,12.824862060546875,0.494537353515625,0.8671722412109375,-0.2975006103515625
1757089343149817000,12.834817138671875,0.581817626953125,0.981597900390625,-0.2974853515625
1757089343159772200,12.844772216796875,0.669403076171875,1.102081298828125,-0.3061065673828125
1757089343169726200,12.854726318359376,0.7633819580078125,1.1995086669921875,-0.291595458984375
1757089343179681000,12.864680908203125,0.82843017578125,1.26470947265625,-0.2739715576171875
1757089343189635000,12.874635009765624,0.834503173828125,1.2847900390625,-0.2703857421875
1757089343199590100,12.884590087890626,0.7989044189453125,1.2744140625,-0.3014678955078125
1757089343209545200,12.894545166015625,0.7521514892578125,1.22039794921875,-0.335693359375
1757089343219499000,12.9044990234375,0.6934051513671875,1.148834228515625,-0.3377685546875
1757089343229454000,12.9144541015625,0.6410064697265625,1.0778961181640625,-0.3286590576171875
1757089343239408000,12.924408203125,0.5938568115234375,1.0069732666015625,-0.3533782958984375
