time,seconds_elapsed,gyro_x,gyro_y,gyro_z,acc_x,acc_y,acc_z,grav_x,grav_y,grav_z
1757089330335747600,0.02074755859375,0.5482932925224304,-0.1352002918720245,-0.2512339949607849,0.6872375832736491,0.1070389636136591,-0.2372236788846552,-9.563440963095426,-1.7813341120816766,1.2400948992826044
1757089330345701400,0.030701416015625,0.5231198072433472,-0.1614036560058593,-0.2265646159648895,0.6933002443134785,0.119627080899477,-0.1558430342711508,-9.569503624135256,-1.7651918094456194,1.21617509451285
1757089330355656400,0.040656494140625,0.5029492974281311,-0.137216031551361,-0.2242327481508255,0.7003887412697076,0.1575292337924242,-0.0469783165350556,-9.575245382657648,-1.74997261300385,1.192753448523581
1757089330365611300,0.050611328125,0.4853807091712951,-0.11512191593647,-0.2470589727163314,0.8435866673707961,0.2302650919184088,0.0303884893272072,-9.58077671329975,-1.7333748216852545,1.1723985696937889
1757089330375565300,0.0605654296875,0.4668906331062317,-0.1187176182866096,-0.2879905104637146,1.1934054826915264,0.2896991315312683,0.1649894136052578,-9.58672831518054,-1.7133512937016784,1.1530186003107576
1757089330385520400,0.070520263671875,0.4393253326416015,-0.0942772552371025,-0.3531748056411743,1.7197335420846938,0.412458080715686,0.4045029569927603,-9.59336497671604,-1.6879690151639282,1.1351183480914682
1757089330395474400,0.080474365234375,0.410418689250946,-0.1100865602493286,-0.4682952463626861,2.413399697101116,0.5708271263331175,0.6510005140487104,-9.601241993701455,-1.6537544647425413,1.1187633525528011
1757089330405429200,0.09042919921875,0.3784695565700531,-0.2414893209934234,-0.6303483247756958,3.113918786752224,0.7947416801810264,0.8405592093084007,-9.611931145498156,-1.6057773464284837,1.0966492089655249
1757089330415384300,0.10038427734375,0.36804860830307,-0.4416894018650055,-0.8218397498130798,3.5379859105885028,1.0504540786974133,1.094842890195921,-9.627039282780885,-1.5403675934068857,1.057245054011792
1757089330425338600,0.110338623046875,0.2993688881397247,1.241020917892456,-0.8029496669769287,2.013808258351684,1.333157213861495,0.6586270634043961,-9.638143445119262,-1.4624441035099327,1.0666945079457013
1757089330435293400,0.12029345703125,0.0355418249964714,2.1181881427764893,-0.5778266787528992,-7.646511362740397,0.5174444957137108,-2.440805590420961,-9.624511225607993,-1.4006056331038474,1.255975043851137
1757089330445247500,0.13024755859375,-0.2416647523641586,1.0815600156784058,-0.7255804538726807,-1.5518284602284431,-0.9258174990728496,-0.9812254980400203,-9.612932431495189,-1.3377505330011248,1.4044006414726375
1757089330455202300,0.140202392578125,-0.6774089932441711,0.70911705493927,-0.7089827656745911,3.51533159570992,-2.1233057210333643,0.3479123971775174,-9.609621699512005,-1.2605989042595027,1.4954730974085628
1757089330465157600,0.15015771484375,-0.7915360927581787,0.1638798266649246,-0.5503103137016296,1.841270255997777,-1.920353437323868,-1.8648840635582804,-9.610454643204807,-1.1886669829275458,1.5481012563988563
1757089330475111400,0.160111328125,-0.7294671535491943,-0.2306693494319915,-0.3806946575641632,2.4877011971086262,-0.6372820044934749,-1.806955167811364,-9.616884968513247,-1.1326314997117966,1.5501768936291336
1757089330485066500,0.17006640625,-0.6833853721618652,-0.3580126464366913,-0.2267048209905624,2.227909858715534,0.694004300929606,-0.7623115289583802,-9.624795303246378,-1.0926388042803854,1.529653014907986
1757089330495021300,0.180021240234375,-0.7172951102256775,-0.594046413898468,-0.0456800200045108,1.5804466519474982,2.077878871724009,0.3766268888778984,-9.633194298279284,-1.0687227989029138,1.4932446077041328
1757089330504975400,0.189975341796875,-0.7178050875663757,-0.8563675284385681,0.1565444469451904,0.4936620535880326,2.604367090114951,1.1400289895519613,-9.643402388560771,-1.0635486111354082,1.4296974336840211
1757089330514930400,0.199930419921875,-0.5776801705360413,-0.813179075717926,0.3470129668712616,-0.6114736094981431,2.553035254545509,1.7190448291681706,-9.6524689075917,-1.0786558716353027,1.355259740076214
1757089330524884500,0.209884521484375,-0.2740539908409118,-0.6486596465110779,0.5662680864334106,-1.0198550884246826,2.124428149192035,1.932459908572584,-9.657386490249634,-1.116169828928262,1.2881902371488512
1757089330534839300,0.21983935546875,0.1348473131656646,-0.1983732283115387,0.9983593225479126,-1.2214765619218348,1.385201435483992,2.258667838942259,-9.653286653715371,-1.1903732753887772,1.2519799828656015
1757089330544794400,0.22979443359375,0.5373870730400085,-0.0730267614126205,1.3665571212768557,-1.366126440396905,1.1238700280420482,2.2274355192020536,-9.640167644423244,-1.3086723225548862,1.234879210460931
1757089330554748200,0.239748046875,0.8820861577987671,0.4657901525497436,1.5764788389205933,-0.9852543151646852,0.8821123589895665,1.6403171832814811,-9.617767012044787,-1.4598631471060215,1.2400570514902471
1757089330564703000,0.249702880859375,1.1366755962371826,1.4750109910964966,1.478700041770935,-0.3538023319989443,0.4183516687989235,1.553032429190725,-9.581984335523844,-1.620540031274408,1.31522101354599
1757089330574657000,0.259656982421875,1.5038107633590698,2.7630410194396973,1.221055269241333,0.9363923768401146,-0.9740810331128535,1.981268070883304,-9.529331772744657,-1.7672798677660524,1.4963098404936492
1757089330584611800,0.26961181640625,1.837798833847046,3.4053471088409424,0.9730367064476012,2.706543269997835,-2.441655923639982,2.9540982271522283,-9.45864086444974,-1.89813386060074,1.7611321587912738
1757089330594567200,0.279567138671875,2.0288078784942627,3.531478881835937,0.660256564617157,3.970999726468325,-1.787632189312577,2.7851450975477694,-9.376508524686098,-2.0124147581666705,2.049795517534017
1757089330604521000,0.28952099609375,2.063992977142334,3.701272010803223,0.2475010007619857,4.340822634419799,-1.1001971837706863,1.939057114880532,-9.288440365132688,-2.0996533350281417,2.342374003893882
1757089330614476000,0.29947607421875,2.106755018234253,3.575702428817749,-0.3789031207561493,4.183385170564055,-0.8690575009748339,1.424308872513473,-9.197291775220632,-2.1477860822953283,2.6395488781332967
1757089330624430800,0.309430908203125,2.3667750358581543,2.785789966583252,-1.0495264530181885,4.857108023226261,0.2315828965187072,1.282364745865762,-9.125520085951685,-2.142006183719635,2.8821994043722747
1757089330634385000,0.319385009765625,2.6366970539093018,0.8440762758255005,-1.4412145614624023,3.6437656679213046,1.2364845998309553,1.6683619590267538,-9.094016109663247,-2.102287775184959,3.008262071277201
1757089330644340000,0.329340087890625,2.4319863319396973,-0.033505342900753,-1.7483675479888916,-0.2665834827512502,1.890856709204614,3.1830931530043483,-9.122876877966522,-2.03391025839895,2.967610911937058
1757089330654294000,0.3392939453125,1.842168092727661,1.0749605894088743,-1.9141197204589844,-0.5564385354965925,1.2683970107898117,1.0391285286933185,-9.145764417079093,-1.9284486271046104,2.9675679495781657
1757089330664248800,0.349248779296875,0.925274133682251,1.8697139024734497,-1.5281922817230225,0.6505337002545595,0.0114542909502983,0.1580985581129789,-9.131095255735517,-1.8123428521990772,3.0836504897385835
1757089330674204000,0.359203857421875,0.0292837209999561,2.0382118225097656,-1.0295724868774414,1.3839438366383314,-0.6990238826572894,0.7004395946741103,-9.09177680630386,-1.7105904506862162,3.2532851718664166
1757089330684158200,0.369158203125,-0.6810727119445801,2.246711015701294,-0.4709952771663666,2.561732648003101,-0.5325029486358166,-0.28078590336591,-9.033409373009205,-1.6311071641266346,3.450708901412785
1757089330694113000,0.379113037109375,-1.1124279499053955,2.8221118450164795,0.130544826388359,2.3076146790713072,-0.1800011778414249,0.0175111067712306,-8.946885520288347,-1.5830290696561335,3.6902094391882416
1757089330704067800,0.38906787109375,-1.2743127346038818,3.520434617996216,0.7377690076828003,1.8542004647195336,0.6773072870202362,-0.4433206903606653,-8.818484181302786,-1.575432330916822,3.9903301576212047
1757089330714022000,0.39902197265625,-1.3179640769958496,3.793276786804199,1.2147918939590454,1.8658423871964216,1.8908987947806717,-1.2636726126164195,-8.649663153645395,-1.607784448467195,4.332290952917933
1757089330723977200,0.408977294921875,-1.3005485534667969,4.164840698242188,1.5645201206207275,2.2352608060002326,3.0538714375466105,-1.7490598820731045,-8.450608315765857,-1.6667309968240558,4.688241695122421
1757089330733931000,0.418930908203125,-1.2045694589614868,4.874682903289795,1.9620057344436648,2.0363094284951684,3.698993634146452,-2.602569100782275,-8.199583052152395,-1.7526573220431805,5.085805135175585
1757089330743886000,0.428885986328125,-1.6269478797912598,4.759984970092773,1.809370875358581,2.537557407167554,3.975479794491827,-3.7227217157363888,-7.916131436708569,-1.8305745283298196,5.4912885545730585
1757089330753841000,0.4388408203125,-1.93822717666626,5.285605430603027,2.0920727252960205,2.7159815449506044,3.791369135504961,-3.780499366444349,-7.592820689085125,-1.8787011381171643,5.915229421681166
1757089330763795000,0.448794921875,-2.5972671508789062,5.37592077255249,2.355651378631592,1.148549272876978,4.097852666968107,-4.13841088732779,-7.225631636768579,-1.9052130052067335,6.3506532213121645
1757089330773750000,0.45875,-3.229522943496704,5.522200107574463,2.670216560363769,1.6158347761929035,4.136366229757666,-4.853011693823337,-6.820529325643181,-1.8900063759855923,6.788124601122736
1757089330783704000,0.4687041015625,-3.796011924743652,5.426495552062988,2.9677515029907227,1.5788158358752726,4.165919071978331,-5.113733006542921,-6.386372184947133,-1.829926293554157,7.213598084625601
1757089330793659000,0.478658935546875,-4.220133304595947,5.405550003051758,3.2259480953216557,1.4279519051909446,4.446088597011566,-5.257926373422146,-5.932492691171169,-1.7231329752646385,7.616215008676051
1757089330803614000,0.488614013671875,-4.42517614364624,5.616653919219971,3.416149139404297,1.1733002677738666,4.933664024162292,-5.325098459941149,-5.450542118164897,-1.5742995274946092,7.9989728015244
1757089330813568000,0.498568115234375,-4.422085285186768,5.975822448730469,3.487999439239502,0.9641291095495224,5.287268203240632,-4.731937336724997,-4.927430098208784,-1.3920514475092292,8.363791617578267
1757089330823523000,0.508523193359375,-4.3811774253845215,6.244240760803223,3.4387545585632324,0.7895584323242306,5.167230787974596,-3.880991538763046,-4.3623055674314495,-1.1787903165575115,8.703511648210883
1757089330833478000,0.518477783203125,-4.4300856590271,6.120263576507568,3.33545184135437,0.4654974508553743,4.471341696211695,-3.2378286595374344,-3.77892261864692,-0.9283723711874337,9.001569881156087
1757089330843432000,0.528431884765625,-4.592435836791992,5.588860511779785,3.176604747772217,-0.0806485309466719,3.5951404609620567,-2.773801281234622,-3.220058025047183,-0.6326152547914534,9.241289322379233
1757089330853386800,0.53838671875,-4.876559734344482,4.926301002502441,2.905189514160156,-0.6240837924852967,3.10900178861618,-2.320977433991432,-2.717623174677789,-0.2841433057687245,9.418290149360894
1757089330863341000,0.548341064453125,-5.350997924804688,4.194911956787109,2.453209400177002,-0.4013438353747129,4.107812335446477,-2.4123966575384137,-2.2834539051525296,0.1312713049313053,9.536194059729576
1757089330873296100,0.558296142578125,-5.740591526031494,2.950833320617676,1.9642977714538572,-0.1748367808155715,5.047155963307619,-1.5595155075997114,-1.948072049854696,0.6134848762553184,9.59161258009076
1757089330883251000,0.5682509765625,-6.0279035568237305,1.4182389974594116,1.393166422843933,-0.9798176770687104,3.18607304559797,0.9228092571675776,-1.7533130094729363,1.145486670435965,9.58040378833413
1757089330893205000,0.578205078125,-6.039979934692383,-0.2719042897224426,0.6937696933746338,-1.7153909828357397,1.1749984499938786,3.9177088657855994,-1.712207822754979,1.703131074590981,9.504633384817838
1757089330903160000,0.58816015625,-5.546350002288818,-2.1174328327178955,-0.1150993928313255,-2.1157989986650643,-0.0364155675970017,8.104546222630143,-1.829096856992692,2.246113770056516,9.369085096687078
1757089330913115100,0.598115234375,-4.50409460067749,-3.857841730117798,-0.844184398651123,-2.092873465629667,-0.4182254120707511,11.95632978708744,-2.0948843670606614,2.722793855313957,9.185217891067266
1757089330923069000,0.60806884765625,-3.367650985717773,-4.775843620300293,-1.2573788166046145,-2.2538757823601365,0.175083010661602,13.497433439683912,-2.460157356622815,3.101381669001281,8.972147971838712
1757089330933024000,0.61802392578125,-2.66947340965271,-4.4010443687438965,-1.2375377416610718,-2.9451041888356206,0.1791889846757054,12.21226503457427,-2.831056953895092,3.3986461212202905,8.752412164980173
1757089330942977800,0.627977783203125,-2.418644666671753,-2.873236894607544,-0.733098566532135,-4.251766925133764,-0.2748018605202436,9.305942704075576,-3.113695207129419,3.6459874356240034,8.5546514585644
1757089330952933000,0.63793310546875,-2.385420799255371,-0.8045090436935425,0.1827378571033477,-5.373442511871457,-0.5437327831804752,6.764642603248357,-3.2591505567684766,3.857307880836725,8.40651549153924
1757089330962888000,0.647887939453125,-2.4255058765411377,1.1130497455596924,1.253931760787964,-5.700832637763023,-0.4931117262288927,5.537092858892679,-3.272335909295082,4.033986343996227,8.31800251082778
1757089330972842000,0.657842041015625,-2.4311861991882324,2.4005188941955566,2.1421730518341064,-5.504368985420465,-0.2292766654029488,5.742666869407892,-3.1939149912700056,4.179709404660761,8.27643131403327
1757089330982796800,0.667796875,-2.323550224304199,3.0001535415649414,2.7087888717651367,-4.833790276002883,-0.2208221407905221,6.674675332075357,-3.0718638980939983,4.299793873938918,8.261102811998128
1757089330992752000,0.677752197265625,-2.111973285675049,3.0600101947784424,2.908937692642212,-3.5848464459627865,-0.962962403857708,7.24172527795732,-2.9429443804532287,4.397893890424072,8.256391565567254
1757089331002706200,0.6877060546875,-1.8302901983261108,2.671959638595581,2.7365801334381104,-1.912615828809142,-1.8095494220882653,7.248763506031036,-2.831045847979188,4.478485722747445,8.252195867443085
1757089331012661000,0.697660888671875,-1.5146633386611938,1.9399842023849487,2.2620420455932617,-0.0213484929770231,-2.188768811677396,6.8217071372509,-2.753530938883125,4.546159913569689,8.241412607622147
1757089331022615000,0.707614990234375,-1.2196459770202637,1.031323790550232,1.603725790977478,1.7302049594774842,-2.051051947335899,5.875967670872807,-2.719758140879869,4.605066276046633,8.219894018775225
1757089331032569900,0.71756982421875,-1.0277128219604492,0.085538737475872,0.932506263256073,3.107461573436856,-1.8255372648149728,4.381618170666695,-2.732769013622403,4.66191804408133,8.183451417040825
1757089331042525000,0.72752490234375,-0.9810230135917664,-0.6010998487472534,0.3859595656394958,3.759561792355776,-1.4543626499935984,2.487161683404445,-2.7861691798985,4.724842117767036,8.129177390539645
1757089331052479000,0.73747900390625,-1.1042859554290771,-0.965008020401001,-0.0005012420006096,3.7739024523973455,-1.0562544355392456,0.8811457059144974,-2.8591674883529543,4.803180033683777,8.057606192278861
1757089331062434000,0.74743408203125,-1.2181228399276731,-1.0120961666107178,-0.2207023203372955,3.652526189742982,-0.8163926632359624,-0.0381178414702415,-2.933816778884828,4.8997030101105565,7.972201698976755
1757089331072388900,0.757388916015625,-1.279771327972412,-0.7533184885978699,-0.2521736621856689,3.08269684227556,-0.2522264560967683,-0.3047702978044748,-2.992614712551236,5.005613992607593,7.884063981318473
1757089331082343000,0.767343017578125,-1.3198736906051636,-0.2872306704521179,-0.1450868844985962,2.363151272854209,0.038797640427947,-0.1514876155406236,-3.0235020182460546,5.113524332228303,7.802607933381199
1757089331092298000,0.777298095703125,-1.3029004335403442,0.1102556809782981,-0.0109423398971557,1.773766161045432,0.0719996528059244,0.0722398913025856,-3.025634646360576,5.21739036489427,7.73270729868114
1757089331102252000,0.787251953125,-1.275487780570984,0.2889516651630401,0.0625883340835571,1.6177058307617902,0.0380991367697715,0.35571254953444,-3.010682576422393,5.315335775339603,7.671596704158186
1757089331112206800,0.797206787109375,-1.266036033630371,0.1794712841510772,0.0363707840442657,1.666952384489775,0.1158557456672191,0.7452496272593736,-2.9946868426501747,5.410260961180925,7.6112623547047376
1757089331122162000,0.807161865234375,-1.2824232578277588,-0.0956985056400299,-0.0860890820622444,1.8005051148891449,0.3087392014354467,0.8186205684185027,-2.9901240647792813,5.506926268687844,7.54342800488472
1757089331132116000,0.817115966796875,-1.308468222618103,-0.3786783814430237,-0.2385993748903274,1.8343305198624729,0.344815307945013,0.5621989987194538,-2.998959405402839,5.6085161731153725,7.4646607576400035
1757089331142071000,0.827071044921875,-1.3010939359664917,-0.5988253951072693,-0.3545331656932831,1.732525219118595,0.2762286784529685,0.4088648785293102,-3.0186604234337806,5.714213512861728,7.376031457072496
1757089331152025000,0.837025146484375,-1.2224050760269165,-0.6910619139671326,-0.4150691032409668,1.2855793239980935,0.1455231541782617,0.7156950314730406,-3.044120735643804,5.818283543667197,7.283631990316509
1757089331161980000,0.84697998046875,-1.1168296337127686,-0.6971885561943054,-0.4210689663887024,0.6009288346081971,-0.0237444482028484,1.1164520068705082,-3.0696500214368103,5.9154258210361,7.194121230739355
1757089331171935000,0.85693505859375,-1.047029733657837,-0.7132745385169983,-0.3685845732688904,0.0117819154694676,0.0115156657487154,1.226820845559239,-3.096111619643867,6.004364918205142,7.108591649752855
1757089331181889000,0.866888916015625,-1.0278466939926147,-0.7781632542610168,-0.2802669405937195,-0.4452294465914368,0.116889180368185,1.1286129847854376,-3.128715081606805,6.087385146719217,7.023194170713424
1757089331191844000,0.876843994140625,-1.0176066160202026,-0.8697933554649353,-0.1678440421819687,-0.7541770300805568,0.130045014539361,0.9574825111418962,-3.172164054971933,6.165508250841498,6.935003261563182
1757089331201798000,0.8867978515625,-1.0022406578063965,-0.96125328540802,-0.0530045330524444,-0.8797510366857051,-0.1023936220258474,0.8967056786179542,-3.2282498070701955,6.238433201798796,6.843299375855922
1757089331211753000,0.8967529296875,-0.9483579993247986,-1.0276696681976318,0.053734365850687,-0.9531383444577456,-0.2823597285538912,1.226699849528074,-3.295821414300799,6.304525091865658,6.749882256489991
1757089331221708000,0.9067080078125,-0.8612398505210876,-1.0753504037857056,0.1326390206813812,-0.9300827553018928,-0.336911402952671,1.7941279810726642,-3.371849007448554,6.361919880735874,6.657853376612067
1757089331231662000,0.916662109375,-0.7413008213043213,-1.1316848993301392,0.1809657216072082,-0.7399556125044823,-0.33633506436944,2.4125696760177613,-3.454685696089268,6.409377212959528,6.56927785205841
1757089331241617000,0.926616943359375,-0.6156193614006042,-1.135954976081848,0.193158745765686,-0.3061886401697993,-0.4852963763028383,2.6061452057033776,-3.54069458502531,6.4468579255700105,6.486283927029371
1757089331251572000,0.936572021484375,-0.4888201057910919,-1.0883572101593018,0.1828565448522567,0.1329620710298419,-0.796314628586173,2.569160167655349,-3.624455987295508,6.475659657162428,6.410891124653816
1757089331261525800,0.94652587890625,-0.325700432062149,-0.9994049668312072,0.1495539844036102,0.5080348623335361,-1.0406909557044506,2.573798348850012,-3.701749947117269,6.495579578641057,6.346248848873376
1757089331271481000,0.956481201171875,-0.115583635866642,-0.8982561826705933,0.0588397607207298,0.8679162219852209,-1.2819389216691257,2.671460850700736,-3.7684915332645175,6.505637446796894,6.296470380225777
1757089331281435100,0.96643505859375,0.1340466886758804,-0.812725305557251,-0.0911585316061973,1.120547751751542,-1.4332880055218935,2.671625101351738,-3.820908241461217,6.505702913248538,6.2647325951814645
1757089331291390000,0.976389892578125,0.3729179501533508,-0.7563291788101196,-0.2780590951442718,1.156034952457249,-1.3082353924423455,2.387853167912364,-3.857891233682632,6.496769080686569,6.251323663032054
1757089331301344800,0.9863447265625,0.5408124327659607,-0.7212377786636353,-0.4737077057361603,0.9577481763407588,-1.0280869101971388,1.7132658073753118,-3.8795717350929975,6.482526620322465,6.252691444253921
1757089331311299000,0.996299072265625,0.6514208912849426,-0.6591740846633911,-0.6272269487380981,0.5428405105158687,-0.7193097148388624,0.9168021257072688,-3.886941094817221,6.46659021552205,6.2646051694095135
1757089331321254000,1.00625390625,0.7069613933563232,-0.585292398929596,-0.7053393721580505,-0.0610071341484785,-0.331844182690978,0.255317407849431,-3.88284125828296,6.449926665490866,6.284294789263606
1757089331331209000,1.016208984375,0.7353683710098267,-0.4737103879451751,-0.7137476205825806,-0.8252531383007764,0.0701578243315219,-0.1011941831082105,-3.8703748676806686,6.432194609445333,6.3101072759121655
1757089331341163000,1.0261630859375,0.7006034851074219,-0.3398388922214508,-0.6157872080802917,-1.8044497608616947,0.586846533241868,-0.3720762398362159,-3.852899124483764,6.412451798099279,6.340819809561968
1757089331351118000,1.0361181640625,0.5681885480880737,-0.2451206892728805,-0.3850980103015899,-2.78231864195019,0.7902356009334325,-0.9024012599110602,-3.838846049211919,6.391470969390869,6.370457991978526
1757089331361072000,1.046072021484375,0.3755570352077484,-0.2088513672351837,-0.0596698708832263,-3.452318382436037,0.761262019905448,-1.5236749634116886,-3.838474585551024,6.370017262473702,6.392134401735663
1757089331371027000,1.05602685546875,0.1734793484210968,-0.2332516014575958,0.3089315295219421,-3.668074472008645,0.6450047077000141,-1.8880811070114372,-3.8603427184879777,6.347859206679463,6.401001014280319
1757089331380982000,1.06598193359375,-0.0078004184179008,-0.1905387639999389,0.6623836159706116,-3.6834807154551146,0.659684390437603,-1.7220839046031235,-3.904941446410119,6.323752354905009,6.39780952476263
1757089331390935800,1.075935791015625,-0.1965741664171219,-0.1683939844369888,0.9277925491333008,-3.5025510245919227,1.0145885461986064,-1.523739845341444,-3.9664600372120735,6.298799699956178,6.38456776587367
1757089331400891100,1.08589111328125,-0.4103991091251373,-0.1638905853033065,1.0949828624725342,-2.804329690489173,1.2545716067939996,-1.577690631237626,-4.04084278576225,6.277437762975692,6.358911931091547
1757089331410845000,1.095844970703125,-0.6087760925292969,-0.1079555377364158,1.1749415397644043,-1.91034379222393,1.064701945888996,-1.4569085350841282,-4.120650774231553,6.263501007559896,6.321328342628479
1757089331420800000,1.105800048828125,-0.7348954081535339,-0.0770804435014724,1.1735851764678955,-1.0764075812518596,0.6374690514981747,-1.0265285748392343,-4.199664397452771,6.257083541733026,6.275516439524292
1757089331430754800,1.1157548828125,-0.7568970322608948,-0.1130264475941658,1.0904359817504885,-0.1436696352660655,0.1823047786086797,-0.5518547148376703,-4.2763264891117805,6.256002760758996,6.224616857892275
1757089331440708900,1.125708984375,-0.6739289164543152,-0.1440669149160385,0.9367213249206544,0.5632189894169569,-0.0283440509527921,0.0611895049780607,-4.347554280762374,6.256859669849276,6.174209443691373
1757089331450664000,1.135663818359375,-0.5256781578063965,-0.1703971922397613,0.7438920140266418,1.045076623442769,-0.2228629989683627,0.7714338698297739,-4.409678143981099,6.256999370580911,6.129852415570617
1757089331460619000,1.145618896484375,-0.3564880788326263,-0.2014983892440796,0.5525771975517273,1.3316656601294874,-0.3011094372093677,1.1769739878505467,-4.461336142764985,6.255189690810441,6.094215869522095
1757089331470573000,1.155572998046875,-0.2347778677940368,-0.2519294023513794,0.386601448059082,1.3709019842356442,-0.1914806032329797,1.173985911950469,-4.504013839496672,6.251953193107247,6.06607990836203
1757089331480528000,1.16552783203125,-0.2017099261283874,-0.2934917509555816,0.2511259019374847,1.3353385034233332,-0.0431850617319345,0.902500628632307,-4.540276700749993,6.250601778498291,6.040384910613298
1757089331490482200,1.175482177734375,-0.1968681067228317,-0.3016620278358459,0.1562874764204025,1.2569061872214078,0.1051911437898874,0.4581108477354049,-4.570780852346122,6.253509774899483,6.014314649811387
1757089331500437000,1.18543701171875,-0.1682740151882171,-0.2677594423294067,0.0956462398171424,1.2417530417531728,0.1395645380347967,0.1739642357647418,-4.595730584685504,6.258790345650911,5.989758885225653
1757089331510392000,1.19539208984375,-0.1433264166116714,-0.177265390753746,0.0648414939641952,1.2223656197160482,0.0861228707045316,0.0222241067677736,-4.614200891877711,6.264346810734272,5.969714460584521
1757089331520345900,1.205345947265625,-0.1286396086215973,-0.0233866199851036,0.0704999044537544,1.0698352171242236,0.0683043054193258,-0.1658352898448705,-4.624326564572751,6.269446179699897,5.956511280140281
1757089331530301200,1.21530126953125,-0.0952247902750969,0.1395588368177414,0.093135580420494,0.8578402336508035,0.0050976153999567,-0.2306003152221441,-4.626014371529221,6.272349499925971,5.952143732580542
1757089331540256000,1.225256103515625,-0.0594015456736087,0.2579073309898376,0.1089648753404617,0.6653533759847283,-0.1193055938601493,-0.178477329275012,-4.620424588698149,6.272253638336062,5.956583176332712
1757089331550210000,1.2352099609375,-0.0205895975232124,0.3198466897010803,0.1073924973607063,0.4246113137155771,-0.205663442364335,-0.092082655891776,-4.609825453272461,6.269577697125077,5.967603167518973
1757089331560165000,1.2451650390625,0.0158823933452367,0.311983197927475,0.084021657705307,0.2388087561190128,-0.2357406007200479,0.0259153625011444,-4.597003673361241,6.265238206616044,5.982034428453445
1757089331570119200,1.255119140625,0.0454993322491645,0.2911831736564636,0.0467005930840969,0.0608224252313375,-0.2394669277667999,0.1250993748307228,-4.583020448455215,6.2604346057266,5.997772095811366
1757089331580074000,1.265073974609375,0.0765169039368629,0.2424241453409195,0.0188239570707082,-0.1480845290988683,-0.2209615492612123,0.2150315746903419,-4.569091291823983,6.25539719608128,6.013633681809901
1757089331590029300,1.275029296875,0.0975256413221359,0.1898042410612106,0.0207033697515726,-0.5655228824451566,-0.0386100089013576,0.3077601272702217,-4.557020914801955,6.24931816842854,6.029092532226443
1757089331599983000,1.284983154296875,0.0831959769129753,0.0884784162044525,0.0761301442980766,-1.002721582794189,0.267328163638711,0.3028963206261396,-4.551227718353271,6.241757962307333,6.041289165976643
1757089331609938200,1.294938232421875,0.0469827055931091,0.0038064518012106,0.1715896874666214,-1.2710653532162308,0.3954904331713915,0.1781944206804037,-4.556421487604081,6.2322577280342575,6.047178224015235
1757089331619892200,1.304892333984375,0.0148993395268917,0.0020064213313162,0.3000054359436035,-1.480878024214506,0.4766080429345369,0.1673895335495472,-4.570765947037935,6.219823778396845,6.049155077046156
1757089331629847000,1.314846923828125,-0.0147954327985644,0.0079469215124845,0.4642203450202942,-1.6315063925772904,0.5451847355544567,0.3164747641235589,-4.594016766504943,6.202423730784655,6.04940817502439
1757089331639802000,1.324802001953125,-0.0537854433059692,0.0500743985176086,0.6450939774513245,-1.5695751293212177,0.6160679515510797,0.3887058875977993,-4.626619059424102,6.1791252727836365,6.048404550939798
1757089331649756200,1.334756103515625,-0.0823433250188827,0.1633384376764297,0.8569456338882446,-1.583899130488932,0.7432517314404249,0.4632178154855966,-4.666313648691773,6.1486073849231,6.049009531095623
1757089331659711200,1.344711181640625,-0.0941624343395233,0.29999640583992,1.0584161281585691,-1.6802537646114826,0.7836842795938253,0.6716524761289357,-4.711217497040331,6.109072662392259,6.054258537665009
1757089331669666000,1.354666015625,-0.0742082372307777,0.4623922109603882,1.173457384109497,-1.3358967218279838,0.6680442225039005,0.9486369413852692,-4.756149110178649,6.061458093780279,6.066972473287582
1757089331679620000,1.3646201171875,-0.0240422710776329,0.5262441635131836,1.165066838264465,-0.861209417822957,0.4845861822068691,1.3493822263449429,-4.796439034990966,6.008339082533121,6.088055593326687
1757089331689575200,1.3745751953125,0.0225934386253356,0.4690107703208923,1.004793643951416,-0.0066501055389642,0.2038350578933954,1.5557225450575352,-4.831133624014258,5.955996900877357,6.112007546800375
1757089331699529200,1.384529296875,0.0824746116995811,0.3678932189941406,0.7605242133140564,0.8825994118541478,-0.0583639261633157,1.832898148971796,-4.857722355732322,5.9102416963964695,6.135304251235723
1757089331709484000,1.394484130859375,0.1669823974370956,0.2288269102573394,0.5486603379249573,1.206438859526813,-0.1061333930760621,2.4101906719267365,-4.877348554961383,5.871221353128552,6.157160693734884
1757089331719439000,1.404439208984375,0.2841438949108124,0.0335088223218917,0.4190610647201538,1.1943708205923438,0.1380272454649209,2.853445311313868,-4.89685375815928,5.834308211272955,6.176734578254819
1757089331729393200,1.41439306640625,0.4451407194137573,-0.175801396369934,0.3692524135112762,0.9903875863999128,0.2623620656639337,3.101588297489285,-4.923911276432872,5.792872623556852,6.194198923274874
1757089331739348200,1.42434814453125,0.6202859282493591,-0.3676595091819763,0.3347463607788086,0.855054986846447,0.0981242741435766,3.116459118884802,-4.960961196410656,5.742679728889465,6.211350549083948
1757089331749303000,1.434302978515625,0.7902225852012634,-0.568118691444397,0.2732090055942535,0.8923100740075111,-0.1503144801080226,2.9536423000782728,-5.007195124319195,5.683763429540395,6.228420341828465
1757089331759257000,1.444257080078125,0.9511702060699464,-0.824402928352356,0.1629330813884735,1.0904431208670138,-0.3295616247117519,2.668205063775181,-5.062573897191882,5.618651782682537,6.242714240118861
1757089331769212200,1.454212158203125,1.1126329898834229,-1.1069217920303345,0.0081824380904436,1.4374071312785148,-0.3803577459692955,2.4963930376082657,-5.127469855472445,5.550037096139788,6.251122002980113
1757089331779166200,1.464166259765625,1.2827945947647097,-1.3730980157852173,-0.1696474850177765,1.818276333901286,-0.3685235157907009,2.351216504910588,-5.2003848695576185,5.479694562891125,6.252945126754045
1757089331789121000,1.47412109375,1.463513731956482,-1.5793097019195557,-0.3104785680770874,1.9442787950515743,-0.367010773140192,2.260012385419011,-5.279252654567361,5.406954905372857,6.250178000128269
1757089331799076000,1.484076171875,1.6292965412139893,-1.7212200164794922,-0.3951148986816406,1.81377434630692,-0.2976993365049362,2.0317104102671144,-5.36317889201045,5.329563622656464,6.245194951018691
1757089331809030100,1.494030029296875,1.767383098602295,-1.7721495628356934,-0.4517294764518738,1.6871973001390694,-0.1798690758943557,1.5782850899994372,-5.449684624552726,5.24674739228189,6.240428759530186
1757089331818985200,1.503985107421875,1.8653377294540403,-1.7554118633270264,-0.5172237753868103,1.6310247465401886,0.0213683667212724,1.07131522654891,-5.534470109173655,5.160132354146242,6.238032219782471
1757089331828940000,1.51393994140625,1.931367874145508,-1.7171915769577026,-0.5968216061592102,1.7675468481391667,0.1533914033353328,0.6147901867002249,-5.613831815180182,5.07315082078576,6.238462427893281
1757089331838894000,1.52389404296875,1.972784757614136,-1.7011390924453735,-0.6451542377471924,1.6953168937087058,0.1785802051275968,0.276537306010723,-5.688695040723681,4.986909876659512,6.24018033772707
1757089331848849200,1.53384912109375,1.991771936416626,-1.7098453044891355,-0.6653870344161987,1.3612404219210148,0.2887394927188754,-0.1023790089786052,-5.762231986099481,4.901141518481076,6.240663152807951
1757089331858803000,1.543802978515625,1.996427178382873,-1.6876801252365112,-0.6585038304328918,0.9588491233199834,0.5037631763637066,-0.4694686925739049,-5.8358379050582645,4.815554069827496,6.238896143135428
1757089331868758300,1.55375830078125,1.977952599525452,-1.6572792530059814,-0.63262939453125,0.4979027598977089,0.6889724442422389,-0.7936112148463725,-5.908798511850834,4.729854392971098,6.2357812259852885
1757089331878713000,1.563713134765625,1.935708999633789,-1.6871113777160645,-0.585847795009613,0.0613853198111057,0.8423851826265454,-1.0027677600234746,-5.9837424014151095,4.64437683443278,6.228561796125769
1757089331888667100,1.573667236328125,1.8688172101974487,-1.8003097772598269,-0.5507808923721313,-0.2439198155224323,1.0211047962248323,-1.113776065659523,-6.0656988000899545,4.56037811627537,6.211330675339698
1757089331898622000,1.5836220703125,1.7628990411758425,-1.8490560054779053,-0.5510480403900146,-0.1052864208579063,1.1933327097162605,-1.4789730673760175,-6.15390490680933,4.481673120611906,6.181783678337931
1757089331908576300,1.593576171875,1.6436951160430908,-1.8281019926071167,-0.5523942708969116,0.0443418305516242,1.2409922865137455,-1.954347769123316,-6.242481015884876,4.411119282700121,6.143602123981714
1757089331918531000,1.603531005859375,1.491899490356445,-1.7491906881332395,-0.5572308301925659,0.2851362075299024,1.1209911116048692,-2.424651743477583,-6.327502062827349,4.350208302402496,6.099900344899297
1757089331928486100,1.613486083984375,1.3232686519622805,-1.589730978012085,-0.5640261769294739,0.682254534164071,1.020477019715309,-2.904439000970125,-6.404845414748787,4.300636462242901,6.054160922509431
1757089331938440200,1.623440185546875,1.167918682098389,-1.2945590019226074,-0.5927531719207764,0.9358096085160972,0.9127809073671698,-3.2432886785089967,-6.467313269099593,4.262734309349954,6.014426878014207
1757089331948395300,1.633395263671875,1.0124187469482422,-1.1020286083221436,-0.6710264682769775,1.2434686134994029,0.6176350547373295,-3.172533472806215,-6.511310816258192,4.238404462474584,5.984074409848451
1757089331958350000,1.64335009765625,0.9348912239074708,-0.9662769436836244,-0.7353982925415039,1.425916599971056,0.537712792238593,-2.9293834726125,-6.5436722861588,4.226898149076104,5.956851471880078
1757089331968304000,1.65330419921875,0.8967875242233276,-0.7080528736114502,-0.6899029612541199,0.8112538390427827,0.9700319038525224,-2.948327827057242,-6.562724777153134,4.219549832139909,5.941079902252555
1757089331978259200,1.66325927734375,0.7961938381195068,-0.6154806017875671,-0.5703017115592957,-0.1645259608119726,0.753223674878478,-2.9924890403449536,-6.574702799716592,4.210554917040467,5.934214692658186
1757089331988213000,1.673212890625,0.6834017634391785,-0.5709786415100098,-0.4536467492580414,-0.6545429358959197,0.6746180479362607,-3.144497464889288,-6.588515636491775,4.200575082556903,5.925961243575811
1757089331998168300,1.683168212890625,0.6096782684326172,-0.4850538671016693,-0.3192766904830932,-1.09425478810966,0.9770756848841904,-3.088857995253801,-6.603402239978313,4.188114829434454,5.91820522262156
1757089332008123100,1.693123046875,0.5095944404602051,-0.4762155711650848,-0.1860500127077102,-1.4435077862411736,1.02355277389884,-2.948655159315466,-6.620911593183875,4.171415915828943,5.910432250532508
1757089332018077200,1.7030771484375,0.3704229593276977,-0.5100963115692139,-0.1082713231444358,-1.3074760985076426,0.9007590456619858,-2.8316449829161163,-6.643966890078783,4.155046672569215,5.8960734703123565
1757089332028032000,1.713031982421875,0.2425342202186584,-0.4748500883579254,-0.0799135863780975,-1.0265975484222174,0.8166042601600288,-2.462201429671049,-6.669414050546288,4.143283754061162,5.875584809035063
1757089332037987300,1.7229873046875,0.1378613412380218,-0.3564648628234863,-0.0531426966190338,-0.8404232349038123,0.6880377937406301,-2.174303356212377,-6.690986999928951,4.136877101889253,5.855538046306371
1757089332047941000,1.732941162109375,0.0710515230894088,-0.2323819398880005,0.022307813167572,-0.9972101258963346,0.4636395480290055,-1.8184756558656687,-6.707330816486477,4.132180176244676,5.840135894513129
1757089332057896200,1.742896240234375,0.0441607870161533,-0.1684631407260894,0.1041187942028045,-1.225726620581746,0.3481625725463032,-1.3204396249771118,-6.721227239891887,4.124655041436851,5.829469539070129
1757089332067850200,1.752850341796875,0.0374983251094818,-0.1736537218093872,0.1496966928243637,-1.1224492014586924,0.4160699876025319,-1.001308793386817,-6.736367525878548,4.113609915809333,5.819789272055029
1757089332077805000,1.76280517578125,0.0233793072402477,-0.21216781437397,0.1530285775661468,-0.9444880050122736,0.5159361369773745,-0.728609458103776,-6.753767573490738,4.101430817715824,5.80820697081089
1757089332087760100,1.772760009765625,-0.0127715095877647,-0.2448969036340713,0.1297503560781479,-0.7216495559632777,0.4908543026909231,-0.490746458402276,-6.772949828344583,4.09149803724438,5.792855672422051
1757089332097714200,1.782714111328125,-0.0665268823504448,-0.1848258376121521,0.1092259064316749,-0.5648527280986309,0.4565741396874189,-0.3278431303560734,-6.790583684712648,4.085675322440267,5.776297920852899
1757089332107669000,1.7926689453125,-0.1395304054021835,-0.0214710719883441,0.1042879596352577,-0.5611106189608573,0.4791127192318439,-0.2550684015244245,-6.801058901497721,4.084385282629728,5.764874609562754
1757089332117624000,1.8026240234375,-0.1997173130512237,0.1657379567623138,0.1444638818502426,-0.6809165635585784,0.4874862875625491,-0.2621492996960878,-6.801711227926612,4.086187071354687,5.762828198426962
1757089332127578400,1.812578369140625,-0.2091321647167205,0.3035358786582947,0.2367427498102188,-1.0454320127516985,0.5831424180269241,0.0245756383299827,-6.795728061863779,4.085400889413059,5.770439257952571
1757089332137533200,1.822533203125,-0.2034140974283218,0.4447001814842224,0.3565383851528168,-1.300011753976345,0.7557353654384612,0.4461322406500577,-6.786254715597629,4.077259960794448,5.787321419170499
1757089332147487200,1.8324873046875,-0.201162502169609,0.5489224195480347,0.4652371406555176,-1.4720722019463777,0.7602084191992878,0.5877841063529252,-6.774007228443026,4.061115466201305,5.812964394471049
1757089332157442000,1.842442138671875,-0.1788494735956192,0.5741391181945801,0.5375717878341675,-1.610039241656661,0.5720297801211476,0.7505185075730085,-6.7614359161615365,4.038304499456286,5.843411555182933
1757089332167397400,1.8523974609375,-0.1368546783924102,0.4643759131431579,0.559935450553894,-1.6098463494330644,0.3249871564030647,1.106403491064906,-6.7525014990776775,4.010462845067679,5.872843401372433
1757089332177351200,1.86235107421875,-0.057125236839056,0.2126677930355072,0.5260765552520752,-1.4451356797039507,0.1820145634904503,1.639371719124913,-6.754107180708647,3.979706764537096,5.891888878104091
1757089332187306200,1.87230615234375,0.0425837337970733,-0.0505739860236644,0.4644340872764587,-1.3086293601959944,0.2058110341414809,2.1132821935385464,-6.769107765963673,3.94678240005672,5.896818735721707
1757089332197261000,1.882260986328125,0.080365739762783,-0.235294297337532,0.3888746500015259,-0.9957067355960608,0.2355377716243266,1.9777146161854269,-6.794575969219207,3.9140623259767886,5.889332179358601
1757089332207215000,1.892215087890625,0.0607097819447517,-0.3004185855388641,0.3295027315616607,-0.4792459902226925,0.0804509625479578,1.3156179039090872,-6.824564864769577,3.88569372510463,5.873421493521333
1757089332217170200,1.902170166015625,0.0464405678212642,-0.3081095218658447,0.3327371180057525,-0.3856196120202541,-0.0941997941762208,0.9306102863073348,-6.8550441741853945,3.8604286432057617,5.854556634053588
1757089332227124200,1.912124267578125,0.0431987009942531,-0.2283012419939041,0.4126996099948883,-0.4256178604096174,-0.0244251239433884,0.90234573033154,-6.885226546481252,3.832701555107534,5.837330773964524
1757089332237079000,1.9220791015625,0.021093662828207,-0.0529949329793453,0.5671930909156799,-0.519417257091403,0.2847624057814478,0.7449836697995662,-6.9120350584298365,3.7973511325240135,5.828745900970697
1757089332247034000,1.9320341796875,0.0028917165473103,0.0973046869039535,0.7212653756141663,-0.3724889122903347,0.312686770017445,0.4655962350547313,-6.9346139699846505,3.752218443855643,5.831154131156206
1757089332256988200,1.94198828125,-0.0074786320328712,0.0979315936565399,0.8097398281097412,0.2760802098929882,-0.0148711136564612,0.2885772878944874,-6.956950304955243,3.6990985558256506,5.838484035652876
1757089332266943200,1.951943115234375,0.0083671025931835,-0.0995181575417518,0.8403107523918152,1.0895517249852418,-0.2483852704986929,0.3639192368656396,-6.9864704139500855,3.6417172109588978,5.839307626995444
1757089332276897300,1.961897216796875,0.064051404595375,-0.4139666557312011,0.7948650121688843,1.808089286407828,-0.4207692513346672,0.7772019318372011,-7.030890570434927,3.5823125435709957,5.822714219591021
1757089332286852000,1.97185205078125,0.1232459843158721,-0.6587176322937012,0.6846269369125366,2.5410984407752752,-0.5099535554364323,0.8491507312387228,-7.088585219034552,3.5248517037272453,5.787725908318162
1757089332296807200,1.98180712890625,0.1598386019468307,-0.776864230632782,0.5711293816566467,2.8822575643002986,-0.5976587268963456,0.4822089316815137,-7.151867312377691,3.472197095121443,5.741518283894658
1757089332306761000,1.991760986328125,0.1813348978757858,-0.7815612554550171,0.458443135023117,2.9949148061871527,-0.6449237514182925,0.161222243091464,-7.214694647690654,3.4256393420860167,5.69065552714169
1757089332316716300,2.00171630859375,0.2054458260536193,-0.5430826544761658,0.3340074419975281,3.172465668267012,-0.5651946734040976,-0.0547726236730813,-7.26595137219727,3.3863121248260137,5.648824802628159
1757089332326671000,2.011671142578125,0.2160915732383728,-0.2295348644256591,0.2604957222938537,3.0604104839265345,-0.5271060580283403,-0.2742015565395355,-7.297698509591817,3.3531618426352736,5.62763646864891
1757089332336625200,2.021625244140625,0.2115002870559692,0.1145679056644439,0.2512284517288208,2.599098794323206,-0.5747241337716579,-0.3775193076729774,-7.309092010265588,3.322818726819753,5.630846662867069
1757089332346580000,2.031580078125,0.191051036119461,0.3700549602508545,0.2609822452068329,2.01077458974421,-0.4858744684517383,-0.3879097687840461,-7.303755909934639,3.292627002173662,5.655452696335315
1757089332356534300,2.0415341796875,0.1471038162708282,0.5879784822463989,0.2496787160634994,1.7370178543627262,-0.255585995657742,-0.4646043014079332,-7.284832013756036,3.2646485696628686,5.695934928849339
1757089332366489000,2.051489013671875,0.062268529087305,0.7181618213653564,0.2303979396820068,1.2396616224318742,-0.1138780158534646,-0.544941574448347,-7.254943655970692,3.2404058165490626,5.747690835049748
1757089332376444200,2.061444091796875,-0.0116379186511039,0.7696321606636047,0.0874911099672317,1.519732363265753,-0.1136532671868801,-0.4670563707351684,-7.217932314437627,3.2271631808772683,5.8014873071670525
1757089332386398000,2.07139794921875,-0.0842004865407943,0.8088194131851196,-0.0387381911277771,1.345674603998661,0.0232873520851135,-0.3702934480726719,-7.172562894403934,3.228487122957408,5.856756189924478
1757089332396353300,2.081353271484375,-0.1560083627700805,0.8643542528152466,-0.1084320470690727,0.8163134605199098,0.1197623977169394,-0.2582686588704586,-7.121293310415744,3.240948252862692,5.912175294807553
1757089332406307300,2.091307373046875,-0.2306903451681137,1.0348914861679075,-0.1135982945561409,0.4376841457784176,0.2694251359179616,-0.2487497198969125,-7.061991226619481,3.2605262290358543,5.972238426104187
1757089332416262100,2.10126220703125,-0.269464910030365,1.2712113857269287,-0.056669495999813,-0.2660696880102157,0.2879194085076451,-0.3062538143604993,-6.9901569935083385,3.281984904389083,6.0445560588181015
1757089332426217000,2.111217041015625,-0.2549785673618316,1.4411892890930176,0.0633220598101615,-1.075304588446021,0.1424485690385103,0.0200806649982929,-6.907562296929955,3.2980192166060207,6.130174487131834
1757089332436171000,2.1211708984375,-0.2050378918647766,1.500184416770935,0.2106627821922302,-1.927093851494789,0.2116086145043373,0.5625199012368917,-6.821318430194259,3.302929785001277,6.22339579166472
1757089332446126300,2.131126220703125,-0.1861671954393386,1.451504111289978,0.332491785287857,-2.8304326845169068,0.4441685393616557,0.8003753021538257,-6.737694975090027,3.296322641821205,6.317286958283185
1757089332456081200,2.1410810546875,-0.2456238567829132,1.2714110612869265,0.3918174207210541,-3.28172099275589,0.5455024232015013,0.5303542461693287,-6.663043930992484,3.285369870652258,6.401607748001814
1757089332466035200,2.15103515625,-0.3510184288024902,1.050218939781189,0.4461982250213623,-3.748128544193506,0.7018909625262022,0.1481815597325563,-6.602303923347592,3.276972921445965,6.46849400331676
1757089332475990000,2.160989990234375,-0.4567810595035553,0.8472863435745239,0.5583000183105469,-4.507418971765041,0.9398819725215436,0.0011433248162269,-6.557233778521418,3.2706209220707416,6.5173699701666825
1757089332485944000,2.170944091796875,-0.5608201026916504,0.6776872277259827,0.7263818383216858,-5.003914202952385,1.048036057770252,-0.117388946583867,-6.528655918812752,3.261975843322277,6.550309532216191
1757089332495899100,2.180899169921875,-0.6770473718643188,0.5488536357879639,0.9288820028305054,-5.1182233036994935,1.1197858274683357,-0.4972895964354276,-6.5155018382072445,3.2485847390905023,6.570032469817996
1757089332505854200,2.190854248046875,-0.8369064331054688,0.4704305529594421,1.1174912452697754,-4.890900402712822,1.2830936446622014,-0.9049322396934032,-6.515524634560943,3.231473153030872,6.578441986244917
1757089332515808000,2.20080810546875,-1.0097655057907104,0.406623363494873,1.285191535949707,-4.519248525768518,1.3309133804574609,-1.2954863855063914,-6.525203148010373,3.2140295585379004,6.577394523018598
1757089332525763000,2.21076318359375,-1.1418622732162476,0.3121198117733001,1.4386705160140991,-4.2666432994872325,1.1172674149066208,-1.3033809381484984,-6.545122484967112,3.195886875864863,6.566434737586975
1757089332535718100,2.22071826171875,-1.2321871519088743,0.2356561869382858,1.5330125093460083,-3.600798632854223,0.891133431443572,-1.1341741260439158,-6.574708060413599,3.1761659840896725,6.546416616430879
1757089332545672200,2.230672119140625,-1.285086154937744,0.2342304140329361,1.5867033004760742,-2.8305028271436687,0.6223910170927643,-1.144893672978878,-6.608936493229866,3.1556592026337977,6.521821688878536
1757089332555627000,2.240626953125,-1.3307247161865234,0.265796035528183,1.6125866174697876,-2.3789234270036217,0.2877174561947584,-1.2609376346945762,-6.642877341276407,3.134793816998601,6.497355940663814
1757089332565581600,2.25058154296875,-1.3936855792999268,0.314603328704834,1.6229699850082395,-1.8763187730252744,0.0956836029931902,-1.4714087696015834,-6.674572456222772,3.11553937369138,6.474093138498067
1757089332575536400,2.260536376953125,-1.4572632312774658,0.3681632280349731,1.627041935920715,-1.5090408733814953,0.2373252395629882,-1.5404904891341924,-6.702771545746922,3.099144411468506,6.452793160837889
1757089332585491500,2.270491455078125,-1.505451202392578,0.3938785791397095,1.6167023181915283,-1.1253215420246123,0.4031932626336812,-1.4186679440170529,-6.728258453702926,3.085607469025254,6.432724770799279
1757089332595445500,2.280445556640625,-1.5299654006958008,0.3998816311359405,1.5452309846878052,-0.2826724477648735,0.2524365917161107,-1.4403116205483677,-6.751341807648539,3.076401541523635,6.412918246567249
1757089332605400600,2.290400634765625,-1.4995028972625732,0.4018179476261139,1.397486448287964,0.8102426161736249,-0.0684694328531622,-1.3038000403434038,-6.771206199547648,3.073940704368055,6.393124581816792
1757089332615354600,2.300354736328125,-1.38766348361969,0.4850957989692688,1.208215594291687,1.5945400592297314,-0.368073726196587,-0.7513654797911643,-6.783223969599605,3.078160075628757,6.378337347051501
1757089332625309400,2.310309326171875,-1.193948745727539,0.6488595008850098,1.058401107788086,1.8380816890895368,-0.8738023574143647,-0.2632780114650726,-6.782257754915952,3.0842490401536224,6.376423037862778
1757089332635264500,2.320264404296875,-0.9406972527503968,0.9213173985481262,1.0030829906463623,1.4567442844331264,-1.1969468085601924,-0.042083822491765,-6.764239867666364,3.0829794586092234,6.396145390942692
1757089332645218300,2.33021826171875,-0.6623368859291077,1.2197206020355225,0.990125298500061,0.8871335481524467,-1.1757839012831448,0.1124129117369651,-6.726141899940371,3.067353142671287,6.443659421789646
1757089332655173600,2.340173583984375,-0.3943565189838409,1.438075065612793,0.9838333129882812,0.7363888599336147,-0.9500924008905888,0.2030325093388557,-6.670118399423361,3.035442339147627,6.516593725097179
1757089332665128400,2.35012841796875,-0.1982989162206649,1.5285496711730957,0.952067732810974,0.8452847034603357,-0.6567717178612947,0.1508446414619684,-6.601693682494759,2.9903704407557843,6.606490269121528
1757089332675082500,2.36008251953125,0.0019071486312896,1.3911161422729492,0.9085271954536438,1.0887485919088125,-0.1752533987924456,-0.1305237379670143,-6.530918603047728,2.93711465138644,6.700063455832004
1757089332685037300,2.370037353515625,0.1699281930923462,1.502345085144043,0.7690455913543701,1.4793231959879398,0.6034110068127513,-0.5184942970275879,-6.460309527817368,2.875812625944614,6.794445036315918
1757089332694991600,2.37999169921875,0.1487597823143005,1.646935224533081,0.5972861051559448,2.287655594626069,0.4863619597077369,-1.2716875767678022,-6.371115579104423,2.820778428725898,6.900904008084535
1757089332704946400,2.389946533203125,-0.0409784093499183,1.49760103225708,0.4634855389595032,2.79749019985795,0.3146443338260054,-1.5649807872682808,-6.275217748838663,2.782854064001143,7.003409858313202
1757089332714901500,2.399901611328125,-0.4462915658950805,1.0716345310211182,0.4412018060684204,2.737235929903388,0.8537836517363786,-1.9574404744416476,-6.198652980074286,2.7720848327055574,7.0754960203588
1757089332724855300,2.409855224609375,-0.7391040921211243,0.9955645203590392,0.470161497592926,2.3690777402937413,1.0223334612369537,-1.6049182453811168,-6.139047529417276,2.7869907254144546,7.121458145588636
1757089332734810600,2.419810546875,-0.8772196173667908,0.9077531695365906,0.4863636493682861,2.9042817645817998,0.0205810157358646,-0.5025695826649665,-6.084379535162449,2.815799471269548,7.156953237339854
1757089332744764700,2.4297646484375,-0.9090871214866638,0.8470882177352905,0.478658378124237,2.7799755859553814,-0.3153562814876437,-0.7746522473543882,-6.0360904282897705,2.850815839593112,7.183930091592669
1757089332754719500,2.439719482421875,-0.8356054425239563,0.9353842735290528,0.4434511363506317,2.118411373120546,-0.3553352406546473,-0.8072083630442619,-5.9857952422916885,2.8861557407826184,7.21184744156599
1757089332764674300,2.44967431640625,-0.7091625332832336,1.0759507417678833,0.4097886979579925,1.659432510378957,-0.4992310858920216,-0.3057178077876568,-5.925601178091764,2.91662686689198,7.24920248197019
1757089332774628400,2.45962841796875,-0.6466610431671143,1.1510697603225708,0.4055340588092804,1.515015271615982,-0.643553924369812,0.0803016172051429,-5.856151209768653,2.941388675443828,7.2954849251955745
1757089332784583700,2.469583740234375,-0.7267903089523315,1.0880848169326782,0.4019837975502014,1.6246692400336264,-0.6362503233581781,-0.029758009403944,-5.786090416070818,2.9673049147278068,7.340752638420462
1757089332794538500,2.47953857421875,-0.8919355869293213,1.088781237602234,0.3540269136428833,1.5207751503169535,-0.6097291039183735,-0.2813935138702392,-5.718708486193418,3.004678952093422,7.378255562862753
1757089332804492500,2.489492431640625,-1.0159966945648191,1.3111172914505005,0.2085103392601013,1.3310124569177626,-0.9643599956959484,-0.1167769521653652,-5.6395279819726944,3.058837827782333,7.41684745158553
1757089332814447400,2.499447265625,-1.0864143371582031,1.5631351470947266,0.0197739712893962,1.2186463069319724,-1.178842119809985,-0.0565770427465438,-5.536738638627529,3.1308643685951827,7.464087341666221
1757089332824401400,2.5094013671875,-1.0683635473251345,1.8249053955078125,-0.0669796615839004,0.9353197791725396,-1.025251686771214,0.207453832912445,-5.408885581174492,3.2134020742893217,7.522525502109527
1757089332834356500,2.5193564453125,-1.0215123891830444,1.9876596927642824,0.0311676785349845,0.413964247494936,-0.689002254858613,0.8140846785545348,-5.264318120285869,3.293444748297333,7.590162868052721
1757089332844311600,2.5293115234375,-1.0352312326431274,2.306123733520508,0.2117709815502166,-0.2012614080131053,-0.2845183678925037,0.8393582360208034,-5.1066836725533005,3.365107424233853,7.666043161684274
1757089332854265300,2.539265380859375,-0.9976052641868592,2.6796364784240723,0.4098526537418365,-0.9617933600783348,-0.0162725048869848,-0.0044920507222414,-4.925099024912715,3.4283094380781054,7.75631789137125
1757089332864220400,2.549220458984375,-0.9074370861053468,2.879729986190796,0.6301270723342896,-2.647443138514459,0.4133844017803669,0.2003179896831512,-4.725800149144232,3.4773429335772987,7.857816025862097
1757089332874175500,2.559175537109375,-0.9222809672355652,3.0686068534851074,0.8914191722869873,-4.001049704556167,0.3062029609560966,0.4446534002691507,-4.518866248452663,3.51389484090507,7.962585144847631
1757089332884129500,2.569129638671875,-1.004692792892456,3.2782387733459477,1.0844426155090332,-3.4691000058889387,-0.0069663318812847,0.0648328299164772,-4.299336193299293,3.547092469368875,8.068719706967473
1757089332894084400,2.57908447265625,-0.9625778198242188,3.070282459259033,1.174519181251526,-1.5598714814305306,-0.348556540299952,-0.0444452909260988,-4.079520891463757,3.58042950630337,8.167522611024975
1757089332904038400,2.589038330078125,-0.7294842004776001,2.3138577938079834,1.1020690202713013,-0.0770212803602218,-1.1280296319395302,0.5839771152853965,-3.8985502840682864,3.6045316819027065,8.244939612704515
1757089332913993500,2.598993408203125,-0.5427656769752502,1.4211201667785645,0.8443590402603149,0.9273112447619436,-1.0837646660163998,1.1235060170352458,-3.781498898875713,3.618176468634605,8.293338025170565
1757089332923948500,2.608948486328125,-0.5730898976325989,0.7635042071342468,0.3649433553218841,1.827441637131572,-0.5528823043197393,0.6059551383376122,-3.714371820542216,3.640355274955928,8.313942421782016
1757089332933902600,2.618902587890625,-0.6734452843666077,0.127435877919197,-0.1700172573328018,3.34869200374484,-0.0664551704213023,0.1783236000180244,-3.680588208884001,3.688433661687374,8.307774546802044
1757089332943857400,2.628857421875,-0.7813482880592346,-0.3573768734931946,-0.5729310512542725,4.4422026954889295,0.058870706641674,-0.0947393078804016,-3.677404610411823,3.76257441817522,8.275876602759956
1757089332953811500,2.6388115234375,-0.8560534119606018,-0.5857096314430237,-0.8094599843025208,4.601365083441138,0.2983624765887856,-0.8644687118798494,-3.6905206970945,3.8555776960432526,8.227087729671597
1757089332963766500,2.6487666015625,-0.9379837512969972,-0.6543569564819336,-0.8816756010055542,3.9536452715635297,0.563526447930932,-1.3921481858819722,-3.708239893658459,3.9601682435914873,8.169236429205537
1757089332973721600,2.6587216796875,-0.9690527319908142,-0.7145063281059265,-0.8150454759597778,2.5721125877201554,0.9089084498479962,-1.4674591551929712,-3.729559452801943,4.069833902446925,8.105383257976174
1757089332983675400,2.66867529296875,-0.8593870997428894,-0.3497238457202911,-0.6374397873878479,0.9013806846916677,0.865787977784872,-0.6324602834254502,-3.746889650048315,4.171163986894488,8.045657980331779
1757089332993630500,2.67863037109375,-0.6842999458312988,0.469285249710083,-0.367008775472641,-1.7965145839482546,0.6071729896947741,0.0406716176062822,-3.719726041051745,4.25185898733139,8.015966606423259
1757089333003584500,2.68858447265625,-0.4914067983627319,0.711010754108429,-0.0980304852128028,-2.354019871893525,0.4663698497757315,0.6363777491301298,-3.659915423211455,4.307069710160792,8.01402307114005
1757089333013539600,2.69853955078125,-0.364297866821289,0.5870651006698608,0.0720373839139938,-0.8971504997760057,0.7491516031339764,0.6300958923816681,-3.607091303257644,4.340921418619156,8.019705792951584
1757089333023494400,2.708494384765625,-0.3301612436771393,0.4082894623279571,0.0680312737822532,-0.214432732014358,1.1069026727586984,-0.0413186833381652,-3.570799800431728,4.365344204474986,8.022688608154654
1757089333033448400,2.718448486328125,-0.3918371200561523,0.2485682517290115,-0.0351164191961288,0.4085407611414789,0.8597054430007934,-0.5386310761272907,-3.545693123964965,4.39302277725637,8.018714443826674
1757089333043403300,2.7284033203125,-0.5291028618812561,0.1693368703126907,-0.1487957090139389,0.9230375129655004,0.1495408653870225,-0.7549053443551063,-3.52508551248312,4.432811182287336,8.00589354069829
1757089333053357300,2.738357421875,-0.6601799130439758,0.0661966353654861,-0.2108566910028457,1.0231289955288172,-0.5677250686645507,-0.4086141186386346,-3.507262855544686,4.486883548736572,7.983568896165489
1757089333063312600,2.748312744140625,-0.6724238395690918,-0.0611108802258968,-0.1957347989082336,0.5859446159660816,-0.8254004378169775,0.2663759774804115,-3.4986405731499195,4.547635539080202,7.952918321835995
1757089333073267500,2.758267333984375,-0.5703269839286804,0.0427950099110603,-0.1091564893722534,-0.2941436898499727,-1.128642210879922,1.125854041466117,-3.4930344237059354,4.602479182162881,7.923779321113228
1757089333083221500,2.768221435546875,-0.5059465169906616,0.1761446148157119,-0.0078046601265668,-0.8862439058363437,-1.4554483994036913,1.213779577678442,-3.481079197496176,4.646470007319748,7.903340344196557
1757089333093176300,2.77817626953125,-0.481789767742157,0.2245086878538131,0.0776183605194091,-0.8620724643930793,-1.0456091228842734,0.1836240445137023,-3.4670930499807,4.6838969439163805,7.887378804954886
1757089333103131600,2.788131591796875,-0.4676442444324493,0.3983049988746643,0.1583305746316909,-1.179403845345974,-0.675615242280066,-0.3185644298791885,-3.449335859493911,4.717027644623816,7.875413057351112
1757089333113085400,2.79808544921875,-0.500046968460083,0.7674947381019592,0.2787906527519226,-1.6530857717007397,-0.5729702758416533,-0.8832003003567457,-3.414391679623723,4.74726116258502,7.872473496767878
1757089333123040500,2.80804052734375,-0.6337969303131104,0.9679243564605712,0.5605550408363342,-2.019004657950997,-0.4558776818558573,-1.7805208960026502,-3.363310603944957,4.778010521113872,7.875859047552943
1757089333132994300,2.817994384765625,-0.747024416923523,1.7400184869766235,0.853607177734375,-2.763053092727065,-0.0419146034047007,-2.20117441200316,-3.293229644241929,4.808919746379554,7.886655166855454
1757089333142949600,2.82794970703125,-0.7444708943367004,2.0271005630493164,0.9534589052200316,-1.1980360651016235,-1.027006713744998,-1.6979378898620603,-3.184699419157207,4.838426119109988,7.913136346545815
1757089333152904400,2.837904541015625,-0.6957640647888184,1.4410663843154907,0.5888042449951172,2.281096382240951,-1.0039753822475672,-0.0687047029137611,-3.0836031434655187,4.869713822299242,7.933957600778341
1757089333162858500,2.8478583984375,-0.7325376272201538,0.7513980269432068,-0.0296224672347307,3.637093058289587,-1.121623856550455,-0.32958383654356,-3.012356062592566,4.917630004206299,7.931772073432802
1757089333172813300,2.857813232421875,-0.8453461527824402,0.3553110957145691,-0.3166446685791015,2.1402412198737264,-1.7820014899492262,-0.0917296046704053,-2.959506808197498,4.985293673634529,7.90939599097371
1757089333182768600,2.8677685546875,-1.0297795534133911,0.1749804019927978,-0.2348603159189224,0.1316065647676587,-1.9386521873414515,0.6585568477123975,-2.926088522720337,5.067573897436261,7.869438659116625
1757089333192722400,2.877722412109375,-1.1728150844573977,0.1728988736867904,-0.1808386296033859,-0.2808615989506244,-1.5794927122235298,1.214172960910201,-2.9016306655511257,5.159572382175922,7.818551352444291
1757089333202677500,2.887677490234375,-1.2678011655807495,-0.0634253546595573,-0.2142709642648697,0.4979033444195985,-1.0012877505987885,0.7191852116763592,-2.886568705497682,5.259674678394198,7.757186490899324
1757089333212631600,2.897631591796875,-1.3108937740325928,-0.1363557577133178,-0.302052229642868,0.5416717589974404,-0.1321317576855421,-0.961947673857212,-2.8827517775580285,5.367053687617182,7.684716882494092
1757089333222586400,2.90758642578125,-1.1726032495498655,-0.0448817424476146,-0.389501690864563,0.2662760242372751,0.1940834792077541,-1.131021799492836,-2.87101750062257,5.471944387155771,7.61481917040348
1757089333232541400,2.91754150390625,-1.0227447748184204,-0.0215447265654802,-0.4692894220352173,0.5839616254553198,-0.2137690074086189,-1.1809177570402625,-2.8497745138466355,5.566755591228604,7.5538348326086995
1757089333242495500,2.92749560546875,-0.9597674012184144,0.0335482917726039,-0.5243951082229614,0.8601219148471951,-0.1752139435648918,-2.6267607082307336,-2.8211221275970337,5.654643718039989,7.499110724252462
1757089333252450600,2.937450439453125,-0.9710354804992676,0.129557654261589,-0.6112857460975647,0.5265525157988071,1.1828232984006404,-3.048848056426644,-2.789222722250223,5.742404419079422,7.444153391662239
1757089333262404400,2.947404296875,-0.9809517860412598,0.3977881669998169,-0.5867541432380676,1.1999193946301936,1.8808160844445228,-2.309887884700298,-2.732956645148992,5.830907462918758,7.396070036494732
1757089333272359400,2.957359375,-1.043598175048828,0.5331001877784729,-0.4926785230636596,0.648410424490273,1.3221166182786226,-1.7872937511384486,-2.666722424001992,5.919444409027696,7.349771811178326
1757089333282314500,2.967314453125,-1.1541131734848022,0.5052549242973328,-0.4463290572166443,-0.2516600543856621,1.0059902292013168,-1.5438041437268255,-2.600881293825805,6.011564474320411,7.298417471516132
1757089333292268500,2.9772685546875,-1.318369746208191,0.5284526348114014,-0.4443780481815338,0.4036313617900013,0.950470586553216,-1.211533844578266,-2.537015263114869,6.112274673303961,7.236991819694638
1757089333302223400,2.987223388671875,-1.4074398279190063,0.4904627203941345,-0.4535135626792907,0.5808809028357267,1.4948907674759626,-0.9357306980609892,-2.4721505767554044,6.221471545603871,7.166041968202591
1757089333312177400,2.997177490234375,-1.5748730897903442,0.3949327170848846,-0.4466623365879059,1.1877616315856576,2.718057182180881,-1.134610179373622,-2.4137429575808347,6.337561684548854,7.083752976572513
1757089333322132500,3.007132568359375,-1.864257574081421,0.7003057599067688,-0.3868935406208038,0.7029781732410192,2.137486660468578,-2.220455451056361,-2.350488482896984,6.467722434422374,6.986712406012416
1757089333332087600,3.017087646484375,-2.171926736831665,1.0505574941635132,-0.3541688621044159,-0.5017527133241295,1.659592084854841,-1.8663555974155663,-2.2651962177976963,6.615516456142068,6.875623436355591
1757089333342041600,3.02704150390625,-2.348095178604126,1.244231343269348,-0.3114490509033203,-0.6849491800755262,1.802065788334608,-1.5937416023284197,-2.165497533944249,6.777855136042833,6.748457776644826
1757089333351996400,3.036996337890625,-1.9168853759765625,1.534924864768982,-0.2447285950183868,-1.314027858238667,1.3328051855534315,0.6655763710856437,-2.05386583571285,6.929135246312618,6.628657677266001
1757089333361950500,3.046950439453125,-1.0418020486831665,1.6076481342315674,-0.1574749201536178,-1.4643629427433014,1.8004817340135573,4.983661688518524,-1.9357025437556208,7.0294842107683415,6.558185964679717
1757089333371905500,3.056905517578125,-0.5981473922729492,1.4148592948913574,-0.1005312204360961,-1.1374258213162425,0.483332967275381,3.634586920687556,-1.8280920638643203,7.082942829233407,6.5314926035434
1757089333381860600,3.066860595703125,-0.6158279776573181,1.1445976495742798,-0.0099955750629305,-0.9832318694263696,-1.08246790420413,0.7389169171065092,-1.7412201283581554,7.122739417570829,6.511922810676693
1757089333391814400,3.076814453125,-0.5971395373344421,0.8502838015556335,-0.021213874220848,-0.3337760275363922,-1.126155654761195,2.281097259023785,-1.6761562661647795,7.1626862280339,6.485122482034564
1757089333401769500,3.08676953125,-0.5408048629760742,0.6733221411705017,-0.0191920399665832,0.7002689142823219,-0.7825643356531858,4.231929128980636,-1.6263760439515114,7.199623335286974,6.456834545183181
1757089333411724500,3.096724609375,-0.5692349076271057,0.7139553427696228,0.0914931967854499,0.629637042698264,-0.6756149500191211,2.812586646702885,-1.5841751709513363,7.234231122809648,6.42858284868896
1757089333421678600,3.1066787109375,-0.7297191619873047,0.7699523568153381,0.2786235809326172,0.2271153957158327,-0.8818974010646343,0.6544780539661645,-1.549762175348401,7.272320322707295,6.393901411408185
1757089333431633400,3.11663330078125,-0.9439834952354432,0.6937550902366638,0.4180174469947815,0.1266748074539005,-1.2851391790151596,-0.0882417625546455,-1.5289285000257191,7.320023154124617,6.344290116021036
1757089333441587500,3.12658740234375,-1.080944299697876,0.5630545020103455,0.4102591574192047,-0.0216956989794969,-1.2705214555978774,-0.1882756697118282,-1.520170170161128,7.377680977845191,6.279274330753088
1757089333451542300,3.136542236328125,-1.1099992990493774,0.4264774918556213,0.2755884528160095,-0.1000233857631683,-1.081936573806405,0.240527834996581,-1.5151649092197417,7.440936183181405,6.205410637640953
1757089333461497600,3.14649755859375,-1.0543133020401,0.2773645222187042,0.0721508115530014,-0.019203882163763,-1.0681465333849192,0.731556032949686,-1.5066510556355115,7.504957696714997,6.129926649850606
1757089333471451600,3.15645166015625,-1.0008937120437622,0.1773324459791183,-0.0769087225198745,0.1379074184775352,-0.8005997585594654,0.597391308131814,-1.4925766453146934,7.567212200576066,6.056394380649924
1757089333481406500,3.166406494140625,-0.9801769852638244,0.1735735386610031,-0.0827819257974624,0.0190817170888185,-0.1876502312898635,-0.0539846881657838,-1.475504514482617,7.627931749954819,5.983973287561535
1757089333491360500,3.176360595703125,-0.9182241559028624,0.15311299264431,0.045917198061943,-0.1138350534945726,0.4187380377680063,-0.4733820666253566,-1.4637943490751086,7.684736756238341,5.913756426519155
1757089333501315600,3.186315673828125,-0.8233824968338013,0.1182599887251854,0.2016505897045135,-0.1889689126729965,0.7332295191198587,-0.4259370093613863,-1.465424434494972,7.733864652022719,5.848953407219052
1757089333511270400,3.1962705078125,-0.7474331259727478,0.1046179458498954,0.3341822624206543,-0.198661308517307,0.6372720676213502,-0.3027373306721448,-1.4801229680635035,7.775353431230783,5.78994767602086
1757089333521224400,3.206224365234375,-0.6936454176902771,0.1089752912521362,0.4127383828163147,-0.1773075548432767,0.3778957397699355,-0.2131955914348363,-1.503272372982651,7.811020956939458,5.735720411270856
1757089333531179500,3.216179443359375,-0.6579382419586182,0.0690294727683067,0.411851555109024,-0.0865308669835329,0.0120148474425077,-0.0584288080930709,-1.5307522083215417,7.843060939800739,5.6845028497308485
1757089333541133300,3.22613330078125,-0.622765064239502,0.0591242387890815,0.3754919171333313,-0.1182727436810731,-0.4716986435830593,0.1138596034139394,-1.558117185109109,7.873073800748586,5.635366770640015
1757089333551088600,3.236088623046875,-0.5633768439292908,0.0641160681843757,0.3322352766990661,-0.0311145385794341,-0.8050807033658027,0.1574935779571533,-1.5825773803658785,7.900745651528239,5.589637285122275
1757089333561043200,3.246043212890625,-0.5034267902374268,0.0904055684804916,0.3157983124256134,0.1105607079990208,-1.22616676556468,0.1706932512700557,-1.6037942097872495,7.925142426159978,5.548904292717576
1757089333570997200,3.255997314453125,-0.4618162214756012,0.0637627765536308,0.3025395274162292,0.3000422463692724,-1.373356976172328,0.2475023501843214,-1.6238859807014463,7.946636465087533,5.512198071610928
1757089333580952300,3.265952392578125,-0.4484694898128509,0.0248480141162872,0.2743085026741028,0.3346532487623393,-1.049860350587964,0.3949070803254842,-1.64443134060204,7.966710115823149,5.477022713333368
1757089333590906400,3.27590625,-0.5525098443031311,-0.0644328594207763,0.2181541621685028,0.2639445125497877,-0.9004746757626533,0.2987713496506214,-1.6650012504220009,7.988807381340861,5.438483431580663
1757089333600861200,3.285861083984375,-0.815586507320404,-0.11208126693964,0.153049424290657,0.0392747564204037,-2.50587748979032,-1.2922785293757917,-1.685288543908298,8.02241738999784,5.382472206023335
1757089333610816300,3.295816162109375,-1.0524195432662964,-0.0419778153300285,0.0312806330621242,0.1811772358834743,-2.936993363094329,-1.2998621163725852,-1.697305291046947,8.070610635280609,5.30610968183279
1757089333620770600,3.3057705078125,-1.2190214395523071,0.12567900121212,-0.06072249263525,0.4766378535509109,-2.5920219878047703,-1.101606904438138,-1.693789976402372,8.130707668846846,5.214695718982815
1757089333630725400,3.315725341796875,-1.275965452194214,0.2155718803405761,-0.1047208458185195,0.010419687205553,-1.8027362349420784,-1.1945564062923193,-1.6776817221663891,8.196601405993103,5.115809812816977
1757089333640680200,3.32568017578125,-1.2665833234786987,0.2136386632919311,-0.1511644870042801,-0.1218636077798902,-0.8611550572872161,-1.053002155745029,-1.6564301136925816,8.262980296307802,5.0149575750142334
1757089333650634200,3.33563427734375,-1.249243974685669,0.2146085798740387,-0.1830108314752578,0.0814174694925546,-0.2807604766637087,-1.1105880832731725,-1.63241152472347,8.327672256448864,4.914825468179584
1757089333660589600,3.345589599609375,-1.3288744688034058,0.2316045314073562,-0.2487118989229202,0.2072792069979012,0.0986111808776855,-1.3463193316429851,-1.604146238095313,8.393172025841475,4.811626374989748
1757089333670543400,3.35554345703125,-1.467905879020691,0.1925277113914489,-0.4105519354343414,0.4014227458298206,0.2420528526067733,-1.643501074014604,-1.5662017073653638,8.46446090002954,4.69790384195894
1757089333680498400,3.36549853515625,-1.5108669996261597,-0.0045256363227963,-0.6077554225921631,0.5888217788375913,0.6612655221492052,-1.104044652979076,-1.518221081919968,8.541446524554491,4.572644308130442
1757089333690453200,3.375453369140625,-1.3984357118606567,-0.1284361183643341,-0.6401506662368774,0.0926278686843812,1.5432166992276906,0.0679927552521228,-1.4673486805558205,8.616878489896655,4.445975784286857
1757089333700407300,3.3854072265625,-0.9484629034996032,-0.1283525675535202,-0.4779880046844482,-0.9968768022887408,2.576750184392929,1.455662918937206,-1.4242597726747392,8.677343187731504,4.341147628590464
1757089333710362400,3.3953623046875,-0.3361483216285705,-0.0283183902502059,-0.23005011677742,-1.6304560067415237,3.279375890934467,2.81478824840039,-1.397460759206861,8.709738559901714,4.28461822437793
1757089333720316400,3.40531640625,0.082455463707447,0.1200934275984764,-0.0111164562404155,-1.4726882880181074,4.3159898064583535,2.382733925202489,-1.3850906685858964,8.716098742583393,4.275690237034857
1757089333730271200,3.415271240234375,0.2117354124784469,0.0953838229179382,0.1507541984319687,-0.6365922686636447,5.152876099407672,1.2017007250890137,-1.3863586426950991,8.707904914733767,4.291944621743261
1757089333740226300,3.425226318359375,0.0496722087264061,0.1613938361406326,0.2360205501317978,-0.128279612302035,4.041162226974964,-0.1761871725112199,-1.3995204682156444,8.69928146329522,4.305136988532543
1757089333750180400,3.435180419921875,-0.0132558885961771,0.3033128976821899,0.1863390207290649,-0.2534543904565274,0.2080564749807119,-0.5429252661898731,-1.4076725027501582,8.695829277014731,4.309453098165989
1757089333760135400,3.445135498046875,0.0509177334606647,0.1969891190528869,0.1119177564978599,0.0799896286465227,-0.9240987124562264,0.1173857317134737,-1.4090706791102885,8.693282515141368,4.31413161137104
1757089333770090200,3.45509033203125,0.0976615399122238,0.1233641728758812,0.115722618997097,0.0584288080930709,-0.5474065032571553,0.2231844860076904,-1.4119007879696786,8.688290698203444,4.323254829025268
1757089333780044300,3.465044189453125,0.0704900547862052,0.1383164376020431,0.1510372906923294,-0.2928875523090362,-0.1451157424211502,-0.0494514286503195,-1.4179190253458915,8.682688640412687,4.33252856106609
1757089333789999400,3.474999267578125,0.0470467843115329,0.1691252291202545,0.1575804203748703,-0.3643079439222812,-0.0245984346836805,-0.1433542857065796,-1.4249090303637086,8.677990837985277,4.339641607941687
1757089333799953400,3.484953369140625,0.0402465648949146,0.1465620100498199,0.1186487898230552,-0.243374894990772,-0.0422732075840234,-0.1356438574597239,-1.430022135593742,8.674117795944213,4.3456975469797845
1757089333809908500,3.494908447265625,0.0495521798729896,0.1066433563828468,0.0737875699996948,0.011845482224971,-0.1401724408000707,-0.1002218309447169,-1.4328043136581778,8.67086200901866,4.351275931634008
1757089333819863300,3.50486328125,0.0474062077701091,0.075711540877819,0.052817840129137,-0.0252080910146236,-0.1317500648915767,0.0414890714690089,-1.4343572421886026,8.667827171367406,4.356809015841782
1757089333829817300,3.5148173828125,0.0404593497514724,0.0700869411230087,0.0335871540009975,-0.1001221699625253,-0.0054296238332986,0.0409337756738066,-1.43501000700891,8.665257028618454,4.3617038021460175
1757089333839772400,3.5247724609375,0.0380094647407531,0.0723241120576858,0.0166315082460641,-0.0897587429888546,0.1283656831502914,0.0068263388887047,-1.4341509059615432,8.663143981987238,4.366183577908576
1757089333849726500,3.5347265625,0.019331919029355,0.0619569607079029,-0.014795389957726,-0.1904201343946159,0.0595125116765499,0.1275242638900875,-1.4315015604965389,8.66181477921009,4.369683694984019
1757089333859681300,3.544681396484375,0.002622032072395,0.0405196771025657,-0.06848856061697,-0.1261599897995591,-0.0105430213242769,0.1759630083665251,-1.4257313065320252,8.661988966733217,4.371223325641453
1757089333869636400,3.55463623046875,0.0044244593009352,0.0184716321527957,-0.1005442291498184,0.0186193602740764,-0.0625233839303255,0.1586974007889628,-1.4169827674090862,8.663093713104724,4.371880035984516
1757089333879590400,3.56459033203125,0.0093748839572072,0.0077250800095498,-0.091619461774826,0.008549947810918,-0.1121136365294456,0.0500879729881882,-1.4079605259113013,8.66420138208568,4.3726007514745
1757089333889545500,3.57454541015625,0.0125858569517731,-0.0160063486546278,-0.0807995721697807,-0.0531798015236854,-0.0535819525837898,0.0006076105043292,-1.4008490864709018,8.664926773750782,4.373449184997379
1757089333899499500,3.58449951171875,0.0112360324710607,-0.0379965305328369,-0.1028224900364875,-0.0578599221639335,-0.135289344933629,0.108970370067656,-1.3943730223245918,8.665530000340938,4.3743215839177365
1757089333909454300,3.594454345703125,0.0083981677889823,-0.0647551789879798,-0.141710489988327,-0.0838103559784591,-0.1090875667065382,0.1178992341935634,-1.3863792470917105,8.666711903601884,4.37452090588212
1757089333919409200,3.6044091796875,0.0083836261183023,-0.0747920796275138,-0.1791580021381378,-0.1915940004795789,-0.0283949043571948,0.088776015561819,-1.376009682638198,8.668619783049822,4.374015878969431
1757089333929363200,3.61436328125,0.0048019411042332,-0.0489759258925914,-0.197615310549736,-0.210742791455239,0.0828390267282724,0.0097360888555645,-1.3629957411557436,8.670810571092368,4.373747583422064
1757089333939318500,3.624318603515625,0.0026089882012456,-0.0255632977932691,-0.1897099763154983,-0.0639974020056426,0.0960679261356592,-0.0946875776931643,-1.3481323724143206,8.672994344872235,4.374023477753997
1757089333949272300,3.634272216796875,0.0056306105107069,-0.0554929636418819,-0.1806110292673111,0.0365232657551765,0.0337269130349159,-0.0511284219518303,-1.3340310740865766,8.675031988179683,4.374308432175218
1757089333959227400,3.644227294921875,0.0152758695185184,-0.1042000129818916,-0.1875579357147216,-0.0167687639713287,-0.0410135629117488,0.0023097382470965,-1.3218893853940068,8.676899535617231,4.374290896518528
1757089333969182200,3.65418212890625,0.0104803144931793,-0.080202005803585,-0.1784520596265792,0.007064531558752,-0.0315139131605625,-0.0965934113144874,-1.3105576979100704,8.678622121626137,4.374283297733962
1757089333979136500,3.664136474609375,-0.0128180906176567,-0.000540109409485,-0.1272171735763549,0.1071130517631769,0.1713409015238285,-0.3035346185296774,-1.299275987047702,8.680321911281347,4.374275991210341
1757089333989091300,3.67409130859375,-0.0376938804984092,0.027298180386424,-0.0839599892497062,0.1555205243185162,0.3186205439805984,-0.2720975699976086,-1.2900722515031695,8.682529065936803,4.372615949043631
1757089333999045400,3.68404541015625,-0.0548148490488529,0.0444044880568981,-0.0812614411115646,-0.0599034106902778,0.2482347561120987,-0.1525347865059971,-1.2821961113005875,8.685428294509649,4.369171946069598
1757089334009000200,3.694000244140625,-0.0809199437499046,0.0873082801699638,-0.0778557807207107,-0.1512368556499481,0.2154565221041441,-0.2262812829792499,-1.2731634945392607,8.689327640035748,4.3640603021442885
1757089334018955500,3.70395556640625,-0.1203761994838714,0.1302002966403961,-0.0586261078715324,-0.0650055561348795,0.3112830406993627,-0.2201481870517134,-1.2628779551073908,8.694654972538352,4.35642995339632
1757089334028909600,3.71390966796875,-0.1730703115463256,0.1684313118457794,-0.046561986207962,-0.2216113914720714,0.2040367179453373,0.0670250792637467,-1.2518699466198682,8.701794322898984,4.345338942800462
1757089334038864400,3.723864501953125,-0.1867406517267227,0.1901782006025314,-0.0272354856133461,-0.4584554233893751,0.1274029755979776,0.133909288752079,-1.2411283339835704,8.709892873680591,4.332173756279051
1757089334048819200,3.733819091796875,-0.2697812020778656,0.2329847812652588,0.0420370623469352,-0.3895977218709885,0.2111000804603099,-0.0157142864823341,-1.2326235404886303,8.719570802608132,4.315101625446975
1757089334058773200,3.743773193359375,-0.3617326915264129,0.1965624243021011,0.102956086397171,-0.5122964653007686,0.3902724062621593,-0.2037690069198608,-1.2297843715399503,8.732533160033821,4.289623485319316
1757089334068728300,3.753728271484375,-0.4702892601490021,0.1873257905244827,0.1240895986557006,-0.4108388089507818,0.7800842092752456,-0.5441667906835675,-1.231433600051701,8.749137088832258,4.2551793639257545
1757089334078682400,3.763682373046875,-0.49992835521698,0.2130600661039352,0.1550339609384536,-0.3089243487440049,1.0948206052988767,-0.7286389764592051,-1.235185938322544,8.767942911589145,4.215194851800799
1757089334088637400,3.773637451171875,-0.5762979984283447,0.2716144323348999,0.2264130711555481,-0.4807591712646186,0.7737696193009614,-0.5204939464122057,-1.242018268560618,8.787922454300523,4.171351910682023
1757089334098591200,3.78359130859375,-0.6878980398178101,0.3176102340221405,0.301201730966568,-0.2697070215992629,0.5298574025630951,-1.0335317315995691,-1.2528555966563522,8.810670877203345,4.119806724622846
1757089334108546300,3.79354638671875,-0.7747807502746582,0.2764199376106262,0.3135478794574737,0.1103092174559831,0.7100251691430807,-1.4391986908704042,-1.2682052876099943,8.836704313126205,4.058904219892621
1757089334118501400,3.80350146484375,-0.8430886268615723,0.1298621743917465,0.218475192785263,0.4884919574737548,0.8062590994954109,-1.528538185533881,-1.2836663299836215,8.86556741951704,3.9905259724542494
1757089334128455400,3.813455322265625,-0.913105010986328,-0.0026101190596818,0.1196231767535209,0.6011901158928871,0.7780190934389829,-1.5598346565514802,-1.2959578024104237,8.89799727847874,3.913634163692593
1757089334138410200,3.82341015625,-0.9691154956817628,-0.1176732555031776,0.0160834304988384,0.1133943239897489,0.4327180478036403,-1.54905548838377,-1.304509942178428,8.93339884672761,3.8292332944750784
1757089334148365300,3.833365234375,-1.0132131576538086,-0.1403980106115341,-0.0464382693171501,0.2095269859246909,-0.3775824360370636,-0.2969268908277154,-1.307867143651843,8.970971913796662,3.739190619978309
1757089334158319400,3.8433193359375,-1.0113791227340698,-0.2460414767265319,-0.1048021540045738,-0.1137358309037983,-1.0728133561521769,0.779391550835967,-1.308419955229014,9.009293168884517,3.6456919598087674
1757089334168274400,3.8532744140625,-0.9840079545974731,-0.2789909243583679,-0.2098622471094131,-0.2392946399398147,-0.8623112415850162,0.5604483556598424,-1.3039181137651203,9.047040423476696,3.552640458884835
1757089334178228500,3.863228515625,-1.0260846614837646,-0.3148976862430572,-0.2813558876514435,0.0277661049343645,-0.5908709664523601,0.5559653650268912,-1.291605306289345,9.085198596957325,3.458511976379156
1757089334188183300,3.873183349609375,-1.0821404457092283,-0.3783032894134521,-0.3402967154979706,0.0767510851167142,-0.4301344610512256,0.1446434487342834,-1.2753485834933818,9.124978234159943,3.3583734398037195
1757089334198138000,3.88313818359375,-1.0798884630203247,-0.3843086063861847,-0.3798898458480835,-0.236138513996452,-0.3625637306034565,-0.0266083132013678,-1.2551499912038444,9.16529387793541,3.2545904092460867
1757089334208092400,3.893092529296875,-1.023596167564392,-0.3313615024089813,-0.3487281799316406,-0.1928092214882373,-0.5254939466565847,0.46584114972651,-1.2326387380577624,9.203577139100432,3.1535932100147006
1757089334218047500,3.903047607421875,-0.9263227581977844,-0.2832044064998626,-0.2750777900218963,-0.0784258864611387,-0.456439699652791,0.6399284273490309,-1.2136949681349098,9.237623201087116,3.0600109632149337
1757089334228001300,3.913001220703125,-0.8116534352302551,-0.2379809767007827,-0.2200022637844085,0.0111860684681683,-0.8205851464897393,0.7727215715527535,-1.1984108166981489,9.26672946858406,2.9768972111985086
1757089334237956400,3.922956298828125,-0.6574460864067078,-0.1605377346277237,-0.1122722923755645,-0.0374607658009976,-0.9486398639947176,1.073736316215992,-1.188819543140754,9.290337138664722,2.9063243763253093
1757089334247911400,3.932911376953125,-0.4666130840778351,-0.1207580864429473,-0.0336528532207012,-0.0525272558990865,-0.8278963462859392,1.5674398708581925,-1.1863223194975403,9.307259631893038,2.8527047220796344
1757089334257865500,3.942865478515625,-0.3380397856235504,-0.0600965805351734,0.0304894018918275,0.1704237866789102,-0.8541127375602722,1.5137980047807096,-1.188707899459824,9.318363209709524,2.8152178719893097
1757089334267820300,3.9528203125,-0.3652208149433136,0.0036533728707581,0.0896480605006218,0.3238241039730608,-0.5500859515994787,0.4582078783690929,-1.195163870666176,9.32722806868851,2.7829423268064857
1757089334277774300,3.9627744140625,-0.5155127644538879,0.0239989757537841,0.1310901641845703,0.0495012591414153,-0.2719581615269184,-0.443709105156362,-1.2048531247053296,9.337753554356098,2.743190454393625
1757089334287729200,3.972729248046875,-0.7597739100456238,0.1160410195589065,0.1976891607046127,-0.0797622496314346,-0.2425467736035585,-0.8011886643633246,-1.2184936005882918,9.352934172353148,2.684827405013144
1757089334297684500,3.9826845703125,-0.9808368682861328,0.1515889465808868,0.2028295397758484,-0.1628495520323515,-0.1910632546037435,-0.7866051354765892,-1.234017625195533,9.37357480932176,2.6045520912930367
1757089334307638500,3.992638427734375,-1.0149292945861816,0.0915381163358688,0.1330957412719726,-0.2297153490811586,-0.4041594773173332,0.3730541449576616,-1.246908670950681,9.397229825675486,2.51150994271934
1757089334317593300,4.00259326171875,-0.9092715382575988,0.0005272770067676,0.0670143812894821,-0.1706884289644658,-1.2872580708652734,2.114331410330534,-1.2549090220548211,9.419611753353475,2.4220818929895755
1757089334327547400,4.01254736328125,-0.8422629237174988,-0.1413291990756988,0.0427670963108539,-0.2274425818435847,-1.6943740599006414,2.717688933390378,-1.2616012131698429,9.43961584598422,2.339313593409955
1757089334337502200,4.022502197265625,-0.8116173148155212,-0.3138211071491241,0.0171298012137413,-0.2332446922510862,-1.565189461582899,2.0272860179536045,-1.2697153999119997,9.458124147099255,2.2587840126678347
1757089334347457500,4.03245751953125,-0.7249076962471008,-0.4135333299636841,-0.0121351424604654,-0.2413198621571063,-1.598597225666046,1.3871344493731856,-1.278250150153786,9.475221412372589,2.180974212278425
1757089334357411300,4.042411376953125,-0.5440697073936462,-0.5266034603118896,-0.0327557027339935,-0.2697165200799703,-1.707140602493286,1.2877484847307203,-1.285916008606553,9.489193239101766,2.11471134955883
1757089334367366400,4.052366455078125,-0.4666257798671722,-0.4280182719230652,-0.0311237182468175,0.2102216901905834,-2.1710896548628806,1.4024074218288065,-1.292999244865775,9.499889405161142,2.0617026668183502
1757089334377321200,4.0623212890625,-0.4085901975631714,-0.4063247442245483,-0.2269511520862579,2.6712095062881707,-3.4001264229059216,0.4282011549010872,-1.2891568902239203,9.51072761003971,2.0135852632507683
1757089334387275500,4.072275634765625,-0.3432484865188598,-0.3573638498783111,-0.156276986002922,1.2608230684041977,-4.363095841026306,0.847055804786086,-1.27848030564785,9.520355854606628,1.9745108517080543
1757089334397230300,4.082230224609375,-0.2811609506607055,-0.4514370858669281,-0.2126471996307373,0.4199960750050842,-3.6861131097853184,1.957610716442019,-1.269039692607522,9.528861817145348,1.9392513222783805
1757089334407184400,4.092184326171875,-0.2151395976543426,-0.7855167984962463,-0.3525531589984894,0.3929746509581804,-2.611571322405338,1.819758973674476,-1.254438335803151,9.536949262011053,1.908761199207604
1757089334417139200,4.10213916015625,-0.2736255228519439,-1.2573015689849854,-0.4486443400382995,-0.3746224171876907,0.2092600055515766,0.1952628982506692,-1.2347297189876436,9.546513209170104,1.8734769737280903
1757089334427094500,4.112094482421875,-0.4328261017799377,-0.9201924800872804,-0.7031884789466858,0.2999287029922008,3.0232015739947555,-1.4403386546857655,-1.203141279286146,9.559974163767697,1.8247576587446035
1757089334437048300,4.12204833984375,0.2142247408628463,-0.99969220161438,-1.0152428150177002,1.1929096619985995,2.5366344471037388,-0.157232150541991,-1.135448895220086,9.573537994217872,1.7968115210682152
1757089334447003400,4.13200341796875,1.270842671394348,-0.6230685114860535,-0.4131485223770141,-1.122553392485529,-2.613886029088497,4.314572048614919,-1.0765212707594036,9.568145195263623,1.8606728756040332
1757089334456957400,4.14195751953125,1.8067121505737305,0.2747310996055603,0.2905574440956116,-4.170699291992188,0.4336357471704483,3.09889423609972,-1.0739492283143102,9.538963524442911,2.006292329763621
1757089334466912300,4.151912353515625,1.9601746797561648,0.2127755880355835,0.4621305167675018,-2.0664269188612696,4.154248507928848,-1.4250288573510943,-1.1073865107528864,9.494047693395617,2.1925201270349324
1757089334476867300,4.161867431640625,1.6663823127746582,-0.2719386518001556,0.2764477729797363,-0.706138829229027,4.619461881145835,-4.605169444160163,-1.1438312313791363,9.44841933016479,2.3641971286453307
1757089334486821400,4.1718212890625,1.136360764503479,-0.300903707742691,0.1870672702789306,0.1505062032878398,5.276996400073171,-5.548284114992618,-1.1726805284403263,9.411430784985422,2.494031276912987
1757089334496776400,4.1817763671875,0.4815311729907989,-0.2371639162302017,0.1443402469158172,0.693776629653573,5.201556251424551,-5.975421732315421,-1.1949131107755004,9.389157578378915,2.5663778434604403
1757089334506731300,4.191731201171875,-0.0036924893502146,-0.3856681585311889,0.0891472995281219,1.211155731980875,4.474230987912416,-5.487801881501079,-1.213549860575795,9.38236075784564,2.582437874640524
1757089334516685300,4.201685302734375,0.1171680763363838,-0.6477774977684021,-0.0332130268216133,1.819430764633417,1.8484551990658045,-2.173023253273964,-1.230008389554173,9.381248412689564,2.5786907970666886
1757089334526640400,4.211640380859375,0.4007436037063598,-0.6589481234550476,-0.0904563441872596,1.7700614613085983,0.0268412451744079,1.2249039060220122,-1.2409426021531222,9.375338311862944,2.594895205153525
1757089334536594400,4.221594482421875,0.5045199990272522,-0.5327106714248657,-0.1089140027761459,1.1815705218605697,1.257845513898134,0.9948784680783748,-1.2474110675148664,9.364330011114475,2.6312898760929704
1757089334546549200,4.23154931640625,0.4327438175678253,-0.4637753069400787,-0.1846436560153961,0.9097826023340224,0.8419862464368343,0.1241430970191955,-1.247066053469479,9.353571885734796,2.6694413275718687
1757089334556504300,4.24150439453125,0.2047066390514373,-0.3068085610866546,-0.2613863945007324,1.0653447738371788,0.250308055254817,-0.1504977277204394,-1.2366798301421105,9.347897931751609,2.6940380086898803
1757089334566458000,4.2514580078125,0.2232076078653335,-0.2571147680282593,-0.320807933807373,0.6935311304599047,0.1821919658839702,0.3008271131366491,-1.216364625735581,9.345982453519106,2.709881474509835
1757089334576413000,4.261412841796875,0.3350250124931335,-0.3780001401901245,-0.3577276766300201,1.0888695879399777,0.6123170745849609,0.5828706153482198,-1.1931667054995894,9.342474153137209,2.732200858345628
1757089334586367200,4.2713671875,0.2808533906936645,-0.3772637844085693,-0.3159986138343811,0.6349800111614168,-0.5687807151973248,-0.3704673433348536,-1.171880025712401,9.33769451764524,2.75763632837534
1757089334596322000,4.281322021484375,0.0661677047610282,-0.192405417561531,-0.1894055902957916,-0.2302678683973848,-1.7883657642841335,-1.3383803553372622,-1.1561245304368435,9.33578780724108,2.770711790786684
1757089334606276900,4.29127685546875,-0.1557921171188354,-0.0706110745668411,-0.0799659118056297,-0.6277981368333101,-3.196519328549504,-1.4828151297569274,-1.1473526835035532,9.338544412472844,2.765059756374359
1757089334616231000,4.30123095703125,-0.3379068970680237,-0.1160362809896469,-0.0487247295677661,-0.3184131848402321,-4.005781701514125,-1.1430983139947055,-1.1441450465686618,9.346049673536418,2.7409292314633724
1757089334626186200,4.311186279296875,-0.5007836818695068,-0.2065589725971222,-0.0894090384244918,-0.0335170696765184,-4.487892433518171,-0.7405328278705477,-1.1424845660105347,9.358148107609152,2.7000372491046787
1757089334636141000,4.32114111328125,-0.676081120967865,-0.231365367770195,-0.1695184111595153,-0.02769523165524,-4.651629289779067,-0.5600932586118579,-1.1366346709385513,9.375239527663588,2.642599790136516
1757089334646095000,4.33109521484375,-0.8841602802276611,-0.0221825782209634,-0.2599827945232391,-0.5486217242658138,-4.457066502621769,-0.6428656498447061,-1.1202863243363796,9.397800903561713,2.56840233502537
1757089334656050000,4.3410498046875,-1.1457806825637815,0.2810633778572082,-0.3984327018260956,-0.945654710704088,-4.151382012581825,-0.7272872695893049,-1.0867233696915208,9.426705511006713,2.475204119107127
1757089334666004000,4.35100390625,-1.4509512186050415,0.5065063834190369,-0.5803937315940857,-0.5444616089116782,-3.867797126147151,-0.8033454040057957,-1.0312222125481814,9.463045821410416,2.3574814105242488
1757089334675959000,4.360958984375,-1.735586166381836,0.6216837167739868,-0.7516306638717651,-0.0038747956067323,-3.627147710597515,-0.5661714094817638,-0.9550029692858456,9.505960249507426,2.2124844721771777
1757089334685914000,4.3709140625,-1.9714548587799072,0.8054173588752747,-0.7875439524650574,0.3298047858178615,-3.5565433115422724,-0.3510619472496211,-0.8659561739586293,9.55237245659232,2.0427150577537714
1757089334695868000,4.380867919921875,-2.145134925842285,1.0579679012298584,-0.7403096556663513,0.3121457950085401,-3.587428279149532,-0.4207466011114418,-0.7748252658337355,9.598669512864946,1.8535266571111977
1757089334705823000,4.390822998046875,-2.2554543018341064,1.2925833463668823,-0.7148615717887878,0.3045511751610785,-4.054457761877775,-0.7451540579304099,-0.686575904494524,9.642223992431164,1.6512094564348458
1757089334715778000,4.400778076171875,-2.2774574756622314,1.3353171348571775,-0.7053540945053101,0.6538461858034134,-4.632993562892079,-0.7874637981325388,-0.5968342953035608,9.68176572922468,1.4413802726931868
1757089334725732000,4.410732177734375,-2.3558177947998047,2.36039400100708,-1.1822056770324707,0.940444282579422,-5.433327948513627,-0.7184940145418047,-0.4821042291980236,9.717602181759476,1.2272618673250075
1757089334735687000,4.42068701171875,-2.370878219604492,3.9757275581359854,-1.4709429740905762,0.6543155568808317,-6.246468039694428,-0.6179643597569316,-0.3164335918629541,9.74933470610678,1.0103143029455095
1757089334745641000,4.430640869140625,-2.248868227005005,4.469873905181885,-0.9338401556015016,-0.3109469406127929,-7.205335867714881,-0.5186564287867397,-0.1508346132582984,9.77326678583622,0.7942889679774642
1757089334755596000,4.440595947265625,-2.1236066818237305,4.644466400146484,-0.4207376837730407,-1.427324713203311,-7.8229095476537935,-0.3563846766423433,-0.0627664902375079,9.788849554893376,0.5872756819067523
1757089334765551000,4.450551025390625,-2.0537350177764893,5.174559116363525,-0.2537873089313507,-0.4458803117156028,-8.000290898385643,-0.4107007156543433,-0.0046786684686783,9.799084533181786,0.3851127584766596
1757089334775505200,4.460505126953125,-2.0106847286224365,4.334578514099121,-0.6994732618331909,-1.01678284137249,-8.32980634586811,-0.1614269718833267,0.0408469285074155,9.80478362160623,0.1868653279898688
1757089334785460000,4.4704599609375,-1.9716042280197144,3.7126853466033936,-1.2435463666915894,2.477168697178364,-6.820241740873455,-0.0281981807752745,0.1489708469467237,9.80551193588078,-0.0114558036290167
1757089334795414000,4.4804140625,-1.8790702819824217,3.594289541244507,-0.9356979727745056,-0.0872364031706936,-7.11292704860866,0.6401224886164069,0.2543810403147712,9.80116601563096,-0.2069216622645035
1757089334805368800,4.490368896484375,-2.289547204971313,2.755577087402344,-0.2512653470039367,-3.311452114152908,-5.431509500914812,1.2147788178488612,0.304185008729808,9.793443896946313,-0.4077832573050632
1757089334815324200,4.50032421875,-6.163450241088867,0.9902694821357728,0.2444592118263244,-3.17019304715991,15.999473543268442,-5.542260032397508,0.290268090525642,9.769617615678904,-0.8004288589719682
1757089334825278000,4.51027783203125,-8.843137741088867,-0.5595546960830688,0.3554762899875641,2.415975100547075,53.29415738618373,-16.550166813111304,0.2590968898555263,9.678135848289728,-1.5610710664786398
1757089334835233000,4.52023291015625,-7.527158737182617,-1.6267070770263672,0.2245838493108749,4.4626983710289,38.81747208662033,4.202377455803751,0.2528308517307043,9.516522560054064,-2.354203704027832
1757089334845187800,4.530187744140625,-4.011068820953369,-2.018091917037964,0.1430514454841613,3.5366590458989142,15.212743320107458,14.757590153133869,0.2871797143225558,9.35969709061682,-2.912726936843991
1757089334855142100,4.54014208984375,1.0442476272583008,-2.379668712615967,0.3005003631114959,2.682893514341116,6.7576996522426604,12.383406029611823,0.3320051819389685,9.31846491651833,-3.037489919327199
1757089334865097000,4.550096923828125,2.8319361209869385,-1.848833084106445,0.0583425760269165,1.814882015287876,-2.201414065977931,3.930421632364392,0.3768596016552299,9.383270273905993,-2.825347636337578
1757089334875051000,4.560051025390625,1.7772241830825806,-0.8211963772773743,-0.3090867102146148,0.2672854935407638,-6.923360170042514,-6.988019981479645,0.4253864993391558,9.447446685740353,-2.5952207838460803
1757089334885005800,4.570005859375,0.0618771240115165,-0.0900063663721084,-0.3412685990333557,-1.4839549474418163,-4.203030366754532,-11.027162100803851,0.470160474230349,9.468778812104462,-2.5083070550248023
1757089334894961200,4.579961181640625,-0.2362226992845535,0.6322180032730103,-0.0957368835806846,-2.814140890407562,-2.5968103911250826,-7.284449736440181,0.4839843073235824,9.463230530327555,-2.5265397540688515
1757089334904915200,4.589915283203125,-0.1073209196329116,0.922812521457672,0.1158445999026298,-1.6048048481345176,-1.5806442203462123,-0.1494841667637229,0.4621718500966206,9.4593627489835,-2.545039871877432
1757089334914870000,4.5998701171875,-0.121011696755886,0.8400231003761292,0.2285695523023605,-0.6085574663231149,-0.911189546522498,-0.2981979336768388,0.4225583997737616,9.457291787928344,-2.55958073066622
1757089334924824800,4.609824951171875,-0.099100537598133,0.6062074303627014,0.2519696652889251,0.2449193479537963,-0.1898468645513057,0.2343433011427521,0.381015040834248,9.455406704834102,-2.573029410304129
1757089334934779000,4.61977880859375,-0.0754429996013641,0.2863030433654785,0.2485896199941635,0.453481397836469,0.2203963165938854,1.115066397731006,0.3457332630401477,9.454122510242462,-2.5827120154067877
1757089334944734200,4.629734130859375,-0.0704258680343627,-0.0388742499053478,0.1917380541563034,0.260835842477344,0.6043114627838134,1.047859239898622,0.3214044390780851,9.452980938991905,-2.5900240919858217
1757089334954688000,4.63968798828125,-0.0694082751870155,-0.2803412079811096,0.089671604335308,0.4345324037492275,0.5809487073749303,1.1399845658883452,0.3124584046216681,9.451653489780426,-2.5959584504708646
1757089334964643000,4.64964306640625,-0.0723071247339248,-0.3619340658187866,0.0089695714414119,0.4403741520473733,0.2788660412192345,0.9577949380919336,0.3166427045689896,9.449973573869466,-2.601564307653904
1757089334974598000,4.659597900390625,-0.0777209475636482,-0.3430551588535309,-0.022974207997322,0.2495475557437166,0.2535468910455704,0.5593117528453468,0.3268559459496289,9.448056926593184,-2.607251705640554
1757089334984552000,4.669552001953125,-0.0903938636183738,-0.2686080932617187,-0.0059659299440681,0.1302770331969484,0.1461199510276317,0.317565774230659,0.3364423241361975,9.445798918533324,-2.6142034244745966
1757089334994507000,4.679507080078125,-0.1048337891697883,-0.1948000788688659,0.05684519931674,0.0249918179154396,0.1476712721228599,0.2003586139544844,0.3402733536664396,9.443350940859316,-2.6225425060138106
1757089335004462000,4.689462158203125,-0.1328340023756027,-0.1560380309820175,0.1509852856397628,-0.1109609958956018,0.2439601475328207,-0.0004819382980465,0.3351178340667858,9.44058498327732,-2.633139595612884
1757089335014416000,4.699415771484375,-0.1321654766798019,-0.1460717320442199,0.2465115934610366,-0.2042950766205787,0.2952916908413172,-0.1156397648289799,0.3202641099365428,9.437736608108878,-2.645174024538696
1757089335024371000,4.709370849609375,-0.1276729851961136,-0.1586802005767822,0.3228460252285003,-0.1453600725710392,0.1163239477008581,-0.154634973655641,0.2972426605123095,9.43519335336685,-2.656905963386595
1757089335034325200,4.7193251953125,-0.1362465918064117,-0.1772152483463287,0.3700379133224487,0.0034884266376495,0.0152770641088485,-0.2593330732315778,0.2690019786024466,9.432692184200882,-2.6687755571395155
1757089335044280000,4.729280029296875,-0.1524961292743683,-0.1985554248094558,0.3980415761470794,0.1589525811264291,-0.0680424396127462,-0.2063075854867696,0.2378868920337408,9.429821012678742,-2.6818478046804666
1757089335054235000,4.73923486328125,-0.1291415393352508,-0.219558447599411,0.4083980619907379,0.2647685422837734,-0.0395662867128849,-0.0862988117933273,0.2055429395235143,9.42678208337426,-2.695164966893196
1757089335064189000,4.74918896484375,-0.0476067289710044,-0.2442225217819214,0.396544873714447,0.3020844014550559,0.0997235260337591,-0.0261819044828414,0.173913327561412,9.4251588660866,-2.7030580582305785
1757089335074144000,4.75914404296875,-0.0137855317443609,-0.2332889884710312,0.3625289499759674,0.198766668587923,0.2638561036139726,-0.5471478523209691,0.144801169179799,9.425029102227091,-2.7052254653975365
1757089335084099000,4.76909912109375,0.0029758706223219,-0.1516226232051849,0.3406550586223602,-0.0938753936605993,0.0576414571076631,-0.7759992780491709,0.1172183575236238,9.425341821438074,-2.7054689187645917
1757089335094053000,4.77905322265625,0.0204288996756076,-0.0825316607952117,0.3029714226722717,-0.4458218595266341,0.0917260975390672,-0.6249719734966754,0.0899840579110197,9.425973105078937,-2.70431507255435
1757089335104008000,4.789008056640625,0.042621549218893,-0.0213122386485338,0.2366800308227539,-0.5483201109707355,0.0531049827218055,-0.4098091736420989,0.0657383913209196,9.427036350396277,-2.701306538388133
1757089335113962000,4.7989619140625,0.0440961830317974,-0.0182790756225585,0.1403105854988098,-0.6023287645339965,-0.069417235097289,-0.3694403383746742,0.0482210603048792,9.42835152464807,-2.6970830754742026
1757089335123917000,4.8089169921875,0.0350124053657054,-0.0731598958373069,0.0293001905083656,-0.5760825626432895,-0.1161626196593046,-0.2020125186413526,0.0414275414069648,9.429459193629024,-2.693325768767297
1757089335133872000,4.8188720703125,0.031718760728836,-0.1271137148141861,-0.07600948959589,-0.6519418134868145,-0.2496335169941186,-0.072492697019875,0.0465077216149307,9.430350589510798,-2.6901170358538624
1757089335143826000,4.828825927734375,0.0254065375775098,-0.145422413945198,-0.1570316404104232,-0.625455957621336,-0.291483530730009,-0.1027773606464266,0.0614718701499747,9.431049093168973,-2.687365399058163
1757089335153781000,4.838781005859375,0.0175169967114925,-0.104586660861969,-0.2024910449981689,-0.5899345623850822,-0.2935848869234323,-0.1174938682630658,0.0819150802837684,9.43150443572104,-2.685218450157344
1757089335163736000,4.848736083984375,0.0065165432170033,-0.0501372665166854,-0.2205667197704315,-0.4551718716740608,-0.2311731466740369,-0.1049693177327513,0.1039724795819725,9.431642382887006,-2.68397634114176
1757089335173690000,4.858690185546875,-0.0002865018323063,-0.0218110885471105,-0.2186540365219116,-0.2631272048175335,-0.1229565175831317,-0.0681610975563526,0.1256103565601632,9.431462934666872,-2.683674727846682
1757089335183645000,4.86864501953125,0.0011907536536455,-0.0084196478128433,-0.2070154845714569,-0.1063934870506636,-0.0927630393713712,0.0188286191105842,0.1460478539058007,9.431198146250845,-2.683575359125435
1757089335193599000,4.878598876953125,-0.0056006466038525,-0.0040205563418567,-0.1842872351408004,0.0506336241722106,-0.1096475386768579,0.1475859319269657,0.1645454326974228,9.430872567558287,-2.683644040447473
1757089335203553800,4.8885537109375,-0.0143770948052406,-0.011312024667859,-0.1542763262987136,0.1488333016395568,-0.0616582915335893,0.2818240142419934,0.180668373045884,9.430319025328757,-2.68455501781255
1757089335213509000,4.898509033203125,-0.0152262235060334,-0.0267284642904996,-0.1168622076511383,0.2120341464400291,-0.0115974988132715,0.4150137565478682,0.1933345605365931,9.42963805732727,-2.686063668809831
1757089335223463200,4.908463134765625,-0.0122530702501535,-0.0283758956938982,-0.0819252580404281,0.255892011133302,0.0958440542519092,0.4753717791378498,0.2028971377224661,9.42903950691223,-2.6874647677794097
1757089335233418000,4.91841796875,-0.0047617526724934,-0.0076873507350683,-0.0440811738371849,0.2313619655107147,0.2047667857855558,0.4896212537646293,0.2087225376740097,9.428604038104414,-2.68854613327533
1757089335243372800,4.928372802734375,-0.0056480523198843,0.0402889624238014,-0.0172341130673885,0.2216109713469631,0.1990028154313564,0.5490507633328437,0.2106920659149996,9.428382504308225,-2.6891680645659566
1757089335253327000,4.9383271484375,-0.0109207704663276,0.0808729529380798,-0.0084201022982597,0.2580839499533176,0.2209574576079845,0.5829287752762436,0.2099828581997193,9.428124145632982,-2.690125511421263
1757089335263282200,4.9482822265625,-0.0109319556504488,0.119861364364624,-0.0207196474075317,0.288372705233097,0.2109720701664686,0.7006590826436877,0.2084241757819429,9.427784538415072,-2.6914374708026645
1757089335273236000,4.958236083984375,-0.0186215993016958,0.1685841083526611,-0.0546034462749958,0.3915782281637192,0.1895832451790571,0.7447934079244732,0.2080197962321341,9.42732627325356,-2.6930747166156768
1757089335283191000,4.96819091796875,-0.019431734457612,0.2048774063587188,-0.0906642451882362,0.4276116645753383,0.1817880612581968,0.7401110953271388,0.2098449658326804,9.426741751363872,-2.6949767508447167
1757089335293146000,4.97814599609375,-0.0165454801172018,0.2321601510047912,-0.1256445050239563,0.4428022194445133,0.2398877835273742,0.6191448747783899,0.2142562429362907,9.426102284416556,-2.69686271072179
1757089335303100200,4.98810009765625,-0.0142224039882421,0.2499878853559494,-0.1536399275064468,0.4914063836157322,0.1933446435391903,0.5013964472323655,0.2211675749610178,9.425508994698523,-2.6983754533723
1757089335313055000,4.998054931640625,-0.0040950868278741,0.2888850271701813,-0.1706672310829162,0.5406161124646663,0.1665250256747007,0.4171493072718382,0.2295689080814831,9.425095737722517,-2.699122764608264
1757089335323010000,5.008010009765625,-0.0004207231104373,0.3661774098873138,-0.1683356314897537,0.4279752371907234,0.224367558312416,0.3320841289266943,0.2371637471246533,9.42501273561418,-2.6987521777302024
1757089335332963800,5.0179638671875,0.0014044914860278,0.3586760759353637,-0.1648612916469574,0.3566483690798282,0.1931406453996896,0.3766486623182892,0.2435481509321369,9.425115026944876,-2.6978268795788285
1757089335342919200,5.027919189453125,0.0029853438027203,0.3123559951782226,-0.1757272630929947,0.630700288015604,0.2623363467007875,0.5298126866385341,0.2515628410888835,9.425351173788307,-2.696265621611476
1757089335352873000,5.037873046875,-0.0027844293508678,0.292611688375473,-0.1642722934484481,0.6054115329802036,0.3017436434596777,0.3217483206123113,0.2605414991732687,9.425598426547646,-2.694551803430915
1757089335362828000,5.047828125,0.0307498294860124,0.4084394872188568,-0.184528574347496,0.4610229723224416,0.2604869194418192,0.2807458636164665,0.268909605877567,9.426303944468495,-2.691258022582531
1757089335372782800,5.057782958984375,0.0058672316372394,0.341418981552124,-0.1483523100614547,0.2242646824598312,0.337801045268774,0.0532815083324909,0.2755248044999316,9.42680078807473,-2.688848623353243
1757089335382737000,5.06773681640625,0.0019659667741507,0.262249082326889,-0.1192583367228508,-0.0439993007242679,0.2830845356971025,-0.0154798932045698,0.2808758466716856,9.426749934670328,-2.688471606734395
1757089335392692000,5.07769189453125,0.0267381537705659,0.1505717784166336,-0.1230233609676361,-0.1092588316202163,0.1377677177459001,0.1043298507854342,0.286429480477143,9.426768054848909,-2.687823079697788
1757089335402647000,5.08764697265625,0.0279893074184656,0.157972440123558,-0.1825972199440002,0.0390040131876245,0.0426648372501134,0.2133423064291477,0.2967832445733249,9.427152085730432,-2.6853555205404755
1757089335412601000,5.09760107421875,0.0084084952250123,0.152311086654663,-0.2087836414575576,-0.0654196898937225,0.0484264695167541,0.0375081851392984,0.3111247813977301,9.427074928840996,-2.683998845234513
1757089335422556000,5.107555908203125,-0.0096075236797332,0.0567864254117012,-0.19929239153862,-0.3964192384541034,0.1018260512709617,-0.1715218110486865,0.3274365953817963,9.426348368132114,-2.68461113191396
1757089335432510000,5.117510009765625,0.0147620355710387,-0.0595913380384445,-0.1913737207651138,-0.5650421131908894,0.0527811575949192,-0.3049056146219372,0.3456730938181281,9.425712992838024,-2.68455443329066
1757089335442465000,5.127465087890625,0.050897404551506,-0.0767567455768585,-0.226774588227272,-0.5781400796949863,-0.0154424838036298,-0.6865320653527974,0.3671506565349176,9.42585210904777,-2.6812118448644875
1757089335452420000,5.137420166015625,0.0478596836328506,0.020953482016921,-0.2937875986099243,-0.5032125202110037,-0.0372287836760282,-0.9884975348696112,0.392331640346907,9.4262414006263,-2.676277311071753
1757089335462374000,5.147373779296875,0.0426153875887393,0.1245621591806411,-0.3526410758495331,-0.3957587652513757,-0.1060638349711895,-1.1456737174406646,0.4207478797530755,9.42609176302254,-2.6724790878325697
1757089335472329000,5.157328857421875,0.0681163743138313,0.1705114543437957,-0.3826139867305755,-0.2465805591642856,-0.1703817011028528,-1.0822791036337611,0.4514341464504599,9.425916406455636,-2.6680881593972443
1757089335482284000,5.167283935546875,0.0927463546395301,0.1851734817028045,-0.3727403283119201,-0.1378011085588485,-0.2163338894605636,-1.0616332059681417,0.4822666897507384,9.426377009704709,-2.661050808106362
1757089335492238000,5.177238037109375,0.0716527104377746,0.1413687616586685,-0.3300977051258087,0.0167348617017269,-0.1966021840304136,-1.1780611985653635,0.5110371859546751,9.426848134347797,-2.654008196118474
1757089335502193000,5.18719287109375,0.0374601148068904,0.0365190431475639,-0.2636017799377441,0.2065373025894165,-0.3017325375437736,-1.1243643874302507,0.5365627454206348,9.42678325241804,-2.649196704183519
1757089335512147000,5.19714697265625,0.0202740915119647,-0.114950954914093,-0.184583693742752,0.3825800616612658,-0.3430997361987829,-1.1021467104032634,0.5587899209283292,9.426101699894666,-2.6470231595367197
1757089335522102000,5.20710205078125,0.0161728225648403,-0.238979160785675,-0.113427497446537,0.3528489767968654,-0.2234048507601022,-0.892203983284533,0.5774483345711603,9.42581762225628,-2.644031868766248
1757089335532057000,5.21705712890625,0.0086987037211656,-0.2653037011623382,-0.0549837462604045,0.1249134968698024,-0.0565203441232442,-0.9335098071411252,0.5920004454063251,9.42562999072969,-2.641482184283435
1757089335542011100,5.22701123046875,0.0100041851401329,-0.250708520412445,-0.0285287071019411,-0.1410837104260921,0.1606073260635137,-0.8459224168419838,0.6024162236217409,9.42562648359835,-2.6391373747229574
1757089335551966000,5.236966064453125,0.0241889376193285,-0.2178128957748413,-0.0455187484622001,-0.278187995827198,0.1823649843633174,-0.6400257502436637,0.6117296300858259,9.425864968529345,-2.6361399464726447
1757089335561921800,5.246921875,0.0320127718150615,-0.1541385799646377,-0.0947089344263076,-0.3300630714278668,0.240574596747756,-0.5143488677859306,0.6232033563889563,9.426165412780644,-2.6323805939391254
1757089335571875800,5.256875732421875,0.0454550795257091,-0.0543921180069446,-0.1475446671247482,-0.5172024305861443,0.3980786960989236,-0.3158621851831674,0.6372120810624212,9.426379347792269,-2.628257961051166
1757089335581830700,5.26683056640625,0.0638910830020904,0.0437658764421939,-0.1950197666883468,-0.7070130547802895,0.422407081669569,-0.143830963307619,0.6534430848952383,9.426741166841984,-2.622968622471392
1757089335591785000,5.276784912109375,0.0758585259318351,0.1230059936642646,-0.2249568402767181,-0.8402958091318606,0.4007347635656595,0.0163303725540637,0.6709062608715146,9.427163776168229,-2.6170319258987904
1757089335601739800,5.28673974609375,0.09544288367033,0.1412145495414734,-0.2435933649539947,-0.5834802716791629,0.4922609546184539,0.146719962747395,0.689273984472081,9.427814349031449,-2.609904265975952
1757089335611694800,5.29669482421875,0.1635102331638336,0.2503367960453033,-0.2900393605232239,-0.0394774393856525,0.5314964019417763,0.6931514834925532,0.7092557191405445,9.429280329930782,-2.5992349879235026
1757089335621649000,5.30664892578125,0.1947586983442306,0.2674888968467712,-0.3191138803958893,0.4364368491310626,0.5261170469909906,1.5411258644282817,0.7310358815331012,9.431817739453912,-2.583950617291033
1757089335631604000,5.31660400390625,0.2259742170572281,0.1547034978866577,-0.3281900584697723,0.5769160177927464,0.3886608794122934,1.569144921210408,0.7559055343735963,9.43474794768691,-2.5660303451970217
1757089335641558800,5.326558837890625,0.2540476620197296,0.006345713045448,-0.3116217255592346,0.6403880807500332,0.2211415820032358,1.7353329700157043,0.784161395586282,9.438413484457136,-2.543974288472533
1757089335651512800,5.336512939453125,0.2583622634410858,-0.0391843803226947,-0.2441748231649398,0.2307868507701903,0.1775070229381322,1.2865005304962396,0.8111398572742938,9.442695691820978,-2.519514677737653
1757089335661468000,5.346468017578125,0.2502622306346893,0.097705028951168,-0.1954459100961685,-0.3002677987534553,-0.0276093069374561,0.8098027634516358,0.8311817246321588,9.447295879092811,-2.4956197151482105
1757089335671421700,5.356421630859375,0.2228734791278839,0.2623825967311859,-0.1736305952072143,-0.4710253474313765,-0.3022363954126835,0.5408002368599176,0.8437729837231338,9.451677455177904,-2.474716335590184
1757089335681377000,5.366376953125,0.2091566026210785,0.3945661783218384,-0.1936319917440414,-0.5142319634079933,-0.4282341803878545,0.2715320450693368,0.8527124423082918,9.455422486925125,-2.4572885231882333
1757089335691331800,5.376331787109375,0.1918844133615493,0.4627327620983124,-0.2383372783660888,-0.3518377539277076,-0.410648254814744,0.2018456376418471,0.8624015502169727,9.458485966148972,-2.442070057398826
1757089335701286000,5.386285888671875,0.1670549660921096,0.4390676319599151,-0.2830613255500793,-0.2068483412999659,-0.3649930035769939,0.0277450621463358,0.876027778378874,9.460563941466807,-2.429129181152582
1757089335711240700,5.39624072265625,0.1380590051412582,0.3618239760398865,-0.3172819018363952,0.0013888240098953,-0.3961129489839077,-0.1276724401891231,0.8946412203688174,9.4616073130399,-2.418261750179529
1757089335721194800,5.40619482421875,0.1036054342985153,0.2398080676794052,-0.3231371343135834,0.251723109684512,-0.4402414290457964,-0.3064088587917387,0.9176949098285287,9.461592699992655,-2.4096631409212947
1757089335731149800,5.41614990234375,0.0797875598073005,0.1055869683623313,-0.2983240485191345,0.4545898340024054,-0.4426537508845329,-0.4321430243946612,0.9430251659180968,9.460863801196217,-2.4027416710950438
1757089335741105000,5.42610498046875,0.0562417581677436,-0.0210261028259992,-0.2452325969934463,0.5686158069591969,-0.4976625214010476,-0.4676851701579987,0.9677131785813718,9.4599069388628,-2.396677694880962
1757089335751059000,5.436058837890625,0.0282400250434875,-0.1357986479997635,-0.1755865663290023,0.619090514242649,-0.4246510612040758,-0.3778700208067894,0.9893641616363078,9.458871750596163,-2.391922024786472
1757089335761013800,5.446013671875,0.0080569926649332,-0.2378150224685669,-0.1109175533056259,0.5666775323729962,-0.3066413523733615,-0.1768405218534171,1.0072103455808012,9.457878063383696,-2.3883967732697724
1757089335770968800,5.45596875,-0.0041797766461968,-0.2976167201995849,-0.0668879896402359,0.4683165999293327,-0.2441337505340576,-0.0451740435920655,1.0219240036532282,9.457021738815309,-2.385539191881567
1757089335780923000,5.4659228515625,-0.0188838876783847,-0.2745345830917358,-0.0508743971586227,0.2653403508223593,-0.2347323004603385,-0.1270931789964437,1.034261872505024,9.456150801199676,-2.383676466749608
1757089335790877700,5.475877685546875,-0.0229176636785268,-0.1821451634168625,-0.0548437014222145,0.0166062668859958,-0.2477425886809825,-0.2275280681699514,1.044623692043498,9.45509340110123,-2.383348842230439
1757089335800831700,5.485831787109375,-0.0234572198241949,-0.0631676465272903,-0.0762062519788742,-0.1608405502974987,-0.2212333519399166,-0.3855449393488466,1.053579005784914,9.453874088439346,-2.384247106244415
1757089335810787000,5.495787109375,-0.0237226951867342,0.0339549705386161,-0.1031292304396629,-0.1565244406640529,-0.1963841573655605,-0.4334145056352019,1.062280417830497,9.452368360051512,-2.3863564996138216
1757089335820742000,5.505741943359375,-0.0122719006612896,0.0786918178200721,-0.1133222132921218,-0.1137723635219037,-0.147359721955657,-0.3805101600520312,1.0711544830292463,9.450779629555344,-2.388683481256664
1757089335830696000,5.515696044921875,0.0075259967707097,0.0873297452926635,-0.1032508164644241,-0.067733227533102,-0.060094110956788,-0.2914094425804913,1.0794329934876412,9.449554471674562,-2.389797141586989
1757089335840650800,5.525650634765625,0.0273178108036518,0.080365315079689,-0.0646504238247871,0.0150046769082546,-0.0081114102631807,-0.255009657074511,1.0854304803367705,9.449047106674312,-2.3890868013605475
1757089335850606000,5.535606201171875,0.0416848063468933,0.0685010701417923,-0.0083399303257465,0.0446400828458368,-0.0087198975503444,-0.2230053300485014,1.0870687490630897,9.449507125401496,-2.386525134178996
1757089335860560000,5.545559814453125,0.0470625273883342,0.0571876950562,0.0481963157653808,-0.0525029251754283,-0.0395014047831296,-0.1942944916099309,1.0836561641406268,9.450659218046068,-2.383512362229079
1757089335870515000,5.555514892578125,0.0485384911298751,0.0074711423367261,0.0617726668715477,0.0780197898782789,-0.0174497319728136,-0.114978524441272,1.0776316431540995,9.452251455673576,-2.3799293891757727
1757089335880468700,5.56546875,0.0370701178908348,-0.0903965607285499,0.0744770094752311,-0.0410884547788649,0.0911117650330066,-0.0400282051362097,1.0717919772151856,9.453821481469271,-2.376319674246013
1757089335890423800,5.575423828125,-0.0007037424948066,-0.1007049977779388,0.0796486139297485,-0.4283271193683147,0.1134592059195041,-0.1421937174946069,1.0662322972614318,9.45496714437306,-2.3742618649333718
1757089335900379000,5.58537890625,0.0105419876053929,-0.1081346794962883,0.0950795039534568,-0.3757822547473013,0.3169768684267997,-0.1534841961853206,1.0608226933028548,9.455554588872191,-2.374343551867455
1757089335910333000,5.5953330078125,-0.0060824071988463,-0.0795347020030021,0.1112603843212127,-0.336992140038684,0.4765490062236786,0.1596148078948259,1.052858801751584,9.456693822035191,-2.373353371786326
1757089335920287700,5.605287841796875,0.017800023779273,-0.1205915957689285,0.1230075880885124,-0.1555938818156719,0.4444166689038276,-0.2838397379785776,1.044291318283975,9.457852344420552,-2.3725270039647817
1757089335930242800,5.615242919921875,-0.0022686903830617,-0.1398655176162719,0.110642209649086,-0.0127240916904062,0.1468739842653274,-0.0452317651286721,1.0363941352933643,9.459110235527158,-2.370966184388846
1757089335940196900,5.62519677734375,0.0342954434454441,-0.0241525005549192,0.0202025882899761,0.2380089840434491,-0.1068324812561273,-0.06743380619511,1.0321149966694414,9.460079957342147,-2.368965512090921
1757089335950152000,5.63515185546875,0.035132061690092,-0.0205784477293491,0.0091388989239931,0.277793955008313,-0.0721878688544035,-0.0023509470403194,1.0318342069666833,9.460899457031488,-2.365813623931259
1757089335960106000,5.64510595703125,0.0397297404706478,-0.1223412975668907,0.0595189817249774,-0.0427858332812786,-0.3901923267632722,-0.2826923215091228,1.0303946026176214,9.462122276824712,-2.3615537745296957
1757089335970060800,5.655060791015625,0.0441121235489845,-0.0435898452997207,0.0521946102380752,-0.1157141452394425,-0.4330944799005985,-0.2502924192942679,1.0261093265138566,9.463725035846233,-2.356993480876833
1757089335980015900,5.665015869140625,0.0264790672808885,0.0145557466894388,0.0129979392513632,-0.0411572091661393,-0.3666366791307926,-0.1521453487969934,1.0224806146226824,9.46490343197584,-2.3538357474982736
1757089335989970000,5.674969970703125,0.0147516904398798,0.008910359814763,-0.0361188016831874,-0.0829286047078669,-0.3083072397589683,-0.1329604635946452,1.0228026861838997,9.465379232794046,-2.3517718007057904
1757089335999925000,5.684925048828125,0.0029227277263998,0.0225577298551797,-0.0835459753870964,-0.0821511175293475,-0.1769762770622968,-0.0185574009537696,1.0280098994381726,9.464982342430948,-2.3511035460554064
1757089336009878800,5.694878662109375,-0.0124249197542667,-0.0574346669018268,-0.0505215898156166,-0.2972751197434962,-0.1706856524854898,-0.1151617720536887,1.0351375593610108,9.464077502545711,-2.351613979795575
1757089336019833900,5.704833740234375,-0.0181320738047361,-0.0702801570296287,0.0036020968109369,-0.5720693084139377,0.0171779292941093,-0.0325834420882165,1.0392383457433432,9.46341114759147,-2.3524901781082157
1757089336029788700,5.71478857421875,-0.0149056883528828,-0.0326889231801033,0.023994218558073,-0.4479367327887564,0.1643938588649034,0.0042436289191246,1.0393046159125865,9.463139344912769,-2.353553861816972
1757089336039743000,5.724742919921875,-0.0153680136427283,-0.0179049149155616,0.0236155167222023,-0.3201004072748124,0.1050847608059644,-0.000836304693669,1.0374635911557823,9.462894430240988,-2.355357696368545
1757089336049697800,5.73469775390625,-0.0149120055139064,-0.0044802334159612,0.0093117365613579,-0.2586076815664768,0.0772562581598758,0.0917202523201703,1.0359751061636957,9.462589894336462,-2.357233573243022
