time,seconds_elapsed,z,y,x
1757089330335747600,0.02074755859375,-9.563440963095426,-1.7813341120816766,1.2400948992826044
1757089330345701400,0.030701416015625,-9.569503624135255,-1.7651918094456194,1.21617509451285
1757089330355656400,0.040656494140625,-9.575245382657647,-1.74997261300385,1.192753448523581
1757089330365611300,0.050611328125,-9.58077671329975,-1.7333748216852545,1.1723985696937889
1757089330375565300,0.0605654296875,-9.58672831518054,-1.7133512937016784,1.1530186003107576
1757089330385520400,0.070520263671875,-9.59336497671604,-1.6879690151639282,1.1351183480914682
1757089330395474400,0.080474365234375,-9.601241993701457,-1.6537544647425413,1.1187633525528013
1757089330405429200,0.09042919921875,-9.611931145498156,-1.6057773464284837,1.0966492089655249
1757089330415384300,0.10038427734375,-9.627039282780885,-1.5403675934068857,1.057245054011792
1757089330425338600,0.110338623046875,-9.638143445119262,-1.4624441035099327,1.0666945079457013
1757089330435293400,0.12029345703125,-9.624511225607991,-1.4006056331038474,1.255975043851137
1757089330445247500,0.13024755859375,-9.612932431495189,-1.3377505330011248,1.4044006414726375
1757089330455202300,0.140202392578125,-9.609621699512005,-1.2605989042595027,1.4954730974085628
1757089330465157600,0.15015771484375,-9.610454643204807,-1.1886669829275458,1.5481012563988565
1757089330475111400,0.160111328125,-9.616884968513249,-1.1326314997117966,1.5501768936291336
1757089330485066500,0.17006640625,-9.624795303246378,-1.0926388042803854,1.5296530149079859
1757089330495021300,0.180021240234375,-9.633194298279285,-1.0687227989029138,1.4932446077041328
1757089330504975400,0.189975341796875,-9.643402388560771,-1.0635486111354082,1.4296974336840211
1757089330514930400,0.199930419921875,-9.6524689075917,-1.0786558716353027,1.355259740076214
1757089330524884500,0.209884521484375,-9.657386490249634,-1.116169828928262,1.2881902371488512
1757089330534839300,0.21983935546875,-9.653286653715371,-1.1903732753887772,1.2519799828656017
1757089330544794400,0.22979443359375,-9.640167644423245,-1.3086723225548862,1.234879210460931
1757089330554748200,0.239748046875,-9.617767012044787,-1.4598631471060215,1.2400570514902471
1757089330564703000,0.249702880859375,-9.581984335523844,-1.620540031274408,1.3152210135459899
1757089330574657000,0.259656982421875,-9.529331772744655,-1.7672798677660524,1.4963098404936492
1757089330584611800,0.26961181640625,-9.45864086444974,-1.8981338606007396,1.7611321587912738
1757089330594567200,0.279567138671875,-9.376508524686098,-2.0124147581666705,2.0497955175340175
1757089330604521000,0.28952099609375,-9.288440365132688,-2.0996533350281417,2.342374003893882
1757089330614476000,0.29947607421875,-9.197291775220632,-2.1477860822953283,2.6395488781332967
1757089330624430800,0.309430908203125,-9.125520085951685,-2.142006183719635,2.8821994043722747
1757089330634385000,0.319385009765625,-9.094016109663247,-2.102287775184959,3.008262071277201
1757089330644340000,0.329340087890625,-9.122876877966522,-2.03391025839895,2.967610911937058
1757089330654294000,0.3392939453125,-9.145764417079091,-1.9284486271046102,2.9675679495781657
1757089330664248800,0.349248779296875,-9.131095255735517,-1.8123428521990774,3.0836504897385835
1757089330674204000,0.359203857421875,-9.091776806303859,-1.7105904506862162,3.2532851718664166
1757089330684158200,0.369158203125,-9.033409373009205,-1.6311071641266346,3.450708901412785
1757089330694113000,0.379113037109375,-8.946885520288347,-1.5830290696561335,3.6902094391882416
1757089330704067800,0.38906787109375,-8.818484181302786,-1.5754323309168219,3.9903301576212047
1757089330714022000,0.39902197265625,-8.649663153645395,-1.607784448467195,4.332290952917933
1757089330723977200,0.408977294921875,-8.450608315765857,-1.6667309968240558,4.688241695122421
1757089330733931000,0.418930908203125,-8.199583052152395,-1.7526573220431803,5.085805135175585
1757089330743886000,0.428885986328125,-7.916131436708569,-1.8305745283298194,5.4912885545730585
1757089330753841000,0.4388408203125,-7.5928206890851255,-1.8787011381171643,5.915229421681166
1757089330763795000,0.448794921875,-7.225631636768579,-1.9052130052067338,6.3506532213121645
1757089330773750000,0.45875,-6.820529325643181,-1.8900063759855925,6.788124601122736
1757089330783704000,0.4687041015625,-6.386372184947133,-1.829926293554157,7.213598084625601
1757089330793659000,0.478658935546875,-5.932492691171169,-1.7231329752646385,7.616215008676051
1757089330803614000,0.488614013671875,-5.450542118164897,-1.5742995274946092,7.9989728015244
1757089330813568000,0.498568115234375,-4.927430098208784,-1.3920514475092292,8.363791617578267
1757089330823523000,0.508523193359375,-4.3623055674314495,-1.1787903165575115,8.703511648210883
1757089330833478000,0.518477783203125,-3.7789226186469196,-0.9283723711874335,9.001569881156087
1757089330843432000,0.528431884765625,-3.220058025047183,-0.6326152547914534,9.241289322379231
1757089330853386800,0.53838671875,-2.7176231746777892,-0.28414330576872454,9.418290149360894
1757089330863341000,0.548341064453125,-2.2834539051525296,0.13127130493130534,9.536194059729576
1757089330873296100,0.558296142578125,-1.9480720498546957,0.6134848762553184,9.59161258009076
1757089330883251000,0.5682509765625,-1.7533130094729363,1.145486670435965,9.58040378833413
1757089330893205000,0.578205078125,-1.712207822754979,1.703131074590981,9.504633384817838
1757089330903160000,0.58816015625,-1.8290968569926918,2.2461137700565157,9.369085096687078
1757089330913115100,0.598115234375,-2.0948843670606614,2.722793855313957,9.185217891067266
1757089330923069000,0.60806884765625,-2.460157356622815,3.101381669001281,8.972147971838712
1757089330933024000,0.61802392578125,-2.831056953895092,3.3986461212202905,8.752412164980173
1757089330942977800,0.627977783203125,-3.113695207129419,3.6459874356240034,8.5546514585644
1757089330952933000,0.63793310546875,-3.2591505567684766,3.857307880836725,8.40651549153924
1757089330962888000,0.647887939453125,-3.272335909295082,4.033986343996227,8.31800251082778
1757089330972842000,0.657842041015625,-3.1939149912700056,4.179709404660761,8.27643131403327
1757089330982796800,0.667796875,-3.0718638980939983,4.299793873938918,8.261102811998128
1757089330992752000,0.677752197265625,-2.9429443804532287,4.397893890424072,8.256391565567254
1757089331002706200,0.6877060546875,-2.831045847979188,4.478485722747445,8.252195867443085
1757089331012661000,0.697660888671875,-2.7535309388831255,4.546159913569689,8.241412607622147
1757089331022615000,0.707614990234375,-2.7197581408798692,4.605066276046633,8.219894018775225
1757089331032569900,0.71756982421875,-2.732769013622403,4.66191804408133,8.183451417040825
1757089331042525000,0.72752490234375,-2.7861691798985,4.724842117767036,8.129177390539645
1757089331052479000,0.73747900390625,-2.8591674883529543,4.803180033683777,8.057606192278861
1757089331062434000,0.74743408203125,-2.933816778884828,4.8997030101105565,7.972201698976755
1757089331072388900,0.757388916015625,-2.992614712551236,5.005613992607593,7.884063981318473
1757089331082343000,0.767343017578125,-3.0235020182460546,5.113524332228303,7.802607933381199
1757089331092298000,0.777298095703125,-3.025634646360576,5.21739036489427,7.73270729868114
1757089331102252000,0.787251953125,-3.010682576422393,5.315335775339603,7.671596704158186
1757089331112206800,0.797206787109375,-2.9946868426501747,5.410260961180925,7.6112623547047376
1757089331122162000,0.807161865234375,-2.9901240647792813,5.5069262686878435,7.54342800488472
1757089331132116000,0.817115966796875,-2.998959405402839,5.6085161731153725,7.4646607576400035
1757089331142071000,0.827071044921875,-3.0186604234337806,5.714213512861728,7.376031457072496
1757089331152025000,0.837025146484375,-3.044120735643804,5.818283543667197,7.283631990316509
1757089331161980000,0.84697998046875,-3.0696500214368103,5.9154258210361,7.194121230739355
1757089331171935000,0.85693505859375,-3.096111619643867,6.004364918205142,7.108591649752855
1757089331181889000,0.866888916015625,-3.128715081606805,6.087385146719217,7.023194170713424
1757089331191844000,0.876843994140625,-3.172164054971933,6.165508250841498,6.935003261563182
1757089331201798000,0.8867978515625,-3.2282498070701955,6.238433201798796,6.843299375855922
1757089331211753000,0.8967529296875,-3.295821414300799,6.304525091865658,6.749882256489991
1757089331221708000,0.9067080078125,-3.371849007448554,6.361919880735874,6.657853376612067
1757089331231662000,0.916662109375,-3.4546856960892676,6.4093772129595274,6.56927785205841
1757089331241617000,0.926616943359375,-3.54069458502531,6.4468579255700105,6.486283927029371
1757089331251572000,0.936572021484375,-3.624455987295508,6.475659657162428,6.410891124653816
1757089331261525800,0.94652587890625,-3.701749947117269,6.495579578641057,6.346248848873376
1757089331271481000,0.956481201171875,-3.7684915332645175,6.505637446796894,6.296470380225777
1757089331281435100,0.96643505859375,-3.820908241461217,6.505702913248538,6.2647325951814645
1757089331291390000,0.976389892578125,-3.8578912336826323,6.496769080686569,6.251323663032054
1757089331301344800,0.9863447265625,-3.8795717350929975,6.482526620322465,6.252691444253921
1757089331311299000,0.996299072265625,-3.886941094817221,6.46659021552205,6.2646051694095135
1757089331321254000,1.00625390625,-3.8828412582829595,6.449926665490866,6.284294789263606
1757089331331209000,1.016208984375,-3.8703748676806686,6.432194609445333,6.3101072759121655
1757089331341163000,1.0261630859375,-3.852899124483764,6.412451798099279,6.3408198095619674
1757089331351118000,1.0361181640625,-3.838846049211919,6.391470969390869,6.370457991978526
1757089331361072000,1.046072021484375,-3.8384745855510234,6.370017262473702,6.392134401735663
1757089331371027000,1.05602685546875,-3.8603427184879777,6.347859206679463,6.401001014280319
1757089331380982000,1.06598193359375,-3.904941446410119,6.323752354905009,6.39780952476263
1757089331390935800,1.075935791015625,-3.9664600372120735,6.298799699956178,6.38456776587367
1757089331400891100,1.08589111328125,-4.04084278576225,6.277437762975692,6.358911931091547
1757089331410845000,1.095844970703125,-4.120650774231553,6.263501007559896,6.321328342628479
1757089331420800000,1.105800048828125,-4.199664397452771,6.257083541733026,6.275516439524292
1757089331430754800,1.1157548828125,-4.2763264891117805,6.256002760758996,6.224616857892275
1757089331440708900,1.125708984375,-4.347554280762374,6.256859669849276,6.174209443691373
1757089331450664000,1.135663818359375,-4.409678143981099,6.256999370580911,6.129852415570617
1757089331460619000,1.145618896484375,-4.461336142764985,6.255189690810441,6.0942158695220945
1757089331470573000,1.155572998046875,-4.504013839496672,6.251953193107247,6.06607990836203
1757089331480528000,1.16552783203125,-4.540276700749993,6.250601778498291,6.040384910613298
1757089331490482200,1.175482177734375,-4.570780852346122,6.253509774899483,6.014314649811387
1757089331500437000,1.18543701171875,-4.595730584685504,6.258790345650911,5.989758885225653
1757089331510392000,1.19539208984375,-4.614200891877711,6.2643468107342715,5.969714460584521
1757089331520345900,1.205345947265625,-4.624326564572751,6.269446179699897,5.956511280140281
1757089331530301200,1.21530126953125,-4.626014371529221,6.272349499925971,5.952143732580542
1757089331540256000,1.225256103515625,-4.620424588698149,6.272253638336062,5.956583176332712
1757089331550210000,1.2352099609375,-4.609825453272461,6.269577697125077,5.967603167518973
1757089331560165000,1.2451650390625,-4.597003673361241,6.2652382066160435,5.982034428453445
1757089331570119200,1.255119140625,-4.583020448455215,6.2604346057266,5.997772095811366
1757089331580074000,1.265073974609375,-4.569091291823983,6.25539719608128,6.013633681809901
1757089331590029300,1.275029296875,-4.557020914801955,6.24931816842854,6.029092532226443
1757089331599983000,1.284983154296875,-4.551227718353271,6.241757962307333,6.041289165976643
1757089331609938200,1.294938232421875,-4.556421487604081,6.2322577280342575,6.047178224015235
1757089331619892200,1.304892333984375,-4.570765947037935,6.219823778396845,6.049155077046156
1757089331629847000,1.314846923828125,-4.594016766504943,6.202423730784655,6.04940817502439
1757089331639802000,1.324802001953125,-4.626619059424102,6.1791252727836365,6.048404550939798
1757089331649756200,1.334756103515625,-4.666313648691773,6.1486073849231,6.049009531095623
1757089331659711200,1.344711181640625,-4.711217497040331,6.109072662392259,6.054258537665009
1757089331669666000,1.354666015625,-4.756149110178649,6.061458093780279,6.066972473287582
1757089331679620000,1.3646201171875,-4.796439034990966,6.008339082533121,6.088055593326687
1757089331689575200,1.3745751953125,-4.831133624014258,5.955996900877357,6.112007546800375
1757089331699529200,1.384529296875,-4.857722355732322,5.9102416963964695,6.135304251235723
1757089331709484000,1.394484130859375,-4.877348554961383,5.871221353128552,6.157160693734884
1757089331719439000,1.404439208984375,-4.8968537581592795,5.834308211272955,6.176734578254819
1757089331729393200,1.41439306640625,-4.923911276432872,5.792872623556852,6.194198923274874
1757089331739348200,1.42434814453125,-4.960961196410656,5.742679728889465,6.211350549083948
1757089331749303000,1.434302978515625,-5.007195124319195,5.683763429540395,6.228420341828465
1757089331759257000,1.444257080078125,-5.062573897191882,5.618651782682537,6.242714240118861
1757089331769212200,1.454212158203125,-5.127469855472445,5.550037096139788,6.251122002980113
1757089331779166200,1.464166259765625,-5.2003848695576185,5.479694562891125,6.252945126754045
1757089331789121000,1.47412109375,-5.279252654567361,5.406954905372857,6.250178000128269
1757089331799076000,1.484076171875,-5.36317889201045,5.329563622656464,6.245194951018691
1757089331809030100,1.494030029296875,-5.449684624552726,5.24674739228189,6.240428759530186
1757089331818985200,1.503985107421875,-5.534470109173655,5.160132354146242,6.238032219782471
1757089331828940000,1.51393994140625,-5.613831815180182,5.07315082078576,6.238462427893281
1757089331838894000,1.52389404296875,-5.688695040723681,4.986909876659512,6.24018033772707
1757089331848849200,1.53384912109375,-5.762231986099481,4.901141518481076,6.240663152807951
1757089331858803000,1.543802978515625,-5.8358379050582645,4.815554069827496,6.238896143135428
1757089331868758300,1.55375830078125,-5.908798511850834,4.729854392971098,6.2357812259852885
1757089331878713000,1.563713134765625,-5.9837424014151095,4.64437683443278,6.228561796125769
1757089331888667100,1.573667236328125,-6.0656988000899545,4.56037811627537,6.211330675339698
1757089331898622000,1.5836220703125,-6.15390490680933,4.481673120611906,6.181783678337931
1757089331908576300,1.593576171875,-6.242481015884876,4.411119282700121,6.143602123981714
1757089331918531000,1.603531005859375,-6.327502062827349,4.350208302402496,6.099900344899297
1757089331928486100,1.613486083984375,-6.404845414748787,4.300636462242901,6.054160922509431
1757089331938440200,1.623440185546875,-6.467313269099593,4.262734309349954,6.0144268780142065
1757089331948395300,1.633395263671875,-6.511310816258192,4.238404462474584,5.984074409848451
1757089331958350000,1.64335009765625,-6.5436722861588,4.226898149076104,5.956851471880078
1757089331968304000,1.65330419921875,-6.562724777153134,4.219549832139909,5.941079902252555
1757089331978259200,1.66325927734375,-6.574702799716592,4.210554917040467,5.934214692658186
1757089331988213000,1.673212890625,-6.588515636491775,4.200575082556903,5.925961243575811
1757089331998168300,1.683168212890625,-6.603402239978313,4.188114829434454,5.91820522262156
1757089332008123100,1.693123046875,-6.620911593183875,4.171415915828943,5.910432250532508
1757089332018077200,1.7030771484375,-6.643966890078783,4.155046672569215,5.8960734703123565
1757089332028032000,1.713031982421875,-6.669414050546288,4.143283754061162,5.875584809035063
1757089332037987300,1.7229873046875,-6.690986999928951,4.136877101889253,5.855538046306371
1757089332047941000,1.732941162109375,-6.707330816486477,4.132180176244676,5.840135894513129
1757089332057896200,1.742896240234375,-6.721227239891887,4.124655041436851,5.829469539070129
1757089332067850200,1.752850341796875,-6.736367525878548,4.113609915809333,5.819789272055029
1757089332077805000,1.76280517578125,-6.753767573490738,4.101430817715824,5.80820697081089
1757089332087760100,1.772760009765625,-6.772949828344583,4.09149803724438,5.792855672422051
1757089332097714200,1.782714111328125,-6.790583684712648,4.085675322440267,5.776297920852899
1757089332107669000,1.7926689453125,-6.801058901497721,4.084385282629728,5.764874609562754
1757089332117624000,1.8026240234375,-6.801711227926612,4.086187071354687,5.762828198426962
1757089332127578400,1.812578369140625,-6.795728061863779,4.085400889413059,5.770439257952571
1757089332137533200,1.822533203125,-6.786254715597629,4.077259960794448,5.787321419170499
1757089332147487200,1.8324873046875,-6.774007228443026,4.061115466201305,5.812964394471049
1757089332157442000,1.842442138671875,-6.7614359161615365,4.038304499456286,5.843411555182933
1757089332167397400,1.8523974609375,-6.7525014990776775,4.010462845067679,5.872843401372433
1757089332177351200,1.86235107421875,-6.754107180708647,3.9797067645370956,5.891888878104091
1757089332187306200,1.87230615234375,-6.769107765963673,3.9467824000567195,5.896818735721707
1757089332197261000,1.882260986328125,-6.794575969219207,3.9140623259767886,5.889332179358601
1757089332207215000,1.892215087890625,-6.824564864769577,3.88569372510463,5.873421493521333
1757089332217170200,1.902170166015625,-6.8550441741853945,3.8604286432057617,5.854556634053588
1757089332227124200,1.912124267578125,-6.885226546481252,3.832701555107534,5.837330773964524
1757089332237079000,1.9220791015625,-6.9120350584298365,3.7973511325240135,5.828745900970697
1757089332247034000,1.9320341796875,-6.9346139699846505,3.752218443855643,5.831154131156206
1757089332256988200,1.94198828125,-6.956950304955243,3.6990985558256506,5.8384840356528755
1757089332266943200,1.951943115234375,-6.9864704139500855,3.6417172109588978,5.839307626995444
1757089332276897300,1.961897216796875,-7.030890570434927,3.5823125435709953,5.822714219591021
1757089332286852000,1.97185205078125,-7.088585219034552,3.5248517037272453,5.787725908318162
1757089332296807200,1.98180712890625,-7.151867312377691,3.472197095121443,5.741518283894658
1757089332306761000,1.991760986328125,-7.214694647690654,3.4256393420860167,5.69065552714169
1757089332316716300,2.00171630859375,-7.26595137219727,3.3863121248260137,5.648824802628159
1757089332326671000,2.011671142578125,-7.297698509591817,3.3531618426352736,5.62763646864891
1757089332336625200,2.021625244140625,-7.309092010265588,3.3228187268197535,5.630846662867069
1757089332346580000,2.031580078125,-7.303755909934639,3.292627002173662,5.655452696335315
1757089332356534300,2.0415341796875,-7.284832013756036,3.2646485696628686,5.695934928849339
1757089332366489000,2.051489013671875,-7.254943655970692,3.2404058165490626,5.747690835049748
1757089332376444200,2.061444091796875,-7.217932314437627,3.2271631808772683,5.8014873071670525
1757089332386398000,2.07139794921875,-7.172562894403934,3.228487122957408,5.856756189924478
1757089332396353300,2.081353271484375,-7.121293310415744,3.2409482528626916,5.912175294807553
1757089332406307300,2.091307373046875,-7.061991226619481,3.2605262290358543,5.972238426104187
1757089332416262100,2.10126220703125,-6.9901569935083385,3.281984904389083,6.0445560588181015
1757089332426217000,2.111217041015625,-6.907562296929955,3.2980192166060207,6.130174487131834
1757089332436171000,2.1211708984375,-6.821318430194259,3.3029297850012775,6.22339579166472
1757089332446126300,2.131126220703125,-6.737694975090027,3.2963226418212055,6.317286958283185
1757089332456081200,2.1410810546875,-6.663043930992484,3.285369870652258,6.401607748001814
1757089332466035200,2.15103515625,-6.602303923347592,3.2769729214459655,6.46849400331676
1757089332475990000,2.160989990234375,-6.557233778521418,3.2706209220707416,6.5173699701666825
1757089332485944000,2.170944091796875,-6.528655918812752,3.261975843322277,6.550309532216191
1757089332495899100,2.180899169921875,-6.5155018382072445,3.2485847390905023,6.5700324698179955
1757089332505854200,2.190854248046875,-6.5155246345609426,3.2314731530308722,6.578441986244917
1757089332515808000,2.20080810546875,-6.525203148010373,3.2140295585379004,6.577394523018598
1757089332525763000,2.21076318359375,-6.545122484967112,3.195886875864863,6.566434737586975
1757089332535718100,2.22071826171875,-6.574708060413599,3.1761659840896725,6.546416616430879
1757089332545672200,2.230672119140625,-6.608936493229866,3.1556592026337977,6.521821688878536
1757089332555627000,2.240626953125,-6.642877341276407,3.134793816998601,6.497355940663814
1757089332565581600,2.25058154296875,-6.674572456222772,3.1155393736913797,6.474093138498067
1757089332575536400,2.260536376953125,-6.702771545746922,3.099144411468506,6.452793160837889
1757089332585491500,2.270491455078125,-6.728258453702926,3.085607469025254,6.432724770799279
1757089332595445500,2.280445556640625,-6.751341807648539,3.076401541523635,6.412918246567249
1757089332605400600,2.290400634765625,-6.771206199547648,3.073940704368055,6.393124581816792
1757089332615354600,2.300354736328125,-6.783223969599605,3.0781600756287575,6.378337347051501
1757089332625309400,2.310309326171875,-6.782257754915952,3.0842490401536224,6.376423037862778
1757089332635264500,2.320264404296875,-6.7642398676663635,3.0829794586092234,6.396145390942692
1757089332645218300,2.33021826171875,-6.726141899940371,3.067353142671287,6.443659421789646
1757089332655173600,2.340173583984375,-6.670118399423361,3.035442339147627,6.516593725097179
1757089332665128400,2.35012841796875,-6.601693682494759,2.9903704407557843,6.606490269121528
1757089332675082500,2.36008251953125,-6.530918603047728,2.9371146513864397,6.700063455832004
1757089332685037300,2.370037353515625,-6.460309527817368,2.875812625944614,6.794445036315918
1757089332694991600,2.37999169921875,-6.371115579104423,2.820778428725898,6.900904008084535
1757089332704946400,2.389946533203125,-6.275217748838663,2.782854064001143,7.003409858313202
1757089332714901500,2.399901611328125,-6.198652980074286,2.7720848327055574,7.0754960203588
1757089332724855300,2.409855224609375,-6.139047529417276,2.7869907254144546,7.121458145588636
1757089332734810600,2.419810546875,-6.084379535162449,2.815799471269548,7.156953237339854
1757089332744764700,2.4297646484375,-6.0360904282897705,2.8508158395931122,7.183930091592669
1757089332754719500,2.439719482421875,-5.9857952422916885,2.8861557407826184,7.21184744156599
1757089332764674300,2.44967431640625,-5.925601178091764,2.91662686689198,7.24920248197019
1757089332774628400,2.45962841796875,-5.856151209768653,2.941388675443828,7.2954849251955745
1757089332784583700,2.469583740234375,-5.786090416070818,2.9673049147278068,7.340752638420462
1757089332794538500,2.47953857421875,-5.718708486193418,3.004678952093422,7.378255562862753
1757089332804492500,2.489492431640625,-5.6395279819726944,3.058837827782333,7.4168474515855305
1757089332814447400,2.499447265625,-5.536738638627529,3.1308643685951827,7.464087341666221
1757089332824401400,2.5094013671875,-5.408885581174492,3.2134020742893217,7.522525502109527
1757089332834356500,2.5193564453125,-5.264318120285869,3.2934447482973335,7.590162868052721
1757089332844311600,2.5293115234375,-5.1066836725533005,3.3651074242338535,7.666043161684274
1757089332854265300,2.539265380859375,-4.925099024912715,3.4283094380781054,7.75631789137125
1757089332864220400,2.549220458984375,-4.725800149144232,3.4773429335772987,7.857816025862097
1757089332874175500,2.559175537109375,-4.518866248452663,3.51389484090507,7.962585144847631
1757089332884129500,2.569129638671875,-4.299336193299293,3.547092469368875,8.068719706967473
1757089332894084400,2.57908447265625,-4.079520891463757,3.58042950630337,8.167522611024975
1757089332904038400,2.589038330078125,-3.8985502840682864,3.6045316819027065,8.244939612704515
1757089332913993500,2.598993408203125,-3.781498898875713,3.6181764686346054,8.293338025170565
1757089332923948500,2.608948486328125,-3.7143718205422163,3.6403552749559283,8.313942421782016
1757089332933902600,2.618902587890625,-3.6805882088840005,3.688433661687374,8.307774546802044
1757089332943857400,2.628857421875,-3.6774046104118225,3.76257441817522,8.275876602759956
1757089332953811500,2.6388115234375,-3.6905206970944997,3.8555776960432526,8.227087729671597
1757089332963766500,2.6487666015625,-3.708239893658459,3.9601682435914873,8.169236429205537
1757089332973721600,2.6587216796875,-3.7295594528019427,4.069833902446925,8.105383257976174
1757089332983675400,2.66867529296875,-3.746889650048315,4.171163986894488,8.045657980331779
1757089332993630500,2.67863037109375,-3.719726041051745,4.25185898733139,8.015966606423259
1757089333003584500,2.68858447265625,-3.659915423211455,4.307069710160792,8.01402307114005
1757089333013539600,2.69853955078125,-3.607091303257644,4.340921418619156,8.019705792951584
1757089333023494400,2.708494384765625,-3.570799800431728,4.365344204474986,8.022688608154654
1757089333033448400,2.718448486328125,-3.545693123964965,4.39302277725637,8.018714443826674
1757089333043403300,2.7284033203125,-3.5250855124831197,4.4328111822873355,8.00589354069829
1757089333053357300,2.738357421875,-3.507262855544686,4.486883548736572,7.983568896165489
1757089333063312600,2.748312744140625,-3.4986405731499195,4.547635539080202,7.952918321835995
1757089333073267500,2.758267333984375,-3.4930344237059354,4.602479182162881,7.923779321113228
1757089333083221500,2.768221435546875,-3.4810791974961757,4.646470007319748,7.9033403441965575
1757089333093176300,2.77817626953125,-3.4670930499807,4.6838969439163805,7.887378804954886
1757089333103131600,2.788131591796875,-3.449335859493911,4.7170276446238155,7.875413057351112
1757089333113085400,2.79808544921875,-3.414391679623723,4.74726116258502,7.872473496767878
1757089333123040500,2.80804052734375,-3.363310603944957,4.778010521113872,7.875859047552943
1757089333132994300,2.817994384765625,-3.293229644241929,4.808919746379554,7.886655166855454
1757089333142949600,2.82794970703125,-3.184699419157207,4.838426119109988,7.913136346545815
1757089333152904400,2.837904541015625,-3.0836031434655187,4.869713822299242,7.933957600778341
1757089333162858500,2.8478583984375,-3.012356062592566,4.917630004206299,7.9317720734328026
1757089333172813300,2.857813232421875,-2.959506808197498,4.985293673634529,7.90939599097371
1757089333182768600,2.8677685546875,-2.926088522720337,5.067573897436261,7.869438659116625
1757089333192722400,2.877722412109375,-2.9016306655511257,5.159572382175922,7.818551352444291
1757089333202677500,2.887677490234375,-2.886568705497682,5.259674678394198,7.757186490899324
1757089333212631600,2.897631591796875,-2.8827517775580285,5.367053687617182,7.684716882494092
1757089333222586400,2.90758642578125,-2.87101750062257,5.471944387155771,7.61481917040348
1757089333232541400,2.91754150390625,-2.8497745138466355,5.566755591228604,7.5538348326086995
1757089333242495500,2.92749560546875,-2.8211221275970337,5.654643718039989,7.499110724252462
1757089333252450600,2.937450439453125,-2.789222722250223,5.742404419079422,7.4441533916622395
1757089333262404400,2.947404296875,-2.732956645148992,5.830907462918758,7.396070036494732
1757089333272359400,2.957359375,-2.6667224240019918,5.919444409027696,7.349771811178326
1757089333282314500,2.967314453125,-2.6008812938258052,6.011564474320411,7.298417471516132
1757089333292268500,2.9772685546875,-2.5370152631148692,6.112274673303961,7.236991819694638
1757089333302223400,2.987223388671875,-2.4721505767554044,6.221471545603871,7.166041968202591
1757089333312177400,2.997177490234375,-2.4137429575808347,6.337561684548854,7.083752976572513
1757089333322132500,3.007132568359375,-2.3504884828969836,6.467722434422374,6.9867124060124155
1757089333332087600,3.017087646484375,-2.2651962177976963,6.615516456142068,6.875623436355591
1757089333342041600,3.02704150390625,-2.165497533944249,6.777855136042833,6.748457776644826
1757089333351996400,3.036996337890625,-2.05386583571285,6.929135246312618,6.628657677266001
1757089333361950500,3.046950439453125,-1.9357025437556206,7.0294842107683415,6.558185964679717
1757089333371905500,3.056905517578125,-1.8280920638643203,7.082942829233407,6.5314926035434
1757089333381860600,3.066860595703125,-1.7412201283581554,7.122739417570829,6.511922810676693
1757089333391814400,3.076814453125,-1.6761562661647795,7.1626862280339,6.485122482034564
1757089333401769500,3.08676953125,-1.6263760439515114,7.199623335286974,6.456834545183181
1757089333411724500,3.096724609375,-1.5841751709513365,7.234231122809648,6.42858284868896
1757089333421678600,3.1066787109375,-1.549762175348401,7.272320322707295,6.393901411408185
1757089333431633400,3.11663330078125,-1.5289285000257193,7.320023154124617,6.344290116021036
1757089333441587500,3.12658740234375,-1.5201701701611279,7.377680977845191,6.279274330753088
1757089333451542300,3.136542236328125,-1.5151649092197417,7.440936183181405,6.205410637640953
1757089333461497600,3.14649755859375,-1.5066510556355117,7.504957696714997,6.129926649850606
1757089333471451600,3.15645166015625,-1.4925766453146934,7.5672122005760665,6.056394380649924
1757089333481406500,3.166406494140625,-1.4755045144826173,7.627931749954819,5.983973287561535
1757089333491360500,3.176360595703125,-1.4637943490751086,7.684736756238341,5.913756426519155
1757089333501315600,3.186315673828125,-1.465424434494972,7.733864652022719,5.848953407219052
1757089333511270400,3.1962705078125,-1.4801229680635035,7.775353431230783,5.78994767602086
1757089333521224400,3.206224365234375,-1.503272372982651,7.811020956939458,5.735720411270856
1757089333531179500,3.216179443359375,-1.5307522083215415,7.843060939800739,5.6845028497308485
1757089333541133300,3.22613330078125,-1.5581171851091087,7.873073800748586,5.635366770640015
1757089333551088600,3.236088623046875,-1.5825773803658783,7.900745651528239,5.589637285122275
1757089333561043200,3.246043212890625,-1.6037942097872495,7.925142426159978,5.548904292717576
1757089333570997200,3.255997314453125,-1.6238859807014465,7.946636465087533,5.512198071610928
1757089333580952300,3.265952392578125,-1.64443134060204,7.966710115823149,5.477022713333368
1757089333590906400,3.27590625,-1.6650012504220009,7.988807381340861,5.4384834315806625
1757089333600861200,3.285861083984375,-1.6852885439082979,8.02241738999784,5.382472206023335
1757089333610816300,3.295816162109375,-1.697305291046947,8.070610635280609,5.30610968183279
1757089333620770600,3.3057705078125,-1.693789976402372,8.130707668846846,5.214695718982815
1757089333630725400,3.315725341796875,-1.6776817221663891,8.196601405993103,5.115809812816977
1757089333640680200,3.32568017578125,-1.6564301136925816,8.262980296307802,5.0149575750142334
1757089333650634200,3.33563427734375,-1.63241152472347,8.327672256448864,4.9148254681795835
1757089333660589600,3.345589599609375,-1.6041462380953133,8.393172025841475,4.811626374989748
1757089333670543400,3.35554345703125,-1.5662017073653638,8.46446090002954,4.69790384195894
1757089333680498400,3.36549853515625,-1.518221081919968,8.541446524554491,4.572644308130442
1757089333690453200,3.375453369140625,-1.4673486805558205,8.616878489896655,4.445975784286857
1757089333700407300,3.3854072265625,-1.4242597726747392,8.677343187731504,4.341147628590464
1757089333710362400,3.3953623046875,-1.397460759206861,8.709738559901714,4.28461822437793
1757089333720316400,3.40531640625,-1.3850906685858964,8.716098742583393,4.275690237034857
1757089333730271200,3.415271240234375,-1.3863586426950991,8.707904914733767,4.291944621743261
1757089333740226300,3.425226318359375,-1.3995204682156444,8.69928146329522,4.305136988532543
1757089333750180400,3.435180419921875,-1.4076725027501582,8.695829277014731,4.309453098165989
1757089333760135400,3.445135498046875,-1.4090706791102885,8.693282515141368,4.31413161137104
1757089333770090200,3.45509033203125,-1.4119007879696786,8.688290698203444,4.323254829025268
1757089333780044300,3.465044189453125,-1.4179190253458915,8.682688640412687,4.33252856106609
1757089333789999400,3.474999267578125,-1.4249090303637086,8.677990837985277,4.339641607941687
1757089333799953400,3.484953369140625,-1.4300221355937421,8.674117795944213,4.3456975469797845
1757089333809908500,3.494908447265625,-1.4328043136581778,8.67086200901866,4.351275931634008
1757089333819863300,3.50486328125,-1.4343572421886026,8.667827171367406,4.356809015841782
1757089333829817300,3.5148173828125,-1.43501000700891,8.665257028618454,4.3617038021460175
1757089333839772400,3.5247724609375,-1.4341509059615432,8.663143981987238,4.366183577908576
1757089333849726500,3.5347265625,-1.4315015604965389,8.66181477921009,4.369683694984019
1757089333859681300,3.544681396484375,-1.4257313065320252,8.661988966733217,4.371223325641453
1757089333869636400,3.55463623046875,-1.4169827674090862,8.663093713104724,4.371880035984516
1757089333879590400,3.56459033203125,-1.4079605259113013,8.66420138208568,4.3726007514745
1757089333889545500,3.57454541015625,-1.4008490864709018,8.664926773750782,4.373449184997379
1757089333899499500,3.58449951171875,-1.3943730223245918,8.665530000340938,4.3743215839177365
1757089333909454300,3.594454345703125,-1.3863792470917105,8.666711903601884,4.37452090588212
1757089333919409200,3.6044091796875,-1.376009682638198,8.668619783049822,4.374015878969431
1757089333929363200,3.61436328125,-1.3629957411557436,8.670810571092368,4.373747583422064
1757089333939318500,3.624318603515625,-1.3481323724143206,8.672994344872235,4.374023477753997
1757089333949272300,3.634272216796875,-1.3340310740865766,8.675031988179683,4.374308432175218
1757089333959227400,3.644227294921875,-1.3218893853940068,8.676899535617231,4.374290896518528
1757089333969182200,3.65418212890625,-1.3105576979100704,8.678622121626137,4.374283297733962
1757089333979136500,3.664136474609375,-1.299275987047702,8.680321911281347,4.374275991210341
1757089333989091300,3.67409130859375,-1.2900722515031695,8.682529065936803,4.372615949043631
1757089333999045400,3.68404541015625,-1.2821961113005875,8.685428294509649,4.369171946069598
1757089334009000200,3.694000244140625,-1.2731634945392607,8.689327640035748,4.3640603021442885
1757089334018955500,3.70395556640625,-1.2628779551073908,8.694654972538352,4.35642995339632
1757089334028909600,3.71390966796875,-1.2518699466198682,8.701794322898984,4.345338942800462
1757089334038864400,3.723864501953125,-1.2411283339835704,8.709892873680591,4.332173756279051
1757089334048819200,3.733819091796875,-1.2326235404886305,8.719570802608132,4.315101625446975
1757089334058773200,3.743773193359375,-1.2297843715399503,8.732533160033821,4.289623485319316
1757089334068728300,3.753728271484375,-1.231433600051701,8.749137088832258,4.2551793639257545
1757089334078682400,3.763682373046875,-1.235185938322544,8.767942911589145,4.215194851800799
1757089334088637400,3.773637451171875,-1.242018268560618,8.787922454300523,4.171351910682023
1757089334098591200,3.78359130859375,-1.2528555966563522,8.810670877203345,4.119806724622846
1757089334108546300,3.79354638671875,-1.2682052876099943,8.836704313126205,4.058904219892621
1757089334118501400,3.80350146484375,-1.2836663299836217,8.86556741951704,3.9905259724542494
1757089334128455400,3.813455322265625,-1.2959578024104237,8.89799727847874,3.9136341636925933
1757089334138410200,3.82341015625,-1.304509942178428,8.93339884672761,3.8292332944750784
1757089334148365300,3.833365234375,-1.307867143651843,8.970971913796662,3.7391906199783085
1757089334158319400,3.8433193359375,-1.308419955229014,9.009293168884515,3.6456919598087665
1757089334168274400,3.8532744140625,-1.3039181137651203,9.047040423476696,3.552640458884835
1757089334178228500,3.863228515625,-1.291605306289345,9.085198596957325,3.458511976379156
1757089334188183300,3.873183349609375,-1.2753485834933818,9.124978234159945,3.3583734398037195
1757089334198138000,3.88313818359375,-1.2551499912038444,9.16529387793541,3.2545904092460867
1757089334208092400,3.893092529296875,-1.2326387380577624,9.203577139100432,3.1535932100147006
1757089334218047500,3.903047607421875,-1.2136949681349098,9.237623201087116,3.0600109632149337
1757089334228001300,3.913001220703125,-1.1984108166981489,9.26672946858406,2.9768972111985086
1757089334237956400,3.922956298828125,-1.188819543140754,9.290337138664722,2.9063243763253093
1757089334247911400,3.932911376953125,-1.1863223194975405,9.307259631893038,2.8527047220796344
1757089334257865500,3.942865478515625,-1.188707899459824,9.318363209709524,2.8152178719893097
1757089334267820300,3.9528203125,-1.195163870666176,9.32722806868851,2.7829423268064857
1757089334277774300,3.9627744140625,-1.2048531247053296,9.337753554356098,2.743190454393625
1757089334287729200,3.972729248046875,-1.2184936005882918,9.352934172353148,2.6848274050131438
1757089334297684500,3.9826845703125,-1.234017625195533,9.373574809321761,2.6045520912930367
1757089334307638500,3.992638427734375,-1.246908670950681,9.397229825675486,2.51150994271934
1757089334317593300,4.00259326171875,-1.2549090220548211,9.419611753353475,2.4220818929895755
1757089334327547400,4.01254736328125,-1.2616012131698429,9.43961584598422,2.339313593409955
1757089334337502200,4.022502197265625,-1.2697153999119997,9.458124147099255,2.2587840126678347
1757089334347457500,4.03245751953125,-1.278250150153786,9.475221412372589,2.1809742122784255
1757089334357411300,4.042411376953125,-1.285916008606553,9.489193239101766,2.11471134955883
1757089334367366400,4.052366455078125,-1.292999244865775,9.499889405161142,2.0617026668183502
1757089334377321200,4.0623212890625,-1.2891568902239203,9.51072761003971,2.0135852632507683
1757089334387275500,4.072275634765625,-1.27848030564785,9.520355854606628,1.9745108517080545
1757089334397230300,4.082230224609375,-1.269039692607522,9.528861817145348,1.9392513222783803
1757089334407184400,4.092184326171875,-1.254438335803151,9.536949262011051,1.908761199207604
1757089334417139200,4.10213916015625,-1.2347297189876436,9.546513209170103,1.8734769737280905
1757089334427094500,4.112094482421875,-1.203141279286146,9.559974163767695,1.8247576587446033
1757089334437048300,4.12204833984375,-1.1354488952200859,9.573537994217872,1.7968115210682152
1757089334447003400,4.13200341796875,-1.0765212707594036,9.568145195263623,1.8606728756040334
1757089334456957400,4.14195751953125,-1.0739492283143102,9.538963524442911,2.006292329763621
1757089334466912300,4.151912353515625,-1.1073865107528864,9.494047693395615,2.1925201270349324
1757089334476867300,4.161867431640625,-1.1438312313791363,9.44841933016479,2.3641971286453307
1757089334486821400,4.1718212890625,-1.1726805284403263,9.411430784985422,2.494031276912987
1757089334496776400,4.1817763671875,-1.1949131107755004,9.389157578378915,2.5663778434604403
1757089334506731300,4.191731201171875,-1.213549860575795,9.382360757845639,2.582437874640524
1757089334516685300,4.201685302734375,-1.2300083895541727,9.381248412689565,2.5786907970666886
1757089334526640400,4.211640380859375,-1.2409426021531222,9.375338311862945,2.5948952051535246
1757089334536594400,4.221594482421875,-1.2474110675148664,9.364330011114477,2.6312898760929704
1757089334546549200,4.23154931640625,-1.247066053469479,9.353571885734796,2.6694413275718687
1757089334556504300,4.24150439453125,-1.2366798301421105,9.347897931751609,2.6940380086898803
1757089334566458000,4.2514580078125,-1.216364625735581,9.345982453519106,2.709881474509835
1757089334576413000,4.261412841796875,-1.1931667054995894,9.342474153137207,2.7322008583456276
1757089334586367200,4.2713671875,-1.1718800257124007,9.33769451764524,2.7576363283753396
1757089334596322000,4.281322021484375,-1.1561245304368435,9.335787807241081,2.7707117907866836
1757089334606276900,4.29127685546875,-1.1473526835035532,9.338544412472844,2.765059756374359
1757089334616231000,4.30123095703125,-1.1441450465686618,9.346049673536418,2.7409292314633724
1757089334626186200,4.311186279296875,-1.1424845660105347,9.358148107609152,2.7000372491046787
1757089334636141000,4.32114111328125,-1.1366346709385513,9.375239527663588,2.642599790136516
1757089334646095000,4.33109521484375,-1.1202863243363796,9.397800903561711,2.56840233502537
1757089334656050000,4.3410498046875,-1.0867233696915208,9.426705511006713,2.475204119107127
1757089334666004000,4.35100390625,-1.0312222125481814,9.463045821410416,2.3574814105242488
1757089334675959000,4.360958984375,-0.9550029692858457,9.505960249507426,2.2124844721771777
1757089334685914000,4.3709140625,-0.8659561739586293,9.552372456592321,2.0427150577537714
1757089334695868000,4.380867919921875,-0.7748252658337355,9.598669512864946,1.8535266571111977
1757089334705823000,4.390822998046875,-0.686575904494524,9.642223992431163,1.6512094564348458
1757089334715778000,4.400778076171875,-0.5968342953035608,9.681765729224681,1.4413802726931868
1757089334725732000,4.410732177734375,-0.48210422919802365,9.717602181759476,1.2272618673250077
1757089334735687000,4.42068701171875,-0.31643359186295417,9.749334706106781,1.0103143029455095
1757089334745641000,4.430640869140625,-0.15083461325829847,9.773266785836219,0.7942889679774642
1757089334755596000,4.440595947265625,-0.06276649023750797,9.788849554893375,0.5872756819067523
1757089334765551000,4.450551025390625,-0.00467866846867837,9.799084533181786,0.38511275847665966
1757089334775505200,4.460505126953125,0.04084692850741557,9.80478362160623,0.1868653279898688
1757089334785460000,4.4704599609375,0.14897084694672375,9.80551193588078,-0.011455803629016735
1757089334795414000,4.4804140625,0.2543810403147712,9.80116601563096,-0.20692166226450354
1757089334805368800,4.490368896484375,0.304185008729808,9.793443896946311,-0.40778325730506326
1757089334815324200,4.50032421875,0.290268090525642,9.769617615678905,-0.8004288589719682
1757089334825278000,4.51027783203125,0.25909688985552637,9.678135848289728,-1.5610710664786398
1757089334835233000,4.52023291015625,0.2528308517307043,9.516522560054064,-2.3542037040278316
1757089334845187800,4.530187744140625,0.2871797143225558,9.359697090616821,-2.912726936843991
1757089334855142100,4.54014208984375,0.33200518193896855,9.31846491651833,-3.037489919327199
1757089334865097000,4.550096923828125,0.3768596016552299,9.383270273905993,-2.825347636337578
1757089334875051000,4.560051025390625,0.42538649933915584,9.447446685740351,-2.5952207838460803
1757089334885005800,4.570005859375,0.470160474230349,9.468778812104462,-2.5083070550248023
1757089334894961200,4.579961181640625,0.48398430732358244,9.463230530327557,-2.5265397540688515
1757089334904915200,4.589915283203125,0.4621718500966206,9.459362748983501,-2.5450398718774316
1757089334914870000,4.5998701171875,0.4225583997737616,9.457291787928343,-2.55958073066622
1757089334924824800,4.609824951171875,0.38101504083424803,9.455406704834102,-2.573029410304129
1757089334934779000,4.61977880859375,0.3457332630401477,9.454122510242462,-2.5827120154067873
1757089334944734200,4.629734130859375,0.3214044390780851,9.452980938991903,-2.5900240919858217
1757089334954688000,4.63968798828125,0.31245840462166813,9.451653489780426,-2.5959584504708646
1757089334964643000,4.64964306640625,0.3166427045689896,9.449973573869466,-2.601564307653904
1757089334974598000,4.659597900390625,0.3268559459496289,9.448056926593184,-2.607251705640554
1757089334984552000,4.669552001953125,0.33644232413619757,9.445798918533324,-2.6142034244745966
1757089334994507000,4.679507080078125,0.3402733536664396,9.443350940859316,-2.6225425060138106
1757089335004462000,4.689462158203125,0.33511783406678586,9.44058498327732,-2.6331395956128834
1757089335014416000,4.699415771484375,0.3202641099365428,9.437736608108878,-2.645174024538696
1757089335024371000,4.709370849609375,0.2972426605123095,9.43519335336685,-2.656905963386595
1757089335034325200,4.7193251953125,0.2690019786024466,9.432692184200882,-2.6687755571395155
1757089335044280000,4.729280029296875,0.23788689203374086,9.429821012678742,-2.6818478046804666
1757089335054235000,4.73923486328125,0.20554293952351435,9.426782083374261,-2.695164966893196
1757089335064189000,4.74918896484375,0.173913327561412,9.425158866086601,-2.7030580582305785
1757089335074144000,4.75914404296875,0.14480116917979902,9.425029102227091,-2.7052254653975365
1757089335084099000,4.76909912109375,0.11721835752362385,9.425341821438074,-2.7054689187645913
1757089335094053000,4.77905322265625,0.08998405791101977,9.425973105078935,-2.70431507255435
1757089335104008000,4.789008056640625,0.06573839132091962,9.427036350396275,-2.701306538388133
1757089335113962000,4.7989619140625,0.04822106030487921,9.42835152464807,-2.6970830754742026
1757089335123917000,4.8089169921875,0.041427541406964884,9.429459193629025,-2.693325768767297
1757089335133872000,4.8188720703125,0.046507721614930775,9.430350589510798,-2.6901170358538624
1757089335143826000,4.828825927734375,0.061471870149974704,9.431049093168973,-2.687365399058163
1757089335153781000,4.838781005859375,0.08191508028376847,9.43150443572104,-2.685218450157344
1757089335163736000,4.848736083984375,0.10397247958197257,9.431642382887006,-2.68397634114176
1757089335173690000,4.858690185546875,0.1256103565601632,9.431462934666872,-2.683674727846682
1757089335183645000,4.86864501953125,0.14604785390580072,9.431198146250843,-2.683575359125435
1757089335193599000,4.878598876953125,0.1645454326974228,9.430872567558287,-2.6836440404474735
1757089335203553800,4.8885537109375,0.18066837304588407,9.430319025328755,-2.68455501781255
1757089335213509000,4.898509033203125,0.19333456053659318,9.42963805732727,-2.686063668809831
1757089335223463200,4.908463134765625,0.20289713772246612,9.42903950691223,-2.6874647677794097
1757089335233418000,4.91841796875,0.20872253767400978,9.428604038104414,-2.68854613327533
1757089335243372800,4.928372802734375,0.21069206591499967,9.428382504308223,-2.6891680645659566
1757089335253327000,4.9383271484375,0.20998285819971932,9.428124145632982,-2.690125511421263
1757089335263282200,4.9482822265625,0.2084241757819429,9.427784538415073,-2.6914374708026645
1757089335273236000,4.958236083984375,0.2080197962321341,9.42732627325356,-2.6930747166156768
1757089335283191000,4.96819091796875,0.20984496583268045,9.426741751363872,-2.6949767508447167
1757089335293146000,4.97814599609375,0.21425624293629078,9.426102284416556,-2.6968627107217906
1757089335303100200,4.98810009765625,0.2211675749610178,9.425508994698523,-2.6983754533722997
1757089335313055000,4.998054931640625,0.2295689080814831,9.425095737722515,-2.699122764608264
1757089335323010000,5.008010009765625,0.2371637471246533,9.42501273561418,-2.6987521777302024
1757089335332963800,5.0179638671875,0.24354815093213691,9.425115026944875,-2.6978268795788285
1757089335342919200,5.027919189453125,0.25156284108888355,9.425351173788309,-2.696265621611476
1757089335352873000,5.037873046875,0.2605414991732687,9.425598426547646,-2.694551803430915
1757089335362828000,5.047828125,0.26890960587756707,9.426303944468497,-2.691258022582531
1757089335372782800,5.057782958984375,0.2755248044999316,9.42680078807473,-2.688848623353243
1757089335382737000,5.06773681640625,0.2808758466716856,9.426749934670328,-2.688471606734395
1757089335392692000,5.07769189453125,0.28642948047714306,9.426768054848909,-2.6878230796977878
1757089335402647000,5.08764697265625,0.2967832445733249,9.427152085730432,-2.6853555205404755
1757089335412601000,5.09760107421875,0.3111247813977301,9.427074928840995,-2.683998845234513
1757089335422556000,5.107555908203125,0.3274365953817963,9.426348368132114,-2.6846111319139596
1757089335432510000,5.117510009765625,0.3456730938181281,9.425712992838024,-2.68455443329066
1757089335442465000,5.127465087890625,0.36715065653491763,9.42585210904777,-2.6812118448644875
1757089335452420000,5.137420166015625,0.39233164034690704,9.426241400626301,-2.6762773110717535
1757089335462374000,5.147373779296875,0.42074787975307554,9.42609176302254,-2.6724790878325697
1757089335472329000,5.157328857421875,0.4514341464504599,9.425916406455636,-2.6680881593972443
1757089335482284000,5.167283935546875,0.4822666897507384,9.426377009704709,-2.6610508081063626
1757089335492238000,5.177238037109375,0.5110371859546751,9.426848134347797,-2.654008196118474
1757089335502193000,5.18719287109375,0.5365627454206348,9.42678325241804,-2.649196704183519
1757089335512147000,5.19714697265625,0.5587899209283292,9.426101699894666,-2.6470231595367193
1757089335522102000,5.20710205078125,0.5774483345711603,9.425817622256279,-2.644031868766248
1757089335532057000,5.21705712890625,0.5920004454063251,9.42562999072969,-2.641482184283435
1757089335542011100,5.22701123046875,0.6024162236217409,9.42562648359835,-2.6391373747229574
1757089335551966000,5.236966064453125,0.6117296300858259,9.425864968529343,-2.6361399464726447
1757089335561921800,5.246921875,0.6232033563889563,9.426165412780643,-2.6323805939391254
1757089335571875800,5.256875732421875,0.6372120810624212,9.426379347792267,-2.628257961051166
1757089335581830700,5.26683056640625,0.6534430848952383,9.426741166841984,-2.622968622471392
1757089335591785000,5.276784912109375,0.6709062608715146,9.427163776168227,-2.6170319258987904
1757089335601739800,5.28673974609375,0.689273984472081,9.427814349031447,-2.609904265975952
1757089335611694800,5.29669482421875,0.7092557191405445,9.429280329930782,-2.5992349879235026
1757089335621649000,5.30664892578125,0.7310358815331012,9.431817739453912,-2.583950617291033
1757089335631604000,5.31660400390625,0.7559055343735963,9.43474794768691,-2.5660303451970217
1757089335641558800,5.326558837890625,0.784161395586282,9.438413484457135,-2.543974288472533
1757089335651512800,5.336512939453125,0.8111398572742938,9.442695691820978,-2.519514677737653
1757089335661468000,5.346468017578125,0.8311817246321588,9.447295879092811,-2.4956197151482105
1757089335671421700,5.356421630859375,0.8437729837231338,9.451677455177903,-2.4747163355901836
1757089335681377000,5.366376953125,0.8527124423082918,9.455422486925125,-2.4572885231882333
1757089335691331800,5.376331787109375,0.8624015502169727,9.458485966148972,-2.442070057398826
1757089335701286000,5.386285888671875,0.876027778378874,9.460563941466807,-2.429129181152582
1757089335711240700,5.39624072265625,0.8946412203688174,9.461607313039899,-2.418261750179529
1757089335721194800,5.40619482421875,0.9176949098285287,9.461592699992655,-2.4096631409212947
1757089335731149800,5.41614990234375,0.9430251659180968,9.460863801196217,-2.4027416710950433
1757089335741105000,5.42610498046875,0.9677131785813718,9.4599069388628,-2.396677694880962
1757089335751059000,5.436058837890625,0.9893641616363078,9.458871750596165,-2.391922024786472
1757089335761013800,5.446013671875,1.0072103455808012,9.457878063383697,-2.3883967732697724
1757089335770968800,5.45596875,1.0219240036532282,9.457021738815307,-2.385539191881567
1757089335780923000,5.4659228515625,1.034261872505024,9.456150801199675,-2.383676466749608
1757089335790877700,5.475877685546875,1.0446236920434981,9.45509340110123,-2.383348842230439
1757089335800831700,5.485831787109375,1.053579005784914,9.453874088439346,-2.384247106244415
1757089335810787000,5.495787109375,1.062280417830497,9.452368360051512,-2.3863564996138216
1757089335820742000,5.505741943359375,1.0711544830292463,9.450779629555344,-2.3886834812566637
1757089335830696000,5.515696044921875,1.0794329934876412,9.449554471674562,-2.389797141586989
1757089335840650800,5.525650634765625,1.0854304803367703,9.449047106674312,-2.3890868013605475
1757089335850606000,5.535606201171875,1.0870687490630895,9.449507125401496,-2.386525134178996
1757089335860560000,5.545559814453125,1.0836561641406268,9.450659218046068,-2.383512362229079
1757089335870515000,5.555514892578125,1.0776316431540995,9.452251455673576,-2.3799293891757727
1757089335880468700,5.56546875,1.0717919772151856,9.453821481469273,-2.376319674246013
1757089335890423800,5.575423828125,1.0662322972614318,9.45496714437306,-2.3742618649333713
1757089335900379000,5.58537890625,1.0608226933028548,9.455554588872193,-2.374343551867455
1757089335910333000,5.5953330078125,1.0528588017515839,9.456693822035193,-2.373353371786326
1757089335920287700,5.605287841796875,1.044291318283975,9.457852344420552,-2.3725270039647817
1757089335930242800,5.615242919921875,1.0363941352933645,9.459110235527158,-2.370966184388846
1757089335940196900,5.62519677734375,1.0321149966694414,9.460079957342147,-2.3689655120909214
1757089335950152000,5.63515185546875,1.0318342069666833,9.460899457031488,-2.365813623931259
1757089335960106000,5.64510595703125,1.0303946026176214,9.462122276824712,-2.3615537745296953
1757089335970060800,5.655060791015625,1.0261093265138566,9.463725035846233,-2.356993480876833
1757089335980015900,5.665015869140625,1.0224806146226824,9.464903431975841,-2.3538357474982736
1757089335989970000,5.674969970703125,1.0228026861838997,9.465379232794046,-2.3517718007057904
1757089335999925000,5.684925048828125,1.0280098994381726,9.464982342430948,-2.3511035460554064
1757089336009878800,5.694878662109375,1.0351375593610108,9.464077502545713,-2.351613979795575
1757089336019833900,5.704833740234375,1.0392383457433432,9.46341114759147,-2.3524901781082153
1757089336029788700,5.71478857421875,1.0393046159125865,9.463139344912767,-2.3535538618169722
1757089336039743000,5.724742919921875,1.0374635911557823,9.462894430240988,-2.355357696368545
1757089336049697800,5.73469775390625,1.0359751061636955,9.462589894336462,-2.357233573243022
1757089336059652900,5.74465283203125,1.0354694947291165,9.462269576340914,-2.358744270066917
1757089336069606700,5.754606689453125,1.0350612061891704,9.46205154967606,-2.359794509772211
1757089336079562000,5.76456201171875,1.0341678375460206,9.46216436240077,-2.359736203713715
1757089336089516000,5.77451611328125,1.031890978655219,9.462482342308759,-2.359456802250445
1757089336099470800,5.784470947265625,1.0277014910761266,9.46318902927339,-2.3584533242963253
1757089336109425700,5.79442578125,1.0229450903292745,9.464038924100995,-2.3571076087757943
1757089336119379700,5.804379638671875,1.018531292475015,9.464864269009231,-2.3557009568482634
1757089336129335000,5.8143349609375,1.015046592164412,9.465648697385191,-2.3540477828137574
1757089336139289900,5.824289794921875,1.01277996240668,9.466309207120537,-2.352370643381774
1757089336149244000,5.834243896484375,1.0115607958752661,9.46686333387196,-2.3506638394638895
1757089336159198700,5.84419873046875,1.01078170126155,9.467276590847968,-2.3493355134695766
1757089336169152800,5.85415283203125,1.0098620291333644,9.467508646038175,-2.348800383679569
1757089336179107800,5.86410791015625,1.0088149312332273,9.467519751954079,-2.349203265392035
1757089336189063000,5.87406298828125,1.0079103836089371,9.46734790251851,-2.350280393104255
1757089336199016700,5.8840166015625,1.0071342846699058,9.467080191493034,-2.3516959589906037
1757089336208971800,5.8939716796875,1.006387484890595,9.466818910208344,-2.3530659321695566
1757089336218926800,5.9039267578125,1.005401104201749,9.466705512961745,-2.353942276612669
1757089336228881000,5.913880859375,1.0040719014246016,9.466755781844258,-2.3543115483164785
1757089336238835700,5.923835693359375,1.002043610467389,9.467023492869734,-2.3540979055657982
1757089336248789800,5.933789794921875,0.9993592667542397,9.467474159246683,-2.3534257053926586
1757089336258744800,5.943744873046875,0.9962792747870087,9.468098428624868,-2.352221151908487
1757089336268700000,5.953699951171875,0.9933545464467257,9.46874490983486,-2.350855562643707
1757089336278654000,5.963654052734375,0.9907181335285306,9.469313649633527,-2.3496710290342566
1757089336288608800,5.97360888671875,0.9884209625020622,9.469749118441342,-2.348879440265149
1757089336298562800,5.983562744140625,0.9865314224284142,9.470047809126973,-2.348476558552682
1757089336308518000,5.993517822265625,0.9853827638499438,9.470214397865533,-2.348291411244124
1757089336318473000,6.003472900390625,0.9847551334708928,9.47038975443244,-2.3478435213461517
1757089336328426800,6.0134267578125,0.9845759775117039,9.47064811310768,-2.346877452792972
1757089336338381800,6.0233818359375,0.984905282531306,9.470999995285272,-2.3453131260856983
1757089336348337000,6.0333369140625,0.9862220642182975,9.471365321466326,-2.3432832276932896
1757089336358291000,6.043291015625,0.9885973419822752,9.471654659801722,-2.341111875003576
1757089336368245800,6.053245849609375,0.9916546106610447,9.471746429738403,-2.3394509560540317
1757089336378199800,6.06319970703125,0.9947879402507096,9.471710773903132,-2.3382659840531645
1757089336388154600,6.073154541015625,0.9976661260355263,9.471648230060934,-2.3372896863669155
1757089336398110000,6.08310986328125,0.9999694345418363,9.471686223983765,-2.3361527912914752
1757089336408064000,6.09306396484375,1.0016809146348387,9.471820079496503,-2.3348814561814066
1757089336418018800,6.103018798828125,1.0033204254701733,9.472015894329548,-2.3333748510107397
1757089336427973600,6.1129736328125,1.0052016361068934,9.472196511593461,-2.331830982569605
1757089336437928000,6.122927978515625,1.007178050746396,9.472316338580846,-2.3304933042250573
1757089336447883000,6.132883056640625,1.0090759933222084,9.472356670591235,-2.329505900622904
1757089336457836800,6.1428369140625,1.0108397881243378,9.472330951628088,-2.3288475828446447
1757089336467792000,6.1527919921875,1.012663569485396,9.472212293684482,-2.328536178807914
1757089336477747000,6.162746826171875,1.0146732288073748,9.471971470665931,-2.328637593355775
1757089336487701000,6.172700927734375,1.0167553688436746,9.471645307451485,-2.329061956247687
1757089336497655800,6.18265576171875,1.0190279168855398,9.471350123897194,-2.329274283824116
1757089336507611000,6.19261083984375,1.0217043695531784,9.471073060521483,-2.32922021554932
1757089336517564700,6.202564697265625,1.024547484024614,9.470893027779459,-2.3287037904597816
1757089336527520000,6.21252001953125,1.0271147772293536,9.47083574463427,-2.3278109332732857
1757089336537473800,6.222473876953125,1.0295903004974125,9.470851526725292,-2.326648757626116
1757089336547428900,6.232428955078125,1.032368898365274,9.470865555250644,-2.3253644169040024
1757089336557383700,6.2423837890625,1.0355241475258021,9.470871984991431,-2.3239320460133253
1757089336567337500,6.25233740234375,1.038775258276239,9.470852111247181,-2.3225683564446866
1757089336577292500,6.26229248046875,1.041572414714098,9.470885428994894,-2.321173248824477
1757089336587246300,6.272246337890625,1.0437316385746,9.470985966759919,-2.3197933387733993
1757089336597201700,6.28220166015625,1.0450389948461205,9.471181781592964,-2.31840246893689
1757089336607156500,6.292156494140625,1.0457405672442168,9.471416174870729,-2.3171320106096562
1757089336617110500,6.302110595703125,1.046004040485993,9.471593869525194,-2.3162902990885077
1757089336627065300,6.3120654296875,1.0460420344088226,9.471710773903132,-2.315792140308022
1757089336637020700,6.322020751953125,1.0457592719446867,9.47180605097115,-2.3155288131967184
1757089336646974500,6.331974365234375,1.0447343128111213,9.47197439327538,-2.31530260322541
1757089336656929500,6.341929443359375,1.0427728765450417,9.472213462728261,-2.3152067416355013
1757089336666883600,6.351883544921875,1.0401326642345636,9.472520336720347,-2.3151399600096045
1757089336676838400,6.36183837890625,1.0369351103022695,9.472864035591483,-2.315169624495506
1757089336686793500,6.37179345703125,1.0338904819093644,9.473180846455692,-2.3152336296424267
1757089336696747500,6.38174755859375,1.0315109663616866,9.47340997903645,-2.3153582789354026
1757089336706702600,6.39170263671875,1.0297481944728641,9.473547341680526,-2.3155777669049797
1757089336716657400,6.401657470703125,1.0284075204536318,9.473736726772785,-2.315396857380122
1757089336726611500,6.411611572265625,1.0273122725628316,9.474000930666923,-2.3148094128809866
1757089336736566500,6.42156640625,1.0265077512469143,9.474279163086413,-2.314026591940224
1757089336746520600,6.4315205078125,1.025833943638578,9.474520570626854,-2.313333787370473
1757089336756475400,6.441475341796875,1.0252877079326659,9.474638644048571,-2.3130894572205842
1757089336766430500,6.451430419921875,1.025111693778634,9.474649165442585,-2.313119852358848
1757089336776384500,6.461384521484375,1.0254862261794506,9.47445685774088,-2.313749674694985
1757089336786339600,6.471339599609375,1.0259162881597876,9.47415582896769,-2.3147975763127207
1757089336796294400,6.48129443359375,1.0258931264799087,9.473832003840803,-2.3161269252203405
1757089336806248400,6.49124853515625,1.0255148677520454,9.47352337628305,-2.317560172893852
1757089336816203500,6.50120361328125,1.0248782503489404,9.47322234750986,-2.3190660474121567
1757089336826157600,6.511157470703125,1.0237674395628273,9.473021271979809,-2.3203800526201723
1757089336836112400,6.5211123046875,1.0220224225264043,9.472946453177927,-2.321454403853416
1757089336846067500,6.5310673828125,1.0194471652109176,9.472970418575406,-2.3224913456857204
1757089336856021500,6.541021484375,1.0158821662057191,9.473120640701055,-2.32343812501654
1757089336865976600,6.5509765625,1.0114101353581995,9.473415824255346,-2.3241861669048665
1757089336875931400,6.560931396484375,1.0066142793837933,9.473789918264746,-2.3247400013953445
1757089336885885400,6.570885498046875,1.0020639226030559,9.474179209843278,-2.325118333188444
1757089336895840500,6.580840576171875,0.9978677860874682,9.474515894451736,-2.3255500026039777
1757089336905794300,6.590794189453125,0.994017321204394,9.47480990896225,-2.326004176112264
1757089336915749600,6.60074951171875,0.9902287425763905,9.475055408155917,-2.326620554444939
1757089336925704400,6.610704345703125,0.9866502995677292,9.475230764722824,-2.3274255872175096
1757089336935658500,6.620658447265625,0.983250354931131,9.4753114287436,-2.3285366171993314
1757089336945613300,6.63061328125,0.9800958364229648,9.475294477608799,-2.329939031343162
1757089336955568600,6.640568603515625,0.9768753400065004,9.475220827850698,-2.3315875292025505
1757089336965522400,6.6505224609375,0.973386986434087,9.475140163829922,-2.33336885966137
1757089336975477500,6.6604775390625,0.969757324694842,9.4750676831156,-2.3351721096910536
1757089336985431600,6.670431640625,0.9665065062053501,9.475036118933557,-2.3366543110728264
1757089336995386400,6.680386474609375,0.9639506842426955,9.474999878576398,-2.3378607642531395
1757089337005341400,6.690341552734375,0.962046092730388,9.474974159613252,-2.3387466071769594
1757089337015295500,6.70029541015625,0.9602871932990849,9.47497474413514,-2.3394646923184395
1757089337025250600,6.71025048828125,0.9583981646820903,9.475041379630564,-2.3399722034491597
1757089337035204400,6.720204345703125,0.9563491231977939,9.47514425548315,-2.3403937898620963
1757089337045159700,6.73015966796875,0.9543491815522313,9.475326626312732,-2.3404728464476765
1757089337055114500,6.740114501953125,0.9520259262364357,9.475596090903878,-2.3403194094516335
1757089337065068500,6.750068603515625,0.9493569992881268,9.47594505047202,-2.3399906158886847
1757089337075023400,6.7600234375,0.9464998562913387,9.476331419441104,-2.339581304435432
1757089337084978700,6.769978759765625,0.9433510368715972,9.47676922633648,-2.3390846069596707
1757089337094932500,6.779932373046875,0.9397790236037225,9.477221061757206,-2.3386935618154703
1757089337104887600,6.789887451171875,0.9357296751476823,9.477694524487852,-2.3383969169564542
1757089337114841300,6.79984130859375,0.9315753319472074,9.478197797834873,-2.3380146396405994
1757089337124796400,6.80979638671875,0.9279260156594217,9.478712761619686,-2.337380287259817
1757089337134751500,6.81975146484375,0.9247117297880351,9.479275071677565,-2.3363721331305802
1757089337144705500,6.82970556640625,0.9217535375695675,9.479895833924413,-2.335028755697608
1757089337154660400,6.839660400390625,0.9186535987928509,9.480620056545733,-2.333307046471536
1757089337164615400,6.849615478515625,0.9154169549591838,9.481412083706259,-2.3313573737084865
1757089337174569500,6.859569580078125,0.9119603847645222,9.482225738176703,-2.32940185572654
1757089337184524500,6.869524658203125,0.9089220399819314,9.4829797714144,-2.3275173571541905
1757089337194478600,6.879478515625,0.9066582597684114,9.48355552547574,-2.3260516685158015
1757089337204433400,6.889433349609375,0.9054922847289592,9.483940725401043,-2.324934939445555
1757089337214388500,6.899388427734375,0.9051078154560178,9.484148230671883,-2.3242370203092695
1757089337224342500,6.909342529296875,0.9048813862890005,9.48431832654178,-2.323636570198089
1757089337234297600,6.919297607421875,0.904135755553469,9.484498943805693,-2.323191602909565
1757089337244251400,6.92925146484375,0.9026214785329997,9.484802310666442,-2.32254322200343
1757089337254206500,6.93920654296875,0.9004113282028585,9.485185172504186,-2.321837557952106
1757089337264161500,6.94916162109375,0.8977757920674979,9.48568143158853,-2.3208244353868066
1757089337274115600,6.959115478515625,0.8948322128962725,9.486261277303099,-2.319591094199568
1757089337284070400,6.9690703125,0.8916429884009063,9.486932892954348,-2.3180777670271695
1757089337294025500,6.979025390625,0.8882746079463512,9.487726673680543,-2.31611304282546
1757089337303979500,6.9889794921875,0.8846599245805293,9.488623330259323,-2.313828000628203
1757089337313934600,6.9989345703125,0.8808574635576456,9.489625785300134,-2.3111665263339876
1757089337323888600,7.008888671875,0.8768936014279722,9.490645191475748,-2.3084867857307194
1757089337333843500,7.018843505859375,0.8730186596907675,9.49159387050271,-2.3060553208000956
1757089337343798300,7.02879833984375,0.8693973273884504,9.492402264276146,-2.3040946882516145
1757089337353752300,7.03875244140625,0.8663315831422805,9.493018934869765,-2.302703087762743
1757089337363707600,7.048707763671875,0.8640049668256193,9.493457910808921,-2.3017628843031823
1757089337373662500,7.058662353515625,0.8620873697012662,9.493817391771078,-2.301001398411393
1757089337383616500,7.068616455078125,0.8602178495023399,9.49414881568253,-2.300330513412505
1757089337393571300,7.0785712890625,0.8582569246929138,9.494469718199968,-2.2997386849991974
1757089337403525600,7.088525634765625,0.8559674255162477,9.494788867151737,-2.2992852421432732
1757089337413480400,7.09848046875,0.8533783588711172,9.495114445844292,-2.2988996038265523
1757089337423435500,7.108435546875,0.8503633949641137,9.495449376887082,-2.2986372996285556
1757089337433389300,7.118389404296875,0.8470444796744734,9.495785476973653,-2.298472464455664
1757089337443344600,7.1283447265625,0.8437881812922656,9.496139697238803,-2.29820489956066
1757089337453298700,7.138298583984375,0.840581859531626,9.496511453160643,-2.2978445418156683
1757089337463253500,7.14825341796875,0.8370826192390173,9.49694633744657,-2.2973275322042404
1757089337473208300,7.158208251953125,0.8332063623275607,9.49739408121407,-2.2968822726547717
1757089337483162400,7.168162353515625,0.8288613188605755,9.497819028627871,-2.2966912801273165
1757089337493117700,7.17811767578125,0.8243483714807778,9.498196629768609,-2.29676390697211
1757089337503072500,7.188072509765625,0.8196898050852119,9.498502334716916,-2.2971599205523727
1757089337513026600,7.198026611328125,0.8148716642137617,9.498739066082239,-2.2978968565247953
1757089337522981400,7.2079814453125,0.8102879166200757,9.498908577430248,-2.2988202549800274
1757089337532935400,7.217935302734375,0.8059253374963998,9.499011453282833,-2.2999261703953144
1757089337542890500,7.227890380859375,0.8014865513313562,9.499057045990227,-2.3012905906163152
1757089337552845600,7.237845458984375,0.7965220607917756,9.499019052067398,-2.303168951708823
1757089337562799900,7.2477998046875,0.79048979489021,9.498972290316223,-2.3054338279008864
1757089337572755000,7.2577548828125,0.7830692895006388,9.498951247528195,-2.3080481020525094
1757089337582708700,7.267708740234375,0.7744443767573684,9.499003854498266,-2.3107402637459336
1757089337592663800,7.277663818359375,0.7651983364410698,9.49907224355936,-2.3135436307288706
1757089337602619000,7.287618896484375,0.7559932857222854,9.499121927919983,-2.3163689172826705
1757089337612573000,7.297572998046875,0.746904627924785,9.499140048098564,-2.3192324900202452
1757089337622527700,7.30752783203125,0.7376124834444373,9.499134202879667,-2.3222315257057544
1757089337632481800,7.317481689453125,0.7280067429702729,9.499172781324386,-2.325099190096557
1757089337642436900,7.327436767578125,0.718185313918814,9.499303129705787,-2.327620379137248
1757089337652392000,7.337391845703125,0.7085264550179242,9.499496606451272,-2.329790708913654
1757089337662346000,7.347345947265625,0.6994933998651802,9.499701773634552,-2.331682660140097
1757089337672300800,7.35730078125,0.691293434535712,9.499933244302868,-2.333192334050685
1757089337682256000,7.367255859375,0.6844963217414916,9.500107431825995,-2.334482666122168
1757089337692210000,7.3772099609375,0.6790056153707206,9.500272851520776,-2.335412786579132
1757089337702165000,7.3871650390625,0.6744429836302995,9.500539393502473,-2.3356518560320136
1757089337712118800,7.397118896484375,0.6704525257546454,9.50099415153265,-2.334953352373838
1757089337722073900,7.407073974609375,0.6668509941313415,9.501691486147045,-2.33314557229951
1757089337732029000,7.41702880859375,0.6640542760848999,9.502604509338736,-2.330223839633912
1757089337741983000,7.42698291015625,0.6625801849443466,9.503688212922215,-2.32621694208011
1757089337751937800,7.436937744140625,0.6625182256240397,9.504854334092139,-2.3214609797246752
1757089337761891800,7.446891845703125,0.6637333005022257,9.50610404189229,-2.3159936542294917
1757089337771846700,7.4568466796875,0.6658166826475411,9.507416878056526,-2.309996313510835
1757089337781802000,7.466802001953125,0.6690061994038522,9.508727960655092,-2.303666964358836
1757089337791756000,7.476756103515625,0.6737732676751911,9.510005725505948,-2.2969996154241263
1757089337801710800,7.4867109375,0.6799330324139445,9.511177107372879,-2.2903239370524884
1757089337811665700,7.496665771484375,0.6865175253707915,9.512212295639515,-2.284056108829379
1757089337821619700,7.50661962890625,0.6926102892879397,9.513185524585843,-2.2781549219615758
1757089337831575000,7.516574951171875,0.6983679760318249,9.51395592443645,-2.2731764028966426
1757089337841528800,7.52652880859375,0.7042199169304222,9.51432943392396,-2.2698025425493715
1757089337851484000,7.53648388671875,0.7096827854461968,9.51417862727642,-2.268729652620852
1757089337861438700,7.546438720703125,0.7138382246252148,9.513329316970706,-2.2709840074189005
1757089337871393000,7.55639306640625,0.7168255698729306,9.511537757378816,-2.277542050760239
1757089337881347800,7.566347900390625,0.7201441198363899,9.508757186749577,-2.288079519126564
1757089337891302000,7.576302001953125,0.7240457303848117,9.505029690659045,-2.3022904153086245
1757089337901256700,7.586256591796875,0.7272975717876106,9.500680847799778,-2.3191643932200967
1757089337911212000,7.5962119140625,0.7281560883130878,9.496068385568261,-2.337706742735207
1757089337921165800,7.606165771484375,0.7251775108937174,9.491769811591505,-2.3560149912334976
1757089337931121000,7.616120849609375,0.7184526596181094,9.488325224095583,-2.3719055110655725
1757089337941075000,7.626074951171875,0.7096959371887147,9.486184120413661,-2.383076016638428
1757089337951029800,7.63602978515625,0.6987049529012292,9.485224335470795,-2.39012608128041
1757089337960984800,7.64598486328125,0.6845528011690825,9.485452299007774,-2.393312017840147
1757089337970939000,7.65593896484375,0.6683938396591693,9.486432542216777,-2.394000292365253
1757089337980894000,7.66589404296875,0.6518190638899802,9.487757068818807,-2.3933254618436095
1757089337990847700,7.67584765625,0.6359206530123949,9.488988656440377,-2.3927120061203837
1757089338000802800,7.685802734375,0.6215391495037823,9.48980114186704,-2.393266571263224
1757089338010758000,7.6957578125,0.6090794809032232,9.490099832552671,-2.395287409566343
1757089338020712000,7.7057119140625,0.5987362929999828,9.48995253303647,-2.3984780223011968
1757089338030666800,7.715666748046875,0.5900447082286701,9.489325925570725,-2.403108604711294
1757089338040621800,7.725621826171875,0.5821498267930001,9.488546757891774,-2.4081029058672487
1757089338050575600,7.73557568359375,0.5732118660451844,9.487703292804955,-2.4135597099684176
1757089338060531000,7.745531005859375,0.5600631922671571,9.487538457632064,-2.41729933488816
1757089338070485000,7.755485107421875,0.5417989290410652,9.48778687943518,-2.4204862943612038
1757089338080439800,7.765439697265625,0.5208245300734415,9.488150452050567,-2.423657033351809
1757089338090394600,7.77539453125,0.5005149516901001,9.488558448329567,-2.42634481113106
1757089338100349000,7.785348876953125,0.48114502877704796,9.489508880922198,-2.42654574053064
1757089338110304000,7.795303955078125,0.4616172118885442,9.490922839373349,-2.424809564387798
1757089338120257800,7.8052578125,0.4411566807271912,9.492587557715177,-2.422096798297763
1757089338130212900,7.815212890625,0.4188906345138326,9.49448374672532,-2.418610709747672
1757089338140168000,7.82516796875,0.3944357730193063,9.496632449191807,-2.414280717719346
1757089338150122000,7.8351220703125,0.36794041867312044,9.498935465437173,-2.4094091661602257
1757089338160076800,7.845076904296875,0.33973738362621514,9.501302194568515,-2.4042136433437467
1757089338170030800,7.85503076171875,0.3098568438211456,9.503540913406013,-2.399396452320367
1757089338179985700,7.864985595703125,0.2785677706587128,9.505651621949673,-2.3948669921971857
1757089338189941000,7.87494091796875,0.2461314636899158,9.50724152148962,-2.392109802443534
1757089338199894800,7.884894775390625,0.21262416648874058,9.508432192578912,-2.3905855154857036
1757089338209849900,7.894849853515625,0.17895214371252804,9.509202007907628,-2.390284486712515
1757089338219804000,7.904803955078125,0.14539207514449953,9.509582531657815,-2.3910455342128873
1757089338229758700,7.9147587890625,0.11157890859823673,9.509565580523013,-2.3929265256538987
1757089338239713800,7.9247138671875,0.0771409338176716,9.509185056772827,-2.39579594361037
1757089338249667800,7.934667724609375,0.04181907974150963,9.508431023535131,-2.3996673782162365
1757089338259623000,7.944622802734375,0.005671408116363455,9.507331537860631,-2.4043762865595517
1757089338269576700,7.95457666015625,-0.030671356822620142,9.50593394602239,-2.409707710715383
1757089338279532000,7.964531982421875,-0.06735989157552831,9.504400745105743,-2.4149993873827156
1757089338289486800,7.97448681640625,-0.10482166202352382,9.502437920600176,-2.4213792976781723
1757089338299441000,7.98444091796875,-0.1423242120064795,9.499941427609324,-2.4292472545742987
1757089338309395700,7.994395751953125,-0.1793872106615454,9.49720644968748,-2.437473231127858
1757089338319351000,8.00435107421875,-0.21501466008815914,9.494778930279612,-2.444035658383369
1757089338329304800,8.014304931640625,-0.24698629042096434,9.492613861200212,-2.449418812726438
1757089338339260000,8.024260009765625,-0.273066013170965,9.490339486527443,-2.4554583851516245
1757089338349214000,8.0342138671875,-0.2909072652120143,9.488514024665951,-2.460459262178838
1757089338359168800,8.044168701171875,-0.30017422045217823,9.487599832430481,-2.4628657387986777
1757089338369123800,8.054123779296875,-0.30361345591954886,9.487558915898203,-2.4626073801234365
1757089338379078000,8.064077880859376,-0.3041419733056798,9.486938153651357,-2.464936115331948
1757089338389033000,8.074032958984375,-0.30368984562400725,9.486060201773046,-2.4683622903883458
1757089338398986800,8.08398681640625,-0.303498798297625,9.484781267878413,-2.4732988700076937
1757089338408941800,8.09394189453125,-0.30573030194304884,9.482946453666687,-2.480049513311684
1757089338418897000,8.10389697265625,-0.3108599199164659,9.4804406083256,-2.488975454828143
1757089338428851000,8.113850830078125,-0.31791908118035644,9.477538457143305,-2.499113987004757
1757089338438805800,8.1238056640625,-0.3275443300725892,9.474120757654308,-2.51080150218904
1757089338448759800,8.133759765625,-0.3408691641351208,9.470389169910549,-2.523074708306789
1757089338458715000,8.14371484375,-0.35804702036399394,9.466298685726523,-2.5360171919882295
1757089338468670000,8.153669921875,-0.3799603441495448,9.461928215557336,-2.549104929359257
1757089338478623700,8.163623779296875,-0.4077990393960848,9.457059732738136,-2.562837394374609
1757089338488578800,8.173578857421875,-0.44170280683524904,9.451443061900138,-2.577888248512149
1757089338498532900,8.183532958984374,-0.47932617931943383,9.44500572232902,-2.5947093271926045
1757089338508488000,8.193488037109375,-0.5168846698738634,9.43777109490037,-2.613753342619538
1757089338518442800,8.20344287109375,-0.5500885088827461,9.429989354982972,-2.634972948519885
1757089338528396800,8.213396728515624,-0.5742863999415189,9.422648929092288,-2.6559838801056146
1757089338538351900,8.223351806640625,-0.5849454123282805,9.417569433870911,-2.671626854917407
1757089338548305700,8.2333056640625,-0.5805363637143746,9.414625781634449,-2.682946705833077
1757089338558261000,8.243260986328124,-0.5622035287640988,9.413694638264179,-2.6901076835036277
1757089338568215600,8.253215576171876,-0.5320895820619538,9.41501448869109,-2.6916113660648464
1757089338578169600,8.263169677734375,-0.49215610600449144,9.418737308606504,-2.686176773795485
1757089338588124400,8.27312451171875,-0.44403325907681135,9.424968311950563,-2.6726725645780562
1757089338598078500,8.283078369140625,-0.38851383562441916,9.43303237594068,-2.6527976512849327
1757089338608033500,8.293033447265625,-0.32569756969474256,9.442294709804653,-2.628190741033852
1757089338617988600,8.302988525390624,-0.25571791494172064,9.451782669118046,-2.6016975786447523
1757089338627942700,8.312942626953125,-0.18155052617527542,9.460546405810117,-2.575946174533665
1757089338637897500,8.3228974609375,-0.10773700148095376,9.467843577080965,-2.5531746630162
1757089338647851800,8.332851806640624,-0.03269764761899132,9.4728289642781,-2.5366946528583765
1757089338657806600,8.342806640625,0.05652174606246408,9.474055875724554,-2.531690268699825
1757089338667761700,8.35276171875,0.17670820071063933,9.470322534415125,-2.5401091374769806
1757089338677715500,8.362715576171874,0.33803492708988486,9.460472756052017,-2.560388832178712
1757089338687670800,8.3726708984375,0.5392223930839449,9.443269692316651,-2.5892650903120638
1757089338697624600,8.38262451171875,0.7681400159161538,9.418165061676502,-2.622696819792688
1757089338707579600,8.39257958984375,1.009861809937656,9.385708899229764,-2.6568822902500626
1757089338717534500,8.402534423828126,1.2475541292473673,9.347342635956407,-2.690945887893438
1757089338727488500,8.412488525390625,1.4681253640167413,9.304634544086456,-2.7274077788501976
1757089338737443600,8.422443603515624,1.667185754854232,9.259458016276358,-2.7664596863001583
1757089338747397600,8.432397705078126,1.8449594659045339,9.214300777688623,-2.804139136353135
1757089338757352700,8.442352783203125,2.002676623484492,9.171904235985874,-2.834755223891139
1757089338767307500,8.4523076171875,2.1400721469171344,9.134169256353378,-2.856122421568632
1757089338777261600,8.462261474609376,2.2562455802313983,9.101131494626403,-2.872133352909982
1757089338787216600,8.472216552734375,2.3505256000369785,9.072160251685977,-2.888133470596373
1757089338797170700,8.482170654296874,2.42635927804783,9.045846245256065,-2.9078935253381726
1757089338807125500,8.49212548828125,2.4918124318197368,9.020391486003994,-2.931518731075525
1757089338817080600,8.50208056640625,2.556449154642224,8.992862843087314,-2.9602991276189683
1757089338827034600,8.51203466796875,2.6258900628760458,8.960706540369987,-2.9968031041517853
1757089338836989700,8.52198974609375,2.7021929658338424,8.922817831480502,-3.0416914626702662
1757089338846943700,8.53194384765625,2.7879163158267737,8.878741958388686,-3.092873952896893
1757089338856898600,8.541898681640625,2.887013818916678,8.828236344510316,-3.1460777198180554
1757089338866853600,8.551853515625,3.0023040396556255,8.771379900300502,-3.196786747314036
1757089338876807700,8.5618076171875,3.1318402278900144,8.709120135742426,-3.242411311152577
1757089338886762500,8.571762451171875,3.2681986633598803,8.643951205739379,-3.281974090734124
1757089338896716500,8.581716552734376,3.4029973021671176,8.578605750125647,-3.3162487007796764
1757089338906671600,8.591671630859375,3.5303587767109272,8.515411335065961,-3.345850350578129
1757089338916626700,8.601626708984375,3.64196534050107,8.457961601138114,-3.3718475461438295
1757089338926580700,8.611580810546876,3.7272675424724815,8.411877895355223,-3.3938413512870667
1757089338936535600,8.62153564453125,3.7839451229840515,8.379879413548112,-3.410243035511672
1757089338946489600,8.631489501953125,3.8180449609845875,8.361358837473391,-3.4176845836892724
1757089338956444400,8.6414443359375,3.835806827646494,8.354514086145162,-3.4145360565304754
1757089338966399700,8.651399658203125,3.8396529816806315,8.356490354654193,-3.4053616932108994
1757089338976353500,8.661353515625,3.831466460354626,8.364000291892886,-3.3961335538774726
1757089338986308600,8.67130859375,3.8141613975495097,8.374768938666582,-3.3890745752766724
1757089338996262700,8.6812626953125,3.7904260094359516,8.387795593500137,-3.3834774859219787
1757089339006217700,8.6912177734375,3.761029234559834,8.403480069366097,-3.3773630946949122
1757089339016172500,8.701172607421874,3.7242028942048546,8.423112406075001,-3.3692557760849593
1757089339026126600,8.711126708984375,3.677551033145189,8.448034665885567,-3.358086731816828
1757089339036081700,8.72108154296875,3.6188051219269632,8.478791623198985,-3.3443545590624213
1757089339046035500,8.731035400390626,3.546350126568973,8.515481477692722,-3.3287177217304706
1757089339055990800,8.74099072265625,3.459181546203792,8.558146899464726,-3.3109739752471445
1757089339065945600,8.750945556640625,3.3568308865368364,8.606271171164511,-3.2915310236304998
1757089339075899600,8.760899658203124,3.2400904669895767,8.658721489369869,-3.2708900944009422
1757089339085854500,8.7708544921875,3.1117621932402253,8.713658948215842,-3.2495331258565185
1757089339095808500,8.78080859375,2.976998918007314,8.768689930564165,-3.2276787291839715
1757089339105763600,8.790763671875,2.8428441300615668,8.821469919115305,-3.204726015880704
1757089339115718700,8.80071875,2.7157836842909453,8.870725825193524,-3.1788577073916793
1757089339125672700,8.810672607421875,2.601429867619276,8.914587763273715,-3.1516771472603082
1757089339135627500,8.82062744140625,2.506308574683964,8.95042421580851,-3.127088941709697
1757089339145581600,8.83058154296875,2.4360806077256796,8.97681537912786,-3.106878220590949
1757089339155536600,8.84053662109375,2.394152121926099,8.993590572839976,-3.0909175581321118
1757089339165491500,8.850491455078124,2.3859181081965564,8.999460926178097,-3.080171707712114
1757089339175445500,8.860445556640625,2.415969255328178,8.993501725512742,-3.0741558084234595
1757089339185400600,8.870400634765625,2.482517656990886,8.977311053690313,-3.0684502902582285
1757089339195354600,8.880354736328124,2.576917649914324,8.954141190505027,-3.0583009444266556
1757089339205309700,8.890309814453126,2.6863682047143578,8.927168427905439,-3.0429370788171886
1757089339215264500,8.900264404296875,2.796419648016989,8.900390311095117,-3.0221593714654444
1757089339225218600,8.910218505859374,2.8948353063225745,8.875793629977107,-3.001767740821838
1757089339235173600,8.920173583984376,2.9738007064878937,8.85258635739088,-2.993096066327393
1757089339245127700,8.930127685546875,3.0342914155468343,8.829083316728472,-3.0017972591772675
1757089339255082500,8.94008251953125,3.078447660398483,8.806340739044547,-3.02356573113203
1757089339265037600,8.95003759765625,3.0991274603337047,8.789087406426667,-3.052491089104116
1757089339274991600,8.95999169921875,3.093913232816756,8.779875341445207,-3.0841368119508026
1757089339284946700,8.96994677734375,3.0764944805040955,8.77580180839598,-3.113019499824941
1757089339294901500,8.979901611328126,3.058438599331677,8.773019484201074,-3.1385464475303886
1757089339304855600,8.98985546875,3.043126756170392,8.77024885044396,-3.161086196118593
1757089339314810600,8.999810546875,3.031638270689547,8.767510365390777,-3.1796681469917294
1757089339324764400,9.009764404296876,3.0236481487184763,8.765833372089267,-3.191884362225234
1757089339334719700,9.0197197265625,3.0181065889433025,8.766953316029905,-3.1940543997406956
1757089339344674600,9.029674560546875,3.0150825649470088,8.772011183941364,-3.1830007985457778
1757089339354628600,9.039628662109376,3.016251024204492,8.781405619752407,-3.1558748912110923
1757089339364583400,9.04958349609375,3.0309803913027045,8.792579924717545,-3.110316962867975
1757089339374537700,9.059537841796875,3.0713164933443067,8.800746864560246,-3.0470082737788555
1757089339384492500,9.069492431640626,3.1295103236377235,8.803845415097474,-2.9780645014122125
1757089339394447600,9.079447509765625,3.1848209997102614,8.80433816705048,-2.917356642471254
1757089339404401700,9.089401611328125,3.2177906646370884,8.807973308682442,-2.86981484683454
1757089339414356700,9.099356689453124,3.213636467567086,8.819868329137563,-2.8377544057071207
1757089339424310800,9.109310791015625,3.1725083383649584,8.842013525450229,-2.8150337475940583
1757089339434265600,9.119265625,3.103278442533314,8.8715546772331,-2.799211909084022
1757089339444219600,9.1292197265625,3.011264467963576,8.904982315060495,-2.7935543217137453
1757089339454174500,9.139174560546875,2.8972818226918577,8.942278903275728,-2.794954251639545
1757089339464129800,9.1491298828125,2.7628903033807872,8.985796557962894,-2.791470208916068
1757089339474083600,9.15908349609375,2.6138667398661375,9.036491556933521,-2.771260656841099
1757089339484038700,9.16903857421875,2.4575185325518247,9.093252139553428,-2.7283234323903915
1757089339493992400,9.178992431640625,2.302558856986463,9.1519755466789,-2.666447698713839
1757089339503947500,9.188947509765624,2.1601189096458255,9.208136994361876,-2.5912340522974726
1757089339513902600,9.198902587890625,2.037625187268853,9.257658857899903,-2.5128061200097203
1757089339523856600,9.208856689453125,1.9400266905650496,9.297975670719147,-2.440143180989474
1757089339533811500,9.2188115234375,1.8631494948506355,9.330316682353615,-2.3757636477984487
1757089339543765500,9.228765625,1.7920497134938835,9.35815453734994,-2.320325107562542
1757089339553720800,9.238720947265625,1.713172722264379,9.3840406737566,-2.274910387082398
1757089339563675000,9.2486748046875,1.6233774466574191,9.409022554799915,-2.237262501211464
1757089339573629000,9.25862890625,1.5256947788015007,9.433259754955769,-2.2036872716069222
1757089339583584000,9.268583984375,1.4274787347212432,9.455694874125719,-2.1731357737377284
1757089339593538000,9.2785380859375,1.3337158706575631,9.475532378017903,-2.1461320314779875
1757089339603492900,9.288492919921875,1.2496744824022055,9.492440258198975,-2.1218691123589872
1757089339613448000,9.298447998046875,1.1746898955013603,9.507426230406761,-2.0974529023744166
1757089339623402200,9.30840234375,1.105419594594091,9.520637594157456,-2.0750588458672166
1757089339633357000,9.318357177734375,1.0393423906397075,9.531212179663777,-2.0606199861481787
1757089339643311000,9.32831103515625,0.9695972387623041,9.53944926213324,-2.0564961842164395
1757089339653266000,9.338265869140624,0.8924003095742314,9.545573882493375,-2.0630102422855794
1757089339663221200,9.34822119140625,0.8098061975177377,9.550374560773372,-2.074836289157718
1757089339673175000,9.358175048828125,0.7275296269778162,9.554169861403107,-2.0878009846709666
1757089339683130000,9.368130126953124,0.646971843054518,9.557005961611866,-2.1012946724943817
1757089339693084000,9.378083984375,0.566279984422773,9.558782908156514,-2.1164510328330097
1757089339703039000,9.3880390625,0.4824223552364856,9.559235328099131,-2.1351082408994433
1757089339712994000,9.397994140625,0.3947549585036933,9.558012508305907,-2.158462374610454
1757089339722948000,9.407947998046875,0.30548438262427224,9.55480114504397,-2.1869746217370034
1757089339732903000,9.41790283203125,0.2176141019968316,9.549152910023928,-2.2218770082920787
1757089339742857000,9.42785693359375,0.13138461084635927,9.541023379582166,-2.263182539887726
1757089339752812000,9.43781201171875,0.04439280268703587,9.530287466034293,-2.311286207190901
1757089339762767000,9.44776708984375,-0.04559913713634014,9.517263149288295,-2.3643187091983853
1757089339772721200,9.45772119140625,-0.1376889625544194,9.50127238395214,-2.4243092136502264
1757089339782676000,9.467676025390626,-0.22757861104710025,9.48267815811932,-2.4894576853871344
1757089339792630000,9.477630126953125,-0.31071802722774444,9.463176169791817,-2.5538489090159535
1757089339802585000,9.487585205078124,-0.3841808844540268,9.443301841020583,-2.6166531557142734
1757089339812540200,9.4975400390625,-0.4466853444881737,9.423981054478883,-2.6757103248387573
1757089339822494000,9.507493896484375,-0.4971519415304064,9.40669908028841,-2.727125454777479
1757089339832449000,9.517448974609374,-0.5353583745995536,9.392386477297544,-2.7689059104084968
1757089339842402800,9.52740283203125,-0.5631258312407881,9.381068379947543,-2.8015774691715833
1757089339852358100,9.537358154296875,-0.5823813705265521,9.37254955792725,-2.826049062605202
1757089339862313000,9.54731298828125,-0.5953707620896399,9.36678617209494,-2.842403400556743
1757089339872267000,9.55726708984375,-0.6027703342890367,9.363741982093453,-2.8508570483863354
1757089339882221800,9.567221923828125,-0.6094926648139953,9.363483038896321,-2.8502769104108214
1757089339892176000,9.57717578125,-0.6214874923817812,9.365579718914628,-2.8407831058785318
1757089339902131200,9.587131103515626,-0.6347911375258117,9.368900387769937,-2.8268612557709214
1757089339912086000,9.5970859375,-0.6448158340644091,9.372780444073676,-2.811690574645996
1757089339922040000,9.6070400390625,-0.6509511950142681,9.376443642756342,-2.7980270832136274
1757089339931995000,9.616994873046876,-0.6510407729938625,9.378259167745709,-2.791915906856954
1757089339941949200,9.62694921875,-0.6405342112224549,9.37973040934205,-2.789407138906419
1757089339951904000,9.636904052734375,-0.6158461254939437,9.3829014405936,-2.784291695588827
1757089339961859000,9.646859130859376,-0.5746528951663523,9.38823578735888,-2.7751003811344503
1757089339971812900,9.656812744140625,-0.5146045961126685,9.395009811538458,-2.76393922791183
1757089339981768200,9.666768310546875,-0.4337997786257416,9.403976961848139,-2.7472622338771817
1757089339991722000,9.676721923828126,-0.3327232670804485,9.415315517464279,-2.7224118702590463
1757089340001677000,9.686677001953125,-0.21482794187702237,9.42842575892806,-2.688687587572634
1757089340011631900,9.6966318359375,-0.08505670277774334,9.442584048140048,-2.645898247160017
1757089340021586000,9.7065859375,0.05401116518075578,9.45746363736391,-2.593044608850777
1757089340031541000,9.716541015625,0.2034184764491394,9.470589076396822,-2.537113755053282
1757089340041495000,9.7264951171875,0.37355062323771415,9.477550732102989,-2.491360888659954
1757089340051450000,9.7364501953125,0.5745588236747309,9.476231466197968,-2.457907824130356
1757089340061405000,9.746405029296875,0.8007716079950332,9.466429034107923,-2.4322543274357913
1757089340071359000,9.75635888671875,1.038301211023703,9.446855149587988,-2.418516893984377
1757089340081314000,9.76631396484375,1.2774930481761693,9.417189494642615,-2.4196985049843787
1757089340091268000,9.77626806640625,1.512938611472398,9.379798798403144,-2.429154900115728
1757089340101223000,9.786222900390625,1.7358122779652476,9.338922013613582,-2.437591742940992
1757089340111177000,9.796177001953126,1.9434310921810567,9.295140739554165,-2.448231210377067
1757089340121132000,9.806132080078125,2.145223538330942,9.245957898712158,-2.4659032067984343
1757089340131087000,9.816087158203125,2.3534132843025026,9.191033299347758,-2.4812723331049082
1757089340141041200,9.826041259765624,2.5673414277955886,9.131282302740216,-2.4897502385929227
1757089340150996000,9.835995849609375,2.769805781857669,9.07092164980173,-2.4933760278746484
1757089340160950000,9.845949951171875,2.941364417785406,9.013622137999533,-2.5046707443490623
1757089340170905000,9.855905029296874,3.078431586046517,8.960675560709834,-2.5298063546493648
1757089340180860200,9.865860107421875,3.1953862328663467,8.907395805943011,-2.5725813742756842
1757089340190814000,9.87581396484375,3.307287395688891,8.848450865021347,-2.6338489129260183
1757089340200769000,9.88576904296875,3.4197637280508872,8.781746396014094,-2.712293796348572
1757089340210722800,9.895722900390625,3.535560144746303,8.706253640395403,-2.80559371907562
1757089340220678100,9.90567822265625,3.6539351797580717,8.623295371201634,-2.908254467605054
1757089340230633000,9.915633056640624,3.779066411031782,8.536067754125595,-3.004103198032081
1757089340240587000,9.9255869140625,3.915949747158587,8.446904785072803,-3.0798604498058557
1757089340250541800,9.935541748046875,4.061191161786019,8.357942891550064,-3.133989514878392
1757089340260496000,9.945495849609374,4.203061346414685,8.273419857257604,-3.1709929653659463
1757089340270451000,9.955450927734375,4.323420540980995,8.202083636796473,-3.194404528352618
1757089340280406000,9.965406005859375,4.409558901515603,8.149084452536702,-3.2122572881683706
1757089340290360000,9.975360107421874,4.457689018434285,8.114712811857462,-3.232777513627708
1757089340300315000,9.98531494140625,4.476149388754368,8.096357070955634,-3.2532296422868967
1757089340310269200,9.995269287109375,4.475511967633665,8.091397402721643,-3.2664138257697224
1757089340320224000,10.00522412109375,4.4615085767224425,8.097042715132236,-3.2715809992745517
1757089340330179000,10.015178955078126,4.437457546788454,8.110129575720428,-3.271873260219395
1757089340340132900,10.0251328125,4.404342335911095,8.128747766950726,-3.2704137090608474
1757089340350088200,10.035088134765624,4.360788440866768,8.153705682596565,-3.266649388091266
1757089340360042000,10.0450419921875,4.3037826513141395,8.187085974150895,-3.2587501592740415
1757089340369997000,10.0549970703125,4.231649435256421,8.230133673238754,-3.2447546594083305
1757089340379951000,10.064951171875,4.1442715960547325,8.282759348011016,-3.2235517123818394
1757089340389906000,10.074906005859376,4.04239118424803,8.344004967090488,-3.194845550118387
1757089340399861000,10.084861083984375,3.9267914591684936,8.413000177383422,-3.1578663572892545
1757089340409815000,10.09481494140625,3.7987639219313856,8.488357323923706,-3.1124884616881605
1757089340419770000,10.10477001953125,3.659488722231984,8.568549051013589,-3.0591628219529983
1757089340429725000,10.114724853515625,3.508156297253072,8.65215380141735,-3.0005802846029397
1757089340439679000,10.124678955078124,3.3459859596565362,8.73661721447706,-2.940457824334502
1757089340449634000,10.134634033203126,3.1783082568153738,8.817657667350769,-2.88403597214967
1757089340459588000,10.144588134765625,3.013715075986087,8.891263586309552,-2.834313033081591
1757089340469543000,10.15454296875,2.8625822652325033,8.954352202907204,-2.792051808196306
1757089340479497000,10.1644970703125,2.736735871426761,9.003515754526854,-2.7599539576679466
1757089340489452000,10.1744521484375,2.6439915367558595,9.037169017803668,-2.7403029162585733
1757089340499407000,10.184406982421875,2.588893042129278,9.054527564361692,-2.735604529309273
1757089340509361200,10.194361083984376,2.573490013553202,9.054432871815562,-2.750410176514089
1757089340519316000,10.20431591796875,2.5999820068985224,9.037161419019103,-2.782118443202972
1757089340529270000,10.21427001953125,2.6748475705295798,9.004458588334918,-2.8169726067021488
1757089340539225000,10.22422509765625,2.7982021475195884,8.9596006249547,-2.840072034999728
1757089340549180000,10.234179931640625,2.955691633823514,8.90629748931229,-2.848181399436295
1757089340559134000,10.244134033203125,3.113890729701519,8.851787900489569,-2.849544796743989
1757089340569089000,10.254089111328126,3.236147574582696,8.804773635858297,-2.8589675818666813
1757089340579042800,10.264042724609375,3.3090047210007905,8.768551983398199,-2.886753414414823
1757089340588998100,10.273998046875,3.342075800475478,8.741846347302198,-2.929340510253608
1757089340598953000,10.283952880859376,3.3495980126738547,8.723539706239103,-2.9749671199187633
1757089340608907000,10.293906982421875,3.344593043993413,8.711582726463675,-3.015363719975948
1757089340618861800,10.30386181640625,3.340457259362936,8.703006036776303,-3.0445746168911456
1757089340628816000,10.31381591796875,3.3412130461663008,8.697500425097346,-3.059441638894379
1757089340638771000,10.32377099609375,3.3388469015568494,8.699438115161657,-3.0565076312690973
1757089340648726000,10.33372607421875,3.3257749462768436,8.71390444740951,-3.0294322850778697
1757089340658680000,10.34368017578125,3.2998338648125527,8.74113439964056,-2.9789322241574525
1757089340668635000,10.353634765625,3.2711411465525626,8.774453316396475,-2.9118697354927656
1757089340678589000,10.3635888671875,3.2591581555530427,8.804688295662402,-2.83297155534476
1757089340688544000,10.3735439453125,3.278687616409361,8.823813851892947,-2.749706704419851
1757089340698499000,10.3834990234375,3.3213246888697143,8.8315301253587,-2.672685424059629
1757089340708452900,10.393452880859375,3.3543148120626807,8.83844911096692,-2.6078312590941786
1757089340718408000,10.403407958984374,3.35478184505254,8.85297740253508,-2.5574630078598855
1757089340728362000,10.413362060546875,3.31995281599462,8.877749440219997,-2.51671394110322
1757089340738317000,10.423317138671875,3.254340233877301,8.909494239526987,-2.490089261288941
1757089340748271900,10.43327197265625,3.161837599007785,8.94232917215824,-2.491571316540241
1757089340758226000,10.443225830078125,3.044913347326219,8.973636749091744,-2.5244322603955864
1757089340768181000,10.453180908203125,2.9135955363720654,9.004189123743773,-2.570199739836156
1757089340778135000,10.463135009765624,2.7809543678596613,9.0376489102751,-2.5995345553919673
1757089340788090000,10.473090087890625,2.6562480839997527,9.077382370248436,-2.5915046859323976
1757089340798045000,10.483044921875,2.543871704880893,9.12297507764399,-2.5437057006642223
1757089340807999000,10.4929990234375,2.439013738568127,9.172782187864184,-2.46609726806581
1757089340817954000,10.5029541015625,2.3386935618154703,9.222467133009433,-2.376337648294121
1757089340827908000,10.512908203125,2.2449144772693512,9.267435571026802,-2.290276736909896
1757089340837863000,10.52286279296875,2.155790086661279,9.307693931657075,-2.211285763911903
1757089340847817000,10.53281689453125,2.0656275851771233,9.344199077233672,-2.1423170032344756
1757089340857771800,10.542771728515625,1.9718470393262801,9.377631975758074,-2.083801247510314
1757089340867727000,10.55272705078125,1.8755635707437992,9.40818961110711,-2.03435317986086
1757089340877681000,10.562680908203125,1.7800128003500402,9.435694288626312,-1.9923856772251427
1757089340887636000,10.572635986328125,1.689775626194477,9.459674883672594,-1.956935739789903
1757089340897590000,10.582590087890624,1.608850178002566,9.479838550779222,-1.9273394968189297
1757089340907545000,10.592545166015626,1.537946503739804,9.496414422526955,-1.9034727374106644
1757089340917500000,10.6025,1.4773989499270914,9.509369765689968,-1.886680154172331
1757089340927454000,10.612453857421874,1.4275516538269817,9.518684706524015,-1.8780631324745714
1757089340937409000,10.622408935546876,1.3827458590254187,9.525940961262583,-1.87479244024083
1757089340947362800,10.63236279296875,1.3378335351094603,9.532011805608867,-1.87652730120942
1757089340957318100,10.642318115234374,1.2910552711911498,9.537812016320228,-1.8798120219685137
1757089340967273000,10.65227294921875,1.2415610263124108,9.544136543166637,-1.8810595378115773
1757089340977227000,10.66222705078125,1.1894550645653157,9.550501986545324,-1.8824236657716333
1757089340987181800,10.672181884765624,1.1318354539632796,9.556696749532222,-1.8865004136912524
1757089340997136000,10.682135986328126,1.0690377100709825,9.562375379690527,-1.894344259059429
1757089341007091000,10.692091064453125,1.0056391507413238,9.566632452613115,-1.9075214282795785
1757089341017046000,10.7020458984375,0.9457048334561288,9.568774140816926,-1.9273257605545222
1757089341027000000,10.712,0.8918062892038374,9.568519289273024,-1.9540949634060263
1757089341036955000,10.721954833984375,0.8426924219448119,9.566199321892856,-1.9869773884408175
1757089341046909200,10.7319091796875,0.7943609372351318,9.562413958135247,-2.02475372299701
1757089341056864000,10.741864013671876,0.7427765151441097,9.557568856191635,-2.0667769013427195
1757089341066818000,10.751818115234375,0.685560809167847,9.551649403014778,-2.113380831607431
1757089341076772900,10.76177294921875,0.6232274679169059,9.544486671778559,-2.1644281511470673
1757089341086728000,10.77172802734375,0.5589768948677927,9.535628242540358,-2.2203006988860667
1757089341096682000,10.781681884765625,0.4946098192995414,9.525620058745146,-2.2777812663435935
1757089341106637000,10.791636962890625,0.4304737029429525,9.515032613757253,-2.3343615239605304
1757089341116591900,10.801591796875,0.36690139448158443,9.50310135294497,-2.3930847849555312
1757089341126546000,10.8115458984375,0.30544041561838237,9.490394431585074,-2.4514317599840463
1757089341136501000,10.8215009765625,0.2461289246729575,9.477675235265492,-2.50668003834486
1757089341146455000,10.831455078125,0.19334878999134525,9.465460481336713,-2.5569609035566447
1757089341156409900,10.841409912109375,0.15077087297285907,9.454509463733434,-2.599982299159467
1757089341166364000,10.851364013671875,0.11521499094511381,9.445506073066591,-2.634301917390525
1757089341176319000,10.861319091796876,0.07980453613689169,9.439381452706456,-2.6574644740521904
1757089341186274000,10.871274169921875,0.03630054236560827,9.43702466044724,-2.6667674321874975
1757089341196228000,10.88122802734375,-0.016700773344101617,9.438305347907542,-2.662420342893898
1757089341206183000,10.891182861328126,-0.07246994176537264,9.442073176008462,-2.648091957812011
1757089341216137000,10.901136962890625,-0.12267630326910875,9.4466108194381,-2.629993991063535
1757089341226091800,10.911091796875,-0.16136851969435811,9.451130342689156,-2.611607270501554
1757089341236047000,10.921047119140624,-0.18573416853547095,9.45574981918335,-2.593201552978158
1757089341246001000,10.9310009765625,-0.19486071065794675,9.460601935389638,-2.5747698242306707
1757089341255956000,10.9409560546875,-0.18837765051526947,9.465532377529144,-2.5570713781937955
1757089341265910000,10.950909912109376,-0.16507667176360263,9.470722931909561,-2.539395728510618
1757089341275865000,10.960864990234375,-0.12211639523087069,9.475855618622898,-2.522623749668896
1757089341285820000,10.97081982421875,-0.056060220364783885,9.482278929668665,-2.500730482290685
1757089341295774000,10.98077392578125,0.030621670178708153,9.489771331250667,-2.472591890782118
1757089341305729000,10.99072900390625,0.13531800477253272,9.497607431703806,-2.438759909937531
1757089341315682800,11.000682861328125,0.2527134358961135,9.505213230532407,-2.3994690791651605
1757089341325638100,11.01063818359375,0.37720487142894416,9.511670443847775,-2.357165622573346
1757089341335593000,11.020593017578125,0.514121306107752,9.516166586223244,-2.3127153632111845
1757089341345547000,11.030547119140625,0.6746494659878313,9.515866141971944,-2.2723393675506114
1757089341355501800,11.040501708984374,0.8608598737329244,9.506443064588307,-2.2487463105171916
1757089341365456000,11.050455810546875,1.0652607488155363,9.48700595819056,-2.2432870221979915
1757089341375411000,11.060410888671875,1.2809890735983849,9.459902262687683,-2.2449343510136006
1757089341385365000,11.070364990234374,1.503337547173351,9.425793072336912,-2.2505064520575107
1757089341395320000,11.080320068359375,1.7243951041549443,9.38519335092306,-2.2616334107495843
1757089341405275000,11.09027490234375,1.935141256611049,9.340189257070422,-2.277378676892072
1757089341415229200,11.100229248046874,2.1357835098125038,9.291650559350847,-2.2965249836497006
1757089341425184000,11.11018408203125,2.3327676788978278,9.238571880114078,-2.318909687806666
1757089341435138000,11.120137939453125,2.5275316877156495,9.182091868001223,-2.3390442749492824
1757089341445092900,11.1300927734375,2.7173224381655454,9.123643186163902,-2.3549214969083665
1757089341455048200,11.140048095703126,2.8950033563658595,9.065293288525938,-2.368504908841848
1757089341465002000,11.150001953125,3.051845192416012,9.009522301465273,-2.384355242794007
1757089341474957000,11.15995703125,3.180450529541075,8.958761836043,-2.4074305595636365
1757089341484910800,11.169910888671875,3.2830811751931903,8.912963961464166,-2.4394302104145287
1757089341494866000,11.179865966796875,3.368957962182164,8.868111258780957,-2.485374215465784
1757089341504821000,11.189821044921874,3.4472014778137203,8.819415909194946,-2.5505127503305673
1757089341514775000,11.199775146484376,3.526696747072041,8.76412773721516,-2.6311294248342514
1757089341524729900,11.209729736328125,3.6152255098745223,8.701984877035022,-2.7158751619666814
1757089341534684000,11.219683837890624,3.7208275725528597,8.633049872496724,-2.7921754345759746
1757089341544639000,11.229638916015626,3.845194541455805,8.558804486590624,-2.8516131274506447
1757089341554594000,11.239593994140625,3.9817686655029654,8.481347737422585,-2.8952769126102327
1757089341564548000,11.249548095703124,4.114943502500653,8.40718535362482,-2.9252167083218694
1757089341574502700,11.259502685546876,4.225523061330616,8.34581113972962,-2.9432658674925563
1757089341584456700,11.269456787109375,4.304008569024503,8.300306695139408,-2.958182866117358
1757089341594411500,11.27941162109375,4.348451814123988,8.27217950180769,-2.97194309592247
1757089341604365600,11.289365478515625,4.363063400061428,8.260064701122046,-2.984188537250459
1757089341614320600,11.299320556640625,4.353658150595426,8.261860352367162,-2.9929417525485156
1757089341624275700,11.309275634765624,4.330735247908533,8.272762270131707,-2.9960882338806987
1757089341634229800,11.319229736328126,4.301111970800161,8.287957501175999,-2.9967630644023417
1757089341644184600,11.3291845703125,4.266031597329676,8.305161149433255,-2.999276216267049
1757089341654138600,11.339138671875,4.223063977740705,8.325378008031844,-3.004023410794139
1757089341664093700,11.34909375,4.1687347139209505,8.351016307157277,-3.0087422560095787
1757089341674048800,11.359048828125,4.097316075873374,8.385410744190215,-3.0111972479462623
1757089341684002600,11.36900244140625,4.0059865764364595,8.429950143140553,-3.0097105165198443
1757089341693957600,11.37895751953125,3.8954701459705827,8.484290805137157,-3.002081336815655
1757089341703911400,11.388911376953125,3.768938692510128,8.546825294983387,-2.9861820491552353
1757089341713866800,11.39886669921875,3.6296272524535653,8.615325415235757,-2.961812454791367
1757089341723821600,11.408821533203126,3.4798923257991667,8.687823080691695,-2.9295801642283794
1757089341733775600,11.418775634765625,3.3204502441227435,8.762401059553026,-2.8922841605350373
1757089341743730400,11.42873046875,3.153011026212573,8.836531294646859,-2.8538743503808974
1757089341753684700,11.438684814453126,2.9792306225821372,8.908990966179966,-2.8150357934206722
1757089341763639800,11.448639892578125,2.8042200926348566,8.978877572354675,-2.77245191245228
1757089341773593600,11.458593505859374,2.6430817284345625,9.043291300076246,-2.7209178323090075
1757089341783548700,11.468548583984376,2.5049606672063467,9.099463853675127,-2.6637033684417606
1757089341793503700,11.478503662109375,2.398527852792293,9.143011903500556,-2.6120515071377155
1757089341803457800,11.488457763671875,2.3332336889743805,9.169718708640337,-2.577339966979623
1757089341813412600,11.49841259765625,2.3136444607548414,9.177232153010367,-2.5682354540258645
1757089341823366700,11.50836669921875,2.3430757224224505,9.165901196178794,-2.5819895463511346
1757089341833321500,11.518321533203125,2.4223195011377334,9.140813516673445,-2.5977491332799194
1757089341843276800,11.52827685546875,2.53313462228924,9.109895815840362,-2.6006618058562276
1757089341853230600,11.538230712890625,2.650779297199845,9.079002664926648,-2.5914292826086283
1757089341863185700,11.548185546875,2.7606144674032924,9.052005352407694,-2.571102533894777
1757089341873139700,11.5581396484375,2.8497151848748326,9.030271074983476,-2.550231010779738
1757089341883094500,11.568094482421875,2.9099691625684496,9.01385360866785,-2.5402523453399537
1757089341893049600,11.578049560546875,2.9418937023565173,9.002470044866204,-2.5438503698319197
1757089341903003600,11.588003662109376,2.9512703102499245,8.995404344263672,-2.557943777114153
1757089341912958700,11.597958740234375,2.9453324446335434,8.99160495198071,-2.5780644818618894
1757089341922912500,11.60791259765625,2.9298139729842543,8.9900185595721,-2.6011773541629313
1757089341932867600,11.61786767578125,2.908969045615196,8.990065905845166,-2.624301624640822
1757089341942822700,11.62782275390625,2.886156909826398,8.991242548409105,-2.6453891285941005
1757089341952776700,11.637776611328125,2.864031879518926,8.99348535889983,-2.6617481427207585
1757089341962731500,11.6477314453125,2.8463024538218975,8.996842268112301,-2.6694123937383294
1757089341972685600,11.657685546875,2.8361136527627706,9.00139452458918,-2.6649063144907355
1757089341982640600,11.667640625,2.8386516468077896,9.006633594286441,-2.64442905139029
1757089341992594700,11.6775947265625,2.8627175820499655,9.01146817483604,-2.60167390550822
1757089342002549800,11.6875498046875,2.9106594829201695,9.011900136512518,-2.5463845644846557
1757089342012504600,11.697504638671875,2.9750308328047392,9.005323096209764,-2.4947353335291145
1757089342022458600,11.707458740234374,3.0394010136455294,8.996687369811534,-2.44786208480373
1757089342032413700,11.71741357421875,3.078287501400709,8.995623539972305,-2.4027722123637796
1757089342042367700,11.72736767578125,3.074365067259967,9.008325200635195,-2.359820813257247
1757089342052322600,11.737322509765624,3.0238714360803365,9.036911243650316,-2.3153467346280814
1757089342062277600,11.747277587890625,2.9258947537139055,9.08084390887916,-2.268878851833194
1757089342072231400,11.7572314453125,2.7858681511253116,9.135159436434506,-2.2266966835334894
1757089342082186800,11.767186767578124,2.613719440349936,9.192970404890179,-2.1973133526608346
1757089342092140800,11.777140869140625,2.4213949336387217,9.249916280949115,-2.1786019301891324
1757089342102095600,11.787095703125,2.232950629361719,9.303602278429269,-2.1511219487197697
1757089342112050400,11.797050537109374,2.0793827004157004,9.351544763821362,-2.0964619916409255
1757089342122004700,11.807004638671875,1.9792654988892375,9.391007005637883,-2.0154105789817867
1757089342131959600,11.81695947265625,1.9329194889083503,9.420154189667105,-1.922207540757954
1757089342141913600,11.82691357421875,1.9206572425760329,9.44190892535746,-1.825323914325237
1757089342151868700,11.83686865234375,1.9111971941828727,9.461906588247418,-1.7291697712108491
1757089342161823700,11.84682373046875,1.8779083803042769,9.484289100447297,-1.6407703338764608
1757089342171777800,11.85677783203125,1.8090397190004586,9.510276359140873,-1.5660207978405059
1757089342181732600,11.866732666015626,1.7096273047424853,9.538562542426586,-1.5044683047689495
1757089342191686700,11.876686767578125,1.5976064610630274,9.566533083891867,-1.4489656132556497
1757089342201641500,11.886641357421874,1.4921535975970326,9.591472294837235,-1.3955385589726268
1757089342211595500,11.896595458984375,1.4021347423672674,9.61216495425403,-1.345627549986541
1757089342221550600,11.906550537109375,1.3262751992627977,9.62927040283382,-1.2994367305673657
1757089342231505700,11.916505615234374,1.2601214960061013,9.64329366748929,-1.2606937429361045
1757089342241459700,11.926459716796876,1.2041570321999489,9.654059391653536,-1.2326910527668893
1757089342251414500,11.93641455078125,1.1556438342478126,9.662501056784391,-1.212826880063489
1757089342261368800,11.946368896484374,1.1066476020190865,9.669702950987219,-1.2010630847726016
1757089342271323600,11.95632373046875,1.0534670698430388,9.676139121514558,-1.197042962411046
1757089342281278700,11.96627880859375,0.9990135220564901,9.682060328257084,-1.1958472498204558
1757089342291232500,11.976232421875,0.9455165443424135,9.687833066439628,-1.1925881749592722
1757089342301187800,11.986187744140626,0.8857083376549184,9.694049456736446,-1.1879895951226354
1757089342311141600,11.9961416015625,0.8112577115003019,9.700762690639495,-1.186365866378322
1757089342321096700,12.0060966796875,0.722957277560979,9.707309335803984,-1.1898986436143517
1757089342331051500,12.016051513671876,0.6288217807926237,9.712666478922962,-1.1996043373316525
1757089342341005600,12.026005615234375,0.5381626548979431,9.716082424846292,-1.2159282070796935
1757089342350960600,12.035960693359375,0.456078574722819,9.717471833378076,-1.2381938879668712
1757089342360914700,12.045914794921876,0.38259350566472855,9.717113521459698,-1.2655894060231745
1757089342370869800,12.055869873046875,0.31508301750421525,9.714733932846784,-1.3019414068646729
1757089342380823600,12.065823486328124,0.2505809904446825,9.710326637798547,-1.3480218977771699
1757089342390778600,12.075778564453126,0.1866991045774892,9.704190911522508,-1.4015008283779025
1757089342400733700,12.085733642578125,0.12379734318829141,9.696589788869023,-1.4598608090184628
1757089342410687700,12.095687744140625,0.06362342216067482,9.68790437811017,-1.5201432821542025
1757089342420642600,12.105642578125,0.006458540476884809,9.67852455534637,-1.580034856276214
1757089342430596600,12.1155966796875,-0.048166503406316036,9.668757194569706,-1.6380527454808353
1757089342440551700,12.1255517578125,-0.0994093911838252,9.659338208839296,-1.6904747143745422
1757089342450506800,12.1355068359375,-0.14651004632376133,9.651111063241958,-1.7334877805404365
1757089342460460500,12.14546044921875,-0.18969965636665,9.644633976182341,-1.765067890805006
1757089342470415600,12.15541552734375,-0.22901032435065133,9.639913961923122,-1.7860585102550683
1757089342480369700,12.16536962890625,-0.2630533358637243,9.636420274588465,-1.8001630234532058
1757089342490324700,12.17532470703125,-0.29055098085394127,9.633655486050248,-1.810709259647876
1757089342500279600,12.185279541015625,-0.31200222181938586,9.631106970611214,-1.8206614754721522
1757089342510233600,12.195233642578126,-0.328871633153595,9.628481882804632,-1.8315433733619748
1757089342520188700,12.205188720703125,-0.3404217126285657,9.625839843863249,-1.8432858336038886
1757089342530142500,12.215142578125,-0.3445375869821757,9.623718613925575,-1.853570788513869
1757089342540097800,12.225097900390624,-0.34310963653828946,9.622201195099949,-1.861696519563347
1757089342550051600,12.235051513671875,-0.34116610125508157,9.620992988353967,-1.8682842273905873
1757089342560006700,12.245006591796875,-0.34382381268963214,9.619502457535265,-1.8754576261512934
1757089342569962000,12.2549619140625,-0.3497415853660554,9.617290626704692,-1.8856810601323841
1757089342579916000,12.264916015625,-0.3526223284341395,9.614546880954503,-1.899088823238015
1757089342589871000,12.27487109375,-0.34570663076154884,9.612019408303498,-1.913101420368999
1757089342599825200,12.2848251953125,-0.32700076124779875,9.610773207634686,-1.9226281042575835
1757089342609780000,12.294780029296875,-0.29476753910304976,9.611116321983934,-1.9261220838531852
1757089342619735000,12.304735107421875,-0.24789894828647374,9.61268576325774,-1.924890642362088
1757089342629689300,12.314689453125,-0.18510816385792567,9.616112230575084,-1.9148053016774356
1757089342639644200,12.32464404296875,-0.10693205090677366,9.621612581557034,-1.8930257238067685
1757089342649598200,12.33459814453125,-0.0183775189087959,9.628342766594887,-1.8614659256778656
1757089342659553000,12.344552978515624,0.07475481043269391,9.635426587375997,-1.8230036546841262
1757089342669508000,12.354508056640626,0.1743106745822355,9.64170902864635,-1.782537204261124
1757089342679462100,12.364462158203125,0.29389420860093085,9.64497241435647,-1.7488586604125798
1757089342689417200,12.374417236328124,0.4492196852713823,9.643430445611477,-1.7241928595811127
1757089342699371000,12.38437109375,0.6464098252575844,9.635321957957744,-1.7067856515757738
1757089342709326000,12.394326171875,0.8777838282659649,9.618801031267642,-1.6966341137871146
1757089342719280000,12.404280029296874,1.1294035506412385,9.592280688610673,-1.6979399356886744
1757089342729235200,12.414235107421876,1.3925083974964916,9.554435818862915,-1.7158279129482805
1757089342739190000,12.42418994140625,1.6593493621401487,9.505539978268741,-1.7497651077330112
1757089342749144000,12.43414404296875,1.9159797522842883,9.447997305360436,-1.798537760338932
1757089342759099000,12.444098876953126,2.1512197100058197,9.385195689010619,-1.860304042291641
1757089342769053000,12.454052978515625,2.361665125949681,9.319984088909626,-1.9315305187679825
1757089342779008300,12.46400830078125,2.539650872315466,9.25557679092884,-2.013665927271545
1757089342788963000,12.473963134765626,2.681737037782371,9.194029558554291,-2.109150938952714
1757089342798917000,12.483917236328125,2.7991186778426167,9.134215433582662,-2.2139107055880127
1757089342808872000,12.493871826171874,2.905875171253085,9.075099227747321,-2.317084664336592
1757089342818826200,12.503826171875,3.013147797492146,9.015188072142005,-2.411999621044844
1757089342828781000,12.513781005859375,3.130222271299362,8.951926437065005,-2.4970149688988923
1757089342838736100,12.523736083984375,3.2561595582589504,8.884359798270463,-2.5760306379467246
1757089342848690000,12.53368994140625,3.3784368614062665,8.815362249889969,-2.654423791182041
1757089342858645200,12.543645263671875,3.481799912986159,8.752022288879752,-2.7293907693609594
1757089342868599300,12.553599365234374,3.5650285235539076,8.69730811739564,-2.796036201657355
1757089342878554000,12.56355419921875,3.6402991608545183,8.64937790696323,-2.847260192938149
1757089342888508200,12.573508056640625,3.715377198192477,8.606456464603543,-2.880148901583254
1757089342898463000,12.583462890625,3.7904619575321674,8.5671087890774,-2.899561458061635
1757089342908418300,12.593418212890626,3.862423031893372,8.531577456969023,-2.909341970580816
1757089342918372000,12.6033720703125,3.927527079966664,8.501299223083258,-2.9108158425256607
1757089342928327200,12.6133271484375,3.9812709451138972,8.477035719442368,-2.908563971945643
1757089342938281000,12.623281005859376,4.021882941487431,8.458686408281325,-2.9061107335746286
1757089342948236000,12.633236083984375,4.050603424537182,8.446002283275126,-2.9031121362805363
1757089342958191000,12.643191162109375,4.069100035214424,8.439007894343137,-2.897579344333708
1757089342968145200,12.653145263671876,4.0777682025775315,8.43765940234363,-2.889300760810077
1757089342978100000,12.663099853515625,4.076334662643075,8.441973758411407,-2.8787141926050186
1757089342988054000,12.673053955078124,4.063930231361091,8.451223232793808,-2.869093839083612
1757089342998009000,12.683009033203126,4.039535794816911,8.464726272967457,-2.8637255900487304
1757089343007964200,12.692964111328125,4.0052454026803375,8.481689682728051,-2.861696714569628
1757089343017918200,12.702918212890625,3.964094184863567,8.501159522351623,-2.8612343577548858
1757089343027873000,12.712873046875,3.917032573959231,8.522879771250485,-2.8614307571098205
1757089343037827000,12.7228271484375,3.863348037783801,8.547382344344257,-2.8613264199525115
1757089343047782100,12.7327822265625,3.801252816137671,8.575889476904273,-2.859197591230273
1757089343057736200,12.742736083984376,3.7293449332684276,8.609249894714354,-2.8536230059683323
1757089343067691000,12.75269091796875,3.6466149198725817,8.647561212930082,-2.8446964799299836
1757089343077646000,12.76264599609375,3.552430031004548,8.690446414932609,-2.8331553874790667
1757089343087599900,12.772599853515626,3.447562127819657,8.737022288146614,-2.819418538549542
1757089343097555200,12.78255517578125,3.333192821317911,8.786264165699482,-2.803888960984349
