time,seconds_elapsed,z,y,x
1757089330335747600,0.02074755859375,0.5482932925224304,-0.13520029187202454,-0.2512339949607849
1757089330345701400,0.030701416015625,0.5231198072433472,-0.16140365600585938,-0.22656461596488953
1757089330355656400,0.040656494140625,0.5029492974281311,-0.13721603155136108,-0.2242327481508255
1757089330365611300,0.050611328125,0.48538070917129517,-0.11512191593647003,-0.24705897271633148
1757089330375565300,0.0605654296875,0.4668906331062317,-0.11871761828660965,-0.2879905104637146
1757089330385520400,0.070520263671875,0.43932533264160156,-0.09427725523710251,-0.3531748056411743
1757089330395474400,0.080474365234375,0.41041868925094604,-0.11008656024932861,-0.46829524636268616
1757089330405429200,0.09042919921875,0.3784695565700531,-0.24148932099342346,-0.6303483247756958
1757089330415384300,0.10038427734375,0.36804860830307007,-0.4416894018650055,-0.8218397498130798
1757089330425338600,0.110338623046875,0.29936888813972473,1.241020917892456,-0.8029496669769287
1757089330435293400,0.12029345703125,0.035541824996471405,2.1181881427764893,-0.5778266787528992
1757089330445247500,0.13024755859375,-0.24166475236415863,1.0815600156784058,-0.7255804538726807
1757089330455202300,0.140202392578125,-0.6774089932441711,0.70911705493927,-0.7089827656745911
1757089330465157600,0.15015771484375,-0.7915360927581787,0.16387982666492462,-0.5503103137016296
1757089330475111400,0.160111328125,-0.7294671535491943,-0.23066934943199158,-0.3806946575641632
1757089330485066500,0.17006640625,-0.6833853721618652,-0.3580126464366913,-0.22670482099056244
1757089330495021300,0.180021240234375,-0.7172951102256775,-0.594046413898468,-0.04568002000451088
1757089330504975400,0.189975341796875,-0.7178050875663757,-0.8563675284385681,0.15654444694519043
1757089330514930400,0.199930419921875,-0.5776801705360413,-0.813179075717926,0.3470129668712616
1757089330524884500,0.209884521484375,-0.27405399084091187,-0.6486596465110779,0.5662680864334106
1757089330534839300,0.21983935546875,0.13484731316566467,-0.1983732283115387,0.9983593225479126
1757089330544794400,0.22979443359375,0.5373870730400085,-0.07302676141262054,1.3665571212768555
1757089330554748200,0.239748046875,0.8820861577987671,0.46579015254974365,1.5764788389205933
1757089330564703000,0.249702880859375,1.1366755962371826,1.4750109910964966,1.478700041770935
1757089330574657000,0.259656982421875,1.5038107633590698,2.7630410194396973,1.221055269241333
1757089330584611800,0.26961181640625,1.837798833847046,3.4053471088409424,0.9730367064476013
1757089330594567200,0.279567138671875,2.0288078784942627,3.5314788818359375,0.660256564617157
1757089330604521000,0.28952099609375,2.063992977142334,3.7012720108032227,0.24750100076198578
1757089330614476000,0.29947607421875,2.106755018234253,3.575702428817749,-0.3789031207561493
1757089330624430800,0.309430908203125,2.3667750358581543,2.785789966583252,-1.0495264530181885
1757089330634385000,0.319385009765625,2.6366970539093018,0.8440762758255005,-1.4412145614624023
1757089330644340000,0.329340087890625,2.4319863319396973,-0.03350534290075302,-1.7483675479888916
1757089330654294000,0.3392939453125,1.8421680927276611,1.0749605894088745,-1.9141197204589844
1757089330664248800,0.349248779296875,0.925274133682251,1.8697139024734497,-1.5281922817230225
1757089330674204000,0.359203857421875,0.02928372099995613,2.0382118225097656,-1.0295724868774414
1757089330684158200,0.369158203125,-0.6810727119445801,2.246711015701294,-0.4709952771663666
1757089330694113000,0.379113037109375,-1.1124279499053955,2.8221118450164795,0.13054482638835907
1757089330704067800,0.38906787109375,-1.2743127346038818,3.520434617996216,0.7377690076828003
1757089330714022000,0.39902197265625,-1.3179640769958496,3.793276786804199,1.2147918939590454
1757089330723977200,0.408977294921875,-1.3005485534667969,4.1648406982421875,1.5645201206207275
1757089330733931000,0.418930908203125,-1.2045694589614868,4.874682903289795,1.9620057344436646
1757089330743886000,0.428885986328125,-1.6269478797912598,4.759984970092773,1.8093708753585815
1757089330753841000,0.4388408203125,-1.9382271766662598,5.285605430603027,2.0920727252960205
1757089330763795000,0.448794921875,-2.5972671508789062,5.37592077255249,2.355651378631592
1757089330773750000,0.45875,-3.229522943496704,5.522200107574463,2.6702165603637695
1757089330783704000,0.4687041015625,-3.7960119247436523,5.426495552062988,2.9677515029907227
1757089330793659000,0.478658935546875,-4.220133304595947,5.405550003051758,3.2259480953216553
1757089330803614000,0.488614013671875,-4.42517614364624,5.616653919219971,3.416149139404297
1757089330813568000,0.498568115234375,-4.422085285186768,5.975822448730469,3.487999439239502
1757089330823523000,0.508523193359375,-4.3811774253845215,6.244240760803223,3.4387545585632324
1757089330833478000,0.518477783203125,-4.4300856590271,6.120263576507568,3.33545184135437
1757089330843432000,0.528431884765625,-4.592435836791992,5.588860511779785,3.176604747772217
1757089330853386800,0.53838671875,-4.876559734344482,4.926301002502441,2.9051895141601562
1757089330863341000,0.548341064453125,-5.3509979248046875,4.194911956787109,2.453209400177002
1757089330873296100,0.558296142578125,-5.740591526031494,2.950833320617676,1.9642977714538574
1757089330883251000,0.5682509765625,-6.0279035568237305,1.4182389974594116,1.393166422843933
1757089330893205000,0.578205078125,-6.039979934692383,-0.2719042897224426,0.6937696933746338
1757089330903160000,0.58816015625,-5.546350002288818,-2.1174328327178955,-0.11509939283132553
1757089330913115100,0.598115234375,-4.50409460067749,-3.857841730117798,-0.844184398651123
1757089330923069000,0.60806884765625,-3.3676509857177734,-4.775843620300293,-1.2573788166046143
1757089330933024000,0.61802392578125,-2.66947340965271,-4.4010443687438965,-1.2375377416610718
1757089330942977800,0.627977783203125,-2.418644666671753,-2.873236894607544,-0.733098566532135
1757089330952933000,0.63793310546875,-2.385420799255371,-0.8045090436935425,0.18273785710334778
1757089330962888000,0.647887939453125,-2.4255058765411377,1.1130497455596924,1.2539317607879639
1757089330972842000,0.657842041015625,-2.4311861991882324,2.4005188941955566,2.1421730518341064
1757089330982796800,0.667796875,-2.323550224304199,3.0001535415649414,2.7087888717651367
1757089330992752000,0.677752197265625,-2.111973285675049,3.0600101947784424,2.908937692642212
1757089331002706200,0.6877060546875,-1.8302901983261108,2.671959638595581,2.7365801334381104
1757089331012661000,0.697660888671875,-1.5146633386611938,1.9399842023849487,2.2620420455932617
1757089331022615000,0.707614990234375,-1.2196459770202637,1.031323790550232,1.603725790977478
1757089331032569900,0.71756982421875,-1.0277128219604492,0.08553873747587204,0.932506263256073
1757089331042525000,0.72752490234375,-0.9810230135917664,-0.6010998487472534,0.38595956563949585
1757089331052479000,0.73747900390625,-1.1042859554290771,-0.965008020401001,-0.0005012420006096363
1757089331062434000,0.74743408203125,-1.2181228399276733,-1.0120961666107178,-0.22070232033729553
1757089331072388900,0.757388916015625,-1.279771327972412,-0.7533184885978699,-0.25217366218566895
1757089331082343000,0.767343017578125,-1.3198736906051636,-0.2872306704521179,-0.1450868844985962
1757089331092298000,0.777298095703125,-1.3029004335403442,0.11025568097829819,-0.010942339897155762
1757089331102252000,0.787251953125,-1.2754877805709839,0.28895166516304016,0.06258833408355713
1757089331112206800,0.797206787109375,-1.266036033630371,0.17947128415107727,0.03637078404426575
1757089331122162000,0.807161865234375,-1.2824232578277588,-0.09569850564002991,-0.08608908206224442
1757089331132116000,0.817115966796875,-1.308468222618103,-0.3786783814430237,-0.23859937489032745
1757089331142071000,0.827071044921875,-1.3010939359664917,-0.5988253951072693,-0.3545331656932831
1757089331152025000,0.837025146484375,-1.2224050760269165,-0.6910619139671326,-0.4150691032409668
1757089331161980000,0.84697998046875,-1.1168296337127686,-0.6971885561943054,-0.4210689663887024
1757089331171935000,0.85693505859375,-1.047029733657837,-0.7132745385169983,-0.3685845732688904
1757089331181889000,0.866888916015625,-1.0278466939926147,-0.7781632542610168,-0.2802669405937195
1757089331191844000,0.876843994140625,-1.0176066160202026,-0.8697933554649353,-0.1678440421819687
1757089331201798000,0.8867978515625,-1.0022406578063965,-0.96125328540802,-0.05300453305244446
1757089331211753000,0.8967529296875,-0.9483579993247986,-1.0276696681976318,0.05373436585068703
1757089331221708000,0.9067080078125,-0.8612398505210876,-1.0753504037857056,0.13263902068138123
1757089331231662000,0.916662109375,-0.7413008213043213,-1.1316848993301392,0.18096572160720825
1757089331241617000,0.926616943359375,-0.6156193614006042,-1.1359549760818481,0.19315874576568604
1757089331251572000,0.936572021484375,-0.4888201057910919,-1.0883572101593018,0.18285654485225677
1757089331261525800,0.94652587890625,-0.32570043206214905,-0.9994049668312073,0.14955398440361023
1757089331271481000,0.956481201171875,-0.115583635866642,-0.8982561826705933,0.05883976072072983
1757089331281435100,0.96643505859375,0.13404668867588043,-0.812725305557251,-0.09115853160619736
1757089331291390000,0.976389892578125,0.37291795015335083,-0.7563291788101196,-0.27805909514427185
1757089331301344800,0.9863447265625,0.5408124327659607,-0.7212377786636353,-0.4737077057361603
1757089331311299000,0.996299072265625,0.6514208912849426,-0.6591740846633911,-0.6272269487380981
1757089331321254000,1.00625390625,0.7069613933563232,-0.585292398929596,-0.7053393721580505
1757089331331209000,1.016208984375,0.7353683710098267,-0.47371038794517517,-0.7137476205825806
1757089331341163000,1.0261630859375,0.7006034851074219,-0.3398388922214508,-0.6157872080802917
1757089331351118000,1.0361181640625,0.5681885480880737,-0.24512068927288055,-0.38509801030158997
1757089331361072000,1.046072021484375,0.3755570352077484,-0.20885136723518372,-0.059669870883226395
1757089331371027000,1.05602685546875,0.1734793484210968,-0.23325160145759583,0.30893152952194214
1757089331380982000,1.06598193359375,-0.007800418417900801,-0.19053876399993896,0.6623836159706116
1757089331390935800,1.075935791015625,-0.1965741664171219,-0.16839398443698883,0.9277925491333008
1757089331400891100,1.08589111328125,-0.41039910912513733,-0.16389058530330658,1.0949828624725342
1757089331410845000,1.095844970703125,-0.6087760925292969,-0.10795553773641586,1.1749415397644043
1757089331420800000,1.105800048828125,-0.7348954081535339,-0.07708044350147247,1.1735851764678955
1757089331430754800,1.1157548828125,-0.7568970322608948,-0.1130264475941658,1.0904359817504883
1757089331440708900,1.125708984375,-0.6739289164543152,-0.1440669149160385,0.9367213249206543
1757089331450664000,1.135663818359375,-0.5256781578063965,-0.17039719223976135,0.7438920140266418
1757089331460619000,1.145618896484375,-0.35648807883262634,-0.2014983892440796,0.5525771975517273
1757089331470573000,1.155572998046875,-0.23477786779403687,-0.2519294023513794,0.38660144805908203
1757089331480528000,1.16552783203125,-0.20170992612838745,-0.29349175095558167,0.25112590193748474
1757089331490482200,1.175482177734375,-0.19686810672283173,-0.30166202783584595,0.15628747642040253
1757089331500437000,1.18543701171875,-0.16827401518821716,-0.26775944232940674,0.09564623981714249
1757089331510392000,1.19539208984375,-0.14332641661167145,-0.17726539075374603,0.06484149396419525
1757089331520345900,1.205345947265625,-0.1286396086215973,-0.023386619985103607,0.07049990445375443
1757089331530301200,1.21530126953125,-0.0952247902750969,0.1395588368177414,0.09313558042049408
1757089331540256000,1.225256103515625,-0.05940154567360878,0.25790733098983765,0.10896487534046173
1757089331550210000,1.2352099609375,-0.020589597523212433,0.3198466897010803,0.10739249736070633
1757089331560165000,1.2451650390625,0.015882393345236778,0.311983197927475,0.084021657705307
1757089331570119200,1.255119140625,0.04549933224916458,0.2911831736564636,0.04670059308409691
1757089331580074000,1.265073974609375,0.07651690393686295,0.2424241453409195,0.018823957070708275
1757089331590029300,1.275029296875,0.09752564132213593,0.18980424106121063,0.02070336975157261
1757089331599983000,1.284983154296875,0.08319597691297531,0.08847841620445251,0.07613014429807663
1757089331609938200,1.294938232421875,0.04698270559310913,0.003806451801210642,0.1715896874666214
1757089331619892200,1.304892333984375,0.014899339526891708,0.0020064213313162327,0.3000054359436035
1757089331629847000,1.314846923828125,-0.014795432798564434,0.00794692151248455,0.4642203450202942
1757089331639802000,1.324802001953125,-0.05378544330596924,0.05007439851760864,0.6450939774513245
1757089331649756200,1.334756103515625,-0.08234332501888275,0.16333843767642975,0.8569456338882446
1757089331659711200,1.344711181640625,-0.09416243433952332,0.29999640583992004,1.0584161281585693
1757089331669666000,1.354666015625,-0.07420823723077774,0.4623922109603882,1.173457384109497
1757089331679620000,1.3646201171875,-0.024042271077632904,0.5262441635131836,1.1650668382644653
1757089331689575200,1.3745751953125,0.022593438625335693,0.46901077032089233,1.004793643951416
1757089331699529200,1.384529296875,0.08247461169958115,0.3678932189941406,0.7605242133140564
1757089331709484000,1.394484130859375,0.16698239743709564,0.22882691025733948,0.5486603379249573
1757089331719439000,1.404439208984375,0.2841438949108124,0.033508822321891785,0.4190610647201538
1757089331729393200,1.41439306640625,0.4451407194137573,-0.17580139636993408,0.36925241351127625
1757089331739348200,1.42434814453125,0.6202859282493591,-0.3676595091819763,0.3347463607788086
1757089331749303000,1.434302978515625,0.7902225852012634,-0.568118691444397,0.27320900559425354
1757089331759257000,1.444257080078125,0.9511702060699463,-0.824402928352356,0.1629330813884735
1757089331769212200,1.454212158203125,1.1126329898834229,-1.1069217920303345,0.008182438090443611
1757089331779166200,1.464166259765625,1.2827945947647095,-1.3730980157852173,-0.1696474850177765
1757089331789121000,1.47412109375,1.463513731956482,-1.5793097019195557,-0.3104785680770874
1757089331799076000,1.484076171875,1.6292965412139893,-1.7212200164794922,-0.3951148986816406
1757089331809030100,1.494030029296875,1.767383098602295,-1.7721495628356934,-0.4517294764518738
1757089331818985200,1.503985107421875,1.8653377294540405,-1.7554118633270264,-0.5172237753868103
1757089331828940000,1.51393994140625,1.9313678741455078,-1.7171915769577026,-0.5968216061592102
1757089331838894000,1.52389404296875,1.9727847576141357,-1.7011390924453735,-0.6451542377471924
1757089331848849200,1.53384912109375,1.991771936416626,-1.7098453044891357,-0.6653870344161987
1757089331858803000,1.543802978515625,1.9964271783828735,-1.6876801252365112,-0.6585038304328918
1757089331868758300,1.55375830078125,1.9779525995254517,-1.6572792530059814,-0.63262939453125
1757089331878713000,1.563713134765625,1.935708999633789,-1.6871113777160645,-0.585847795009613
1757089331888667100,1.573667236328125,1.8688172101974487,-1.8003097772598267,-0.5507808923721313
1757089331898622000,1.5836220703125,1.7628990411758423,-1.8490560054779053,-0.5510480403900146
1757089331908576300,1.593576171875,1.6436951160430908,-1.8281019926071167,-0.5523942708969116
1757089331918531000,1.603531005859375,1.4918994903564453,-1.7491906881332397,-0.5572308301925659
1757089331928486100,1.613486083984375,1.3232686519622803,-1.589730978012085,-0.5640261769294739
1757089331938440200,1.623440185546875,1.1679186820983887,-1.2945590019226074,-0.5927531719207764
1757089331948395300,1.633395263671875,1.0124187469482422,-1.1020286083221436,-0.6710264682769775
1757089331958350000,1.64335009765625,0.9348912239074707,-0.9662769436836243,-0.7353982925415039
1757089331968304000,1.65330419921875,0.8967875242233276,-0.7080528736114502,-0.6899029612541199
1757089331978259200,1.66325927734375,0.7961938381195068,-0.6154806017875671,-0.5703017115592957
1757089331988213000,1.673212890625,0.6834017634391785,-0.5709786415100098,-0.4536467492580414
1757089331998168300,1.683168212890625,0.6096782684326172,-0.4850538671016693,-0.31927669048309326
1757089332008123100,1.693123046875,0.5095944404602051,-0.47621557116508484,-0.18605001270771027
1757089332018077200,1.7030771484375,0.37042295932769775,-0.5100963115692139,-0.10827132314443588
1757089332028032000,1.713031982421875,0.24253422021865845,-0.4748500883579254,-0.07991358637809753
1757089332037987300,1.7229873046875,0.13786134123802185,-0.35646486282348633,-0.053142696619033813
1757089332047941000,1.732941162109375,0.07105152308940887,-0.2323819398880005,0.02230781316757202
1757089332057896200,1.742896240234375,0.044160787016153336,-0.16846314072608948,0.10411879420280457
1757089332067850200,1.752850341796875,0.03749832510948181,-0.1736537218093872,0.1496966928243637
1757089332077805000,1.76280517578125,0.023379307240247726,-0.21216781437397003,0.15302857756614685
1757089332087760100,1.772760009765625,-0.01277150958776474,-0.24489690363407135,0.1297503560781479
1757089332097714200,1.782714111328125,-0.0665268823504448,-0.1848258376121521,0.10922590643167496
1757089332107669000,1.7926689453125,-0.13953040540218353,-0.021471071988344193,0.10428795963525772
1757089332117624000,1.8026240234375,-0.19971731305122375,0.16573795676231384,0.14446388185024261
1757089332127578400,1.812578369140625,-0.20913216471672058,0.3035358786582947,0.2367427498102188
1757089332137533200,1.822533203125,-0.20341409742832184,0.4447001814842224,0.3565383851528168
1757089332147487200,1.8324873046875,-0.20116250216960907,0.5489224195480347,0.4652371406555176
1757089332157442000,1.842442138671875,-0.1788494735956192,0.5741391181945801,0.5375717878341675
1757089332167397400,1.8523974609375,-0.13685467839241028,0.46437591314315796,0.559935450553894
1757089332177351200,1.86235107421875,-0.057125236839056015,0.2126677930355072,0.5260765552520752
1757089332187306200,1.87230615234375,0.042583733797073364,-0.050573986023664474,0.46443408727645874
1757089332197261000,1.882260986328125,0.08036573976278305,-0.23529429733753204,0.3888746500015259
1757089332207215000,1.892215087890625,0.06070978194475174,-0.30041858553886414,0.32950273156166077
1757089332217170200,1.902170166015625,0.04644056782126427,-0.3081095218658447,0.33273711800575256
1757089332227124200,1.912124267578125,0.04319870099425316,-0.2283012419939041,0.4126996099948883
1757089332237079000,1.9220791015625,0.021093662828207016,-0.05299493297934532,0.5671930909156799
1757089332247034000,1.9320341796875,0.0028917165473103523,0.09730468690395355,0.7212653756141663
1757089332256988200,1.94198828125,-0.007478632032871246,0.09793159365653992,0.8097398281097412
1757089332266943200,1.951943115234375,0.008367102593183517,-0.09951815754175186,0.8403107523918152
1757089332276897300,1.961897216796875,0.06405140459537506,-0.41396665573120117,0.7948650121688843
1757089332286852000,1.97185205078125,0.12324598431587219,-0.6587176322937012,0.6846269369125366
1757089332296807200,1.98180712890625,0.15983860194683075,-0.776864230632782,0.5711293816566467
1757089332306761000,1.991760986328125,0.18133489787578583,-0.7815612554550171,0.45844313502311707
1757089332316716300,2.00171630859375,0.20544582605361938,-0.5430826544761658,0.3340074419975281
1757089332326671000,2.011671142578125,0.2160915732383728,-0.22953486442565918,0.26049572229385376
1757089332336625200,2.021625244140625,0.21150028705596924,0.11456790566444397,0.2512284517288208
1757089332346580000,2.031580078125,0.19105103611946106,0.3700549602508545,0.2609822452068329
1757089332356534300,2.0415341796875,0.14710381627082825,0.5879784822463989,0.24967871606349945
1757089332366489000,2.051489013671875,0.06226852908730507,0.7181618213653564,0.23039793968200684
1757089332376444200,2.061444091796875,-0.011637918651103973,0.7696321606636047,0.08749110996723175
1757089332386398000,2.07139794921875,-0.08420048654079437,0.8088194131851196,-0.0387381911277771
1757089332396353300,2.081353271484375,-0.15600836277008057,0.8643542528152466,-0.10843204706907272
1757089332406307300,2.091307373046875,-0.2306903451681137,1.0348914861679077,-0.1135982945561409
1757089332416262100,2.10126220703125,-0.269464910030365,1.2712113857269287,-0.05666949599981308
1757089332426217000,2.111217041015625,-0.25497856736183167,1.4411892890930176,0.06332205981016159
1757089332436171000,2.1211708984375,-0.2050378918647766,1.500184416770935,0.21066278219223022
1757089332446126300,2.131126220703125,-0.18616719543933868,1.451504111289978,0.33249178528785706
1757089332456081200,2.1410810546875,-0.2456238567829132,1.2714110612869263,0.3918174207210541
1757089332466035200,2.15103515625,-0.35101842880249023,1.050218939781189,0.4461982250213623
1757089332475990000,2.160989990234375,-0.4567810595035553,0.8472863435745239,0.5583000183105469
1757089332485944000,2.170944091796875,-0.5608201026916504,0.6776872277259827,0.7263818383216858
1757089332495899100,2.180899169921875,-0.6770473718643188,0.5488536357879639,0.9288820028305054
1757089332505854200,2.190854248046875,-0.8369064331054688,0.47043055295944214,1.1174912452697754
1757089332515808000,2.20080810546875,-1.0097655057907104,0.40662336349487305,1.285191535949707
1757089332525763000,2.21076318359375,-1.1418622732162476,0.31211981177330017,1.4386705160140991
1757089332535718100,2.22071826171875,-1.2321871519088745,0.23565618693828583,1.5330125093460083
1757089332545672200,2.230672119140625,-1.2850861549377441,0.2342304140329361,1.5867033004760742
1757089332555627000,2.240626953125,-1.3307247161865234,0.265796035528183,1.6125866174697876
1757089332565581600,2.25058154296875,-1.3936855792999268,0.314603328704834,1.6229699850082397
1757089332575536400,2.260536376953125,-1.4572632312774658,0.36816322803497314,1.6270419359207153
1757089332585491500,2.270491455078125,-1.5054512023925781,0.3938785791397095,1.6167023181915283
1757089332595445500,2.280445556640625,-1.5299654006958008,0.39988163113594055,1.5452309846878052
1757089332605400600,2.290400634765625,-1.4995028972625732,0.4018179476261139,1.3974864482879639
1757089332615354600,2.300354736328125,-1.38766348361969,0.4850957989692688,1.208215594291687
1757089332625309400,2.310309326171875,-1.193948745727539,0.6488595008850098,1.058401107788086
1757089332635264500,2.320264404296875,-0.9406972527503967,0.9213173985481262,1.0030829906463623
1757089332645218300,2.33021826171875,-0.6623368859291077,1.2197206020355225,0.990125298500061
1757089332655173600,2.340173583984375,-0.39435651898384094,1.438075065612793,0.9838333129882812
1757089332665128400,2.35012841796875,-0.19829891622066498,1.5285496711730957,0.9520677328109741
1757089332675082500,2.36008251953125,0.0019071486312896013,1.3911161422729492,0.9085271954536438
1757089332685037300,2.370037353515625,0.1699281930923462,1.502345085144043,0.7690455913543701
1757089332694991600,2.37999169921875,0.14875978231430054,1.646935224533081,0.5972861051559448
1757089332704946400,2.389946533203125,-0.040978409349918365,1.49760103225708,0.4634855389595032
1757089332714901500,2.399901611328125,-0.44629156589508057,1.0716345310211182,0.4412018060684204
1757089332724855300,2.409855224609375,-0.7391040921211243,0.9955645203590393,0.470161497592926
1757089332734810600,2.419810546875,-0.8772196173667908,0.9077531695365906,0.48636364936828613
1757089332744764700,2.4297646484375,-0.9090871214866638,0.8470882177352905,0.47865837812423706
1757089332754719500,2.439719482421875,-0.8356054425239563,0.9353842735290527,0.4434511363506317
1757089332764674300,2.44967431640625,-0.7091625332832336,1.0759507417678833,0.40978869795799255
1757089332774628400,2.45962841796875,-0.6466610431671143,1.1510697603225708,0.4055340588092804
1757089332784583700,2.469583740234375,-0.7267903089523315,1.0880848169326782,0.4019837975502014
1757089332794538500,2.47953857421875,-0.8919355869293213,1.0887812376022339,0.3540269136428833
1757089332804492500,2.489492431640625,-1.0159966945648193,1.3111172914505005,0.20851033926010132
1757089332814447400,2.499447265625,-1.0864143371582031,1.5631351470947266,0.019773971289396286
1757089332824401400,2.5094013671875,-1.0683635473251343,1.8249053955078125,-0.06697966158390045
1757089332834356500,2.5193564453125,-1.0215123891830444,1.9876596927642822,0.03116767853498459
1757089332844311600,2.5293115234375,-1.0352312326431274,2.306123733520508,0.21177098155021667
1757089332854265300,2.539265380859375,-0.9976052641868591,2.6796364784240723,0.40985265374183655
1757089332864220400,2.549220458984375,-0.9074370861053467,2.879729986190796,0.6301270723342896
1757089332874175500,2.559175537109375,-0.9222809672355652,3.0686068534851074,0.8914191722869873
1757089332884129500,2.569129638671875,-1.004692792892456,3.2782387733459473,1.0844426155090332
1757089332894084400,2.57908447265625,-0.9625778198242188,3.070282459259033,1.1745191812515259
1757089332904038400,2.589038330078125,-0.7294842004776001,2.3138577938079834,1.1020690202713013
1757089332913993500,2.598993408203125,-0.5427656769752502,1.4211201667785645,0.8443590402603149
1757089332923948500,2.608948486328125,-0.5730898976325989,0.7635042071342468,0.36494335532188416
1757089332933902600,2.618902587890625,-0.6734452843666077,0.12743587791919708,-0.17001725733280182
1757089332943857400,2.628857421875,-0.7813482880592346,-0.3573768734931946,-0.5729310512542725
1757089332953811500,2.6388115234375,-0.8560534119606018,-0.5857096314430237,-0.8094599843025208
1757089332963766500,2.6487666015625,-0.9379837512969971,-0.6543569564819336,-0.8816756010055542
1757089332973721600,2.6587216796875,-0.9690527319908142,-0.7145063281059265,-0.8150454759597778
1757089332983675400,2.66867529296875,-0.8593870997428894,-0.34972384572029114,-0.6374397873878479
1757089332993630500,2.67863037109375,-0.6842999458312988,0.469285249710083,-0.367008775472641
1757089333003584500,2.68858447265625,-0.49140679836273193,0.711010754108429,-0.09803048521280289
1757089333013539600,2.69853955078125,-0.36429786682128906,0.5870651006698608,0.07203738391399384
1757089333023494400,2.708494384765625,-0.3301612436771393,0.40828946232795715,0.06803127378225327
1757089333033448400,2.718448486328125,-0.39183712005615234,0.24856825172901154,-0.035116419196128845
1757089333043403300,2.7284033203125,-0.5291028618812561,0.16933687031269073,-0.1487957090139389
1757089333053357300,2.738357421875,-0.6601799130439758,0.06619663536548615,-0.21085669100284576
1757089333063312600,2.748312744140625,-0.6724238395690918,-0.061110880225896835,-0.19573479890823364
1757089333073267500,2.758267333984375,-0.5703269839286804,0.04279500991106033,-0.10915648937225342
1757089333083221500,2.768221435546875,-0.5059465169906616,0.17614461481571198,-0.007804660126566887
1757089333093176300,2.77817626953125,-0.481789767742157,0.22450868785381317,0.07761836051940918
1757089333103131600,2.788131591796875,-0.46764424443244934,0.3983049988746643,0.15833057463169098
1757089333113085400,2.79808544921875,-0.500046968460083,0.7674947381019592,0.2787906527519226
1757089333123040500,2.80804052734375,-0.6337969303131104,0.9679243564605713,0.5605550408363342
1757089333132994300,2.817994384765625,-0.747024416923523,1.7400184869766235,0.853607177734375
1757089333142949600,2.82794970703125,-0.7444708943367004,2.0271005630493164,0.9534589052200317
1757089333152904400,2.837904541015625,-0.6957640647888184,1.4410663843154907,0.5888042449951172
1757089333162858500,2.8478583984375,-0.7325376272201538,0.7513980269432068,-0.02962246723473072
1757089333172813300,2.857813232421875,-0.8453461527824402,0.3553110957145691,-0.31664466857910156
1757089333182768600,2.8677685546875,-1.0297795534133911,0.17498040199279785,-0.23486031591892242
1757089333192722400,2.877722412109375,-1.1728150844573975,0.17289887368679047,-0.18083862960338593
1757089333202677500,2.887677490234375,-1.2678011655807495,-0.06342535465955734,-0.2142709642648697
1757089333212631600,2.897631591796875,-1.3108937740325928,-0.13635575771331787,-0.30205222964286804
1757089333222586400,2.90758642578125,-1.1726032495498657,-0.04488174244761467,-0.389501690864563
1757089333232541400,2.91754150390625,-1.0227447748184204,-0.021544726565480232,-0.4692894220352173
1757089333242495500,2.92749560546875,-0.9597674012184143,0.03354829177260399,-0.5243951082229614
1757089333252450600,2.937450439453125,-0.9710354804992676,0.12955765426158905,-0.6112857460975647
1757089333262404400,2.947404296875,-0.9809517860412598,0.3977881669998169,-0.5867541432380676
1757089333272359400,2.957359375,-1.0435981750488281,0.5331001877784729,-0.49267852306365967
1757089333282314500,2.967314453125,-1.1541131734848022,0.5052549242973328,-0.4463290572166443
1757089333292268500,2.9772685546875,-1.318369746208191,0.5284526348114014,-0.4443780481815338
1757089333302223400,2.987223388671875,-1.4074398279190063,0.4904627203941345,-0.45351356267929077
1757089333312177400,2.997177490234375,-1.5748730897903442,0.39493271708488464,-0.4466623365879059
1757089333322132500,3.007132568359375,-1.864257574081421,0.7003057599067688,-0.38689354062080383
1757089333332087600,3.017087646484375,-2.171926736831665,1.0505574941635132,-0.3541688621044159
1757089333342041600,3.02704150390625,-2.348095178604126,1.2442313432693481,-0.3114490509033203
1757089333351996400,3.036996337890625,-1.9168853759765625,1.534924864768982,-0.24472859501838684
1757089333361950500,3.046950439453125,-1.0418020486831665,1.6076481342315674,-0.15747492015361786
1757089333371905500,3.056905517578125,-0.5981473922729492,1.4148592948913574,-0.10053122043609619
1757089333381860600,3.066860595703125,-0.6158279776573181,1.1445976495742798,-0.009995575062930584
1757089333391814400,3.076814453125,-0.5971395373344421,0.8502838015556335,-0.021213874220848083
1757089333401769500,3.08676953125,-0.5408048629760742,0.6733221411705017,-0.019192039966583252
1757089333411724500,3.096724609375,-0.5692349076271057,0.7139553427696228,0.09149319678544998
1757089333421678600,3.1066787109375,-0.7297191619873047,0.7699523568153381,0.2786235809326172
1757089333431633400,3.11663330078125,-0.9439834952354431,0.6937550902366638,0.4180174469947815
1757089333441587500,3.12658740234375,-1.080944299697876,0.5630545020103455,0.4102591574192047
1757089333451542300,3.136542236328125,-1.1099992990493774,0.42647749185562134,0.2755884528160095
1757089333461497600,3.14649755859375,-1.0543133020401,0.2773645222187042,0.0721508115530014
1757089333471451600,3.15645166015625,-1.0008937120437622,0.17733244597911835,-0.07690872251987457
1757089333481406500,3.166406494140625,-0.9801769852638245,0.1735735386610031,-0.08278192579746246
1757089333491360500,3.176360595703125,-0.9182241559028625,0.15311299264431,0.045917198061943054
1757089333501315600,3.186315673828125,-0.8233824968338013,0.1182599887251854,0.20165058970451355
1757089333511270400,3.1962705078125,-0.7474331259727478,0.10461794584989548,0.3341822624206543
1757089333521224400,3.206224365234375,-0.6936454176902771,0.10897529125213623,0.4127383828163147
1757089333531179500,3.216179443359375,-0.6579382419586182,0.06902947276830673,0.41185155510902405
1757089333541133300,3.22613330078125,-0.622765064239502,0.059124238789081573,0.3754919171333313
1757089333551088600,3.236088623046875,-0.5633768439292908,0.06411606818437576,0.33223527669906616
1757089333561043200,3.246043212890625,-0.5034267902374268,0.09040556848049164,0.3157983124256134
1757089333570997200,3.255997314453125,-0.4618162214756012,0.06376277655363083,0.30253952741622925
1757089333580952300,3.265952392578125,-0.44846948981285095,0.02484801411628723,0.2743085026741028
1757089333590906400,3.27590625,-0.5525098443031311,-0.06443285942077637,0.2181541621685028
1757089333600861200,3.285861083984375,-0.815586507320404,-0.11208126693964005,0.15304942429065704
1757089333610816300,3.295816162109375,-1.0524195432662964,-0.041977815330028534,0.03128063306212425
1757089333620770600,3.3057705078125,-1.2190214395523071,0.12567900121212006,-0.06072249263525009
1757089333630725400,3.315725341796875,-1.2759654521942139,0.21557188034057617,-0.10472084581851959
1757089333640680200,3.32568017578125,-1.2665833234786987,0.21363866329193115,-0.1511644870042801
1757089333650634200,3.33563427734375,-1.249243974685669,0.2146085798740387,-0.18301083147525787
1757089333660589600,3.345589599609375,-1.3288744688034058,0.23160453140735626,-0.24871189892292023
1757089333670543400,3.35554345703125,-1.467905879020691,0.19252771139144897,-0.41055193543434143
1757089333680498400,3.36549853515625,-1.5108669996261597,-0.004525636322796345,-0.6077554225921631
1757089333690453200,3.375453369140625,-1.3984357118606567,-0.1284361183643341,-0.6401506662368774
1757089333700407300,3.3854072265625,-0.9484629034996033,-0.1283525675535202,-0.47798800468444824
1757089333710362400,3.3953623046875,-0.33614832162857056,-0.028318390250205994,-0.23005011677742004
1757089333720316400,3.40531640625,0.08245546370744705,0.12009342759847641,-0.011116456240415573
1757089333730271200,3.415271240234375,0.21173541247844696,0.09538382291793823,0.1507541984319687
1757089333740226300,3.425226318359375,0.0496722087264061,0.16139383614063263,0.2360205501317978
1757089333750180400,3.435180419921875,-0.013255888596177101,0.30331289768218994,0.18633902072906494
1757089333760135400,3.445135498046875,0.05091773346066475,0.19698911905288696,0.11191775649785995
1757089333770090200,3.45509033203125,0.09766153991222382,0.1233641728758812,0.11572261899709702
1757089333780044300,3.465044189453125,0.07049005478620529,0.13831643760204315,0.1510372906923294
1757089333789999400,3.474999267578125,0.047046784311532974,0.16912522912025452,0.1575804203748703
1757089333799953400,3.484953369140625,0.04024656489491463,0.14656201004981995,0.11864878982305527
1757089333809908500,3.494908447265625,0.049552179872989655,0.10664335638284683,0.07378756999969482
1757089333819863300,3.50486328125,0.04740620777010918,0.07571154087781906,0.05281784012913704
1757089333829817300,3.5148173828125,0.04045934975147247,0.07008694112300873,0.03358715400099754
1757089333839772400,3.5247724609375,0.038009464740753174,0.07232411205768585,0.016631508246064186
1757089333849726500,3.5347265625,0.01933191902935505,0.06195696070790291,-0.014795389957726002
1757089333859681300,3.544681396484375,0.0026220320723950863,0.040519677102565765,-0.06848856061697006
1757089333869636400,3.55463623046875,0.004424459300935268,0.01847163215279579,-0.10054422914981842
1757089333879590400,3.56459033203125,0.009374883957207203,0.007725080009549856,-0.09161946177482605
1757089333889545500,3.57454541015625,0.012585856951773167,-0.0160063486546278,-0.08079957216978073
1757089333899499500,3.58449951171875,0.011236032471060753,-0.037996530532836914,-0.10282249003648758
1757089333909454300,3.594454345703125,0.008398167788982391,-0.06475517898797989,-0.14171048998832703
1757089333919409200,3.6044091796875,0.008383626118302345,-0.07479207962751389,-0.17915800213813782
1757089333929363200,3.61436328125,0.004801941104233265,-0.048975925892591476,-0.19761531054973602
1757089333939318500,3.624318603515625,0.0026089882012456656,-0.025563297793269157,-0.18970997631549835
1757089333949272300,3.634272216796875,0.0056306105107069016,-0.05549296364188194,-0.1806110292673111
1757089333959227400,3.644227294921875,0.015275869518518448,-0.10420001298189163,-0.18755793571472168
1757089333969182200,3.65418212890625,0.010480314493179321,-0.08020200580358505,-0.17845205962657928
1757089333979136500,3.664136474609375,-0.012818090617656708,-0.0005401094094850123,-0.12721717357635498
1757089333989091300,3.67409130859375,-0.03769388049840927,0.027298180386424065,-0.08395998924970627
1757089333999045400,3.68404541015625,-0.05481484904885292,0.04440448805689812,-0.08126144111156464
1757089334009000200,3.694000244140625,-0.08091994374990463,0.08730828016996384,-0.07785578072071075
1757089334018955500,3.70395556640625,-0.12037619948387146,0.13020029664039612,-0.05862610787153244
1757089334028909600,3.71390966796875,-0.17307031154632568,0.16843131184577942,-0.046561986207962036
1757089334038864400,3.723864501953125,-0.18674065172672272,0.19017820060253143,-0.0272354856133461
1757089334048819200,3.733819091796875,-0.2697812020778656,0.2329847812652588,0.04203706234693527
1757089334058773200,3.743773193359375,-0.36173269152641296,0.19656242430210114,0.10295608639717102
1757089334068728300,3.753728271484375,-0.4702892601490021,0.18732579052448273,0.12408959865570068
1757089334078682400,3.763682373046875,-0.49992835521698,0.21306006610393524,0.15503396093845367
1757089334088637400,3.773637451171875,-0.5762979984283447,0.2716144323348999,0.2264130711555481
1757089334098591200,3.78359130859375,-0.6878980398178101,0.3176102340221405,0.301201730966568
1757089334108546300,3.79354638671875,-0.7747807502746582,0.2764199376106262,0.31354787945747375
1757089334118501400,3.80350146484375,-0.8430886268615723,0.12986217439174652,0.21847519278526306
1757089334128455400,3.813455322265625,-0.9131050109863281,-0.0026101190596818924,0.11962317675352097
1757089334138410200,3.82341015625,-0.9691154956817627,-0.11767325550317764,0.016083430498838425
1757089334148365300,3.833365234375,-1.0132131576538086,-0.14039801061153412,-0.046438269317150116
1757089334158319400,3.8433193359375,-1.0113791227340698,-0.24604147672653198,-0.10480215400457382
1757089334168274400,3.8532744140625,-0.9840079545974731,-0.2789909243583679,-0.20986224710941315
1757089334178228500,3.863228515625,-1.0260846614837646,-0.31489768624305725,-0.2813558876514435
1757089334188183300,3.873183349609375,-1.0821404457092285,-0.37830328941345215,-0.3402967154979706
1757089334198138000,3.88313818359375,-1.0798884630203247,-0.3843086063861847,-0.3798898458480835
1757089334208092400,3.893092529296875,-1.023596167564392,-0.3313615024089813,-0.3487281799316406
1757089334218047500,3.903047607421875,-0.9263227581977844,-0.28320440649986267,-0.27507779002189636
1757089334228001300,3.913001220703125,-0.8116534352302551,-0.23798097670078278,-0.22000226378440857
1757089334237956400,3.922956298828125,-0.6574460864067078,-0.1605377346277237,-0.11227229237556458
1757089334247911400,3.932911376953125,-0.4666130840778351,-0.12075808644294739,-0.03365285322070122
1757089334257865500,3.942865478515625,-0.3380397856235504,-0.060096580535173416,0.030489401891827583
1757089334267820300,3.9528203125,-0.3652208149433136,0.003653372870758176,0.0896480605006218
1757089334277774300,3.9627744140625,-0.5155127644538879,0.02399897575378418,0.1310901641845703
1757089334287729200,3.972729248046875,-0.7597739100456238,0.11604101955890656,0.19768916070461273
1757089334297684500,3.9826845703125,-0.9808368682861328,0.15158894658088684,0.2028295397758484
1757089334307638500,3.992638427734375,-1.0149292945861816,0.09153811633586884,0.13309574127197266
1757089334317593300,4.00259326171875,-0.9092715382575989,0.0005272770067676902,0.06701438128948212
1757089334327547400,4.01254736328125,-0.8422629237174988,-0.14132919907569885,0.04276709631085396
1757089334337502200,4.022502197265625,-0.8116173148155212,-0.31382110714912415,0.017129801213741302
1757089334347457500,4.03245751953125,-0.7249076962471008,-0.4135333299636841,-0.012135142460465431
1757089334357411300,4.042411376953125,-0.5440697073936462,-0.5266034603118896,-0.03275570273399353
1757089334367366400,4.052366455078125,-0.46662577986717224,-0.4280182719230652,-0.03112371824681759
1757089334377321200,4.0623212890625,-0.4085901975631714,-0.40632474422454834,-0.22695115208625793
1757089334387275500,4.072275634765625,-0.34324848651885986,-0.35736384987831116,-0.15627698600292206
1757089334397230300,4.082230224609375,-0.28116095066070557,-0.4514370858669281,-0.2126471996307373
1757089334407184400,4.092184326171875,-0.21513959765434265,-0.7855167984962463,-0.3525531589984894
1757089334417139200,4.10213916015625,-0.27362552285194397,-1.2573015689849854,-0.44864434003829956
1757089334427094500,4.112094482421875,-0.43282610177993774,-0.9201924800872803,-0.7031884789466858
1757089334437048300,4.12204833984375,0.21422474086284637,-0.9996922016143799,-1.0152428150177002
1757089334447003400,4.13200341796875,1.2708426713943481,-0.6230685114860535,-0.41314852237701416
1757089334456957400,4.14195751953125,1.8067121505737305,0.2747310996055603,0.2905574440956116
1757089334466912300,4.151912353515625,1.9601746797561646,0.2127755880355835,0.46213051676750183
1757089334476867300,4.161867431640625,1.6663823127746582,-0.27193865180015564,0.27644777297973633
1757089334486821400,4.1718212890625,1.136360764503479,-0.30090370774269104,0.18706727027893066
1757089334496776400,4.1817763671875,0.48153117299079895,-0.23716391623020172,0.14434024691581726
1757089334506731300,4.191731201171875,-0.0036924893502146006,-0.38566815853118896,0.08914729952812195
1757089334516685300,4.201685302734375,0.11716807633638382,-0.6477774977684021,-0.03321302682161331
1757089334526640400,4.211640380859375,0.40074360370635986,-0.6589481234550476,-0.09045634418725967
1757089334536594400,4.221594482421875,0.5045199990272522,-0.5327106714248657,-0.10891400277614594
1757089334546549200,4.23154931640625,0.4327438175678253,-0.46377530694007874,-0.18464365601539612
1757089334556504300,4.24150439453125,0.20470663905143738,-0.30680856108665466,-0.2613863945007324
1757089334566458000,4.2514580078125,0.22320760786533356,-0.2571147680282593,-0.32080793380737305
1757089334576413000,4.261412841796875,0.33502501249313354,-0.3780001401901245,-0.35772767663002014
1757089334586367200,4.2713671875,0.28085339069366455,-0.37726378440856934,-0.3159986138343811
1757089334596322000,4.281322021484375,0.06616770476102829,-0.19240541756153107,-0.18940559029579163
1757089334606276900,4.29127685546875,-0.15579211711883545,-0.07061107456684113,-0.07996591180562973
1757089334616231000,4.30123095703125,-0.3379068970680237,-0.11603628098964691,-0.04872472956776619
1757089334626186200,4.311186279296875,-0.5007836818695068,-0.2065589725971222,-0.08940903842449188
1757089334636141000,4.32114111328125,-0.676081120967865,-0.231365367770195,-0.16951841115951538
1757089334646095000,4.33109521484375,-0.8841602802276611,-0.022182578220963478,-0.25998279452323914
1757089334656050000,4.3410498046875,-1.1457806825637817,0.28106337785720825,-0.3984327018260956
1757089334666004000,4.35100390625,-1.4509512186050415,0.5065063834190369,-0.5803937315940857
1757089334675959000,4.360958984375,-1.735586166381836,0.6216837167739868,-0.7516306638717651
1757089334685914000,4.3709140625,-1.9714548587799072,0.8054173588752747,-0.7875439524650574
1757089334695868000,4.380867919921875,-2.145134925842285,1.0579679012298584,-0.7403096556663513
1757089334705823000,4.390822998046875,-2.2554543018341064,1.2925833463668823,-0.7148615717887878
1757089334715778000,4.400778076171875,-2.2774574756622314,1.3353171348571777,-0.7053540945053101
1757089334725732000,4.410732177734375,-2.3558177947998047,2.36039400100708,-1.1822056770324707
1757089334735687000,4.42068701171875,-2.370878219604492,3.9757275581359863,-1.4709429740905762
1757089334745641000,4.430640869140625,-2.248868227005005,4.469873905181885,-0.9338401556015015
1757089334755596000,4.440595947265625,-2.1236066818237305,4.644466400146484,-0.42073768377304077
1757089334765551000,4.450551025390625,-2.0537350177764893,5.174559116363525,-0.2537873089313507
1757089334775505200,4.460505126953125,-2.0106847286224365,4.334578514099121,-0.6994732618331909
1757089334785460000,4.4704599609375,-1.9716042280197144,3.7126853466033936,-1.2435463666915894
1757089334795414000,4.4804140625,-1.8790702819824219,3.594289541244507,-0.9356979727745056
1757089334805368800,4.490368896484375,-2.2895472049713135,2.7555770874023438,-0.25126534700393677
1757089334815324200,4.50032421875,-6.163450241088867,0.9902694821357727,0.24445921182632446
1757089334825278000,4.51027783203125,-8.843137741088867,-0.5595546960830688,0.3554762899875641
1757089334835233000,4.52023291015625,-7.527158737182617,-1.6267070770263672,0.22458384931087494
1757089334845187800,4.530187744140625,-4.011068820953369,-2.018091917037964,0.14305144548416138
1757089334855142100,4.54014208984375,1.0442476272583008,-2.379668712615967,0.30050036311149597
1757089334865097000,4.550096923828125,2.8319361209869385,-1.8488330841064453,0.058342576026916504
1757089334875051000,4.560051025390625,1.7772241830825806,-0.8211963772773743,-0.30908671021461487
1757089334885005800,4.570005859375,0.06187712401151657,-0.09000636637210846,-0.3412685990333557
1757089334894961200,4.579961181640625,-0.23622269928455353,0.6322180032730103,-0.09573688358068466
1757089334904915200,4.589915283203125,-0.10732091963291168,0.9228125214576721,0.11584459990262985
1757089334914870000,4.5998701171875,-0.12101169675588608,0.8400231003761292,0.22856955230236053
1757089334924824800,4.609824951171875,-0.09910053759813309,0.6062074303627014,0.25196966528892517
1757089334934779000,4.61977880859375,-0.07544299960136414,0.2863030433654785,0.2485896199941635
1757089334944734200,4.629734130859375,-0.07042586803436279,-0.038874249905347824,0.1917380541563034
1757089334954688000,4.63968798828125,-0.06940827518701553,-0.2803412079811096,0.08967160433530807
1757089334964643000,4.64964306640625,-0.07230712473392487,-0.3619340658187866,0.008969571441411972
1757089334974598000,4.659597900390625,-0.07772094756364822,-0.3430551588535309,-0.022974207997322083
1757089334984552000,4.669552001953125,-0.09039386361837387,-0.26860809326171875,-0.0059659299440681934
1757089334994507000,4.679507080078125,-0.10483378916978836,-0.19480007886886597,0.056845199316740036
1757089335004462000,4.689462158203125,-0.13283400237560272,-0.15603803098201752,0.15098528563976288
1757089335014416000,4.699415771484375,-0.13216547667980194,-0.14607173204421997,0.24651159346103668
1757089335024371000,4.709370849609375,-0.1276729851961136,-0.15868020057678223,0.32284602522850037
1757089335034325200,4.7193251953125,-0.13624659180641174,-0.17721524834632874,0.37003791332244873
1757089335044280000,4.729280029296875,-0.1524961292743683,-0.19855542480945587,0.39804157614707947
1757089335054235000,4.73923486328125,-0.12914153933525085,-0.219558447599411,0.4083980619907379
1757089335064189000,4.74918896484375,-0.047606728971004486,-0.2442225217819214,0.396544873714447
1757089335074144000,4.75914404296875,-0.013785531744360924,-0.2332889884710312,0.3625289499759674
1757089335084099000,4.76909912109375,0.0029758706223219633,-0.15162262320518494,0.34065505862236023
1757089335094053000,4.77905322265625,0.02042889967560768,-0.08253166079521179,0.30297142267227173
1757089335104008000,4.789008056640625,0.04262154921889305,-0.02131223864853382,0.2366800308227539
1757089335113962000,4.7989619140625,0.04409618303179741,-0.018279075622558594,0.14031058549880981
1757089335123917000,4.8089169921875,0.03501240536570549,-0.07315989583730698,0.02930019050836563
1757089335133872000,4.8188720703125,0.03171876072883606,-0.1271137148141861,-0.07600948959589005
1757089335143826000,4.828825927734375,0.02540653757750988,-0.14542241394519806,-0.15703164041042328
1757089335153781000,4.838781005859375,0.01751699671149254,-0.104586660861969,-0.20249104499816895
1757089335163736000,4.848736083984375,0.0065165432170033455,-0.050137266516685486,-0.22056671977043152
1757089335173690000,4.858690185546875,-0.00028650183230638504,-0.021811088547110558,-0.21865403652191162
1757089335183645000,4.86864501953125,0.0011907536536455154,-0.008419647812843323,-0.2070154845714569
1757089335193599000,4.878598876953125,-0.0056006466038525105,-0.004020556341856718,-0.18428723514080048
1757089335203553800,4.8885537109375,-0.014377094805240631,-0.011312024667859077,-0.15427632629871368
1757089335213509000,4.898509033203125,-0.01522622350603342,-0.026728464290499687,-0.1168622076511383
1757089335223463200,4.908463134765625,-0.012253070250153542,-0.0283758956938982,-0.08192525804042816
1757089335233418000,4.91841796875,-0.004761752672493458,-0.007687350735068321,-0.044081173837184906
1757089335243372800,4.928372802734375,-0.0056480523198843,0.04028896242380142,-0.017234113067388535
1757089335253327000,4.9383271484375,-0.010920770466327667,0.08087295293807983,-0.008420102298259735
1757089335263282200,4.9482822265625,-0.0109319556504488,0.11986136436462402,-0.02071964740753174
1757089335273236000,4.958236083984375,-0.018621599301695824,0.16858410835266113,-0.054603446274995804
1757089335283191000,4.96819091796875,-0.019431734457612038,0.20487740635871887,-0.09066424518823624
1757089335293146000,4.97814599609375,-0.016545480117201805,0.23216015100479126,-0.1256445050239563
1757089335303100200,4.98810009765625,-0.01422240398824215,0.2499878853559494,-0.15363992750644684
1757089335313055000,4.998054931640625,-0.004095086827874184,0.2888850271701813,-0.17066723108291626
1757089335323010000,5.008010009765625,-0.0004207231104373932,0.36617740988731384,-0.16833563148975372
1757089335332963800,5.0179638671875,0.0014044914860278368,0.35867607593536377,-0.1648612916469574
1757089335342919200,5.027919189453125,0.0029853438027203083,0.31235599517822266,-0.1757272630929947
1757089335352873000,5.037873046875,-0.0027844293508678675,0.292611688375473,-0.16427229344844818
1757089335362828000,5.047828125,0.03074982948601246,0.4084394872188568,-0.18452857434749603
1757089335372782800,5.057782958984375,0.005867231637239456,0.341418981552124,-0.14835231006145477
1757089335382737000,5.06773681640625,0.001965966774150729,0.26224908232688904,-0.1192583367228508
1757089335392692000,5.07769189453125,0.026738153770565987,0.1505717784166336,-0.12302336096763611
1757089335402647000,5.08764697265625,0.027989307418465614,0.15797244012355804,-0.18259721994400024
1757089335412601000,5.09760107421875,0.008408495225012302,0.15231108665466309,-0.20878364145755768
1757089335422556000,5.107555908203125,-0.009607523679733276,0.0567864254117012,-0.19929239153862
1757089335432510000,5.117510009765625,0.014762035571038723,-0.05959133803844452,-0.19137372076511383
1757089335442465000,5.127465087890625,0.05089740455150604,-0.07675674557685852,-0.22677458822727203
1757089335452420000,5.137420166015625,0.04785968363285065,0.020953482016921043,-0.2937875986099243
1757089335462374000,5.147373779296875,0.042615387588739395,0.12456215918064117,-0.3526410758495331
1757089335472329000,5.157328857421875,0.06811637431383133,0.17051145434379578,-0.38261398673057556
1757089335482284000,5.167283935546875,0.09274635463953018,0.18517348170280457,-0.37274032831192017
1757089335492238000,5.177238037109375,0.07165271043777466,0.14136876165866852,-0.3300977051258087
1757089335502193000,5.18719287109375,0.03746011480689049,0.036519043147563934,-0.26360177993774414
1757089335512147000,5.19714697265625,0.020274091511964798,-0.11495095491409302,-0.18458369374275208
1757089335522102000,5.20710205078125,0.016172822564840317,-0.23897916078567505,-0.11342749744653702
1757089335532057000,5.21705712890625,0.008698703721165657,-0.26530370116233826,-0.05498374626040459
1757089335542011100,5.22701123046875,0.010004185140132904,-0.25070852041244507,-0.02852870710194111
1757089335551966000,5.236966064453125,0.0241889376193285,-0.2178128957748413,-0.045518748462200165
1757089335561921800,5.246921875,0.03201277181506157,-0.15413857996463776,-0.09470893442630768
1757089335571875800,5.256875732421875,0.04545507952570915,-0.054392118006944656,-0.14754466712474823
1757089335581830700,5.26683056640625,0.06389108300209045,0.043765876442193985,-0.19501976668834686
1757089335591785000,5.276784912109375,0.07585852593183517,0.12300599366426468,-0.22495684027671814
1757089335601739800,5.28673974609375,0.09544288367033005,0.1412145495414734,-0.24359336495399475
1757089335611694800,5.29669482421875,0.16351023316383362,0.25033679604530334,-0.2900393605232239
1757089335621649000,5.30664892578125,0.19475869834423065,0.26748889684677124,-0.3191138803958893
1757089335631604000,5.31660400390625,0.2259742170572281,0.15470349788665771,-0.32819005846977234
1757089335641558800,5.326558837890625,0.2540476620197296,0.006345713045448065,-0.3116217255592346
1757089335651512800,5.336512939453125,0.2583622634410858,-0.03918438032269478,-0.24417482316493988
1757089335661468000,5.346468017578125,0.25026223063468933,0.09770502895116806,-0.19544591009616852
1757089335671421700,5.356421630859375,0.2228734791278839,0.2623825967311859,-0.17363059520721436
1757089335681377000,5.366376953125,0.2091566026210785,0.3945661783218384,-0.19363199174404144
1757089335691331800,5.376331787109375,0.19188441336154938,0.4627327620983124,-0.23833727836608887
1757089335701286000,5.386285888671875,0.16705496609210968,0.43906763195991516,-0.28306132555007935
1757089335711240700,5.39624072265625,0.13805900514125824,0.3618239760398865,-0.31728190183639526
1757089335721194800,5.40619482421875,0.10360543429851532,0.2398080676794052,-0.3231371343135834
1757089335731149800,5.41614990234375,0.07978755980730057,0.10558696836233139,-0.2983240485191345
1757089335741105000,5.42610498046875,0.05624175816774368,-0.02102610282599926,-0.24523259699344635
1757089335751059000,5.436058837890625,0.02824002504348755,-0.1357986479997635,-0.17558656632900238
1757089335761013800,5.446013671875,0.008056992664933205,-0.2378150224685669,-0.11091755330562592
1757089335770968800,5.45596875,-0.004179776646196842,-0.29761672019958496,-0.0668879896402359
1757089335780923000,5.4659228515625,-0.01888388767838478,-0.27453458309173584,-0.05087439715862274
1757089335790877700,5.475877685546875,-0.02291766367852688,-0.1821451634168625,-0.05484370142221451
1757089335800831700,5.485831787109375,-0.023457219824194908,-0.06316764652729034,-0.0762062519788742
1757089335810787000,5.495787109375,-0.0237226951867342,0.03395497053861618,-0.10312923043966293
1757089335820742000,5.505741943359375,-0.012271900661289692,0.07869181782007217,-0.11332221329212189
1757089335830696000,5.515696044921875,0.007525996770709753,0.08732974529266357,-0.10325081646442413
1757089335840650800,5.525650634765625,0.02731781080365181,0.08036531507968903,-0.06465042382478714
1757089335850606000,5.535606201171875,0.04168480634689331,0.0685010701417923,-0.008339930325746536
1757089335860560000,5.545559814453125,0.047062527388334274,0.05718769505620003,0.04819631576538086
1757089335870515000,5.555514892578125,0.04853849112987518,0.007471142336726189,0.0617726668715477
1757089335880468700,5.56546875,0.03707011789083481,-0.09039656072854996,0.07447700947523117
1757089335890423800,5.575423828125,-0.0007037424948066473,-0.10070499777793884,0.07964861392974854
1757089335900379000,5.58537890625,0.010541987605392933,-0.1081346794962883,0.09507950395345688
1757089335910333000,5.5953330078125,-0.00608240719884634,-0.07953470200300217,0.11126038432121277
1757089335920287700,5.605287841796875,0.017800023779273033,-0.12059159576892853,0.12300758808851242
1757089335930242800,5.615242919921875,-0.0022686903830617666,-0.13986551761627197,0.110642209649086
1757089335940196900,5.62519677734375,0.03429544344544411,-0.024152500554919243,0.02020258828997612
1757089335950152000,5.63515185546875,0.03513206169009209,-0.020578447729349136,0.00913889892399311
1757089335960106000,5.64510595703125,0.03972974047064781,-0.12234129756689072,0.05951898172497749
1757089335970060800,5.655060791015625,0.04411212354898453,-0.043589845299720764,0.052194610238075256
1757089335980015900,5.665015869140625,0.026479067280888557,0.01455574668943882,0.012997939251363277
1757089335989970000,5.674969970703125,0.014751690439879894,0.00891035981476307,-0.036118801683187485
1757089335999925000,5.684925048828125,0.0029227277263998985,0.022557729855179787,-0.0835459753870964
1757089336009878800,5.694878662109375,-0.012424919754266739,-0.05743466690182686,-0.05052158981561661
1757089336019833900,5.704833740234375,-0.018132073804736137,-0.07028015702962875,0.003602096810936928
1757089336029788700,5.71478857421875,-0.014905688352882862,-0.0326889231801033,0.023994218558073044
1757089336039743000,5.724742919921875,-0.015368013642728329,-0.017904914915561676,0.0236155167222023
1757089336049697800,5.73469775390625,-0.014912005513906479,-0.0044802334159612656,0.009311736561357975
1757089336059652900,5.74465283203125,-0.010320448316633701,-0.012642555870115757,0.005099414847791195
1757089336069606700,5.754606689453125,-0.004248140379786491,-0.014623330906033516,0.008531667292118073
1757089336079562000,5.76456201171875,0.0015399737749248743,-0.035029005259275436,0.019013604149222374
1757089336089516000,5.77451611328125,0.00601263577118516,-0.04716447740793228,0.03394095599651337
1757089336099470800,5.784470947265625,0.007421714253723621,-0.04702173173427582,0.04646873101592064
1757089336109425700,5.79442578125,0.009928015060722828,-0.04299582913517952,0.05081900209188461
1757089336119379700,5.804379638671875,0.010687015950679779,-0.03920082375407219,0.04641120508313179
1757089336129335000,5.8143349609375,0.009843406267464161,-0.044236596673727036,0.03605247661471367
1757089336139289900,5.824289794921875,0.009767506271600723,-0.056917767971754074,0.025383587926626205
1757089336149244000,5.834243896484375,0.008130430243909359,-0.06860657036304474,0.02070397511124611
1757089336159198700,5.84419873046875,0.006459296680986881,-0.06382832676172256,0.018635764718055725
1757089336169152800,5.85415283203125,0.0009904885664582253,-0.04803850129246712,0.015328262001276016
1757089336179107800,5.86410791015625,-0.002448717597872019,-0.02831299975514412,0.006769660860300064
1757089336189063000,5.87406298828125,-0.00617265747860074,-0.014047800563275814,0.0018368135206401348
1757089336199016700,5.8840166015625,-0.0098241176456213,-0.011910348199307919,-0.00019757496193051338
1757089336208971800,5.8939716796875,-0.006816761568188667,-0.007207383867353201,0.0008686324581503868
1757089336218926800,5.9039267578125,-0.004648681730031967,-0.008536833338439465,0.005465781316161156
1757089336228881000,5.913880859375,-0.00009273248724639416,-0.021927470341324806,0.015881044790148735
1757089336238835700,5.923835693359375,0.0038801711052656174,-0.0366307832300663,0.025708375498652458
1757089336248789800,5.933789794921875,0.007747343275696039,-0.04416810721158981,0.034130245447158813
1757089336258744800,5.943744873046875,0.012774325907230377,-0.05584233999252319,0.037216849625110626
1757089336268700000,5.953699951171875,0.012927268631756306,-0.0654945969581604,0.03757116198539734
1757089336278654000,5.963654052734375,0.010736552067101002,-0.06585225462913513,0.03399160876870155
1757089336288608800,5.97360888671875,0.0062811970710754395,-0.06292551010847092,0.031238790601491928
1757089336298562800,5.983562744140625,0.0016012242995202541,-0.06183760240674019,0.026626724749803543
1757089336308518000,5.993517822265625,-0.001003156416118145,-0.06636493653059006,0.02206120826303959
1757089336318473000,6.003472900390625,0.0039146370254457,-0.08294098824262619,0.020218834280967712
1757089336328426800,6.0134267578125,0.008617900311946869,-0.09805826842784882,0.02110593393445015
1757089336338381800,6.0233818359375,0.013243012130260468,-0.10951918363571167,0.015903182327747345
1757089336348337000,6.0333369140625,0.01690831407904625,-0.11964990943670273,0.007138864602893591
1757089336358291000,6.043291015625,0.015906168147921562,-0.12060891091823578,-0.0026586391031742096
1757089336368245800,6.053245849609375,0.010532554239034653,-0.11932054162025452,-0.007210690528154373
1757089336378199800,6.06319970703125,0.008264606818556786,-0.11524990200996399,-0.005465255118906498
1757089336388154600,6.073154541015625,0.006807056721299887,-0.1070304661989212,-0.0018932097591459751
1757089336398110000,6.08310986328125,0.008279785513877869,-0.0925937369465828,0.002296741586178541
1757089336408064000,6.09306396484375,0.008706005290150642,-0.07207053899765015,0.0016087251715362072
1757089336418018800,6.103018798828125,0.010987003333866596,-0.05504787713289261,-0.0027024000883102417
1757089336427973600,6.1129736328125,0.010056582279503345,-0.04453152045607567,-0.008648406714200974
1757089336437928000,6.122927978515625,0.009165754541754723,-0.031465522944927216,-0.010812490247189999
1757089336447883000,6.132883056640625,0.004288505297154188,-0.018433494493365288,-0.011782059445977211
1757089336457836800,6.1428369140625,-0.0005208970978856087,-0.006084416061639786,-0.013621238991618156
1757089336467792000,6.1527919921875,-0.005756175611168146,0.013416490517556667,-0.018592536449432373
1757089336477747000,6.162746826171875,-0.011777317151427269,0.030598673969507217,-0.022926831617951393
1757089336487701000,6.172700927734375,-0.012666545808315277,0.04018712043762207,-0.025746852159500122
1757089336497655800,6.18265576171875,-0.010004982352256775,0.04125344753265381,-0.02959272265434265
1757089336507611000,6.19261083984375,-0.007441308349370956,0.03753097355365753,-0.032297283411026
1757089336517564700,6.202564697265625,-0.0014864800032228231,0.02849619835615158,-0.030382206663489342
1757089336527520000,6.21252001953125,0.004529980476945639,0.020364169031381607,-0.024867774918675423
1757089336537473800,6.222473876953125,0.010485075414180756,0.016662640497088432,-0.027521083131432533
1757089336547428900,6.232428955078125,0.013724696822464466,0.015699708834290504,-0.030703382566571236
1757089336557383700,6.2423837890625,0.015671733766794205,0.007626336067914963,-0.03206079453229904
1757089336567337500,6.25233740234375,0.013614213094115257,-0.0008241627365350723,-0.028049780055880547
1757089336577292500,6.26229248046875,0.011640544980764389,-0.008625360205769539,-0.018423518165946007
1757089336587246300,6.272246337890625,0.007835151627659798,-0.011268437840044498,-0.009242591448128223
1757089336597201700,6.28220166015625,0.009904960170388222,-0.007226824294775724,-0.00097720418125391
1757089336607156500,6.292156494140625,0.006390890572220087,-0.0020001342054456472,0.0012719836086034775
1757089336617110500,6.302110595703125,0.0032779215835034847,0.0010907305404543877,0.004252859856933355
1757089336627065300,6.3120654296875,0.000673796865157783,0.0036462415009737015,0.004717288538813591
1757089336637020700,6.322020751953125,0.001544916769489646,0.002062726067379117,0.010432166047394276
1757089336646974500,6.331974365234375,0.00239328620955348,-0.0015492535894736648,0.019361918792128563
1757089336656929500,6.341929443359375,-0.00004590279422700405,-0.000048029760364443064,0.026645133271813393
1757089336666883600,6.351883544921875,0.002441566903144121,0.006577759515494108,0.030245043337345123
1757089336676838400,6.36183837890625,0.00044978864025324583,0.015209064818918705,0.030814694240689278
1757089336686793500,6.37179345703125,-0.0009125333745032549,0.0170444268733263,0.025393947958946228
1757089336696747500,6.38174755859375,-0.001731988275423646,0.008979842066764832,0.018323257565498352
1757089336706702600,6.39170263671875,-0.0020046934951096773,-0.007521479856222868,0.01712781935930252
1757089336716657400,6.401657470703125,-0.0017050879541784525,-0.025875452905893326,0.018132628872990608
1757089336726611500,6.411611572265625,0.0012755249626934528,-0.04247983545064926,0.019419262185692787
1757089336736566500,6.42156640625,0.0007341043092310429,-0.04955558851361275,0.01798461750149727
1757089336746520600,6.4315205078125,-0.00003452668897807598,-0.04842936620116234,0.01558549702167511
1757089336756475400,6.441475341796875,-0.0021629249677062035,-0.04453848674893379,0.011669051833450794
1757089336766430500,6.451430419921875,-0.004588492214679718,-0.03781307116150856,0.004204031080007553
1757089336776384500,6.461384521484375,-0.008770454674959183,-0.03450728952884674,-0.00044984323903918266
1757089336786339600,6.471339599609375,-0.009874753654003143,-0.03245033323764801,0.0028190112207084894
1757089336796294400,6.48129443359375,-0.012376528233289719,-0.03493373095989227,0.009215124882757664
1757089336806248400,6.49124853515625,-0.011969211511313915,-0.036187827587127686,0.013711012899875641
1757089336816203500,6.50120361328125,-0.010541757568717003,-0.030336065217852592,0.014770684763789177
1757089336826157600,6.511157470703125,-0.009253479540348053,-0.01702398993074894,0.018016736954450607
1757089336836112400,6.5211123046875,-0.007300316356122494,-0.002985403873026371,0.02007962204515934
1757089336846067500,6.5310673828125,-0.007765528745949268,0.013294942677021027,0.028180615976452827
1757089336856021500,6.541021484375,-0.006477889604866505,0.030506953597068787,0.03311891853809357
1757089336865976600,6.5509765625,-0.006227207835763693,0.036684535443782806,0.03901633992791176
1757089336875931400,6.560931396484375,-0.0036138477735221386,0.038668591529130936,0.038569994270801544
1757089336885885400,6.570885498046875,-0.004211959429085255,0.04125327244400978,0.03588070347905159
1757089336895840500,6.580840576171875,-0.0030015523079782724,0.047717828303575516,0.02895834855735302
1757089336905794300,6.590794189453125,-0.0032415054738521576,0.05596255511045456,0.02593667060136795
1757089336915749600,6.60074951171875,-0.0034068874083459377,0.06253869831562042,0.023271113634109497
1757089336925704400,6.610704345703125,-0.004721535369753838,0.06332002580165863,0.020846538245677948
1757089336935658500,6.620658447265625,-0.009019078686833382,0.06510860472917557,0.018137570470571518
1757089336945613300,6.63061328125,-0.011176429688930511,0.06432506442070007,0.017113378271460533
1757089336955568600,6.640568603515625,-0.01585800014436245,0.05952950567007065,0.020442062988877296
1757089336965522400,6.6505224609375,-0.01645786128938198,0.05104362964630127,0.026252878829836845
1757089336975477500,6.6604775390625,-0.014779271557927132,0.047712281346321106,0.02645234949886799
1757089336985431600,6.670431640625,-0.011567461304366589,0.03815562278032303,0.023243755102157593
1757089336995386400,6.680386474609375,-0.00854131206870079,0.02780524455010891,0.016631657257676125
1757089337005341400,6.690341552734375,-0.006552799604833126,0.016477731987833977,0.015468757599592209
1757089337015295500,6.70029541015625,-0.003996430896222591,0.007703682407736778,0.019254708662629128
1757089337025250600,6.71025048828125,-0.0018128643278032541,-0.001985291251912713,0.02310093492269516
1757089337035204400,6.720204345703125,0.000050016678869724274,-0.012653914280235767,0.024919074028730392
1757089337045159700,6.73015966796875,0.0037895082496106625,-0.021780554205179214,0.027950076386332512
1757089337055114500,6.740114501953125,0.0046635577455163,-0.027866143733263016,0.03345269709825516
1757089337065068500,6.750068603515625,0.006929344497621059,-0.030365705490112305,0.03720225766301155
1757089337075023400,6.7600234375,0.008364521898329258,-0.03076224960386753,0.03959963843226433
1757089337084978700,6.769978759765625,0.009653864428400993,-0.02697296440601349,0.042446523904800415
1757089337094932500,6.779932373046875,0.009404059499502182,-0.013423600234091282,0.04452165588736534
1757089337104887600,6.789887451171875,0.011101387441158295,0.004690138157457113,0.04431990534067154
1757089337114841300,6.79984130859375,0.015039671212434769,0.020356183871626854,0.038640182465314865
1757089337124796400,6.80979638671875,0.015937134623527527,0.027702486142516136,0.030671682208776474
1757089337134751500,6.81975146484375,0.016532618552446365,0.03126872330904007,0.02734113298356533
1757089337144705500,6.82970556640625,0.017076896503567696,0.027111468836665154,0.02607506327331066
1757089337154660400,6.839660400390625,0.017832167446613312,0.019064459949731827,0.03069644793868065
1757089337164615400,6.849615478515625,0.017968675121665,0.011505147442221642,0.032743263989686966
1757089337174569500,6.859569580078125,0.017579054459929466,0.016285788267850876,0.030279573053121567
1757089337184524500,6.869524658203125,0.018334440886974335,0.02919219620525837,0.019650720059871674
1757089337194478600,6.879478515625,0.015604434534907341,0.04359510540962219,0.007055832073092461
1757089337204433400,6.889433349609375,0.011880764737725258,0.05241258814930916,-0.005647209472954273
1757089337214388500,6.899388427734375,0.009679129347205162,0.05211590975522995,-0.010978057980537415
1757089337224342500,6.909342529296875,0.0077843694016337395,0.0452011302113533,-0.005273447372019291
1757089337234297600,6.919297607421875,0.007707137614488602,0.0402471162378788,0.002484607044607401
1757089337244251400,6.92925146484375,0.011382143944501877,0.04273747280240059,0.009780896827578545
1757089337254206500,6.93920654296875,0.014438653364777565,0.04883691295981407,0.013419041410088539
1757089337264161500,6.94916162109375,0.018464671447873116,0.06226588785648346,0.01364082656800747
1757089337274115600,6.959115478515625,0.02361495979130268,0.07270388305187225,0.013134293258190155
1757089337284070400,6.9690703125,0.02890053018927574,0.08138759434223175,0.014019140973687172
1757089337294025500,6.979025390625,0.03098711557686329,0.081220343708992,0.01900644227862358
1757089337303979500,6.9889794921875,0.03488245606422424,0.07642266899347305,0.02064308524131775
1757089337313934600,6.9989345703125,0.03650139272212982,0.0738774836063385,0.023307576775550842
1757089337323888600,7.008888671875,0.03308314085006714,0.07451220601797104,0.023501738905906677
1757089337333843500,7.018843505859375,0.02820689231157303,0.07361499220132828,0.020613541826605797
1757089337343798300,7.02879833984375,0.02394131012260914,0.0736476331949234,0.015462249517440796
1757089337353752300,7.03875244140625,0.017425088211894035,0.06791091710329056,0.011491209268569946
1757089337363707600,7.048707763671875,0.012469364330172539,0.060005929321050644,0.005931507330387831
1757089337373662500,7.058662353515625,0.009582498110830784,0.05355335772037506,0.0065714651718735695
1757089337383616500,7.068616455078125,0.010128289461135864,0.05202313885092735,0.008275115862488747
1757089337393571300,7.0785712890625,0.009124543517827988,0.053298793733119965,0.010230142623186111
1757089337403525600,7.088525634765625,0.00842284131795168,0.05861513316631317,0.012863831594586372
1757089337413480400,7.09848046875,0.011149652302265167,0.06576785445213318,0.014107528142631054
1757089337423435500,7.108435546875,0.009888454340398312,0.07368218898773193,0.017291661351919174
1757089337433389300,7.118389404296875,0.012293288484215736,0.07948308438062668,0.017014427110552788
1757089337443344600,7.1283447265625,0.01342219952493906,0.08072742074728012,0.016665227711200714
1757089337453298700,7.138298583984375,0.014253638684749603,0.07847438752651215,0.018884971737861633
1757089337463253500,7.14825341796875,0.0142238549888134,0.07572843879461288,0.02218424715101719
1757089337473208300,7.158208251953125,0.010257342830300331,0.07985447347164154,0.02580428123474121
1757089337483162400,7.168162353515625,0.009076077491044998,0.08335405588150024,0.026633678004145622
1757089337493117700,7.17811767578125,0.005407572723925114,0.08307762444019318,0.026664569973945618
1757089337503072500,7.188072509765625,0.001388709293678403,0.08420193940401077,0.02798984758555889
1757089337513026600,7.198026611328125,-0.0026225438341498375,0.08381631970405579,0.02936030924320221
1757089337522981400,7.2079814453125,-0.003628640901297331,0.07700479030609131,0.027476279065012932
1757089337532935400,7.217935302734375,-0.0075658587738871574,0.07792278379201889,0.027866166085004807
1757089337542890500,7.227890380859375,-0.009550333023071289,0.0802559033036232,0.02983725816011429
1757089337552845600,7.237845458984375,-0.013668112456798553,0.08681739866733551,0.037701305001974106
1757089337562799900,7.2477998046875,-0.01516625378280878,0.08964920789003372,0.050179194658994675
1757089337572755000,7.2577548828125,-0.01933196932077408,0.07860534638166428,0.0658513605594635
1757089337582708700,7.267708740234375,-0.020081719383597374,0.05619639903306961,0.08268629014492035
1757089337592663800,7.277663818359375,-0.02276112698018551,0.030113665387034416,0.08837400376796722
1757089337602619000,7.287618896484375,-0.02256147377192974,0.009629671461880207,0.0947858989238739
1757089337612573000,7.297572998046875,-0.025361254811286926,-0.0057341051287949085,0.096561960875988
1757089337622527700,7.30752783203125,-0.025561794638633728,-0.018136078491806984,0.10283656418323517
1757089337632481800,7.317481689453125,-0.024622762575745583,-0.029457176104187965,0.10966384410858154
1757089337642436900,7.327436767578125,-0.021330256015062332,-0.0390729121863842,0.11453619599342346
1757089337652392000,7.337391845703125,-0.019556324928998947,-0.04729968309402466,0.11303284019231796
1757089337662346000,7.347345947265625,-0.015773532912135124,-0.05380740389227867,0.10647057741880417
1757089337672300800,7.35730078125,-0.013979095965623856,-0.06536951661109924,0.09736895561218262
1757089337682256000,7.367255859375,-0.010564806871116161,-0.08437880128622055,0.08586104959249496
1757089337692210000,7.3772099609375,-0.0062147993594408035,-0.10010343044996262,0.07599563896656036
1757089337702165000,7.3871650390625,0.0035206107422709465,-0.10904034227132797,0.07284902036190033
1757089337712118800,7.397118896484375,0.012465102598071098,-0.11475495994091034,0.07030649483203888
1757089337722073900,7.407073974609375,0.021836664527654648,-0.12838193774223328,0.06899894028902054
1757089337732029000,7.41702880859375,0.03137717396020889,-0.1471436470746994,0.062177788466215134
1757089337741983000,7.42698291015625,0.03752363473176956,-0.16536065936088562,0.05133570730686188
1757089337751937800,7.436937744140625,0.043084848672151566,-0.1861487627029419,0.042540356516838074
1757089337761891800,7.446891845703125,0.048530325293540955,-0.197963148355484,0.036196254193782806
1757089337771846700,7.4568466796875,0.050769511610269547,-0.2023770660161972,0.028916768729686737
1757089337781802000,7.466802001953125,0.0523177869617939,-0.21679572761058807,0.01629478856921196
1757089337791756000,7.476756103515625,0.05250740423798561,-0.23102526366710663,0.003006946761161089
1757089337801710800,7.4867109375,0.04996701329946518,-0.23357832431793213,-0.007838308811187744
1757089337811665700,7.496665771484375,0.04713447764515877,-0.22624611854553223,-0.0063378834165632725
1757089337821619700,7.50661962890625,0.04307273402810097,-0.20938146114349365,-0.004786771722137928
1757089337831575000,7.516574951171875,0.03230344504117966,-0.19689150154590607,-0.0070520564913749695
1757089337841528800,7.52652880859375,0.010650770738720894,-0.16984951496124268,-0.015376055613160133
1757089337851484000,7.53648388671875,-0.012853756546974182,-0.10231468081474304,-0.02228109911084175
1757089337861438700,7.546438720703125,-0.049828361719846725,-0.00828524213284254,-0.028137248009443283
1757089337871393000,7.55639306640625,-0.0894830971956253,0.06991901993751526,-0.04365841671824455
1757089337881347800,7.566347900390625,-0.1270894855260849,0.11780551075935364,-0.06536415964365005
1757089337891302000,7.576302001953125,-0.1558377891778946,0.1676018387079239,-0.08023951202630997
1757089337901256700,7.586256591796875,-0.17803943157196045,0.22144024074077606,-0.07809916138648987
1757089337911212000,7.5962119140625,-0.18184375762939453,0.2606947124004364,-0.05435734614729881
1757089337921165800,7.606165771484375,-0.16768719255924225,0.26984167098999023,-0.012371085584163666
1757089337931121000,7.616120849609375,-0.13273799419403076,0.23030173778533936,0.026545153930783272
1757089337941075000,7.626074951171875,-0.08293410390615463,0.16767308115959167,0.05916956439614296
1757089337951029800,7.63602978515625,-0.0419725626707077,0.1458234339952469,0.09636513143777847
1757089337960984800,7.64598486328125,-0.007112130522727966,0.15021434426307678,0.12801481783390045
1757089337970939000,7.65593896484375,0.010766202583909035,0.15172195434570312,0.13647115230560303
1757089337980894000,7.66589404296875,0.01944008097052574,0.17060990631580353,0.1333933025598526
1757089337990847700,7.67584765625,0.012585370801389217,0.19851744174957275,0.11255380511283875
1757089338000802800,7.685802734375,-0.0031354983802884817,0.23178163170814514,0.0869523361325264
1757089338010758000,7.6957578125,-0.011150280945003033,0.2543124854564667,0.056549686938524246
1757089338020712000,7.7057119140625,-0.03356747701764107,0.23847177624702454,0.04144261032342911
1757089338030666800,7.715666748046875,-0.04513385146856308,0.17778553068637848,0.04150492697954178
1757089338040621800,7.725621826171875,-0.05822325125336647,0.0895528495311737,0.0630403384566307
1757089338050575600,7.73557568359375,-0.05257095769047737,0.030891669914126396,0.10548287630081177
1757089338060531000,7.745531005859375,-0.03671199083328247,0.016509462147951126,0.1664070338010788
1757089338070485000,7.755485107421875,-0.03400701656937599,0.007852325215935707,0.2149631232023239
1757089338080439800,7.765439697265625,-0.03595736622810364,0.0056535243056714535,0.2263309210538864
1757089338090394600,7.77539453125,-0.015489641577005386,0.032026540488004684,0.20619823038578033
1757089338100349000,7.785348876953125,0.014208076521754265,0.07919066399335861,0.18999969959259033
1757089338110304000,7.795303955078125,0.027579275891184807,0.14610257744789124,0.17675232887268066
1757089338120257800,7.8052578125,0.044146232306957245,0.22187113761901855,0.1750849038362503
1757089338130212900,7.815212890625,0.048468008637428284,0.2716328501701355,0.1821393519639969
1757089338140168000,7.82516796875,0.059571679681539536,0.29513663053512573,0.200875386595726
1757089338150122000,7.8351220703125,0.05936528742313385,0.3076170086860657,0.21605195105075836
1757089338160076800,7.845076904296875,0.05913914740085602,0.3254024088382721,0.2293408364057541
1757089338170030800,7.85503076171875,0.05140719190239906,0.3560522198677063,0.24047870934009552
1757089338179985700,7.864985595703125,0.04605746269226074,0.37175294756889343,0.244455024600029
1757089338189941000,7.87494091796875,0.03209344670176506,0.3994961678981781,0.2480556219816208
1757089338199894800,7.884894775390625,0.01836240664124489,0.4196762144565582,0.2515884041786194
1757089338209849900,7.894849853515625,0.005576304625719786,0.42024481296539307,0.2487313598394394
1757089338219804000,7.904803955078125,-0.005848310887813568,0.4139564037322998,0.251359224319458
1757089338229758700,7.9147587890625,-0.02343662455677986,0.41263067722320557,0.2563183009624481
1757089338239713800,7.9247138671875,-0.031021595001220703,0.41077178716659546,0.2647969126701355
1757089338249667800,7.934667724609375,-0.046317461878061295,0.3950570225715637,0.27941927313804626
1757089338259623000,7.944622802734375,-0.055249109864234924,0.36189067363739014,0.29129236936569214
1757089338269576700,7.95457666015625,-0.05751679092645645,0.30104225873947144,0.3085344731807709
1757089338279532000,7.964531982421875,-0.062475282698869705,0.23332025110721588,0.33301788568496704
1757089338289486800,7.97448681640625,-0.07807287573814392,0.1891019195318222,0.3520570695400238
1757089338299441000,7.98444091796875,-0.09689036756753922,0.1341739445924759,0.358378142118454
1757089338309395700,7.994395751953125,-0.08396577835083008,0.14084382355213165,0.355058491230011
1757089338319351000,8.00435107421875,-0.061044979840517044,0.12010523676872253,0.3307017982006073
1757089338329304800,8.014304931640625,-0.06579765677452087,0.09373195469379425,0.2888305187225342
1757089338339260000,8.024260009765625,-0.0641518235206604,0.022221822291612625,0.2296105921268463
1757089338349214000,8.0342138671875,-0.04325693100690842,-0.07829679548740387,0.1626211702823639
1757089338359168800,8.044168701171875,0.009503459557890892,-0.18289420008659363,0.10724299401044846
1757089338369123800,8.054123779296875,-0.0015087109059095383,-0.2370959222316742,0.07730799168348312
1757089338379078000,8.064077880859376,-0.02970801293849945,-0.2140577882528305,0.05379210039973259
1757089338389033000,8.074032958984375,-0.03399410471320152,-0.19338738918304443,0.04417542368173599
1757089338398986800,8.08398681640625,-0.05482082441449165,-0.17658232152462006,0.054423801600933075
1757089338408941800,8.09394189453125,-0.07943588495254517,-0.17216067016124725,0.08594204485416412
1757089338418897000,8.10389697265625,-0.09469333291053772,-0.21886581182479858,0.12348140776157379
1757089338428851000,8.113850830078125,-0.10900995135307312,-0.2879655361175537,0.16145889461040497
1757089338438805800,8.1238056640625,-0.11599638313055038,-0.32982000708580017,0.20870259404182434
1757089338448759800,8.133759765625,-0.12353206425905228,-0.3782522678375244,0.26308727264404297
1757089338458715000,8.14371484375,-0.12019237130880356,-0.4222921133041382,0.3179951608181
1757089338468670000,8.153669921875,-0.12598662078380585,-0.42814308404922485,0.3779122829437256
1757089338478623700,8.163623779296875,-0.13617339730262756,-0.38229265809059143,0.43363988399505615
1757089338488578800,8.173578857421875,-0.15670716762542725,-0.28643056750297546,0.46667852997779846
1757089338498532900,8.183532958984374,-0.18082132935523987,-0.17078988254070282,0.4554193615913391
1757089338508488000,8.193488037109375,-0.21389831602573395,-0.08512744307518005,0.4101184606552124
1757089338518442800,8.20344287109375,-0.22633008658885956,-0.08969182521104813,0.3409186899662018
1757089338528396800,8.213396728515624,-0.19105997681617737,-0.20194832980632782,0.25125589966773987
1757089338538351900,8.223351806640625,-0.11693484336137772,-0.3605462610721588,0.1345120072364807
1757089338548305700,8.2333056640625,-0.07683056592941284,-0.42516812682151794,-0.0038501322269439697
1757089338558261000,8.243260986328124,-0.023829404264688492,-0.4079580008983612,-0.14751675724983215
1757089338568215600,8.253215576171876,0.034156400710344315,-0.3329242169857025,-0.28235766291618347
1757089338578169600,8.263169677734375,0.11564252525568008,-0.24315938353538513,-0.40298885107040405
1757089338588124400,8.27312451171875,0.18742190301418304,-0.1485479325056076,-0.5104715824127197
1757089338598078500,8.283078369140625,0.24311301112174988,-0.031986359506845474,-0.6204903721809387
1757089338608033500,8.293033447265625,0.27423951029777527,0.0971633717417717,-0.735536515712738
1757089338617988600,8.302988525390624,0.27638787031173706,0.26262786984443665,-0.8487474322319031
1757089338627942700,8.312942626953125,0.25044578313827515,0.5067771673202515,-0.9283876419067383
1757089338637897500,8.3228974609375,0.21102985739707947,0.8044108748435974,-0.9933597445487976
1757089338647851800,8.332851806640624,0.11722001433372498,1.0397546291351318,-1.1130534410476685
1757089338657806600,8.342806640625,-0.010931395925581455,1.1007384061813354,-1.374695062637329
1757089338667761700,8.35276171875,-0.13989895582199097,0.9696642756462097,-1.7420933246612549
1757089338677715500,8.362715576171874,-0.24520792067050934,0.6680248379707336,-2.121953010559082
1757089338687670800,8.3726708984375,-0.32289260625839233,0.28815844655036926,-2.396284580230713
1757089338697624600,8.38262451171875,-0.3745890259742737,-0.12043318152427673,-2.5074071884155273
1757089338707579600,8.39257958984375,-0.41471222043037415,-0.4857062101364136,-2.4634130001068115
1757089338717534500,8.402534423828126,-0.46655866503715515,-0.7178280353546143,-2.2719759941101074
1757089338727488500,8.412488525390625,-0.5391095876693726,-0.7841604948043823,-2.0377938747406006
1757089338737443600,8.422443603515624,-0.5559777617454529,-0.7278451323509216,-1.8239867687225342
1757089338747397600,8.432397705078126,-0.5152937173843384,-0.6428455114364624,-1.6310828924179077
1757089338757352700,8.442352783203125,-0.4095235764980316,-0.5862721800804138,-1.4370694160461426
1757089338767307500,8.4523076171875,-0.30135902762413025,-0.4605235457420349,-1.2528049945831299
1757089338777261600,8.462261474609376,-0.21473032236099243,-0.1886831820011139,-1.1005241870880127
1757089338787216600,8.472216552734375,-0.14648576080799103,0.1876899152994156,-0.987909197807312
1757089338797170700,8.482170654296874,-0.07898285239934921,0.6040433645248413,-0.9579562544822693
1757089338807125500,8.49212548828125,-0.013747663237154484,0.9901455044746399,-1.0284538269042969
1757089338817080600,8.50208056640625,0.010554542765021324,1.3070722818374634,-1.173195242881775
1757089338827034600,8.51203466796875,-0.009179214015603065,1.5326217412948608,-1.326590657234192
1757089338836989700,8.52198974609375,-0.03290821611881256,1.7016891241073608,-1.4841194152832031
1757089338846943700,8.53194384765625,-0.044795501977205276,1.7719781398773193,-1.6558269262313843
1757089338856898600,8.541898681640625,-0.02743006870150566,1.7498152256011963,-1.8414275646209717
1757089338866853600,8.551853515625,0.012186316773295403,1.6576319932937622,-2.0163674354553223
1757089338876807700,8.5618076171875,0.07505879551172256,1.575079083442688,-2.1398801803588867
1757089338886762500,8.571762451171875,0.15675632655620575,1.541150689125061,-2.178663492202759
1757089338896716500,8.581716552734376,0.23755115270614624,1.5500866174697876,-2.1431360244750977
1757089338906671600,8.591671630859375,0.3103340268135071,1.5307132005691528,-2.0345656871795654
1757089338916626700,8.601626708984375,0.3647175133228302,1.5084381103515625,-1.7874250411987305
1757089338926580700,8.611580810546876,0.3710012435913086,1.3659321069717407,-1.3978337049484253
1757089338936535600,8.62153564453125,0.38067886233329773,1.1848301887512207,-1.005230188369751
1757089338946489600,8.631489501953125,0.39190754294395447,0.9049512147903442,-0.6720951795578003
1757089338956444400,8.6414443359375,0.4053691625595093,0.6913880109786987,-0.4066839814186096
1757089338966399700,8.651399658203125,0.38760507106781006,0.5793576240539551,-0.2053987979888916
1757089338976353500,8.661353515625,0.3620244562625885,0.5787632465362549,-0.07452656328678131
1757089338986308600,8.67130859375,0.3452739715576172,0.6017899513244629,0.007565373554825783
1757089338996262700,8.6812626953125,0.33313488960266113,0.5952965021133423,0.07751219719648361
1757089339006217700,8.6912177734375,0.32307904958724976,0.5421054363250732,0.17303605377674103
1757089339016172500,8.701172607421874,0.31802240014076233,0.4610912799835205,0.30845174193382263
1757089339026126600,8.711126708984375,0.31644871830940247,0.38512593507766724,0.4708954989910126
1757089339036081700,8.72108154296875,0.315222829580307,0.32874348759651184,0.6437967419624329
1757089339046035500,8.731035400390626,0.31975340843200684,0.29893845319747925,0.8242748975753784
1757089339055990800,8.74099072265625,0.332652747631073,0.28363123536109924,1.001032829284668
1757089339065945600,8.750945556640625,0.35309064388275146,0.2993984818458557,1.1685160398483276
1757089339075899600,8.760899658203124,0.3547605276107788,0.296447217464447,1.3186407089233398
1757089339085854500,8.7708544921875,0.3560979664325714,0.2924591600894928,1.4206504821777344
1757089339095808500,8.78080859375,0.353027880191803,0.29412388801574707,1.4478317499160767
1757089339105763600,8.790763671875,0.36882203817367554,0.291625052690506,1.393320083618164
1757089339115718700,8.80071875,0.4096165895462036,0.3295958638191223,1.2600957155227661
1757089339125672700,8.810672607421875,0.42501500248908997,0.42810937762260437,1.0443055629730225
1757089339135627500,8.82062744140625,0.3853892385959625,0.48519274592399597,0.7673895359039307
1757089339145581600,8.83058154296875,0.3511923849582672,0.5461738109588623,0.44611987471580505
1757089339155536600,8.84053662109375,0.3193283677101135,0.627980649471283,0.07771966606378555
1757089339165491500,8.850491455078124,0.2734024226665497,0.696649968624115,-0.35540273785591125
1757089339175445500,8.860445556640625,0.23906894028186798,0.6973409652709961,-0.7896776795387268
1757089339185400600,8.870400634765625,0.24421656131744385,0.5879937410354614,-1.1240681409835815
1757089339195354600,8.880354736328124,0.26157116889953613,0.4048023819923401,-1.3126815557479858
1757089339205309700,8.890309814453126,0.2505992352962494,0.15830522775650024,-1.3222938776016235
1757089339215264500,8.900264404296875,0.2863641679286957,0.09957302361726761,-1.2314785718917847
1757089339225218600,8.910218505859374,0.26895081996917725,0.24846875667572021,-1.095179557800293
1757089339235173600,8.920173583984376,0.18097180128097534,0.5341881513595581,-0.9641303420066833
1757089339245127700,8.930127685546875,0.0793256089091301,0.7926287651062012,-0.8648756742477417
1757089339255082500,8.94008251953125,0.06026805564761162,1.0109195709228516,-0.7435410022735596
1757089339265037600,8.95003759765625,0.08285912126302719,1.2577999830245972,-0.5058158040046692
1757089339274991600,8.95999169921875,0.09933427721261978,1.28447425365448,-0.2863349914550781
1757089339284946700,8.96994677734375,0.10171780735254288,1.1715948581695557,-0.19784748554229736
1757089339294901500,8.979901611328126,0.10757166892290115,1.0973416566848755,-0.19811934232711792
1757089339304855600,8.98985546875,0.11186282336711884,1.0125458240509033,-0.20974723994731903
1757089339314810600,8.999810546875,0.0927131250500679,0.793848991394043,-0.177716925740242
1757089339324764400,9.009764404296876,0.03535475954413414,0.37132275104522705,-0.05959346890449524
1757089339334719700,9.0197197265625,-0.03684951364994049,-0.22917543351650238,0.13570690155029297
1757089339344674600,9.029674560546875,-0.10444426536560059,-0.9298185110092163,0.35691168904304504
1757089339354628600,9.039628662109376,-0.09805278480052948,-1.4823155403137207,0.47309884428977966
1757089339364583400,9.04958349609375,0.013886535540223122,-1.7827379703521729,0.32304731011390686
1757089339374537700,9.059537841796875,0.200703427195549,-1.6985104084014893,-0.010806280188262463
1757089339384492500,9.069492431640626,0.24181438982486725,-1.4406911134719849,-0.20747433602809906
1757089339394447600,9.079447509765625,0.1887916624546051,-1.2296624183654785,-0.13886742293834686
1757089339404401700,9.089401611328125,0.09027174115180969,-0.9803248047828674,0.13969069719314575
1757089339414356700,9.099356689453124,0.032899968326091766,-0.721379816532135,0.5038784742355347
1757089339424310800,9.109310791015625,0.016815274953842163,-0.5745882391929626,0.8284733891487122
1757089339434265600,9.119265625,-0.0447155237197876,-0.496194988489151,1.0736429691314697
1757089339444219600,9.1292197265625,-0.16177690029144287,-0.48193269968032837,1.316231369972229
1757089339454174500,9.139174560546875,-0.24517619609832764,-0.7090017795562744,1.6215667724609375
1757089339464129800,9.1491298828125,-0.2435189038515091,-1.1561249494552612,1.9651212692260742
1757089339474083600,9.15908349609375,-0.11950099468231201,-1.6236388683319092,2.2068355083465576
1757089339484038700,9.16903857421875,0.09743371605873108,-1.822206735610962,2.2916243076324463
1757089339493992400,9.178992431640625,0.30344700813293457,-1.8450168371200562,2.189276933670044
1757089339503947500,9.188947509765624,0.4646798372268677,-1.6938470602035522,1.9364160299301147
1757089339513902600,9.198902587890625,0.5229227542877197,-1.3947021961212158,1.5762981176376343
1757089339523856600,9.208856689453125,0.5099102854728699,-1.1141083240509033,1.215119481086731
1757089339533811500,9.2188115234375,0.46657127141952515,-0.9084216952323914,0.9881515502929688
1757089339543765500,9.228765625,0.400452196598053,-0.7374555468559265,0.9751843214035034
1757089339553720800,9.238720947265625,0.3146941363811493,-0.669380784034729,1.0666084289550781
1757089339563675000,9.2486748046875,0.25590991973876953,-0.6754844784736633,1.1748446226119995
1757089339573629000,9.25862890625,0.22719578444957733,-0.7254686951637268,1.2278592586517334
1757089339583584000,9.268583984375,0.18665289878845215,-0.7801934480667114,1.209496259689331
1757089339593538000,9.2785380859375,0.1622077226638794,-0.7459940314292908,1.1182626485824585
1757089339603492900,9.288492919921875,0.16384530067443848,-0.6675927042961121,0.9817233681678772
1757089339613448000,9.298447998046875,0.17796270549297333,-0.6578491926193237,0.9055113196372986
1757089339623402200,9.30840234375,0.12225496768951416,-0.7148571014404297,0.8588820695877075
1757089339633357000,9.318357177734375,0.020404089242219925,-0.7054927945137024,0.857763409614563
1757089339643311000,9.32831103515625,-0.07315089553594589,-0.5817487835884094,0.8950886726379395
1757089339653266000,9.338265869140624,-0.15344509482383728,-0.45489901304244995,0.9528229236602783
1757089339663221200,9.34822119140625,-0.18113477528095245,-0.5572951436042786,0.9961224794387817
1757089339673175000,9.358175048828125,-0.1997472047805786,-0.7879669666290283,1.0280238389968872
1757089339683130000,9.368130126953124,-0.21222065389156342,-0.980695366859436,1.058520793914795
1757089339693084000,9.378083984375,-0.23966054618358612,-1.0889379978179932,1.1025515794754028
1757089339703039000,9.3880390625,-0.27158254384994507,-1.0633796453475952,1.1424121856689453
1757089339712994000,9.397994140625,-0.3103533387184143,-0.9247297644615173,1.1454825401306152
1757089339722948000,9.407947998046875,-0.3533886969089508,-0.7167701721191406,1.100304126739502
1757089339732903000,9.41790283203125,-0.41117480397224426,-0.49789783358573914,1.0285093784332275
1757089339742857000,9.42785693359375,-0.4790414571762085,-0.28531208634376526,0.9722892045974731
1757089339752812000,9.43781201171875,-0.5314530730247498,-0.0952516570687294,0.954718828201294
1757089339762767000,9.44776708984375,-0.595101535320282,-0.021123364567756653,0.9722639918327332
1757089339772721200,9.45772119140625,-0.6700937151908875,-0.1067967340350151,0.9989158511161804
1757089339782676000,9.467676025390626,-0.6915649175643921,-0.360895574092865,1.0196465253829956
1757089339792630000,9.477630126953125,-0.6478326320648193,-0.6973087787628174,1.0224878787994385
1757089339802585000,9.487585205078124,-0.6217250823974609,-0.8862739205360413,0.9719719290733337
1757089339812540200,9.4975400390625,-0.5546789765357971,-0.8724808692932129,0.8509551286697388
1757089339822494000,9.507493896484375,-0.4556804895401001,-0.7929303646087646,0.7011662125587463
1757089339832449000,9.517448974609374,-0.35127002000808716,-0.7688814997673035,0.574904203414917
1757089339842402800,9.52740283203125,-0.25710541009902954,-0.8096108436584473,0.4899994134902954
1757089339852358100,9.537358154296875,-0.16798244416713715,-0.8088076114654541,0.41366899013519287
1757089339862313000,9.54731298828125,-0.08957365155220032,-0.6992875337600708,0.32031533122062683
1757089339872267000,9.55726708984375,-0.009936772286891937,-0.565874457359314,0.22970883548259735
1757089339882221800,9.567221923828125,0.08605074137449265,-0.4126273989677429,0.22298674285411835
1757089339892176000,9.57717578125,0.1585656851530075,-0.3228105902671814,0.24979323148727417
1757089339902131200,9.587131103515626,0.17530445754528046,-0.3081999719142914,0.22259171307086945
1757089339912086000,9.5970859375,0.19475066661834717,-0.3672753870487213,0.19830647110939026
1757089339922040000,9.6070400390625,0.13923333585262299,-0.48043790459632874,0.18590067327022552
1757089339931995000,9.616994873046876,0.0706821158528328,-0.5945906639099121,0.13178052008152008
1757089339941949200,9.62694921875,0.0748843178153038,-0.633088231086731,0.004044389817863703
1757089339951904000,9.636904052734375,0.11380887031555176,-0.5021580457687378,-0.19997596740722656
1757089339961859000,9.646859130859376,0.1258695274591446,-0.28746283054351807,-0.45185187458992004
1757089339971812900,9.656812744140625,0.1463107317686081,-0.12440259009599686,-0.7127984166145325
1757089339981768200,9.666768310546875,0.21993409097194672,-0.060665421187877655,-0.9585293531417847
1757089339991722000,9.676721923828126,0.3146814703941345,-0.012811688706278801,-1.1738591194152832
1757089340001677000,9.686677001953125,0.40228164196014404,0.0689510852098465,-1.3483315706253052
1757089340011631900,9.6966318359375,0.5079609751701355,0.19686400890350342,-1.4875454902648926
1757089340021586000,9.7065859375,0.6057091355323792,0.3782404661178589,-1.6252766847610474
1757089340031541000,9.716541015625,0.5718175768852234,0.5147120952606201,-1.8027609586715698
1757089340041495000,9.7264951171875,0.43112096190452576,0.5775110125541687,-2.112731456756592
1757089340051450000,9.7364501953125,0.34698939323425293,0.5948074460029602,-2.4450526237487793
1757089340061405000,9.746405029296875,0.2771490812301636,0.6461976766586304,-2.653210401535034
1757089340071359000,9.75635888671875,0.1338004171848297,0.637590765953064,-2.710291624069214
1757089340081314000,9.76631396484375,-0.016272172331809998,0.4713088870048523,-2.664371967315674
1757089340091268000,9.77626806640625,-0.06710069626569748,0.23554480075836182,-2.5373754501342773
1757089340101223000,9.786222900390625,-0.0707971602678299,0.03693317994475365,-2.309321880340576
1757089340111177000,9.796177001953126,-0.20429129898548126,-0.20717890560626984,-2.1366794109344482
1757089340121132000,9.806132080078125,-0.29511547088623047,-0.3960905075073242,-2.096713066101074
1757089340131087000,9.816087158203125,-0.26749885082244873,-0.5431252717971802,-2.1829898357391357
1757089340141041200,9.826041259765624,-0.18792521953582764,-0.4941784739494324,-2.2057952880859375
1757089340150996000,9.835995849609375,-0.12928450107574463,-0.21582719683647156,-2.041193962097168
1757089340160950000,9.845949951171875,-0.08200167864561081,0.349709153175354,-1.802791714668274
1757089340170905000,9.855905029296874,-0.005485778674483299,1.0744645595550537,-1.686127781867981
1757089340180860200,9.865860107421875,-0.022625617682933807,1.579379677772522,-1.7271708250045776
1757089340190814000,9.87581396484375,-0.10225608944892883,1.857028841972351,-1.8185601234436035
1757089340200769000,9.88576904296875,-0.21331417560577393,1.9932202100753784,-1.9191324710845947
1757089340210722800,9.895722900390625,-0.31557196378707886,2.0655882358551025,-2.014829158782959
1757089340220678100,9.90567822265625,-0.34185150265693665,2.0228636264801025,-2.0880324840545654
1757089340230633000,9.915633056640624,-0.2376895397901535,1.7809712886810303,-2.1604533195495605
1757089340240587000,9.9255869140625,-0.09138213098049164,1.4532575607299805,-2.226940155029297
1757089340250541800,9.935541748046875,0.051808662712574005,1.2119321823120117,-2.2153544425964355
1757089340260496000,9.945495849609374,0.17631970345973969,1.0498369932174683,-2.034219264984131
1757089340270451000,9.955450927734375,0.27423062920570374,0.948642909526825,-1.6556528806686401
1757089340280406000,9.965406005859375,0.28808093070983887,0.956259548664093,-1.1985678672790527
1757089340290360000,9.975360107421874,0.23558172583580017,0.9303438663482666,-0.751772940158844
1757089340300315000,9.98531494140625,0.20716819167137146,0.7703129053115845,-0.4014940559864044
1757089340310269200,9.995269287109375,0.21368977427482605,0.5830248594284058,-0.13523763418197632
1757089340320224000,10.00522412109375,0.2284386307001114,0.45776575803756714,0.05645163729786873
1757089340330179000,10.015178955078126,0.22815300524234772,0.3992300033569336,0.19456399977207184
1757089340340132900,10.0251328125,0.22628453373908997,0.36830246448516846,0.31989237666130066
1757089340350088200,10.035088134765624,0.2411632090806961,0.3250342607498169,0.48445257544517517
1757089340360042000,10.0450419921875,0.26969847083091736,0.26689451932907104,0.6850496530532837
1757089340369997000,10.0549970703125,0.3114229738712311,0.1893126368522644,0.9005851149559021
1757089340379951000,10.064951171875,0.3575388193130493,0.11227884143590927,1.1046825647354126
1757089340389906000,10.074906005859376,0.4115040600299835,0.0345919206738472,1.2979741096496582
1757089340399861000,10.084861083984375,0.4709436893463135,-0.04279208183288574,1.4752507209777832
1757089340409815000,10.09481494140625,0.5270587801933289,-0.13321855664253235,1.6318100690841675
1757089340419770000,10.10477001953125,0.5727080702781677,-0.21401327848434448,1.7768702507019043
1757089340429725000,10.114724853515625,0.5902841091156006,-0.26547539234161377,1.9201068878173828
1757089340439679000,10.124678955078124,0.5634958744049072,-0.3066750466823578,2.0162150859832764
1757089340449634000,10.134634033203126,0.49125370383262634,-0.3212442398071289,2.016768455505371
1757089340459588000,10.144588134765625,0.43776196241378784,-0.24970535933971405,1.8885868787765503
1757089340469543000,10.15454296875,0.39683911204338074,-0.09287963062524796,1.6058305501937866
1757089340479497000,10.1644970703125,0.30290594696998596,0.04275382310152054,1.2178319692611694
1757089340489452000,10.1744521484375,0.18499568104743958,0.1328531950712204,0.7872094511985779
1757089340499407000,10.184406982421875,-0.0006815183442085981,0.18381385505199432,0.3406814634799957
1757089340509361200,10.194361083984376,-0.13704827427864075,0.479914128780365,-0.20201018452644348
1757089340519316000,10.20431591796875,-0.11100441217422485,1.0506854057312012,-0.8662161231040955
1757089340529270000,10.21427001953125,0.08867056667804718,1.4509073495864868,-1.5743783712387085
1757089340539225000,10.22422509765625,0.2532411217689514,1.3477929830551147,-2.0506463050842285
1757089340549180000,10.234179931640625,0.31604087352752686,1.037546157836914,-2.1997296810150146
1757089340559134000,10.244134033203125,0.2894830107688904,0.8907318711280823,-1.9389429092407227
1757089340569089000,10.254089111328126,0.1572856456041336,0.9948377013206482,-1.43152916431427
1757089340579042800,10.264042724609375,-0.010596822947263718,1.0940806865692139,-0.9363026022911072
1757089340588998100,10.273998046875,-0.10026772320270538,1.1326417922973633,-0.5815548896789551
1757089340598953000,10.283952880859376,-0.07706759124994278,1.1197340488433838,-0.3713877499103546
1757089340608907000,10.293906982421875,-0.020818330347537994,1.026243805885315,-0.27247825264930725
1757089340618861800,10.30386181640625,0.040443163365125656,0.7793149352073669,-0.2649782598018646
1757089340628816000,10.31381591796875,0.09014637768268585,0.4523423910140991,-0.1715090125799179
1757089340638771000,10.32377099609375,0.13480359315872192,-0.078746497631073,0.10513856261968613
1757089340648726000,10.33372607421875,0.16376283764839172,-0.7717138528823853,0.4957191050052643
1757089340658680000,10.34368017578125,0.19472821056842804,-1.3174468278884888,0.808533787727356
1757089340668635000,10.353634765625,0.24525369703769684,-1.6121257543563843,0.8041033744812012
1757089340678589000,10.3635888671875,0.37844929099082947,-1.534841537475586,0.47233742475509644
1757089340688544000,10.3735439453125,0.39475691318511963,-1.440932273864746,0.0290189478546381
1757089340698499000,10.3834990234375,0.3412811756134033,-1.2635971307754517,-0.1072414219379425
1757089340708452900,10.393452880859375,0.22403040528297424,-1.1109546422958374,0.11019697040319443
1757089340718408000,10.403407958984374,0.186897411942482,-0.8527747988700867,0.4510965049266815
1757089340728362000,10.413362060546875,0.15673859417438507,-0.6694607734680176,0.7668063044548035
1757089340738317000,10.423317138671875,0.015499967150390148,-0.4250541627407074,1.0176942348480225
1757089340748271900,10.43327197265625,-0.24480989575386047,-0.09761180728673935,1.2124418020248413
1757089340758226000,10.443225830078125,-0.47672832012176514,0.05430102348327637,1.4068889617919922
1757089340768181000,10.453180908203125,-0.5687878727912903,-0.26393434405326843,1.568761944770813
1757089340778135000,10.463135009765624,-0.4224676787853241,-0.9201534986495972,1.7149444818496704
1757089340788090000,10.473090087890625,-0.1723383516073227,-1.6692017316818237,1.7831395864486694
1757089340798045000,10.483044921875,0.12104825675487518,-2.153003454208374,1.7861074209213257
1757089340807999000,10.4929990234375,0.3636169135570526,-2.240034818649292,1.7246177196502686
1757089340817954000,10.5029541015625,0.47631949186325073,-1.9650416374206543,1.5696529150009155
1757089340827908000,10.512908203125,0.5296071767807007,-1.5215649604797363,1.3537373542785645
1757089340837863000,10.52286279296875,0.5564560890197754,-1.0710570812225342,1.21403968334198
1757089340847817000,10.53281689453125,0.5135567784309387,-0.766119122505188,1.1620769500732422
1757089340857771800,10.542771728515625,0.4464486241340637,-0.6132084131240845,1.1591027975082397
1757089340867727000,10.55272705078125,0.383735716342926,-0.5138123631477356,1.14265775680542
1757089340877681000,10.562680908203125,0.3256532549858093,-0.44914811849594116,1.0944281816482544
1757089340887636000,10.572635986328125,0.27200591564178467,-0.40397822856903076,0.9971412420272827
1757089340897590000,10.582590087890624,0.21922527253627777,-0.37043195962905884,0.8780511021614075
1757089340907545000,10.592545166015626,0.16679906845092773,-0.3438257575035095,0.7690011262893677
1757089340917500000,10.6025,0.0890510156750679,-0.2581811547279358,0.6272495985031128
1757089340927454000,10.612453857421874,0.03464848920702934,-0.17716644704341888,0.521062970161438
1757089340937409000,10.622408935546876,-0.027140844613313675,-0.22774307429790497,0.5111645460128784
1757089340947362800,10.63236279296875,-0.0930083692073822,-0.4007554352283478,0.5599082112312317
1757089340957318100,10.642318115234374,-0.11751584708690643,-0.6739475727081299,0.6415362358093262
1757089340967273000,10.65227294921875,-0.1280631572008133,-0.9424704909324646,0.7178918123245239
1757089340977227000,10.66222705078125,-0.16317905485630035,-1.083670973777771,0.7846713662147522
1757089340987181800,10.672181884765624,-0.18571221828460693,-1.0614597797393799,0.85017991065979
1757089340997136000,10.682135986328126,-0.21921584010124207,-0.9788711667060852,0.8671631813049316
1757089341007091000,10.692091064453125,-0.2579415738582611,-0.8701187968254089,0.829291582107544
1757089341017046000,10.7020458984375,-0.3221099078655243,-0.7066633105278015,0.7415705323219299
1757089341027000000,10.712,-0.36494365334510803,-0.5693198442459106,0.6524326205253601
1757089341036955000,10.721954833984375,-0.4181320369243622,-0.4770791232585907,0.6009113788604736
1757089341046909200,10.7319091796875,-0.45477840304374695,-0.4304879605770111,0.6095633506774902
1757089341056864000,10.741864013671876,-0.498028427362442,-0.4223426878452301,0.6597724556922913
1757089341066818000,10.751818115234375,-0.5430967807769775,-0.43025362491607666,0.7287613749504089
1757089341076772900,10.76177294921875,-0.5974015593528748,-0.47383251786231995,0.7798711657524109
1757089341086728000,10.77172802734375,-0.6346936225891113,-0.5528180599212646,0.8075956106185913
1757089341096682000,10.781681884765625,-0.6270011067390442,-0.6236741542816162,0.8263139128684998
1757089341106637000,10.791636962890625,-0.6348204016685486,-0.6377817392349243,0.8337957859039307
1757089341116591900,10.801591796875,-0.6504718065261841,-0.5873726010322571,0.8097549080848694
1757089341126546000,10.8115458984375,-0.6175916790962219,-0.5227046012878418,0.7757886648178101
1757089341136501000,10.8215009765625,-0.5773595571517944,-0.4314655363559723,0.7236937880516052
1757089341146455000,10.831455078125,-0.5069763660430908,-0.4323304295539856,0.6214072704315186
1757089341156409900,10.841409912109375,-0.42116206884384155,-0.39485204219818115,0.5144145488739014
1757089341166364000,10.851364013671875,-0.3169707953929901,-0.23603932559490204,0.4256746470928192
1757089341176319000,10.861319091796876,-0.17694446444511414,-0.011012336239218712,0.4103124439716339
1757089341186274000,10.871274169921875,-0.02099178358912468,0.15523123741149902,0.4761926829814911
1757089341196228000,10.88122802734375,0.10993161052465439,0.12982387840747833,0.5609581470489502
1757089341206183000,10.891182861328126,0.18437349796295166,-0.031641632318496704,0.5879319310188293
1757089341216137000,10.901136962890625,0.19841422140598297,-0.22922688722610474,0.5460782051086426
1757089341226091800,10.911091796875,0.20334875583648682,-0.5153889656066895,0.4810743033885956
1757089341236047000,10.921047119140624,0.21177418529987335,-0.7778107523918152,0.39109861850738525
1757089341246001000,10.9310009765625,0.21013519167900085,-0.8223913908004761,0.23972517251968384
1757089341255956000,10.9409560546875,0.1999158412218094,-0.6215882301330566,0.011933548375964165
1757089341265910000,10.950909912109376,0.18536819517612457,-0.3504539728164673,-0.24854594469070435
1757089341275865000,10.960864990234375,0.18570561707019806,-0.15359044075012207,-0.5341334939002991
1757089341285820000,10.97081982421875,0.2725919783115387,-0.03772258758544922,-0.8057302236557007
1757089341295774000,10.98077392578125,0.3252463936805725,0.10222040861845016,-1.0470082759857178
1757089341305729000,10.99072900390625,0.39460447430610657,0.247571662068367,-1.2508835792541504
1757089341315682800,11.000682861328125,0.4441230297088623,0.4116559326648712,-1.388083815574646
1757089341325638100,11.01063818359375,0.4823145270347595,0.5422221422195435,-1.4885057210922241
1757089341335593000,11.020593017578125,0.49983254075050354,0.5568194389343262,-1.6889245510101318
1757089341345547000,11.030547119140625,0.4013001024723053,0.5867505073547363,-1.9798569679260254
1757089341355501800,11.040501708984374,0.1939450353384018,0.6355382800102234,-2.230901002883911
1757089341365456000,11.050455810546875,0.07144463062286377,0.6242923140525818,-2.3812971115112305
1757089341375411000,11.060410888671875,0.03613058105111122,0.5227918028831482,-2.4593889713287354
1757089341385365000,11.070364990234374,-0.021837787702679634,0.4000818729400635,-2.4809930324554443
1757089341395320000,11.080320068359375,-0.09621481597423553,0.3203851878643036,-2.4002130031585693
1757089341405275000,11.09027490234375,-0.12324810028076172,0.2800302803516388,-2.2674245834350586
1757089341415229200,11.100229248046874,-0.20012584328651428,0.1405453383922577,-2.174278736114502
1757089341425184000,11.11018408203125,-0.25297611951828003,-0.05360054597258568,-2.1192708015441895
1757089341435138000,11.120137939453125,-0.2535193860530853,-0.21218378841876984,-2.059314727783203
1757089341445092900,11.1300927734375,-0.231947124004364,-0.2483200579881668,-1.9756102561950684
1757089341455048200,11.140048095703126,-0.19263753294944763,-0.13190343976020813,-1.8377379179000854
1757089341465002000,11.150001953125,-0.15815764665603638,0.15994223952293396,-1.6441880464553833
1757089341474957000,11.15995703125,-0.052485283464193344,0.707668125629425,-1.468227505683899
1757089341484910800,11.169910888671875,0.05769107863306999,1.3094419240951538,-1.4018235206604004
1757089341494866000,11.179865966796875,0.08259136229753494,1.8606292009353638,-1.4314697980880737
1757089341504821000,11.189821044921874,-0.0014963182620704174,2.169719934463501,-1.5075877904891968
1757089341514775000,11.199775146484376,-0.08550253510475159,2.2120978832244873,-1.6115261316299438
1757089341524729900,11.209729736328125,-0.09393762052059174,2.0774145126342773,-1.7483537197113037
1757089341534684000,11.219683837890624,-0.0260898657143116,1.785165548324585,-1.9291359186172485
1757089341544639000,11.229638916015626,0.09376310557126999,1.5353213548660278,-2.0604910850524902
1757089341554594000,11.239593994140625,0.203512504696846,1.3625445365905762,-2.1118648052215576
1757089341564548000,11.249548095703124,0.3162631392478943,1.197283148765564,-1.9027916193008423
1757089341574502700,11.259502685546876,0.3447802662849426,1.036576747894287,-1.5197463035583496
1757089341584456700,11.269456787109375,0.29167231917381287,0.8993028998374939,-1.0569571256637573
1757089341594411500,11.27941162109375,0.195614755153656,0.6804328560829163,-0.5949921011924744
1757089341604365600,11.289365478515625,0.1513184905052185,0.5415163040161133,-0.20525190234184265
1757089341614320600,11.299320556640625,0.1590035855770111,0.4407287538051605,0.059907861053943634
1757089341624275700,11.309275634765624,0.17259064316749573,0.3505212962627411,0.20062056183815002
1757089341634229800,11.319229736328126,0.16583499312400818,0.3444002866744995,0.26597294211387634
1757089341644184600,11.3291845703125,0.1515917330980301,0.39023685455322266,0.32356154918670654
1757089341654138600,11.339138671875,0.15124818682670593,0.42841485142707825,0.4210579991340637
1757089341664093700,11.34909375,0.173958882689476,0.44009336829185486,0.5869127511978149
1757089341674048800,11.359048828125,0.20439162850379944,0.44051361083984375,0.8156958818435669
1757089341684002600,11.36900244140625,0.2502761483192444,0.42304766178131104,1.0562140941619873
1757089341693957600,11.37895751953125,0.30334389209747314,0.3635166883468628,1.2835683822631836
1757089341703911400,11.388911376953125,0.34864160418510437,0.2540138065814972,1.4796346426010132
1757089341713866800,11.39886669921875,0.38271620869636536,0.12002699077129364,1.6460773944854736
1757089341723821600,11.408821533203126,0.4102519750595093,-0.006921214517205954,1.7923691272735596
1757089341733775600,11.418775634765625,0.39511749148368835,-0.11532998085021973,1.916731595993042
1757089341743730400,11.42873046875,0.3616013824939728,-0.20621943473815918,2.0084075927734375
1757089341753684700,11.438684814453126,0.3817194104194641,-0.1993870884180069,2.058237314224243
1757089341763639800,11.448639892578125,0.4470776617527008,-0.22553861141204834,1.9771804809570312
1757089341773593600,11.458593505859374,0.5451917052268982,-0.275248646736145,1.758375644683838
1757089341783548700,11.468548583984376,0.5572763085365295,-0.24674475193023682,1.4434030055999756
1757089341793503700,11.478503662109375,0.45390281081199646,-0.16756871342658997,1.0067218542099
1757089341803457800,11.488457763671875,0.2679879069328308,0.06524582207202911,0.44895851612091064
1757089341813412600,11.49841259765625,0.06750993430614471,0.468705415725708,-0.17557218670845032
1757089341823366700,11.50836669921875,-0.01207881048321724,0.8059074282646179,-0.8352308869361877
1757089341833321500,11.518321533203125,0.09082227200269699,0.7413934469223022,-1.3104407787322998
1757089341843276800,11.52827685546875,0.1517624855041504,0.42189908027648926,-1.4215056896209717
1757089341853230600,11.538230712890625,0.19467639923095703,0.07302869856357574,-1.3050888776779175
1757089341863185700,11.548185546875,0.22929450869560242,-0.09410179406404495,-1.104124903678894
1757089341873139700,11.5581396484375,0.21374297142028809,0.0825459435582161,-0.8608208298683167
1757089341883094500,11.568094482421875,0.16352643072605133,0.4031144976615906,-0.6175935864448547
1757089341893049600,11.578049560546875,0.12399207055568695,0.7116563320159912,-0.41663679480552673
1757089341903003600,11.588003662109376,0.09807053953409195,0.9076991081237793,-0.2630176842212677
1757089341912958700,11.597958740234375,0.0695214495062828,0.962409496307373,-0.14771851897239685
1757089341922912500,11.60791259765625,0.024796199053525925,0.8837260007858276,-0.04282151162624359
1757089341932867600,11.61786767578125,-0.02824385091662407,0.6889677047729492,0.04810413345694542
1757089341942822700,11.62782275390625,-0.08290140330791473,0.41437283158302307,0.1360933631658554
1757089341952776700,11.637776611328125,-0.13276536762714386,0.036999985575675964,0.22089053690433502
1757089341962731500,11.6477314453125,-0.16370832920074463,-0.4472552239894867,0.29484423995018005
1757089341972685600,11.657685546875,-0.17199954390525818,-0.9469448924064636,0.34148046374320984
1757089341982640600,11.667640625,-0.07817880809307098,-1.3433175086975098,0.2621014416217804
1757089341992594700,11.6775947265625,0.1098313108086586,-1.5200214385986328,0.030917765572667122
1757089342002549800,11.6875498046875,0.12504130601882935,-1.5111415386199951,-0.22240911424160004
1757089342012504600,11.697504638671875,0.04264763370156288,-1.5016967058181763,-0.35508060455322266
1757089342022458600,11.707458740234374,0.026222936809062958,-1.4481090307235718,-0.23783719539642334
1757089342032413700,11.71741357421875,0.05264841765165329,-1.2751179933547974,0.1312580108642578
1757089342042367700,11.72736767578125,0.06564651429653168,-1.204818844795227,0.6146214604377747
1757089342052322600,11.737322509765624,0.0773838609457016,-1.3039484024047852,1.1626733541488647
1757089342062277600,11.747277587890625,0.05479733645915985,-1.4057834148406982,1.6861048936843872
1757089342072231400,11.7572314453125,-0.04313109070062637,-1.4830377101898193,2.0995607376098633
1757089342082186800,11.767186767578124,-0.18430104851722717,-1.4850683212280273,2.3796796798706055
1757089342092140800,11.777140869140625,-0.1914963722229004,-1.5026280879974365,2.48811674118042
1757089342102095600,11.787095703125,0.002681092359125614,-1.7555407285690308,2.3083505630493164
1757089342112050400,11.797050537109374,0.2771241068840027,-2.128365993499756,1.858422875404358
1757089342122004700,11.807004638671875,0.42522791028022766,-2.5420877933502197,1.310736894607544
1757089342131959600,11.81695947265625,0.44427165389060974,-2.8075766563415527,0.826617956161499
1757089342141913600,11.82691357421875,0.46621376276016235,-2.826935052871704,0.6005204319953918
1757089342151868700,11.83686865234375,0.44764408469200134,-2.6924960613250732,0.6751230359077454
1757089342161823700,11.84682373046875,0.4173213243484497,-2.3049604892730713,0.9356406927108765
1757089342171777800,11.85677783203125,0.34631213545799255,-1.9016693830490112,1.2275375127792358
1757089342181732600,11.866732666015626,0.28928467631340027,-1.744585394859314,1.432887077331543
1757089342191686700,11.876686767578125,0.26022613048553467,-1.86785888671875,1.453824758529663
1757089342201641500,11.886641357421874,0.22328457236289978,-2.066070795059204,1.3297902345657349
1757089342211595500,11.896595458984375,0.1886773407459259,-2.1415112018585205,1.1570264101028442
1757089342221550600,11.906550537109375,0.1813209503889084,-2.010305166244507,1.0059081315994263
1757089342231505700,11.916505615234374,0.13263170421123505,-1.6287630796432495,0.8530637621879578
1757089342241459700,11.926459716796876,0.09256169199943542,-1.2221331596374512,0.6846299171447754
1757089342251414500,11.93641455078125,0.05438581109046936,-0.9683009386062622,0.6149100065231323
1757089342261368800,11.946368896484374,-0.0222146175801754,-0.8647085428237915,0.6372134685516357
1757089342271323600,11.95632373046875,-0.08281005918979645,-0.9082744121551514,0.682618260383606
1757089342281278700,11.96627880859375,-0.10837928205728531,-1.1947253942489624,0.7026730179786682
1757089342291232500,11.976232421875,-0.10152696818113327,-1.5651623010635376,0.7583799362182617
1757089342301187800,11.986187744140626,-0.11803606897592545,-1.7029764652252197,0.8949447870254517
1757089342311141600,11.9961416015625,-0.1448945701122284,-1.6526744365692139,1.0571824312210083
1757089342321096700,12.0060966796875,-0.18357712030410767,-1.5883268117904663,1.157694697380066
1757089342331051500,12.016051513671876,-0.2370014637708664,-1.5509142875671387,1.1640008687973022
1757089342341005600,12.026005615234375,-0.2870023846626282,-1.5584357976913452,1.0922183990478516
1757089342350960600,12.035960693359375,-0.32376495003700256,-1.566295862197876,0.9995015859603882
1757089342360914700,12.045914794921876,-0.3782031536102295,-1.4702482223510742,0.9140994548797607
1757089342370869800,12.055869873046875,-0.4690534174442291,-1.2637640237808228,0.846691906452179
1757089342380823600,12.065823486328124,-0.5453122854232788,-1.0729525089263916,0.809723436832428
1757089342390778600,12.075778564453126,-0.6041114330291748,-1.0505350828170776,0.8110533952713013
1757089342400733700,12.085733642578125,-0.635517418384552,-1.1665014028549194,0.8159478306770325
1757089342410687700,12.095687744140625,-0.6338760852813721,-1.2971177101135254,0.809195339679718
1757089342420642600,12.105642578125,-0.6173242926597595,-1.3563127517700195,0.8030222654342651
1757089342430596600,12.1155966796875,-0.5759294033050537,-1.3744547367095947,0.7852666974067688
1757089342440551700,12.1255517578125,-0.48665863275527954,-1.4116721153259277,0.7574164271354675
1757089342450506800,12.1355068359375,-0.3675631284713745,-1.4212394952774048,0.725031316280365
1757089342460460500,12.14546044921875,-0.24132093787193298,-1.3455382585525513,0.6771894097328186
1757089342470415600,12.15541552734375,-0.14533714950084686,-1.2183046340942383,0.6121150851249695
1757089342480369700,12.16536962890625,-0.09158741682767868,-1.1681064367294312,0.5405504703521729
1757089342490324700,12.17532470703125,-0.06299038976430893,-1.239307165145874,0.48667582869529724
1757089342500279600,12.185279541015625,-0.0636090561747551,-1.3829638957977295,0.4593769609928131
1757089342510233600,12.195233642578126,-0.06632787734270096,-1.5294082164764404,0.4456997811794281
1757089342520188700,12.205188720703125,-0.0629960298538208,-1.6040610074996948,0.38985222578048706
1757089342530142500,12.215142578125,-0.03769226744771004,-1.602992296218872,0.31678467988967896
1757089342540097800,12.225097900390624,-0.0159959364682436,-1.5406821966171265,0.2669842839241028
1757089342550051600,12.235051513671875,-0.017398621886968613,-1.4506042003631592,0.28210943937301636
1757089342560006700,12.245006591796875,-0.03597954288125038,-1.3643877506256104,0.31944236159324646
1757089342569962000,12.2549619140625,-0.07408778369426727,-1.4016683101654053,0.33644768595695496
