time,seconds_elapsed,z,y,x
1757089330333259300,0.01825927734375,0.5491965413093567,-0.12377520650625229,-0.26496216654777527
1757089330343213300,0.02821337890625,0.5279096364974976,-0.1610139161348343,-0.2371121495962143
1757089330353168400,0.03816845703125,0.5057063102722168,-0.14740090072155,-0.2292851209640503
1757089330363123500,0.04812353515625,0.4870881736278534,-0.11823316663503647,-0.244288831949234
1757089330373077500,0.058077392578125,0.468219131231308,-0.12000416964292526,-0.28327086567878723
1757089330383032300,0.0680322265625,0.44534844160079956,-0.10214847326278687,-0.3399019241333008
1757089330392986400,0.077986328125,0.41658443212509155,-0.09789513796567917,-0.43916192650794983
1757089330402941400,0.08794140625,0.38305044174194336,-0.1908985823392868,-0.5922385454177856
1757089330412896500,0.097896484375,0.36408287286758423,-0.41571199893951416,-0.7780081629753113
1757089330422850300,0.107850341796875,0.3411796987056732,0.4611239433288574,-0.8752553462982178
1757089330432805400,0.117805419921875,0.09457337856292725,2.3383357524871826,-0.5950465798377991
1757089330442759200,0.12775927734375,-0.12322632968425751,1.2367064952850342,-0.6920373439788818
1757089330452714500,0.137714599609375,-0.6024032831192017,0.7949938178062439,-0.7415888905525208
1757089330462669300,0.14766943359375,-0.7879140377044678,0.3186834454536438,-0.5983095169067383
1757089330472623400,0.157623291015625,-0.7517650723457336,-0.18378208577632904,-0.42602187395095825
1757089330482578200,0.167578125,-0.6896119713783264,-0.32944661378860474,-0.2727132737636566
1757089330492533500,0.177533447265625,-0.7082511782646179,-0.5108209252357483,-0.10091915726661682
1757089330502487300,0.1874873046875,-0.7313767075538635,-0.8226267695426941,0.1016821563243866
1757089330512442400,0.1974423828125,-0.6304535865783691,-0.8402571678161621,0.29735177755355835
1757089330522396400,0.207396484375,-0.36641180515289307,-0.7333126068115234,0.4902155101299286
1757089330532351500,0.2173515625,0.030913174152374268,-0.2594480812549591,0.8868259787559509
1757089330542306300,0.227306396484375,0.43711021542549133,-0.11071612685918808,1.2775421142578125
1757089330552260400,0.23726025390625,0.8044003248214722,0.2780372202396393,1.5422881841659546
1757089330562215200,0.247215087890625,1.0759820938110352,1.192346453666687,1.5258722305297852
1757089330572169000,0.2571689453125,1.4048848152160645,2.4863991737365723,1.277665376663208
1757089330582124000,0.2671240234375,1.7586323022842407,3.3071627616882324,1.0291359424591064
1757089330592078800,0.277078857421875,1.9957348108291626,3.5147411823272705,0.7446494102478027
1757089330602033000,0.287032958984375,2.064331293106079,3.6346113681793213,0.34756994247436523
1757089330611988000,0.296988037109375,2.0728676319122314,3.7151639461517334,-0.18484069406986237
1757089330621943000,0.306943115234375,2.286195993423462,2.990243673324585,-0.9210923314094543
1757089330631897000,0.31689697265625,2.5932111740112305,1.5782158374786377,-1.363973617553711
1757089330641852000,0.326851806640625,2.5314979553222656,-0.17177894711494446,-1.6838711500167847
1757089330651806000,0.336805908203125,2.0385687351226807,0.7145814895629883,-1.9399839639663696
1757089330661761000,0.346760986328125,1.1555370092391968,1.7859506607055664,-1.6450018882751465
1757089330671716000,0.356716064453125,0.2391132414340973,2.0054116249084473,-1.1666836738586426
1757089330681670000,0.366669921875,-0.5293602347373962,2.1644132137298584,-0.6207921504974365
1757089330691625000,0.376625,-1.0345475673675537,2.647766351699829,-0.028601817786693573
1757089330701580000,0.386580078125,-1.2549501657485962,3.363175392150879,0.5850123167037964
1757089330711534000,0.3965341796875,-1.3105641603469849,3.7787506580352783,1.1123661994934082
1757089330721489000,0.406489013671875,-1.3203952312469482,3.996837615966797,1.4670430421829224
1757089330731443000,0.41644287109375,-1.214005947113037,4.758864402770996,1.8777791261672974
1757089330741397800,0.426397705078125,-1.5122536420822144,4.6453938484191895,1.8213752508163452
1757089330751353000,0.43635302734375,-1.8460084199905396,5.221756458282471,1.998104214668274
1757089330761307000,0.446306884765625,-2.4260284900665283,5.335490703582764,2.287792444229126
1757089330771262000,0.456261962890625,-3.074028968811035,5.515789985656738,2.584165334701538
1757089330781216000,0.466216064453125,-3.6671030521392822,5.453283786773682,2.8894693851470947
1757089330791171000,0.476171142578125,-4.134016990661621,5.391707897186279,3.160191535949707
1757089330801126000,0.4861259765625,-4.400513648986816,5.539823532104492,3.372582197189331
1757089330811080000,0.496079833984375,-4.4356513023376465,5.882768154144287,3.4779727458953857
1757089330821035000,0.506034912109375,-4.386917591094971,6.202826976776123,3.4532628059387207
1757089330830990000,0.515989990234375,-4.40974235534668,6.195838451385498,3.3595175743103027
1757089330840944000,0.525944091796875,-4.54440975189209,5.745792865753174,3.218662738800049
1757089330850899000,0.53589892578125,-4.786893367767334,5.088384628295898,2.9847891330718994
1757089330860853000,0.54585302734375,-5.234811782836914,4.406777381896973,2.569580316543579
1757089330870807800,0.555807861328125,-5.649511337280273,3.302373170852661,2.085515022277832
1757089330880763100,0.56576318359375,-5.975638389587402,1.8106895685195923,1.5408203601837158
1757089330890717000,0.575717041015625,-6.079363822937012,0.16688032448291779,0.87754887342453
1757089330900672000,0.585672119140625,-5.7278618812561035,-1.6466649770736694,0.08378517627716064
1757089330910626800,0.595626708984375,-4.805157661437988,-3.472104549407959,-0.6890884041786194
1757089330920580900,0.605580810546875,-3.621448278427124,-4.6595869064331055,-1.1971020698547363
1757089330930536000,0.615535888671875,-2.7989816665649414,-4.619088649749756,-1.293434739112854
1757089330940490000,0.625489990234375,-2.4536197185516357,-3.3345742225646973,-0.909156322479248
1757089330950445000,0.635445068359375,-2.383683681488037,-1.3349339962005615,-0.08105676621198654
1757089330960400000,0.64539990234375,-2.4189651012420654,0.6809955835342407,0.9864673614501953
1757089330970354200,0.655354248046875,-2.4424710273742676,2.145000457763672,1.9440149068832397
1757089330980309000,0.66530908203125,-2.366044521331787,2.9053142070770264,2.593761444091797
1757089330990264000,0.67526416015625,-2.1773481369018555,3.089930295944214,2.8896164894104004
1757089331000217900,0.6852177734375,-1.90805184841156,2.806011199951172,2.8060669898986816
1757089331010173200,0.695173095703125,-1.5959842205047607,2.1453654766082764,2.398822069168091
1757089331020127000,0.705126953125,-1.289481282234192,1.2648273706436157,1.7702322006225586
1757089331030082000,0.71508203125,-1.063300371170044,0.31174004077911377,1.0860682725906372
1757089331040036900,0.725036865234375,-0.978354275226593,-0.4687965214252472,0.5008530020713806
1757089331049991000,0.734990966796875,-1.0687518119812012,-0.9013606905937195,0.07335144281387329
1757089331059946000,0.744946044921875,-1.1998318433761597,-1.0316952466964722,-0.18784047663211823
1757089331069901000,0.754901123046875,-1.2661876678466797,-0.843643069267273,-0.267676442861557
1757089331079854800,0.764854736328125,-1.3177320957183838,-0.41086477041244507,-0.18443721532821655
1757089331089810000,0.774809814453125,-1.3138569593429565,0.02702069841325283,-0.04727776721119881
1757089331099764000,0.784763916015625,-1.2848700284957886,0.2688809931278229,0.047688957303762436
1757089331109719000,0.794718994140625,-1.2672390937805176,0.22871306538581848,0.04634859040379524
1757089331119673900,0.804673828125,-1.2797714471817017,-0.023838752880692482,-0.05554688349366188
1757089331129628000,0.8146279296875,-1.3045539855957031,-0.31069982051849365,-0.20656223595142365
1757089331139583000,0.8245830078125,-1.3119146823883057,-0.554771363735199,-0.3359961211681366
1757089331149537000,0.834537109375,-1.2504912614822388,-0.6802573800086975,-0.40901678800582886
1757089331159492000,0.8444921875,-1.1449533700942993,-0.699064314365387,-0.43173807859420776
1757089331169447000,0.854447021484375,-1.0610272884368896,-0.7060506343841553,-0.39091530442237854
1757089331179401000,0.86440087890625,-1.0349321365356445,-0.7585923671722412,-0.31018850207328796
1757089331189356000,0.87435595703125,-1.0211483240127563,-0.845426619052887,-0.20413555204868317
1757089331199310000,0.88431005859375,-1.0128060579299927,-0.9429571628570557,-0.0866137221455574
1757089331209265000,0.894264892578125,-0.9676496982574463,-1.0169451236724854,0.023211846128106117
1757089331219220000,0.904219970703125,-0.8887421488761902,-1.0607634782791138,0.10996697843074799
1757089331229174000,0.914174072265625,-0.7758075594902039,-1.123156189918518,0.16783906519412994
1757089331239129000,0.924129150390625,-0.6468623876571655,-1.1408132314682007,0.18772383034229279
1757089331249084000,0.934083984375,-0.5258685946464539,-1.1055418252944946,0.1820632815361023
1757089331259038000,0.944037841796875,-0.37224334478378296,-1.0221790075302124,0.15568652749061584
1757089331268993000,0.953992919921875,-0.1756674349308014,-0.9241510033607483,0.08138753473758698
1757089331278946800,0.96394677734375,0.06818864494562149,-0.830411970615387,-0.05503875017166138
1757089331288902100,0.973902099609375,0.31468549370765686,-0.770045280456543,-0.23607377707958221
1757089331298857000,0.98385693359375,0.5017187595367432,-0.7310033440589905,-0.43156126141548157
1757089331308811000,0.99381103515625,0.6268056035041809,-0.6767939329147339,-0.6019876003265381
1757089331318765800,1.003765869140625,0.6949843764305115,-0.6087341904640198,-0.697119414806366
1757089331328721200,1.01372119140625,0.7290818691253662,-0.5073478817939758,-0.7249888777732849
1757089331338675000,1.023675048828125,0.7174654603004456,-0.3726707696914673,-0.6588237285614014
1757089331348630000,1.033630126953125,0.6060270667076111,-0.2658998668193817,-0.4592810273170471
1757089331358583800,1.043583740234375,0.4259060323238373,-0.2096099555492401,-0.15273921191692352
1757089331368539100,1.0535390625,0.22028149664402008,-0.22860415279865265,0.21016016602516174
1757089331378494000,1.063493896484375,0.033371005207300186,-0.2062636911869049,0.5734848380088806
1757089331388448000,1.073447998046875,-0.15006352961063385,-0.1700468361377716,0.8645065426826477
1757089331398402800,1.08340283203125,-0.36033928394317627,-0.1682710349559784,1.0576645135879517
1757089331408356900,1.09335693359375,-0.5662599205970764,-0.12442022562026978,1.1551735401153564
1757089331418312200,1.103312255859375,-0.71586674451828,-0.07614696770906448,1.175735592842102
1757089331428267000,1.11326708984375,-0.765626847743988,-0.10423745214939117,1.111250877380371
1757089331438221000,1.123220947265625,-0.7047017216682434,-0.1357511729001999,0.974907636642456
1757089331448175900,1.13317578125,-0.5689886212348938,-0.1649806946516037,0.7888091206550598
1757089331458131200,1.143131103515625,-0.39811941981315613,-0.19530238211154938,0.5938804149627686
1757089331468085000,1.1530849609375,-0.26011255383491516,-0.23905226588249207,0.4184553027153015
1757089331478040000,1.1630400390625,-0.20593611896038055,-0.28775107860565186,0.27556633949279785
1757089331487993900,1.172993896484375,-0.2025405913591385,-0.3041665554046631,0.17058345675468445
1757089331497949000,1.182948974609375,-0.1793612390756607,-0.2806985080242157,0.10375089943408966
1757089331507904000,1.192904052734375,-0.15104463696479797,-0.20818009972572327,0.06410228461027145
1757089331517858000,1.202858154296875,-0.13629525899887085,-0.06403543800115585,0.059892892837524414
1757089331527812900,1.212812744140625,-0.10660846531391144,0.09951753914356232,0.08140697330236435
1757089331537768000,1.222767822265625,-0.07017163187265396,0.23181724548339844,0.09966134279966354
1757089331547722000,1.232721923828125,-0.030409570783376694,0.31190168857574463,0.10423452407121658
1757089331557677000,1.242677001953125,0.005074653308838606,0.3141627311706543,0.08597056567668915
1757089331567631400,1.25263134765625,0.03618809953331947,0.29782742261886597,0.05010364577174187
1757089331577586200,1.262586181640625,0.06500696390867233,0.2523829936981201,0.01804531365633011
1757089331587541000,1.272541015625,0.09413901716470718,0.20605729520320892,0.008973254822194576
1757089331597495000,1.2824951171875,0.08724302798509598,0.11836978793144226,0.05089753493666649
1757089331607450400,1.292450439453125,0.05373726412653923,0.015624766238033772,0.14008599519729614
1757089331617404200,1.302404052734375,0.019295133650302887,0.00029774141148664057,0.2592669725418091
1757089331627359200,1.312359130859375,-0.009073389694094658,0.005988117773085833,0.41492876410484314
1757089331637314000,1.32231396484375,-0.04596243053674698,0.03105325624346733,0.5919051170349121
1757089331647268000,1.33226806640625,-0.0777648389339447,0.13154630362987518,0.7966646552085876
1757089331657223200,1.34222314453125,-0.09534888714551926,0.2595252990722656,1.0073238611221313
1757089331667178200,1.35217822265625,-0.08658655732870102,0.42325910925865173,1.1487590074539185
1757089331677132000,1.362132080078125,-0.038179609924554825,0.5257607102394104,1.1767584085464478
1757089331687087000,1.372087158203125,0.008802812546491623,0.48805302381515503,1.0522186756134033
1757089331697041200,1.382041259765625,0.06358696520328522,0.3942442536354065,0.8188716769218445
1757089331706996200,1.391996337890625,0.14053501188755035,0.26916223764419556,0.5891271829605103
1757089331716951000,1.401950927734375,0.24776452779769897,0.08608934283256531,0.43747401237487793
1757089331726905000,1.411905029296875,0.4009213149547577,-0.12389478087425232,0.3719104528427124
1757089331736860200,1.421860107421875,0.5732254385948181,-0.3209141194820404,0.3380163908004761
1757089331746815200,1.431815185546875,0.7462960481643677,-0.5163328647613525,0.28591856360435486
1757089331756769300,1.441769287109375,0.9079570770263672,-0.7559478282928467,0.18971507251262665
1757089331766724000,1.45172412109375,1.0689843893051147,-1.0362447500228882,0.04415707290172577
1757089331776678100,1.46167822265625,1.2372372150421143,-1.3127498626708984,-0.13222940266132355
1757089331786633200,1.47163330078125,1.4178386926651,-1.5332465171813965,-0.2860048711299896
1757089331796588300,1.48158837890625,1.5875273942947388,-1.695578694343567,-0.3843178451061249
1757089331806542000,1.4915419921875,1.732700228691101,-1.7660385370254517,-0.44340434670448303
1757089331816497200,1.5014970703125,1.8427945375442505,-1.764080286026001,-0.5043366551399231
1757089331826452200,1.5114521484375,1.91486394405365,-1.7264889478683472,-0.5835846066474915
1757089331836406300,1.52140625,1.9622408151626587,-1.7042683362960815,-0.6423243284225464
1757089331846361000,1.531361083984375,1.987873911857605,-1.707149863243103,-0.6682475805282593
1757089331856315100,1.541315185546875,1.995249629020691,-1.698677897453308,-0.6692169308662415
1757089331866270000,1.55127001953125,1.9838392734527588,-1.6620298624038696,-0.6462722420692444
1757089331876225300,1.561225341796875,1.9474061727523804,-1.673445701599121,-0.6040499210357666
1757089331886179300,1.571179443359375,1.8872981071472168,-1.7717353105545044,-0.5625845193862915
1757089331896134100,1.581134033203125,1.789116382598877,-1.8476436138153076,-0.5544847846031189
1757089331906088200,1.591088134765625,1.6722081899642944,-1.8396656513214111,-0.5572736263275146
1757089331916043000,1.60104296875,1.530443549156189,-1.775343894958496,-0.5605442523956299
1757089331925998300,1.610998291015625,1.3622024059295654,-1.6435346603393555,-0.5681744813919067
1757089331935952100,1.6209521484375,1.2048531770706177,-1.3764665126800537,-0.5851556062698364
1757089331945907200,1.6309072265625,1.0458691120147705,-1.1289485692977905,-0.6563248634338379
1757089331955862000,1.640862060546875,0.9441435933113098,-1.0216684341430664,-0.7336119413375854
1757089331965816300,1.65081640625,0.9050140380859375,-0.7633312344551086,-0.7182731628417969
1757089331975771100,1.660771240234375,0.8244848251342773,-0.6261634826660156,-0.6074920892715454
1757089331985725200,1.67072509765625,0.7059810757637024,-0.5892254710197449,-0.48820483684539795
1757089331995680000,1.680679931640625,0.6232652068138123,-0.5041720867156982,-0.360809326171875
1757089332005635300,1.69063525390625,0.5394169092178345,-0.4705278277397156,-0.22145302593708038
1757089332015589000,1.700589111328125,0.4025977849960327,-0.5052072405815125,-0.12831908464431763
1757089332025544200,1.710544189453125,0.2719825208187103,-0.4937346279621124,-0.08912161737680435
1757089332035499000,1.7204990234375,0.15857872366905212,-0.38910433650016785,-0.07021930068731308
1757089332045453000,1.730453125,0.08003304898738861,-0.2625988721847534,-0.0051843756809830666
1757089332055408000,1.740408203125,0.046719834208488464,-0.17542214691638947,0.08005861937999725
1757089332065362200,1.750362060546875,0.038298919796943665,-0.17020449042320251,0.1362220197916031
1757089332075317200,1.760317138671875,0.02694985829293728,-0.20221541821956635,0.15004275739192963
1757089332085272000,1.77027197265625,-0.004004062619060278,-0.24395513534545898,0.13009008765220642
1757089332095226000,1.78022607421875,-0.05253138393163681,-0.21158388257026672,0.10775149613618851
1757089332105181200,1.79018115234375,-0.12227824330329895,-0.06866854429244995,0.09795745462179184
1757089332115136300,1.80013623046875,-0.19152389466762543,0.11990083754062653,0.12254002690315247
1757089332125090000,1.810090087890625,-0.21281878650188446,0.2708083391189575,0.20549696683883667
1757089332135045000,1.820045166015625,-0.20702534914016724,0.4100029766559601,0.3216528594493866
1757089332144999000,1.8299990234375,-0.20594091713428497,0.5299493670463562,0.433925598859787
1757089332154954200,1.839954345703125,-0.18906445801258087,0.5747128129005432,0.518536388874054
1757089332164909000,1.849908935546875,-0.15013064444065094,0.5089428424835205,0.5527316331863403
1757089332174863000,1.859863037109375,-0.08497294783592224,0.28074193000793457,0.5336801409721375
1757089332184818000,1.86981787109375,0.018065553158521652,0.009996973909437656,0.4740312099456787
1757089332194773200,1.879773193359375,0.07668545842170715,-0.1999136507511139,0.4042891561985016
1757089332204727300,1.889727294921875,0.06469723582267761,-0.29433974623680115,0.3361242115497589
1757089332214682000,1.89968212890625,0.0464300811290741,-0.311685174703598,0.3200879991054535
1757089332224636200,1.90963623046875,0.043600209057331085,-0.2639578878879547,0.37948182225227356
1757089332234591200,1.91959130859375,0.02468004636466503,-0.10052474588155746,0.5178844332695007
1757089332244546000,1.929546142578125,0.0026264095213264227,0.07016337662935257,0.681498646736145
1757089332254500000,1.9395,-0.008254201151430607,0.11287675052881241,0.7899068593978882
1757089332264455200,1.949455078125,-0.002380599733442068,-0.03146285191178322,0.8324825763702393
1757089332274409000,1.959408935546875,0.0465691015124321,-0.3349854350090027,0.8092139959335327
1757089332284364300,1.9693642578125,0.10607903450727463,-0.6131798028945923,0.7052229046821594
1757089332294319000,1.979319091796875,0.15139031410217285,-0.7542519569396973,0.5918734073638916
1757089332304273200,1.989273193359375,0.17364369332790375,-0.8047052621841431,0.48325109481811523
1757089332314228000,1.99922802734375,0.19548214972019196,-0.6132737994194031,0.3562108278274536
1757089332324183300,2.009183349609375,0.21269895136356354,-0.31477153301239014,0.2695039212703705
1757089332334137000,2.01913720703125,0.21214234828948975,0.03417474776506424,0.24402225017547607
1757089332344092200,2.029092041015625,0.19668935239315033,0.309927761554718,0.2553372383117676
1757089332354046200,2.039046142578125,0.15574325621128082,0.5381023287773132,0.24402597546577454
1757089332364001000,2.0490009765625,0.08435509353876114,0.7090602517127991,0.24446353316307068
1757089332373956000,2.0589560546875,0.004674113821238279,0.747173547744751,0.12111523747444153
1757089332383910100,2.06891015625,-0.06958600133657455,0.8024642467498779,-0.018968630582094193
1757089332393865200,2.078865234375,-0.13659140467643738,0.843102753162384,-0.10237457603216171
1757089332403819000,2.088819091796875,-0.21797281503677368,0.978271484375,-0.12287691980600357
1757089332413774300,2.0987744140625,-0.26647722721099854,1.2117375135421753,-0.08206956833600998
1757089332423729200,2.108729248046875,-0.26371872425079346,1.4092683792114258,0.023513315245509148
1757089332433683200,2.11868310546875,-0.21954646706581116,1.4930261373519897,0.16805478930473328
1757089332443638000,2.128637939453125,-0.1869288682937622,1.4769041538238525,0.3018501400947571
1757089332453593300,2.13859326171875,-0.22593645751476288,1.3251439332962036,0.37622901797294617
1757089332463547100,2.148547119140625,-0.3271576166152954,1.1029508113861084,0.4218209981918335
1757089332473502200,2.158502197265625,-0.4345749020576477,0.8966538310050964,0.5191267728805542
1757089332483456300,2.168456298828125,-0.5343132019042969,0.7133186459541321,0.6750362515449524
1757089332493411000,2.1784111328125,-0.647877037525177,0.5788148641586304,0.8732771277427673
1757089332503366100,2.1883662109375,-0.794170081615448,0.482820987701416,1.0678865909576416
1757089332513320200,2.1983203125,-0.9722521901130676,0.4255736768245697,1.2374223470687866
1757089332523275300,2.208275146484375,-1.1137044429779053,0.335635781288147,1.397881269454956
1757089332533230000,2.21822998046875,-1.213619589805603,0.24937866628170013,1.5099420547485352
1757089332543184100,2.22818408203125,-1.2769489288330078,0.2277817577123642,1.5694622993469238
1757089332553139200,2.23813916015625,-1.3219434022903442,0.2570033073425293,1.6032689809799194
1757089332563093500,2.248093505859375,-1.3795616626739502,0.29951560497283936,1.6138663291931152
1757089332573048600,2.258048583984375,-1.444069266319275,0.357185035943985,1.6197178363800049
1757089332583003600,2.268003662109375,-1.4978643655776978,0.3884345591068268,1.617483377456665
1757089332592957400,2.27795751953125,-1.529931664466858,0.4006566107273102,1.5642635822296143
1757089332602912500,2.28791259765625,-1.5169916152954102,0.39380908012390137,1.4351396560668945
1757089332612866300,2.2978662109375,-1.4274519681930542,0.4557797908782959,1.249198079109192
1757089332622821600,2.307821533203125,-1.2526262998580933,0.5965099930763245,1.082601547241211
1757089332632776400,2.3177763671875,-1.009893536567688,0.8439086079597473,1.0045387744903564
1757089332642730500,2.32773046875,-0.7334478497505188,1.1485164165496826,0.9861821532249451
1757089332652685300,2.337685302734375,-0.46093273162841797,1.3907560110092163,0.9804438352584839
1757089332662640600,2.347640625,-0.24052712321281433,1.5204846858978271,0.957434892654419
1757089332672594400,2.357594482421875,-0.0712672546505928,1.4507611989974976,0.9144980907440186
1757089332682549500,2.367549560546875,0.14075978100299835,1.4362521171569824,0.8091514110565186
1757089332692503600,2.377503662109375,0.16889074444770813,1.6358495950698853,0.6281110644340515
1757089332702458400,2.387458251953125,0.031325165182352066,1.5796287059783936,0.4832873046398163
1757089332712413400,2.397413330078125,-0.347581148147583,1.1432617902755737,0.43322572112083435
1757089332722367500,2.407367431640625,-0.6865243315696716,0.9987200498580933,0.45642000436782837
1757089332732322600,2.417322509765625,-0.8561466336250305,0.9338147640228271,0.4797849655151367
1757089332742276400,2.4272763671875,-0.9126671552658081,0.8474082946777344,0.4790600538253784
1757089332752231400,2.4372314453125,-0.8644573092460632,0.9039743542671204,0.4462603032588959
1757089332762186500,2.4471865234375,-0.7441505789756775,1.0431034564971924,0.4093662202358246
1757089332772140500,2.457140625,-0.6534742116928101,1.1457576751708984,0.3967050015926361
1757089332782095400,2.467095458984375,-0.6974230408668518,1.108516812324524,0.39816814661026
1757089332792050400,2.477050537109375,-0.8529806733131409,1.0662373304367065,0.3670206069946289
1757089332802004500,2.48700439453125,-0.9928533434867859,1.2487397193908691,0.24889902770519257
1757089332811959600,2.49695947265625,-1.0785349607467651,1.4947007894515991,0.05680122971534729
1757089332821913600,2.50691357421875,-1.0823811292648315,1.7692673206329346,-0.06627596169710159
1757089332831868400,2.516868408203125,-1.0325983762741089,1.9475231170654297,-0.013700632378458977
1757089332841823500,2.526823486328125,-1.0296223163604736,2.201517343521118,0.1579829752445221
1757089332851777500,2.536777587890625,-1.0202375650405884,2.601518154144287,0.35618340969085693
1757089332861732600,2.546732666015625,-0.9246364831924438,2.8462369441986084,0.5629168748855591
1757089332871687400,2.5566875,-0.9143660068511963,3.005582332611084,0.8221849203109741
1757089332881641500,2.566641357421875,-0.9880239963531494,3.251582145690918,1.0416901111602783
1757089332891596500,2.576596435546875,-0.9953950643539429,3.187955617904663,1.1503849029541016
1757089332901550600,2.586550537109375,-0.798201858997345,2.542884111404419,1.1297332048416138
1757089332911505400,2.59650537109375,-0.5710352659225464,1.6199291944503784,0.9237954616546631
1757089332921460500,2.60646044921875,-0.5543449521064758,0.9163870811462402,0.4947953522205353
1757089332931414300,2.616414306640625,-0.6507223844528198,0.28673404455184937,-0.04936222359538078
1757089332941369600,2.62636962890625,-0.7606070637702942,-0.2656537890434265,-0.49609071016311646
1757089332951323400,2.636323486328125,-0.8405338525772095,-0.5474782586097717,-0.7687198519706726
1757089332961278500,2.646278564453125,-0.9180874824523926,-0.6417163610458374,-0.8848930597305298
1757089332971233300,2.6562333984375,-0.9779875874519348,-0.7050495147705078,-0.8478758931159973
1757089332981187600,2.6661875,-0.8968290686607361,-0.5266933441162109,-0.6982813477516174
1757089332991142400,2.676142333984375,-0.734466552734375,0.2990309000015259,-0.44385015964508057
1757089333001096400,2.686096435546875,-0.5381763577461243,0.7040990591049194,-0.1661255955696106
1757089333011051500,2.696051513671875,-0.3917331397533417,0.6323609352111816,0.04045847803354263
1757089333021006600,2.706006591796875,-0.33144238591194153,0.4493098855018616,0.0765504315495491
1757089333030960600,2.715960693359375,-0.37129977345466614,0.28006309270858765,-0.010068346746265888
1757089333040915500,2.72591552734375,-0.49295589327812195,0.18580208718776703,-0.13026346266269684
1757089333050869500,2.735869384765625,-0.6366297006607056,0.09837237745523453,-0.2077968716621399
1757089333060824300,2.74582421875,-0.6847133636474609,-0.0546930730342865,-0.2087947577238083
1757089333070779600,2.755779541015625,-0.6010800004005432,0.0025308020412921906,-0.14255554974079132
1757089333080733400,2.7657333984375,-0.5181128978729248,0.15615445375442505,-0.03578995540738106
1757089333090688500,2.7756884765625,-0.48936834931373596,0.20948292315006256,0.05253298208117485
1757089333100643300,2.785643310546875,-0.47100427746772766,0.33286556601524353,0.1301444172859192
1757089333110597400,2.795597412109375,-0.4880274534225464,0.6650635004043579,0.23766662180423737
1757089333120552400,2.805552490234375,-0.6024541854858398,0.9321537613868713,0.4605923891067505
1757089333130506500,2.815506591796875,-0.7301200032234192,1.5280126333236694,0.7862687706947327
1757089333140461600,2.825461669921875,-0.7596214413642883,2.0442798137664795,0.9573877453804016
1757089333150416400,2.83541650390625,-0.7002667784690857,1.643847107887268,0.7239227890968323
1757089333160370700,2.84537060546875,-0.7237374782562256,0.8830757141113281,0.10460710525512695
1757089333170325500,2.855325439453125,-0.8071324825286865,0.4395291805267334,-0.2959011495113373
1757089333180280300,2.8652802734375,-0.9907163977622986,0.18391816318035126,-0.27527737617492676
1757089333190234400,2.875234375,-1.1462844610214233,0.19575299322605133,-0.18732568621635437
1757089333200189700,2.885189697265625,-1.2433103322982788,0.006415554787963629,-0.20642374455928802
1757089333210143500,2.8951435546875,-1.321816086769104,-0.15453258156776428,-0.2839004397392273
1757089333220098600,2.9050986328125,-1.2169849872589111,-0.06643202155828476,-0.3725682497024536
1757089333230053400,2.915053466796875,-1.0554797649383545,-0.028089424595236778,-0.45858755707740784
1757089333240007400,2.92500732421875,-0.9687045812606812,0.058640144765377045,-0.5211198925971985
1757089333249962500,2.93496240234375,-0.9728876352310181,0.004929777234792709,-0.6032826900482178
1757089333259916500,2.94491650390625,-0.9739813804626465,0.3612026572227478,-0.6099117994308472
1757089333269871400,2.954871337890625,-1.0263718366622925,0.5149013996124268,-0.5216978192329407
1757089333279826400,2.964826416015625,-1.1240984201431274,0.5153496265411377,-0.4578820765018463
1757089333289780500,2.974780517578125,-1.2797058820724487,0.5201119184494019,-0.4483013451099396
1757089333299735600,2.984735595703125,-1.392204761505127,0.5204288363456726,-0.4544926583766937
1757089333309689600,2.994689697265625,-1.5183110237121582,0.3837742805480957,-0.4608975648880005
1757089333319644400,3.00464453125,-1.7895954847335815,0.5935123562812805,-0.4047195315361023
1757089333329599500,3.014599609375,-2.101229667663574,0.9831809997558594,-0.3643486499786377
1757089333339553500,3.024553466796875,-2.350475788116455,1.1773920059204102,-0.3342224657535553
1757089333349508600,3.034508544921875,-2.1125357151031494,1.468666434288025,-0.2651698887348175
1757089333359462400,3.04446240234375,-1.2361512184143066,1.619507074356079,-0.18592379987239838
1757089333369417500,3.05441748046875,-0.6540302634239197,1.4662361145019531,-0.1206558421254158
1757089333379372300,3.064372314453125,-0.6058198809623718,1.218734622001648,-0.028897162526845932
1757089333389326600,3.07432666015625,-0.6151680946350098,0.91716068983078,-0.019400862976908684
1757089333399281400,3.084281494140625,-0.5532951354980469,0.6891264915466309,-0.03298244997859001
1757089333409236500,3.094236572265625,-0.5517295002937317,0.6971727013587952,0.04692942649126053
1757089333419190500,3.1041904296875,-0.6793239116668701,0.7657701373100281,0.22582539916038513
1757089333429145600,3.1141455078125,-0.8937895894050598,0.717058002948761,0.3878140449523926
1757089333439099600,3.124099609375,-1.059338927268982,0.6000844836235046,0.42133286595344543
1757089333449054500,3.134054443359375,-1.1170525550842285,0.46429550647735596,0.3149070739746094
1757089333459009500,3.144009521484375,-1.0734858512878418,0.31242635846138,0.11719586700201035
1757089333468963300,3.15396337890625,-1.013098955154419,0.19100138545036316,-0.05639190226793289
1757089333478918700,3.163918701171875,-0.988438606262207,0.1699618697166443,-0.10031808167695999
1757089333488872400,3.17387255859375,-0.9419134855270386,0.16575834155082703,0.002083124592900276
1757089333498827500,3.18382763671875,-0.847445011138916,0.12738990783691406,0.15841174125671387
1757089333508782300,3.1937822265625,-0.7680671215057373,0.10128161311149597,0.29932278394699097
1757089333518736400,3.203736328125,-0.7088642120361328,0.10947642475366592,0.39544185996055603
1757089333528691500,3.21369140625,-0.6693679690361023,0.07659783959388733,0.41225412487983704
1757089333538645500,3.2236455078125,-0.6338813304901123,0.05883748456835747,0.3804173767566681
1757089333548600300,3.233600341796875,-0.5809590220451355,0.05728219822049141,0.33478543162345886
1757089333558555400,3.243555419921875,-0.5183454155921936,0.08517774194478989,0.31357577443122864
1757089333568509400,3.253509521484375,-0.47191721200942993,0.0701652392745018,0.29957684874534607
1757089333578464300,3.26346435546875,-0.4524673521518707,0.04008323699235916,0.2801208794116974
1757089333588418300,3.273418212890625,-0.4988846480846405,-0.044379450380802155,0.22428423166275024
1757089333598373400,3.283373291015625,-0.7512844204902649,-0.11101839691400528,0.16991393268108368
1757089333608328400,3.293328369140625,-0.9991200566291809,-0.0700904056429863,0.05727207660675049
1757089333618282200,3.3032822265625,-1.1888811588287354,0.08186130970716476,-0.04832012951374054
1757089333628237300,3.3132373046875,-1.2732173204421997,0.2045677900314331,-0.10058359801769257
1757089333638192400,3.3231923828125,-1.2760701179504395,0.21218523383140564,-0.1454450786113739
1757089333648146400,3.333146484375,-1.2488698959350586,0.211619034409523,-0.17778757214546204
1757089333658101200,3.343101318359375,-1.3015371561050415,0.22191081941127777,-0.22980736196041107
1757089333668055300,3.35305517578125,-1.4353961944580078,0.22339260578155518,-0.3658030033111572
1757089333678010400,3.36301025390625,-1.514614224433899,0.04634539410471916,-0.5721260905265808
1757089333687965400,3.37296533203125,-1.4539892673492432,-0.1213005930185318,-0.6594617962837219
1757089333697919500,3.38291943359375,-1.095124363899231,-0.13280785083770752,-0.5361747741699219
1757089333707874300,3.392874267578125,-0.48243188858032227,-0.06918572634458542,-0.29759201407432556
1757089333717828400,3.402828369140625,-0.00031425300403498113,0.09054508060216904,-0.06761925667524338
1757089333727783400,3.412783447265625,0.20796331763267517,0.12694622576236725,0.11013369262218475
1757089333737738500,3.422738525390625,0.08814503997564316,0.10211225599050522,0.22108471393585205
1757089333747692300,3.4326923828125,-0.010669155977666378,0.29737627506256104,0.20404687523841858
1757089333757647400,3.4426474609375,0.02365472912788391,0.23488867282867432,0.11924037337303162
1757089333767602400,3.4526025390625,0.09286069869995117,0.1316879838705063,0.10209494084119797
1757089333777556500,3.462556396484375,0.07969535887241364,0.13124004006385803,0.13691790401935577
1757089333787511300,3.47251123046875,0.04909377545118332,0.16117610037326813,0.15215012431144714
1757089333797465300,3.48246533203125,0.03774578124284744,0.15784955024719238,0.12575100362300873
1757089333807420200,3.492420166015625,0.04399355500936508,0.11613059788942337,0.07904182374477386
1757089333817375500,3.50237548828125,0.04562021419405937,0.07923729717731476,0.05163389816880226
1757089333827329300,3.512329345703125,0.04146275296807289,0.06936043500900269,0.03299363702535629
1757089333837284400,3.522284423828125,0.03990880027413368,0.069954052567482,0.015474829822778702
1757089333847238400,3.53223828125,0.023269103839993477,0.06521815061569214,-0.008428905159235
1757089333857193500,3.542193359375,0.0011435613268986344,0.04591289535164833,-0.06039836257696152
1757089333867148300,3.552148193359375,0.0008700547041371465,0.022054968401789665,-0.10154926031827927
1757089333877102300,3.562102294921875,0.0060270000249147415,0.010438526049256325,-0.10189786553382874
1757089333887057400,3.572057373046875,0.007812383119016886,-0.009641442447900772,-0.08584806323051453
1757089333897011200,3.58201123046875,0.010439591482281685,-0.033226128667593,-0.10133034735918045
1757089333906966500,3.591966552734375,0.007785751484334469,-0.05879407376050949,-0.13732323050498962
1757089333916921300,3.60192138671875,0.004834969062358141,-0.07636374980211258,-0.17643095552921295
1757089333926875400,3.61187548828125,0.0017499631503596902,-0.0606689378619194,-0.2025882601737976
1757089333936830200,3.621830322265625,0.00145222176797688,-0.028246818110346794,-0.20001165568828583
1757089333946784300,3.6317841796875,0.0009134642314165831,-0.04283987358212471,-0.18673233687877655
1757089333956739300,3.6417392578125,0.008792959153652191,-0.0978487953543663,-0.19175398349761963
1757089333966694400,3.6516943359375,0.011051852256059647,-0.0956447646021843,-0.18953877687454224
1757089333976648400,3.6616484375,-0.007940481416881084,-0.01483354065567255,-0.14790716767311096
1757089333986603300,3.671603271484375,-0.0358770415186882,0.023274695500731468,-0.09792470186948776
1757089333996557300,3.681557373046875,-0.05343712493777275,0.038187067955732346,-0.0851183533668518
1757089334006512400,3.691512451171875,-0.07541965693235397,0.07418874651193619,-0.08507122099399567
1757089334016467500,3.701467529296875,-0.11133851110935211,0.11762303858995438,-0.06970850378274918
1757089334026421200,3.711421142578125,-0.16591893136501312,0.15763676166534424,-0.05648671090602875
1757089334036376300,3.721376220703125,-0.1832534521818161,0.17954179644584656,-0.04090002924203873
1757089334046331400,3.731331298828125,-0.24871528148651123,0.2276906818151474,0.016630908474326134
1757089334056285400,3.741285400390625,-0.3419879674911499,0.19836102426052094,0.08312364667654037
1757089334066240300,3.751240234375,-0.4514116644859314,0.19336412847042084,0.11653726547956467
1757089334076194300,3.7611943359375,-0.493735134601593,0.20672069489955902,0.13717517256736755
1757089334086149400,3.7711494140625,-0.5536477565765381,0.24417725205421448,0.19720494747161865
1757089334096103400,3.781103515625,-0.6611707210540771,0.3139464855194092,0.27878981828689575
1757089334106058200,3.791058349609375,-0.7626329064369202,0.2905692458152771,0.3136900067329407
1757089334116013300,3.801013427734375,-0.8254134654998779,0.16810964047908783,0.2406214028596878
1757089334125967400,3.81096728515625,-0.8985124826431274,0.0319099947810173,0.1363474577665329
1757089334135922400,3.82092236328125,-0.957125186920166,-0.10135458409786224,0.033126261085271835
1757089334145877200,3.830877197265625,-1.0042929649353027,-0.1352829933166504,-0.04023876413702965
1757089334155831300,3.840831298828125,-1.0213680267333984,-0.21576212346553802,-0.08819297701120377
1757089334165786400,3.850786376953125,-0.9915214776992798,-0.2847585082054138,-0.19135265052318573
1757089334175740200,3.860740234375,-1.0155277252197266,-0.2954193949699402,-0.27333059906959534
1757089334185695500,3.870695556640625,-1.0736850500106812,-0.374074250459671,-0.3333779573440552
1757089334195650300,3.880650390625,-1.0911482572555542,-0.3890548050403595,-0.3769978880882263
1757089334205604400,3.890604248046875,-1.0478564500808716,-0.34442076086997986,-0.3716593086719513
1757089334215559200,3.90055908203125,-0.9603662490844727,-0.299950510263443,-0.2960127592086792
1757089334225513500,3.910513427734375,-0.8443360328674316,-0.25145354866981506,-0.24628567695617676
1757089334235468300,3.92046826171875,-0.7029954195022583,-0.17782406508922577,-0.14495877921581268
1757089334245423400,3.93042333984375,-0.5153664350509644,-0.1291971355676651,-0.054560448974370956
1757089334255377400,3.94037744140625,-0.3566838204860687,-0.07627400010824203,0.007744206115603447
1757089334265332500,3.95033251953125,-0.35086268186569214,-0.005856025032699108,0.07290030270814896
1757089334275286500,3.96028662109375,-0.4638635218143463,0.017846642062067986,0.1110314428806305
1757089334285241300,3.970241455078125,-0.6977953314781189,0.08768564462661743,0.17645493149757385
1757089334295196400,3.980196533203125,-0.9434671401977539,0.1466914415359497,0.20250144600868225
1757089334305150200,3.990150146484375,-1.0295705795288086,0.10914779454469681,0.14804857969284058
1757089334315105500,4.00010546875,-0.9365743398666382,0.03272758796811104,0.07466331869363785
1757089334325059300,4.010059326171875,-0.8577125668525696,-0.10418419539928436,0.0410478338599205
1757089334335014400,4.020014404296875,-0.8214077949523926,-0.2758273184299469,0.01769031397998333
1757089334344969200,4.02996923828125,-0.7587929368019104,-0.3931014835834503,-0.009082178585231304
1757089334354923300,4.03992333984375,-0.5965797901153564,-0.48605698347091675,-0.034017886966466904
1757089334364878300,4.04987841796875,-0.47184211015701294,-0.4586818218231201,-0.033009614795446396
1757089334374833400,4.05983349609375,-0.4418248236179352,-0.4493738114833832,-0.208556666970253
1757089334384787200,4.069787109375,-0.3437078297138214,-0.3564577102661133,-0.16993418335914612
1757089334394742300,4.0797421875,-0.3099195063114166,-0.3941108286380768,-0.19564220309257507
1757089334404696600,4.089696533203125,-0.22054675221443176,-0.7056064009666443,-0.31943124532699585
1757089334414651400,4.0996513671875,-0.2453455775976181,-1.1284085512161255,-0.43688225746154785
1757089334424606200,4.109606201171875,-0.42545783519744873,-1.0696202516555786,-0.6143172383308411
1757089334434560300,4.119560302734375,-0.050926029682159424,-0.933885395526886,-0.9886460900306702
1757089334444515600,4.129515625,1.0765557289123535,-0.8923906683921814,-0.6540609002113342
1757089334454469400,4.139469482421875,1.6786493062973022,0.14399471879005432,0.13799169659614563
1757089334464424400,4.149424560546875,1.9877862930297852,0.3130199611186981,0.47310736775398254
1757089334474379300,4.159379150390625,1.7583938837051392,-0.2121860235929489,0.31258055567741394
1757089334484333300,4.169333251953125,1.2924648523330688,-0.30726781487464905,0.20058582723140717
1757089334494288400,4.179288330078125,0.6387514472007751,-0.24399136006832123,0.14806057512760162
1757089334504243500,4.189243408203125,0.0643552839756012,-0.31195417046546936,0.10357033461332321
1757089334514197200,4.199197265625,0.050452522933483124,-0.6146948337554932,-0.008055795915424824
1757089334524152300,4.20915234375,0.3340882360935211,-0.6746655106544495,-0.0894305482506752
1757089334534106400,4.2191064453125,0.5013978481292725,-0.573671281337738,-0.10708037763834
1757089334544061400,4.2290615234375,0.4567350447177887,-0.474865585565567,-0.1664920449256897
1757089334554016300,4.239016357421875,0.2515068054199219,-0.3694020211696625,-0.25284770131111145
1757089334563970000,4.248969970703125,0.19855250418186188,-0.230017751455307,-0.30893492698669434
1757089334573925000,4.258925048828125,0.3112894296646118,-0.3502999544143677,-0.3587978482246399
1757089334583879000,4.26887890625,0.3129086494445801,-0.4016595482826233,-0.34225454926490784
1757089334593834000,4.278833984375,0.12143029272556305,-0.2410150170326233,-0.22823157906532288
1757089334603789000,4.2887890625,-0.10570059716701508,-0.08952189236879349,-0.10696453601121902
1757089334613743000,4.2987431640625,-0.29821836948394775,-0.09473929554224014,-0.05525260418653488
1757089334623698000,4.308697998046875,-0.46238866448402405,-0.1852707862854004,-0.0810312032699585
1757089334633653000,4.318653076171875,-0.6330219507217407,-0.24428777396678925,-0.15256184339523315
1757089334643606800,4.328606689453125,-0.8305693864822388,-0.09274298697710037,-0.24338150024414062
1757089334653562000,4.33856201171875,-1.07467520236969,0.20439521968364716,-0.3628692924976349
1757089334663516200,4.34851611328125,-1.376464605331421,0.46581536531448364,-0.5376573204994202
1757089334673471000,4.358470947265625,-1.6707327365875244,0.5907224416732788,-0.7249212265014648
1757089334683425800,4.36842578125,-1.9208600521087646,0.7558197379112244,-0.799693763256073
1757089334693380000,4.378380126953125,-2.1134040355682373,0.9951921105384827,-0.7651094198226929
1757089334703335200,4.388335205078125,-2.2331864833831787,1.226194977760315,-0.6930487751960754
1757089334713290000,4.3982900390625,-2.2699694633483887,1.2857922315597534,-0.6909661889076233
1757089334723244000,4.408244140625,-2.3424878120422363,2.035332202911377,-1.0757170915603638
1757089334733199000,4.41819921875,-2.3759562969207764,3.558602809906006,-1.4404939413070679
1757089334743153200,4.428153076171875,-2.3060338497161865,4.618940830230713,-1.2099171876907349
1757089334753108000,4.43810791015625,-2.141866683959961,4.470408916473389,-0.4537685513496399
1757089334763063000,4.44806298828125,-2.075921058654785,5.074747085571289,-0.3237253427505493
1757089334773016800,4.458016845703125,-2.0118658542633057,4.8265061378479,-0.3925294280052185
1757089334782972200,4.46797216796875,-1.9917230606079102,3.6925973892211914,-1.267871618270874
1757089334792926000,4.477926025390625,-1.9047969579696655,3.6805028915405273,-1.074815273284912
1757089334802881000,4.487881103515625,-1.9793057441711426,3.0537872314453125,-0.4464201033115387
1757089334812835800,4.4978359375,-4.880782127380371,1.5225435495376587,0.1747204065322876
1757089334822790000,4.507789794921875,-8.689763069152832,-0.2587532699108124,0.3440724313259125
1757089334832745000,4.517744873046875,-8.049245834350586,-1.4102306365966797,0.2617277503013611
1757089334842700000,4.527699951171875,-5.222753524780273,-1.9592622518539429,0.11880814284086227
1757089334852654000,4.537654052734375,-0.06981396675109863,-2.3411920070648193,0.2823094427585602
1757089334862609000,4.54760888671875,2.752908706665039,-2.0621767044067383,0.14184048771858215
1757089334872563200,4.557563232421875,2.1641438007354736,-1.0612825155258179,-0.24083365499973297
1757089334882518000,4.56751806640625,0.4304736256599426,-0.26703381538391113,-0.3868531882762909
1757089334892473000,4.57747314453125,-0.27982738614082336,0.47542086243629456,-0.16363739967346191
1757089334902427000,4.587427001953125,-0.1184944212436676,0.8978917002677917,0.0645022913813591
1757089334912382200,4.59738232421875,-0.11920468509197235,0.8768678903579712,0.20590895414352417
1757089334922337000,4.6073369140625,-0.10709609091281891,0.6753749847412109,0.24396845698356628
1757089334932291000,4.617291015625,-0.0810684859752655,0.3709990978240967,0.24471095204353333
1757089334942246000,4.627245849609375,-0.07541512697935104,0.03742247447371483,0.20832258462905884
1757089334952200000,4.637199951171875,-0.07054154574871063,-0.23386362195014954,0.10978162288665771
1757089334962155000,4.647155029296875,-0.07537145167589188,-0.35471653938293457,0.018256502225995064
1757089334972110000,4.657110107421875,-0.07696428894996643,-0.35447072982788086,-0.024145815521478653
1757089334982064000,4.667064208984375,-0.09031498432159424,-0.29159456491470337,-0.020010726526379585
1757089334992019000,4.67701904296875,-0.10240653157234192,-0.2101910561323166,0.03104287013411522
1757089335001974000,4.68697412109375,-0.1287422627210617,-0.16456550359725952,0.12035810202360153
1757089335011928000,4.696927978515625,-0.13638447225093842,-0.14653564989566803,0.2190399318933487
1757089335021883100,4.706883056640625,-0.1300666630268097,-0.1551075577735901,0.3026061952114105
1757089335031837000,4.7168369140625,-0.1360132247209549,-0.17320027947425842,0.35501641035079956
1757089335041792000,4.7267919921875,-0.15096688270568848,-0.19279980659484863,0.3860206604003906
1757089335051747000,4.7367470703125,-0.14696654677391052,-0.2135666161775589,0.4004688560962677
1757089335061701000,4.746701171875,-0.06960917264223099,-0.23887009918689728,0.3941832482814789
1757089335071656000,4.756656005859375,-0.020058130845427513,-0.2446422427892685,0.3651106059551239
1757089335081611000,4.766611083984375,-0.004935902543365955,-0.17732125520706177,0.3375721871852875
1757089335091565000,4.77656494140625,0.012078766711056232,-0.10444971174001694,0.3098662495613098
1757089335101520100,4.78652001953125,0.033422406762838364,-0.03597424551844597,0.2517062723636627
1757089335111474000,4.796473876953125,0.04349394887685776,-0.008932774886488914,0.16028021275997162
1757089335121429000,4.806428955078125,0.03449459373950958,-0.0584220290184021,0.05263231694698334
1757089335131384000,4.816384033203125,0.03127802908420563,-0.116343654692173,-0.05759565159678459
1757089335141338000,4.826338134765625,0.025046231225132942,-0.14903555810451508,-0.14784139394760132
1757089335151293000,4.83629296875,0.017704162746667862,-0.11881932616233826,-0.1995927393436432
1757089335161248000,4.846248046875,0.00797510240226984,-0.06391799449920654,-0.22449755668640137
1757089335171202000,4.8562021484375,-0.0018607506062835455,-0.028420189395546913,-0.22625337541103363
1757089335181157000,4.8661572265625,-0.0013526194961741567,-0.012266785837709904,-0.21747639775276184
1757089335191111200,4.876111083984375,-0.0064983791671693325,-0.005119394510984421,-0.1957995891571045
1757089335201066000,4.88606591796875,-0.015631157904863358,-0.009091232903301716,-0.16859300434589386
1757089335211021000,4.89602099609375,-0.01703703962266445,-0.02436392940580845,-0.1323191523551941
1757089335220974800,4.905974853515625,-0.01625380478799343,-0.030422886833548546,-0.09659498184919357
1757089335230930200,4.91593017578125,-0.009304285980761051,-0.016444221138954163,-0.05648910999298096
1757089335240885000,4.925885009765625,-0.005893042776733637,0.026252109557390213,-0.027904335409402847
1757089335250839000,4.935839111328125,-0.012956544756889343,0.07029333710670471,-0.015019962564110756
1757089335260793900,4.9457939453125,-0.013972274959087372,0.10868440568447113,-0.021046163514256477
1757089335270748000,4.955747802734375,-0.01846795715391636,0.15594938397407532,-0.05119873955845833
1757089335280703000,4.965702880859375,-0.021226191893219948,0.1975218653678894,-0.08636737614870071
1757089335290658000,4.975657958984375,-0.019836023449897766,0.22634072601795197,-0.12365083396434784
1757089335300612000,4.985612060546875,-0.017604026943445206,0.24499963223934174,-0.15296238660812378
1757089335310567000,4.99556689453125,-0.00905394833534956,0.27152764797210693,-0.17310307919979095
1757089335320522000,5.00552197265625,-0.0021222729701548815,0.35048824548721313,-0.1767777055501938
1757089335330476000,5.01547607421875,-0.003727626521140337,0.3729967474937439,-0.17050941288471222
1757089335340430800,5.025430908203125,-0.0007033408619463444,0.31634706258773804,-0.17888586223125458
1757089335350385000,5.035385009765625,0.00017230652156285942,0.30280089378356934,-0.17459923028945923
1757089335360340200,5.04534033203125,0.03177390992641449,0.38296815752983093,-0.18895767629146576
1757089335370295000,5.055294921875,0.011452924460172653,0.3638085722923279,-0.16304218769073486
1757089335380249000,5.0652490234375,-0.00506906071677804,0.2832719087600708,-0.1299513429403305
1757089335390204000,5.075203857421875,0.016987772658467293,0.1705770641565323,-0.12209048867225647
1757089335400159200,5.0851591796875,0.030237264931201935,0.1502148061990738,-0.1752128303050995
1757089335410113000,5.095113037109375,0.012480105273425579,0.16030152142047882,-0.21306860446929932
1757089335420068000,5.105068115234375,-0.01073919702321291,0.08376600593328476,-0.20862485468387604
1757089335430022000,5.11502197265625,0.003728425595909357,-0.03422215208411217,-0.19552795588970184
1757089335439977000,5.12497705078125,0.04021559655666351,-0.0872797742486,-0.22103410959243774
1757089335449932000,5.13493212890625,0.047872450202703476,-0.010017214342951775,-0.2814870774745941
1757089335459886000,5.144885986328125,0.038955122232437134,0.10472214967012405,-0.34630733728408813
1757089335469841000,5.1548408203125,0.05710482969880104,0.1611931473016739,-0.3832176923751831
1757089335479796000,5.1647958984375,0.08951869606971741,0.18723087012767792,-0.3850531578063965
1757089335489750000,5.17475,0.07799094170331955,0.15667296946048737,-0.3504674732685089
1757089335499705000,5.184705078125,0.04899896681308746,0.07242706418037415,-0.2876940965652466
1757089335509659100,5.1946591796875,0.012478507123887539,-0.07876858115196228,-0.21067628264427185
1757089335519614000,5.204614013671875,0.020553478971123695,-0.217407688498497,-0.13523797690868378
1757089335529569000,5.214569091796875,0.007130347657948732,-0.2667619287967682,-0.07315170764923096
1757089335539523000,5.224523193359375,0.006541789043694735,-0.2593876123428345,-0.035832565277814865
1757089335549478100,5.23447802734375,0.019299395382404327,-0.23040124773979187,-0.041792985051870346
1757089335559434000,5.24443408203125,0.0263660941272974,-0.1752152293920517,-0.08780281990766525
1757089335569388000,5.254387939453125,0.03803420066833496,-0.0799931064248085,-0.1399267464876175
1757089335579342800,5.2643427734375,0.05908249318599701,0.020716730505228043,-0.190810427069664
1757089335589297000,5.274296875,0.07053009420633316,0.10620792955160141,-0.22355052828788757
1757089335599251700,5.284251708984375,0.08764836192131042,0.1399991810321808,-0.2427479326725006
1757089335609207000,5.29420703125,0.1434706151485443,0.21395117044448853,-0.2823549807071686
1757089335619160800,5.304160888671875,0.18966419994831085,0.2822708487510681,-0.3210315406322479
1757089335629116000,5.314115966796875,0.21434850990772247,0.19078992307186127,-0.3318876624107361
1757089335639070700,5.32407080078125,0.24846947193145752,0.03351987525820732,-0.3245421350002289
1757089335649025000,5.33402490234375,0.25787442922592163,-0.03905312716960907,-0.27030232548713684
1757089335658979800,5.343979736328125,0.2510972023010254,0.051718853414058685,-0.2124486118555069
1757089335668934000,5.353933837890625,0.2296246737241745,0.22159124910831451,-0.18079055845737457
1757089335678888700,5.363888671875,0.20986774563789368,0.362601637840271,-0.19149619340896606
1757089335688844000,5.373843994140625,0.19456522166728973,0.4537491202354431,-0.23244363069534302
1757089335698797800,5.3837978515625,0.1700577437877655,0.4479876458644867,-0.27911099791526794
1757089335708753000,5.3937529296875,0.1438107043504715,0.3854968249797821,-0.31708288192749023
1757089335718707000,5.40370703125,0.10890837758779526,0.27095773816108704,-0.32987749576568604
1757089335728661800,5.413661865234375,0.08090656995773315,0.13798344135284424,-0.31356164813041687
1757089335738616800,5.423616943359375,0.060377854853868484,0.007182811852544546,-0.2651693522930145
1757089335748571000,5.43357080078125,0.03364211693406105,-0.1086343377828598,-0.1973855048418045
1757089335758526000,5.44352587890625,0.009009740315377712,-0.21540844440460205,-0.13098332285881042
1757089335768480800,5.453480712890625,-0.0030210898257791996,-0.2893655002117157,-0.08161497116088867
1757089335778434800,5.463434814453125,-0.01853719912469387,-0.28926002979278564,-0.05836264044046402
1757089335788390000,5.473389892578125,-0.02430161088705063,-0.2096989005804062,-0.05853015556931496
1757089335798344000,5.483343994140625,-0.026635073125362396,-0.09377656131982803,-0.07682394236326218
1757089335808298800,5.493298828125,-0.027218837291002274,0.013773336075246334,-0.10237190872430801
1757089335818253800,5.50325390625,-0.01732093282043934,0.07173383980989456,-0.11907685548067093
1757089335828207900,5.513207763671875,0.0003121224872302264,0.08725554496049881,-0.11272681504487991
1757089335838163000,5.523162841796875,0.018572619184851646,0.08088260143995285,-0.08147728443145752
1757089335848117800,5.53311767578125,0.03867282718420029,0.06977402418851852,-0.028802353888750076
1757089335858071800,5.54307177734375,0.04277755692601204,0.06759129464626312,0.03440804034471512
1757089335868026600,5.553026611328125,0.04681411013007164,0.017601097002625465,0.05453648045659065
1757089335877981000,5.56298095703125,0.03841103985905647,-0.06541123241186142,0.06350014358758926
1757089335887936000,5.57293603515625,0.008388158865272999,-0.0991702601313591,0.07611393928527832
1757089335897890800,5.582890869140625,-0.004730306565761566,-0.11302109062671661,0.07991427183151245
1757089335907844900,5.592844970703125,0.0007163903210312128,-0.07712487876415253,0.10590006411075592
1757089335917800000,5.602800048828125,0.008841427974402905,-0.11151348054409027,0.11744247376918793
1757089335927754800,5.612754638671875,-0.0031100395135581493,-0.14326101541519165,0.11414840817451477
1757089335937708800,5.622708740234375,0.027470240369439125,-0.051297277212142944,0.03543069586157799
1757089335947664000,5.632663818359375,0.03226419538259506,-0.0041555967181921005,-0.004101800732314587
1757089335957617700,5.64261767578125,0.03636573255062103,-0.10542549192905426,0.04085981473326683
1757089335967573000,5.652572998046875,0.040042757987976074,-0.07489075511693954,0.05552637577056885
1757089335977527800,5.66252783203125,0.029587186872959137,0.008117315359413624,0.018857844173908234
1757089335987481900,5.67248193359375,0.0142356613650918,0.002552107209339738,-0.026435069739818573
1757089335997436700,5.682436767578125,0.008290686644613743,0.029156820848584175,-0.08447866141796112
1757089336007390700,5.692390625,-0.013931527733802795,-0.03862861916422844,-0.07000571489334106
1757089336017345800,5.702345703125,-0.019870644435286522,-0.07912944257259369,-0.01170432660728693
1757089336027300900,5.71230078125,-0.016625314950942993,-0.04147021099925041,0.01471795979887247
1757089336037255000,5.7222548828125,-0.0190794188529253,-0.023244602605700493,0.019896209239959717
1757089336047209700,5.732209716796875,-0.01666659489274025,-0.0054698665626347065,0.006715693045407534
1757089336057164800,5.742164794921875,-0.014854580163955688,-0.014455904252827168,0.00027537086862139404
1757089336067118800,5.752118896484375,-0.009324525482952595,-0.01335868239402771,0.0014439659425988793
1757089336077074000,5.762073974609375,-0.0014982944121584296,-0.03140293061733246,0.010325075127184391
1757089336087027700,5.77202783203125,0.0005779059720225632,-0.04657921940088272,0.024940503761172295
1757089336096983000,5.781983154296875,0.006161755882203579,-0.04959365352988243,0.03913142532110214
1757089336106937900,5.791937744140625,0.007260043174028397,-0.04439835622906685,0.0444638691842556
1757089336116892000,5.801891845703125,0.008558601140975952,-0.040697094053030014,0.041424140334129333
1757089336126846700,5.8118466796875,0.0068174260668456554,-0.04328462481498718,0.03170439973473549
1757089336136802000,5.821802001953125,0.006561762653291225,-0.05301954224705696,0.02166108600795269
1757089336146755800,5.831755859375,0.00544350128620863,-0.06753723323345184,0.015593873336911201
1757089336156711000,5.8417109375,0.004034422803670168,-0.0674714520573616,0.013233779929578304
1757089336166665000,5.8516650390625,0.001026382320560515,-0.05355430394411087,0.010898986831307411
1757089336176619800,5.861619873046875,-0.0041342913173139095,-0.03479260206222534,0.0037209687288850546
1757089336186574800,5.871574951171875,-0.007285609841346741,-0.016594156622886658,-0.003837615018710494
1757089336196529000,5.88152880859375,-0.010302971117198467,-0.01185186579823494,-0.005299157928675413
1757089336206484000,5.89148388671875,-0.009764746762812138,-0.008783637546002865,-0.00475507415831089
1757089336216438800,5.901438720703125,-0.007643538527190685,-0.007778827100992203,-0.000018375811123405583
1757089336226392800,5.911392822265625,-0.004282096866518259,-0.017797639593482018,0.006946322973817587
1757089336236348000,5.921347900390625,-0.0008133294177241623,-0.03322453051805496,0.018377674743533134
1757089336246302000,5.931302001953125,0.005293032620102167,-0.04324867203831673,0.027844946831464767
1757089336256256800,5.9412568359375,0.009254750795662403,-0.054193198680877686,0.03193129971623421
1757089336266211800,5.9512119140625,0.011211109347641468,-0.06542214751243591,0.03289589658379555
1757089336276166000,5.961165771484375,0.0084877610206604,-0.06641045212745667,0.030173081904649734
1757089336286121000,5.971120849609375,0.005090099759399891,-0.06420641392469406,0.024659007787704468
1757089336296074800,5.98107470703125,0.0019217369845137,-0.06269640475511551,0.02190529927611351
1757089336306029800,5.99102978515625,-0.001508680754341185,-0.06484664231538773,0.017171263694763184
1757089336315985000,6.00098486328125,0.0003028014034498483,-0.07980215549468994,0.016162192448973656
1757089336325939000,6.01093896484375,0.004171309061348438,-0.09567219763994217,0.01607377454638481
1757089336335893800,6.020893798828125,0.009123191237449646,-0.10848359763622284,0.013675864785909653
1757089336345848800,6.030848876953125,0.014357101172208786,-0.12053413689136505,0.004544151946902275
1757089336355803000,6.040802978515625,0.014448714442551136,-0.12188436090946198,-0.007174023427069187
1757089336365758000,6.050758056640625,0.008700015023350716,-0.12114746123552322,-0.013226589187979698
1757089336375712000,6.0607119140625,0.0062696137465536594,-0.11680863797664642,-0.012440424412488937
1757089336385666800,6.070666748046875,0.004999818746000528,-0.11081812530755997,-0.00933065079152584
1757089336395622000,6.080621826171875,0.005431517027318478,-0.09625622630119324,-0.005367334932088852
1757089336405575700,6.09057568359375,0.006596916355192661,-0.07752116024494171,-0.0027137610595673323
1757089336415531000,6.100531005859375,0.008263256400823593,-0.05916638299822807,-0.006936735473573208
1757089336425485800,6.11048583984375,0.007592672016471624,-0.04741864651441574,-0.012347213923931122
1757089336435439900,6.12043994140625,0.0076001291163265705,-0.03543868288397789,-0.015501195564866066
1757089336445394700,6.130394775390625,0.0026549051981419325,-0.0229167677462101,-0.01648390106856823
1757089336455349000,6.140348876953125,-0.0014908375451341271,-0.009582320228219032,-0.018810439854860306
1757089336465303800,6.1503037109375,-0.006673615425825119,0.008085357025265694,-0.022949524223804474
1757089336475259000,6.1602587890625,-0.012842029333114624,0.027090739458799362,-0.02646942436695099
1757089336485213000,6.170212890625,-0.014738465659320354,0.03834525868296623,-0.030708111822605133
1757089336495168000,6.18016796875,-0.013412744738161564,0.040104277431964874,-0.033192574977874756
1757089336505122800,6.190122802734375,-0.011235344223678112,0.03778066858649254,-0.036201413720846176
1757089336515076900,6.200076904296875,-0.003549461020156741,0.030006900429725647,-0.03668690845370293
1757089336525031700,6.21003173828125,0.002031192881986499,0.020898090675473213,-0.03242824599146843
1757089336534985700,6.21998583984375,0.008281365968286991,0.016597619280219078,-0.03364051878452301
1757089336544941000,6.229941162109375,0.010702977888286114,0.01565565913915634,-0.035526569932699203
1757089336554896000,6.239895751953125,0.011661715805530548,0.00908484123647213,-0.03778066858649254
1757089336564849400,6.249849365234375,0.011155715212225914,-0.00025832661776803434,-0.03429192677140236
1757089336574804500,6.259804443359375,0.008845156989991665,-0.007986021228134632,-0.025975141674280167
1757089336584758500,6.269758544921875,0.00640809815376997,-0.01130698248744011,-0.0160700473934412
1757089336594713300,6.27971337890625,0.0073018549010157585,-0.01010776124894619,-0.008175904862582684
1757089336604668400,6.28966845703125,0.003507383167743683,-0.004525243304669857,-0.005197159014642239
1757089336614622700,6.299622802734375,0.0009917612187564373,-0.0013036173768341541,-0.0022397185675799847
1757089336624577500,6.30957763671875,0.0006705839768983424,0.003058906877413392,-0.0015638081822544336
1757089336634532400,6.319532470703125,-0.002567553659901023,0.0022658174857497215,0.0027268105186522007
1757089336644486400,6.329486328125,-0.001427720650099218,-0.002001631772145629,0.011867311783134937
1757089336654441500,6.33944140625,-0.0005195827106945217,-0.002927346620708704,0.02022271417081356
1757089336664395500,6.3493955078125,-0.0010556770721450448,0.0030123014003038406,0.024653147906064987
1757089336674350600,6.3593505859375,-0.0028703550342470407,0.011893144808709621,0.025408953428268433
1757089336684305400,6.369305419921875,-0.0032352081034332514,0.01576458103954792,0.02014814503490925
1757089336694259500,6.379259521484375,-0.001820270554162562,0.009535182267427444,0.013830861076712608
1757089336704214500,6.389214599609375,-0.004822185728698969,-0.003960120491683483,0.01101563312113285
1757089336714169600,6.399169677734375,-0.002918291836977005,-0.02249998226761818,0.012800483964383602
1757089336724123400,6.409123291015625,-0.0020607539918273687,-0.03918308764696121,0.014902782626450062
1757089336734078500,6.419078369140625,-0.001793905277736485,-0.05011057108640671,0.013853231444954872
1757089336744032300,6.4290322265625,-0.002156361471861601,-0.051429104059934616,0.010524812154471874
1757089336753987600,6.438987548828125,-0.002788063371554017,-0.047082822769880295,0.007078948430716991
1757089336763942400,6.4489423828125,-0.005885053426027298,-0.0400954894721508,0.0002306297537870705
1757089336773896400,6.458896484375,-0.010456635616719723,-0.03478248044848442,-0.004511128645390272
1757089336783851300,6.468851318359375,-0.01110431645065546,-0.03518488630652428,-0.0030280142091214657
1757089336793806600,6.478806640625,-0.014540060423314571,-0.03600247576832771,0.0018745990237221122
1757089336803760600,6.4887607421875,-0.013835920952260494,-0.038421958684921265,0.007054447196424007
1757089336813715500,6.498715576171875,-0.013665745034813881,-0.03455637767910957,0.010115218348801136
1757089336823669500,6.50866943359375,-0.012684103101491928,-0.02159051224589348,0.010624414309859276
1757089336833624300,6.518624267578125,-0.009607885964214802,-0.006735134404152632,0.013178120367228985
1757089336843579600,6.52857958984375,-0.009074721485376358,0.007831291295588017,0.019902868196368217
1757089336853533400,6.538533447265625,-0.008049404248595238,0.02418736182153225,0.027047064155340195
1757089336863488500,6.548488525390625,-0.007545268163084984,0.03395024314522743,0.03249455988407135
1757089336873443300,6.558443359375,-0.007459514308720827,0.03754923865199089,0.0332796610891819
1757089336883397600,6.568397705078125,-0.006995324976742268,0.03946405276656151,0.031323302537202835
1757089336893352400,6.5783525390625,-0.0062818643637001514,0.04554005339741707,0.02388296276330948
1757089336903306500,6.588306396484375,-0.005900765769183636,0.05274949595332146,0.02069196291267872
1757089336913261300,6.59826123046875,-0.0059569585137069225,0.06004176661372185,0.018067950382828712
1757089336923216600,6.608216552734375,-0.006702643819153309,0.06290200352668762,0.01577097363770008
1757089336933170400,6.61817041015625,-0.009615609422326088,0.06362451612949371,0.015276690945029259
1757089336943125500,6.62812548828125,-0.012431901879608631,0.06318269670009613,0.01173202320933342
1757089336953080300,6.638080322265625,-0.016206400468945503,0.05939914286136627,0.014992797747254372
1757089336963034400,6.648034423828125,-0.018846658989787102,0.05282966047525406,0.018188325688242912
1757089336972989400,6.657989501953125,-0.018425878137350082,0.048060204833745956,0.01985306665301323
1757089336982943500,6.667943603515625,-0.015056713484227657,0.03917882591485977,0.018755311146378517
1757089336992898600,6.677898681640625,-0.011214304715394974,0.0294303260743618,0.01218769047409296
1757089337002853400,6.687853271484375,-0.010456901974976063,0.01812041364610195,0.009278452955186367
1757089337012807400,6.697807373046875,-0.006502374075353146,0.009588977321982384,0.01167663000524044
1757089337022762500,6.707762451171875,-0.0038895467296242714,-0.0005286374944262207,0.017250625416636467
1757089337032716500,6.717716552734375,-0.0033694314770400524,-0.010953315533697605,0.018852517008781433
1757089337042671400,6.72767138671875,0.0013683321885764599,-0.020918598398566246,0.02208719216287136
1757089337052626400,6.73762646484375,0.0015419702976942062,-0.02719699963927269,0.026883546262979507
1757089337062580500,6.74758056640625,0.0036730316933244467,-0.03003566339612007,0.03178216516971588
1757089337072535600,6.75753564453125,0.004996622912585735,-0.03202797472476959,0.03272359073162079
1757089337082490400,6.767490478515625,0.006383330561220646,-0.030050311237573624,0.0363987535238266
1757089337092444400,6.7774443359375,0.007026484236121178,-0.01812094636261463,0.038427550345659256
1757089337102399500,6.7873994140625,0.007896272465586662,-0.001133441342972219,0.03902942314743996
1757089337112353500,6.797353515625,0.009935721755027771,0.01570199802517891,0.03410071134567261
1757089337122308600,6.80730859375,0.012564794160425663,0.025298964232206345,0.026731746271252632
1757089337132263400,6.817263427734375,0.014846856705844402,0.031087080016732216,0.022402510046958923
1757089337142217500,6.827217529296875,0.013518472202122211,0.027034280821681023,0.02053004316985607
1757089337152172500,6.837172607421875,0.01696699857711792,0.02106533758342266,0.02280677855014801
1757089337162127600,6.847127685546875,0.014691594056785107,0.011610849760472775,0.026032399386167526
1757089337172081400,6.857081298828125,0.016382968053221703,0.0132111432030797,0.026395121589303017
1757089337182036500,6.867036376953125,0.016589628532528877,0.02461666241288185,0.018315624445676804
1757089337191990300,6.876990234375,0.013029515743255615,0.0397290363907814,0.0035984632559120655
1757089337201945600,6.886945556640625,0.010624680668115616,0.05038008466362953,-0.008576709777116776
1757089337211900400,6.896900390625,0.006567355245351791,0.051064249128103256,-0.01654808409512043
1757089337221854500,6.9068544921875,0.005210208240896463,0.04590011388063431,-0.01315148826688528
1757089337231809300,6.916809326171875,0.0037148434203118086,0.0403684601187706,-0.004775580484420061
1757089337241763600,6.926763671875,0.00851545762270689,0.0407429039478302,0.0023843280505388975
1757089337251718400,6.936718505859375,0.010372479446232319,0.046293728053569794,0.006363090593367815
1757089337261673500,6.946673583984375,0.014675348997116089,0.05613517388701439,0.00740358792245388
1757089337271627500,6.95662744140625,0.018487131223082542,0.06920862942934036,0.008188155479729176
1757089337281582600,6.96658251953125,0.024275511503219604,0.07874168455600739,0.00914396345615387
1757089337291537400,6.976537353515625,0.026939205825328827,0.08108020573854446,0.011170895770192146
1757089337301491500,6.986491455078125,0.030903054401278496,0.07724285870790482,0.01341407559812069
1757089337311446500,6.996446533203125,0.03209242224693298,0.0731317326426506,0.018011758103966713
1757089337321400300,7.006400390625,0.031128091737627983,0.07290110737085342,0.01810630038380623
1757089337331355600,7.016355712890625,0.027657194063067436,0.07305343449115753,0.015510249882936478
1757089337341310500,7.026310546875,0.024758076295256615,0.07306782156229019,0.01017034612596035
1757089337351264500,7.036264404296875,0.017351826652884483,0.06875909119844437,0.005185174755752087
1757089337361219300,7.04621923828125,0.011080614291131496,0.06022818759083748,0.00025539714260958135
1757089337371174700,7.056174560546875,0.008252870291471481,0.05516951158642769,0.0009552759001962841
1757089337381128400,7.06612841796875,0.006569752003997564,0.050399258732795715,0.0024764735717326403
1757089337391083500,7.07608349609375,0.006677876226603985,0.051058921962976456,0.0051777176558971405
1757089337401037600,7.08603759765625,0.005872270092368126,0.05657752603292465,0.005197691265493631
1757089337410992400,7.095992431640625,0.009753295220434666,0.06304581463336945,0.007701328955590725
1757089337420947500,7.105947509765625,0.007787349168211222,0.07041770964860916,0.009528257884085178
1757089337430901500,7.115901611328125,0.010789263993501663,0.0771549716591835,0.011214038357138634
1757089337440856600,7.125856689453125,0.010551710613071918,0.08140777051448822,0.011758921667933464
1757089337450810400,7.135810302734375,0.012626845389604568,0.07737202197313309,0.013074256479740143
1757089337460765400,7.145765380859375,0.013295832090079784,0.07639303803443909,0.015615977346897125
1757089337470720500,7.155720458984375,0.009374859742820263,0.07743620127439499,0.019589945673942566
1757089337480674600,7.165674560546875,0.0062941149808466434,0.08113959431648254,0.02093351073563099
1757089337490629400,7.17562939453125,0.002682602033019066,0.08204346895217896,0.021575333550572395
1757089337500584400,7.18558447265625,0.00005326322207110934,0.08370927721261978,0.022354841232299805
1757089337510538500,7.19553857421875,-0.003998736385256052,0.08300726860761642,0.02269625850021839
1757089337520493600,7.20549365234375,-0.005302353762090206,0.0775536447763443,0.021410750225186348
1757089337530447400,7.215447265625,-0.00950908288359642,0.07687187939882278,0.02209358476102352
1757089337540402400,7.22540234375,-0.010630539618432522,0.07925327867269516,0.022578014060854912
1757089337550357500,7.235357421875,-0.01446762215346098,0.0840269923210144,0.029617812484502792
1757089337560311800,7.245311767578125,-0.01702026277780533,0.08843985199928284,0.040716271847486496
1757089337570267000,7.255266845703125,-0.02178066223859787,0.0811246782541275,0.05552797392010689
1757089337580221000,7.265220947265625,-0.021914886310696602,0.06105935946106911,0.07350803911685944
1757089337590175700,7.27517578125,-0.023963123559951782,0.035411786288022995,0.08267837017774582
1757089337600130800,7.285130859375,-0.02455434575676918,0.014536598697304726,0.08772265911102295
1757089337610084900,7.2950849609375,-0.026681944727897644,-0.003582750679925084,0.09164709597826004
1757089337620040000,7.3050400390625,-0.027401531115174294,-0.016339559108018875,0.09555981308221817
1757089337629994000,7.314993896484375,-0.027789287269115448,-0.02834402397274971,0.10253782570362091
1757089337639948800,7.32494873046875,-0.02521028183400631,-0.038667235523462296,0.10699116438627243
1757089337649903900,7.33490380859375,-0.023380955681204796,-0.04771745577454567,0.10808492451906204
1757089337659857700,7.344857666015625,-0.01878300867974758,-0.05342274531722069,0.10249441862106323
1757089337669813000,7.35481298828125,-0.016085492447018623,-0.06256883591413498,0.09577419608831406
1757089337679767800,7.364767822265625,-0.015292936004698277,-0.08109964430332184,0.08381474018096924
1757089337689721900,7.374721923828125,-0.009473929181694984,-0.09703866392374039,0.07263452559709549
1757089337699676700,7.3846767578125,-0.0020362529903650284,-0.10812700539827347,0.06751832365989685
1757089337709631000,7.394630859375,0.007910653948783875,-0.11415480077266693,0.06576196849346161
1757089337719585800,7.404585693359375,0.017903899773955345,-0.12492915242910385,0.06440375745296478
1757089337729540900,7.414540771484375,0.026161829009652138,-0.1425877809524536,0.0579940602183342
1757089337739495000,7.424494873046875,0.03604961186647415,-0.16196998953819275,0.04916754737496376
1757089337749450000,7.434449951171875,0.04090429097414017,-0.18157458305358887,0.04002757743000984
1757089337759404000,7.444404052734375,0.04556002840399742,-0.19810163974761963,0.03130332753062248
1757089337769358800,7.45435888671875,0.04657016322016716,-0.20222686231136322,0.02478577382862568
1757089337779314000,7.46431396484375,0.04969858005642891,-0.21343638002872467,0.013914749957621098
1757089337789267700,7.474267822265625,0.04904823750257492,-0.22967340052127838,0.0002721750643104315
1757089337799223000,7.48422314453125,0.047558728605508804,-0.23481065034866333,-0.011215370148420334
1757089337809177900,7.494177734375,0.044747497886419296,-0.22852212190628052,-0.012219115160405636
1757089337819132000,7.5041318359375,0.04033384099602699,-0.21496157348155975,-0.010399377904832363
1757089337829086700,7.514086669921875,0.03267085924744606,-0.20243725180625916,-0.012672385200858116
1757089337839040800,7.524040771484375,0.015688415616750717,-0.17817452549934387,-0.018616028130054474
1757089337848995800,7.533995849609375,-0.0079761678352952,-0.12509693205356598,-0.02665451355278492
1757089337858951000,7.543950927734375,-0.04195384308695793,-0.03321893885731697,-0.03176724910736084
1757089337868904700,7.55390478515625,-0.0798138752579689,0.05357640981674194,-0.04435707628726959
1757089337878859800,7.56385986328125,-0.12059725075960159,0.10724309831857681,-0.06550763547420502
1757089337888813800,7.573813720703125,-0.15045341849327087,0.1532558649778366,-0.08197023719549179
1757089337898769000,7.583768798828125,-0.17505091428756714,0.20917345583438873,-0.08565311878919601
1757089337908723700,7.5937236328125,-0.1842297613620758,0.25194916129112244,-0.06751832365989685
1757089337918677800,7.603677734375,-0.1764192432165146,0.2705412209033966,-0.029437784105539322
1757089337928632800,7.6136328125,-0.14597851037979126,0.24232368171215057,0.011901400052011013
1757089337938587000,7.6235869140625,-0.09373048692941666,0.17829090356826782,0.045581065118312836
1757089337948542000,7.6335419921875,-0.05814266577363014,0.1472962498664856,0.08110044151544571
1757089337958496800,7.643496826171875,-0.018728414550423622,0.14554814994335175,0.11538971215486526
1757089337968450800,7.653450927734375,0.0028240159153938293,0.15165850520133972,0.12957291305065155
1757089337978406000,7.663406005859375,0.017768610268831253,0.16337987780570984,0.1321660280227661
1757089337988360000,7.67335986328125,0.01363138947635889,0.18915687501430511,0.11291083693504333
1757089337998314800,7.683314697265625,-0.0004391552647575736,0.22096939384937286,0.08763957023620605
1757089338008269800,7.693269775390625,-0.01079965103417635,0.2525113523006439,0.05643318220973015
1757089338018223900,7.703223876953125,-0.03009611740708351,0.24494902789592743,0.03936205431818962
1757089338028179000,7.713178955078125,-0.046789344400167465,0.19576817750930786,0.03487835451960564
1757089338038133800,7.7231337890625,-0.051899682730436325,0.11587467044591904,0.049431730061769485
1757089338048087800,7.733087890625,-0.061230868101119995,0.03543389216065407,0.08600465953350067
1757089338058043000,7.74304296875,-0.0395820289850235,0.016715331003069878,0.14545413851737976
1757089338067996700,7.75299658203125,-0.035588622093200684,0.009945841506123543,0.2000923454761505
1757089338077952000,7.762951904296875,-0.03658197820186615,0.0022983080707490444,0.22186608612537384
1757089338087906800,7.77290673828125,-0.026384469121694565,0.02093564160168171,0.20434993505477905
1757089338097860900,7.78286083984375,0.003754258155822754,0.06263595074415207,0.18707002699375153
1757089338107815700,7.792815673828125,0.022851519286632538,0.12483248114585876,0.17456701397895813
1757089338117770000,7.80277001953125,0.0383889339864254,0.20597313344478607,0.1678854078054428
1757089338127724800,7.812724853515625,0.04260391741991043,0.2561947703361511,0.17456461489200592
1757089338137680000,7.822679931640625,0.05501904338598251,0.2922300100326538,0.19114811718463898
1757089338147633700,7.832633544921875,0.05708778649568558,0.29996514320373535,0.20727728307247162
1757089338157589000,7.842589111328125,0.05925906077027321,0.32246673107147217,0.22075794637203217
1757089338167543000,7.85254296875,0.050582483410835266,0.3471220135688782,0.2321205884218216
1757089338177497900,7.862497802734375,0.0443275161087513,0.366115927696228,0.23740296065807343
1757089338187452700,7.87245263671875,0.03297046571969986,0.38883882761001587,0.2418091595172882
1757089338197406700,7.88240673828125,0.020112192258238792,0.417447566986084,0.24531228840351105
1757089338207362000,7.892362060546875,0.004965463653206825,0.4212487041950226,0.24255459010601044
1757089338217315800,7.90231591796875,-0.00797243881970644,0.41416841745376587,0.24271437525749207
1757089338227271000,7.91227099609375,-0.023548202589154243,0.4103129506111145,0.25057655572891235
1757089338237225700,7.922225830078125,-0.030253775417804718,0.4119689166545868,0.25693246722221375
1757089338247179800,7.9321796875,-0.04839469492435455,0.39845895767211914,0.2692945897579193
1757089338257134800,7.942134765625,-0.05435245484113693,0.3721725046634674,0.2834317088127136
1757089338267089000,7.9520888671875,-0.06190917268395424,0.31865572929382324,0.29933664202690125
1757089338277043700,7.962043701171875,-0.060018595308065414,0.247742161154747,0.3204536437988281
1757089338286998800,7.971998779296875,-0.07805033028125763,0.1987415850162506,0.34254589676856995
1757089338296953000,7.981953125,-0.09358134865760803,0.14134381711483002,0.35194870829582214
1757089338306908000,7.991907958984375,-0.08762358874082565,0.13493545353412628,0.35358551144599915
1757089338316862700,8.00186279296875,-0.06835348904132843,0.1262759119272232,0.3314996361732483
1757089338326816800,8.011816650390625,-0.06398377567529678,0.09989357739686966,0.2959837317466736
1757089338336771800,8.021771728515626,-0.0690871924161911,0.044501952826976776,0.24069543182849884
1757089338346726000,8.031725830078125,-0.05122723430395126,-0.052915412932634354,0.17427752912044525
1757089338356681000,8.041680908203125,-0.009578324854373932,-0.15365268290042877,0.11055553704500198
1757089338366635800,8.0516357421875,0.0026607641484588385,-0.23365935683250427,0.07951666414737701
1757089338376589800,8.06158984375,-0.02972966618835926,-0.22223706543445587,0.05372634530067444
1757089338386545000,8.071544921875,-0.030586671084165573,-0.19672131538391113,0.03996685892343521
1757089338396499000,8.0814990234375,-0.0569133497774601,-0.18165235221385956,0.04157673940062523
1757089338406453800,8.091453857421875,-0.0756409615278244,-0.17301678657531738,0.07203610986471176
1757089338416408800,8.101408935546875,-0.09769300371408463,-0.19748857617378235,0.10742419213056564
1757089338426363000,8.11136279296875,-0.103792704641819,-0.2756821811199188,0.1463167369365692
1757089338436318000,8.12131787109375,-0.11867312341928482,-0.3222030699253082,0.18933716416358948
1757089338446272000,8.13127197265625,-0.1229080781340599,-0.36743712425231934,0.24374288320541382
1757089338456226800,8.141226806640624,-0.12528148293495178,-0.4129023551940918,0.2986293137073517
1757089338466181600,8.151181640625,-0.1259259730577469,-0.4337748885154724,0.35816773772239685
1757089338476136000,8.161135986328125,-0.13461613655090332,-0.39845389127731323,0.4168052077293396
1757089338486091000,8.171091064453124,-0.1534300297498703,-0.3171316087245941,0.4571550190448761
1757089338496044800,8.181044921875,-0.17663894593715668,-0.1985253393650055,0.45644211769104004
1757089338506000000,8.190999755859375,-0.21025682985782623,-0.10069332271814346,0.418790340423584
1757089338515954700,8.20095458984375,-0.22835540771484375,-0.07933130860328674,0.3542901575565338
1757089338525909000,8.210908935546875,-0.21836349368095398,-0.16007594764232635,0.2691611647605896
1757089338535863800,8.22086376953125,-0.13089250028133392,-0.3302229046821594,0.1600314825773239
1757089338545817900,8.23081787109375,-0.08745607733726501,-0.41930246353149414,0.026503512635827065
1757089338555772700,8.240772705078125,-0.04031386598944664,-0.42017143964767456,-0.11642354726791382
1757089338565727700,8.250727783203125,0.017247695475816727,-0.3557743430137634,-0.25570446252822876
1757089338575681800,8.260681884765624,0.09106466174125671,-0.2674841582775116,-0.378520667552948
1757089338585636600,8.27063671875,0.17051954567432404,-0.1736903041601181,-0.4897920787334442
1757089338595590700,8.280590576171875,0.22844116389751434,-0.0628705769777298,-0.5981704592704773
1757089338605545500,8.29054541015625,0.26763251423835754,0.06054004281759262,-0.7120632529258728
1757089338615500800,8.300500732421876,0.2752680480480194,0.21463000774383545,-0.8270531892776489
1757089338625454600,8.31045458984375,0.2546647787094116,0.43638184666633606,-0.9170595407485962
1757089338635409700,8.32040966796875,0.22170495986938477,0.7293684482574463,-0.9817213416099548
1757089338645363500,8.330363525390625,0.14369778335094452,0.9923846125602722,-1.0768702030181885
1757089338655318500,8.340318603515625,0.019535617902874947,1.1032205820083618,-1.3026255369186401
1757089338665273600,8.350273681640624,-0.11159603297710419,1.0189142227172852,-1.650635004043579
1757089338675227600,8.3602275390625,-0.2214231938123703,0.7541893720626831,-2.0386526584625244
1757089338685182500,8.370182373046875,-0.3064691126346588,0.3875988721847534,-2.348506212234497
1757089338695136500,8.380136474609374,-0.36586105823516846,-0.02165043354034424,-2.49919056892395
1757089338705091800,8.390091796875,-0.40682342648506165,-0.4048263132572174,-2.494084358215332
1757089338715046700,8.400046630859375,-0.45354512333869934,-0.6765486598014832,-2.3341691493988037
1757089338725000700,8.410000732421874,-0.5250752568244934,-0.7818276286125183,-2.1008431911468506
1757089338734955500,8.41995556640625,-0.5594356060028076,-0.748889684677124,-1.8806564807891846
1757089338744909600,8.42990966796875,-0.5364149808883667,-0.6616751551628113,-1.683029055595398
1757089338754864600,8.43986474609375,-0.4408644735813141,-0.604102373123169,-1.4916514158248901
1757089338764819700,8.44981982421875,-0.3284894526004791,-0.5041387677192688,-1.302693486213684
1757089338774773500,8.4597734375,-0.2376043051481247,-0.27260062098503113,-1.1426987648010254
1757089338784728600,8.469728515625,-0.1624392420053482,0.0884595587849617,-1.0167040824890137
1757089338794682600,8.4796826171875,-0.09948211908340454,0.4956587553024292,-0.9629055857658386
1757089338804637700,8.4896376953125,-0.02949291095137596,0.8991242051124573,-1.0074315071105957
1757089338814592500,8.499592529296875,0.00782516598701477,1.2357772588729858,-1.1388068199157715
1757089338824546600,8.509546630859376,-0.004662662278860807,1.481716275215149,-1.2927484512329102
1757089338834501600,8.519501708984375,-0.030420489609241486,1.6665207147598267,-1.4491654634475708
1757089338844455700,8.52945556640625,-0.04682129994034767,1.763177514076233,-1.6163926124572754
1757089338854410800,8.53941064453125,-0.036968935281038284,1.7628117799758911,-1.7981053590774536
1757089338864365600,8.549365478515625,-0.001204547705128789,1.6813644170761108,-1.980685830116272
1757089338874319600,8.559319580078125,0.055691223591566086,1.5918960571289062,-2.122852087020874
1757089338884274400,8.5692744140625,0.13295379281044006,1.5424067974090576,-2.181361436843872
1757089338894228700,8.579228759765625,0.21692246198654175,1.5476657152175903,-2.1637561321258545
1757089338904183600,8.58918359375,0.290167897939682,1.5244413614273071,-2.0770747661590576
1757089338914138600,8.599138671875,0.35008424520492554,1.529229998588562,-1.8784369230270386
1757089338924092400,8.609092529296875,0.3681894838809967,1.4089701175689697,-1.5040204524993896
1757089338934047700,8.6190478515625,0.379261314868927,1.2450339794158936,-1.1024943590164185
1757089338944001800,8.629001708984376,0.38444462418556213,0.9696558713912964,-0.755021333694458
1757089338953956600,8.63895654296875,0.4015202522277832,0.7323671579360962,-0.4734208285808563
1757089338963911400,8.648911376953125,0.3915744125843048,0.5884866714477539,-0.2532429099082947
1757089338973865500,8.658865478515626,0.3653039336204529,0.5745836496353149,-0.1067189872264862
1757089338983820800,8.66882080078125,0.3462202548980713,0.5956079959869385,-0.014140053652226925
1757089338993774600,8.678774658203125,0.33454787731170654,0.601254403591156,0.05372927337884903
1757089339003729700,8.688729736328124,0.32212504744529724,0.5577564835548401,0.13963831961154938
1757089339013684500,8.6986845703125,0.3163246810436249,0.4822116494178772,0.26707884669303894
1757089339023638500,8.708638427734375,0.3141272962093353,0.40148404240608215,0.42142313718795776
1757089339033593600,8.718593505859374,0.31395021080970764,0.33809494972229004,0.5952644348144531
1757089339043547600,8.728547607421875,0.3144325017929077,0.3064347505569458,0.7728663682937622
1757089339053502500,8.73850244140625,0.32515040040016174,0.28049904108047485,0.9530332088470459
1757089339063457500,8.74845751953125,0.3446098566055298,0.2936207056045532,1.1229679584503174
1757089339073411600,8.75841162109375,0.3521314263343811,0.29742661118507385,1.2786470651626587
1757089339083366700,8.76836669921875,0.35334688425064087,0.2922646105289459,1.3954524993896484
1757089339093320700,8.77832080078125,0.350425660610199,0.2938215136528015,1.4436935186386108
1757089339103275500,8.788275634765625,0.36009159684181213,0.2886003851890564,1.4095858335494995
1757089339113230600,8.798230712890625,0.39882728457450867,0.31065961718559265,1.2954773902893066
1757089339123184600,8.8081845703125,0.4241566061973572,0.4029088318347931,1.1004676818847656
1757089339133139700,8.8181396484375,0.3962741196155548,0.4750581383705139,0.8324258327484131
1757089339143093500,8.828093505859375,0.3570880889892578,0.5258512496948242,0.5248233079910278
1757089339153048600,8.838048583984374,0.32495757937431335,0.6047833561897278,0.17128360271453857
1757089339163003600,8.848003662109376,0.2836511433124542,0.6846835017204285,-0.2494862675666809
1757089339172957700,8.857957763671875,0.24003709852695465,0.7049714922904968,-0.6934357285499573
1757089339182912500,8.86791259765625,0.23843200504779816,0.6248502731323242,-1.0597740411758423
1757089339192866600,8.877866455078125,0.25738972425460815,0.45593902468681335,-1.287079095840454
1757089339202821400,8.8878212890625,0.24594691395759583,0.20895721018314362,-1.3349003791809082
1757089339212776700,8.897776611328124,0.2783685028553009,0.09367083013057709,-1.2637947797775269
1757089339222730800,8.907730712890626,0.2765141427516937,0.18932625651359558,-1.1385139226913452
1757089339232685600,8.917685546875,0.20594145357608795,0.46877574920654297,-0.9988603591918945
1757089339242639600,8.9276396484375,0.09888849407434464,0.7333173751831055,-0.8948721885681152
1757089339252594700,8.9375947265625,0.05372101813554764,0.9502150416374207,-0.7888855934143066
1757089339262549800,8.9475498046875,0.0740278884768486,1.2100841999053955,-0.5773757100105286
1757089339272503600,8.957503662109374,0.09336882829666138,1.2997206449508667,-0.33500808477401733
1757089339282458600,8.967458740234376,0.0989428237080574,1.200576663017273,-0.21294955909252167
1757089339292413700,8.97741357421875,0.10054445266723633,1.111362099647522,-0.20072510838508606
1757089339302367700,8.98736767578125,0.1092415377497673,1.042087435722351,-0.21371974050998688
1757089339312322600,8.997322509765626,0.09668926149606705,0.865973174571991,-0.19824545085430145
1757089339322276600,9.007276611328125,0.048350486904382706,0.4925156831741333,-0.10286007076501846
1757089339332231400,9.0172314453125,-0.014662299305200577,-0.06016373634338379,0.07553204149007797
1757089339342186800,9.027186767578126,-0.09452064335346222,-0.7660979628562927,0.297863632440567
1757089339352140500,9.037140625,-0.11435773223638535,-1.3672118186950684,0.4587361514568329
1757089339362095600,9.047095703125,-0.028016453608870506,-1.7408138513565063,0.3886161744594574
1757089339372049700,9.057049560546876,0.16434048116207123,-1.7411710023880005,0.06151076406240463
1757089339382004500,9.06700439453125,0.24228720366954803,-1.5222817659378052,-0.18737176060676575
1757089339391959600,9.07695947265625,0.21018733084201813,-1.2528988122940063,-0.18520954251289368
1757089339401913600,9.08691357421875,0.11013928800821304,-1.0500288009643555,0.04888152331113815
1757089339411868700,9.09686865234375,0.03744830563664436,-0.7792670130729675,0.4069536626338959
1757089339421822500,9.106822509765625,0.021565213799476624,-0.600506067276001,0.7513394951820374
1757089339431777800,9.11677783203125,-0.02538605034351349,-0.5116332173347473,1.0110938549041748
1757089339441731600,9.126731689453125,-0.13471493124961853,-0.47396278381347656,1.2445242404937744
1757089339451686700,9.136686767578125,-0.22982867062091827,-0.622769296169281,1.531461477279663
1757089339461641500,9.146641357421874,-0.257330060005188,-1.0379436016082764,1.878303050994873
1757089339471595500,9.156595458984375,-0.16828781366348267,-1.5271925926208496,2.1524174213409424
1757089339481550600,9.166550537109375,0.040638770908117294,-1.7982462644577026,2.281651258468628
1757089339491504600,9.176504638671876,0.24992488324642181,-1.8559108972549438,2.225944757461548
1757089339501459700,9.186459716796875,0.4324720501899719,-1.7491023540496826,2.004556655883789
1757089339511414500,9.19641455078125,0.5159102082252502,-1.4806551933288574,1.668800950050354
1757089339521368600,9.20636865234375,0.5159898400306702,-1.1758402585983276,1.292218804359436
1757089339531323600,9.21632373046875,0.4771721363067627,-0.9548739790916443,1.0190761089324951
1757089339541277700,9.226277587890625,0.4176499545574188,-0.7720482349395752,0.9574689865112305
1757089339551232500,9.236232421875,0.3318152129650116,-0.6804139614105225,1.0325088500976562
1757089339561187600,9.2461875,0.2647629380226135,-0.6684326529502869,1.1424719095230103
1757089339571141000,9.25614111328125,0.23132136464118958,-0.7091110944747925,1.2166541814804077
1757089339581096000,9.266095947265624,0.1934397667646408,-0.7741947770118713,1.2097512483596802
1757089339591050000,9.276050048828125,0.16643637418746948,-0.7657275199890137,1.144441843032837
1757089339601005000,9.286005126953125,0.15890656411647797,-0.6800152659416199,1.0075047016143799
1757089339610960100,9.295960205078124,0.17756786942481995,-0.654600977897644,0.9133646488189697
1757089339620914000,9.305913818359375,0.14219868183135986,-0.6991679072380066,0.862311065196991
1757089339630869000,9.315868896484375,0.04098764806985855,-0.7309857606887817,0.8437435030937195
1757089339640823000,9.325822998046876,-0.048462875187397,-0.6186344623565674,0.8776172995567322
1757089339650778000,9.335778076171875,-0.14436596632003784,-0.4731752872467041,0.9319023489952087
1757089339660733000,9.34573291015625,-0.1789601594209671,-0.5152074098587036,0.9821959137916565
1757089339670687000,9.35568701171875,-0.1983969807624817,-0.7275295257568359,1.0137746334075928
1757089339680642000,9.36564208984375,-0.21028666198253632,-0.9384279251098633,1.0438363552093506
1757089339690596000,9.37559619140625,-0.23385803401470184,-1.074724555015564,1.0842921733856201
1757089339700551000,9.385551025390624,-0.26402977108955383,-1.0828123092651367,1.1272082328796387
1757089339710506000,9.395506103515626,-0.30392980575561523,-0.9685538411140442,1.1411192417144775
1757089339720460000,9.4054599609375,-0.34155920147895813,-0.7733572125434875,1.109468936920166
1757089339730415000,9.4154150390625,-0.40016284584999084,-0.55425626039505,1.0421663522720337
1757089339740369200,9.425369140625,-0.4590837061405182,-0.3356320559978485,0.9780927896499634
1757089339750324000,9.435323974609375,-0.5238994359970093,-0.13409867882728577,0.9497125148773193
1757089339760279000,9.445279052734374,-0.575696587562561,-0.031307321041822433,0.9618299007415771
1757089339770232800,9.45523291015625,-0.6563535928726196,-0.06646477431058884,0.9871808290481567
1757089339780188200,9.465188232421875,-0.6937263011932373,-0.28918734192848206,1.0090291500091553
1757089339790142000,9.475141845703124,-0.6572718620300293,-0.6194595098495483,1.0192838907241821
1757089339800097000,9.485096923828126,-0.6352896094322205,-0.8584848642349243,0.9841232299804688
1757089339810051800,9.4950517578125,-0.5763235092163086,-0.892645537853241,0.883163332939148
1757089339820006100,9.505006103515624,-0.4857696294784546,-0.8089674115180969,0.7337237596511841
1757089339829961000,9.5149609375,-0.3785960376262665,-0.7685744166374207,0.5966689586639404
1757089339839915000,9.5249150390625,-0.28214114904403687,-0.7972872853279114,0.5031691193580627
1757089339849870000,9.5348701171875,-0.19186531007289886,-0.8223189115524292,0.4284125864505768
1757089339859825200,9.5448251953125,-0.1099933460354805,-0.7330918312072754,0.3397194743156433
1757089339869779200,9.554779296875,-0.03259655833244324,-0.6039356589317322,0.24160197377204895
1757089339879734000,9.564734130859375,0.06028011813759804,-0.45116931200027466,0.21265128254890442
1757089339889688000,9.57468798828125,0.14347007870674133,-0.33352842926979065,0.2418280690908432
1757089339899643000,9.584642822265625,0.17052645981311798,-0.304964154958725,0.22596070170402527
1757089339909598200,9.59459814453125,0.1854710578918457,-0.33934611082077026,0.19540518522262573
1757089339919552000,9.604552001953126,0.15885914862155914,-0.45318958163261414,0.1861717402935028
1757089339929507000,9.614507080078125,0.07920773327350616,-0.5672045946121216,0.14533323049545288
1757089339939461000,9.624461181640624,0.06708049774169922,-0.6396369338035583,0.037995051592588425
1757089339949416000,9.634416015625,0.09856732189655304,-0.5478711128234863,-0.14695775508880615
1757089339959371000,9.64437109375,0.12396401911973953,-0.34111177921295166,-0.3908926546573639
1757089339969325000,9.654324951171875,0.12799657881259918,-0.15212029218673706,-0.655203640460968
1757089339979280000,9.66427978515625,0.19823665916919708,-0.07599223405122757,-0.9049969911575317
1757089339989234000,9.67423388671875,0.288822740316391,-0.026639332994818687,-1.1301422119140625
1757089339999189000,9.68418896484375,0.3777398467063904,0.04192614555358887,-1.3155877590179443
1757089340009144000,9.69414404296875,0.4770890474319458,0.15788497030735016,-1.457005262374878
1757089340019098000,9.70409814453125,0.5872283577919006,0.33359792828559875,-1.5984681844711304
1757089340029053000,9.714052978515625,0.5934223532676697,0.48922109603881836,-1.7536662817001343
1757089340039007000,9.724007080078126,0.4624667167663574,0.5642106533050537,-2.0293712615966797
1757089340048962000,9.733962158203125,0.3596700131893158,0.5874930620193481,-2.375906229019165
1757089340058917000,9.743917236328125,0.29867830872535706,0.631729781627655,-2.6210641860961914
1757089340068871000,9.753870849609376,0.17038105428218842,0.6527418494224548,-2.71321702003479
1757089340078826000,9.763825927734375,0.015114237554371357,0.5270885825157166,-2.687103748321533
1757089340088780000,9.773780029296875,-0.06756492704153061,0.2898408770561218,-2.5852956771850586
1757089340098735000,9.783735107421874,-0.06710952520370483,0.08646991103887558,-2.3760643005371094
1757089340108689200,9.793689208984375,-0.16607153415679932,-0.14786748588085175,-2.1769418716430664
1757089340118644000,9.80364404296875,-0.2900613844394684,-0.3529641926288605,-2.096466302871704
1757089340128599000,9.81359912109375,-0.2806817293167114,-0.5224030017852783,-2.168710947036743
1757089340138552800,9.823552734375,-0.2200831025838852,-0.527354896068573,-2.217721462249756
1757089340148508200,9.833508056640625,-0.1339799016714096,-0.3104638457298279,-2.1015408039093018
1757089340158462000,9.8434619140625,-0.10485398024320602,0.17838971316814423,-1.8613780736923218
1757089340168417000,9.8534169921875,-0.019713250920176506,0.9023255705833435,-1.7015188932418823
1757089340178371800,9.863371826171875,-0.01190992258489132,1.4816781282424927,-1.7115718126296997
1757089340188326100,9.873326171875,-0.08058192580938339,1.7989522218704224,-1.8010727167129517
1757089340198281000,9.883281005859375,-0.18719172477722168,1.9714137315750122,-1.897531509399414
1757089340208235000,9.893235107421875,-0.29467159509658813,2.047914505004883,-2.0013513565063477
1757089340218190000,9.903190185546874,-0.35033485293388367,2.0556647777557373,-2.0764241218566895
1757089340228145200,9.913145263671876,-0.2727833390235901,1.857925295829773,-2.1464314460754395
1757089340238099200,9.92309912109375,-0.13252928853034973,1.5263718366622925,-2.220708131790161
1757089340248054000,9.933053955078124,0.015400527976453304,1.259371280670166,-2.2333858013153076
1757089340258008000,9.943008056640625,0.14409272372722626,1.08885657787323,-2.1134893894195557
1757089340267963000,9.952962890625,0.2535603642463684,0.9613827466964722,-1.7647098302841187
1757089340277918200,9.962918212890624,0.2912081480026245,0.9484478235244751,-1.3228410482406616
1757089340287872000,9.9728720703125,0.24948066473007202,0.9484395384788513,-0.8640016317367554
1757089340297827000,9.9828271484375,0.20551587641239166,0.813886284828186,-0.4846028983592987
1757089340307780900,9.99278076171875,0.20803947746753693,0.6253898739814758,-0.19897249341011047
1757089340317736000,10.00273583984375,0.22293108701705933,0.481141597032547,0.010932276025414467
1757089340327691000,10.01269091796875,0.22807204723358154,0.40959471464157104,0.15657150745391846
1757089340337645000,10.02264501953125,0.22344453632831573,0.3744838535785675,0.27923402190208435
1757089340347600000,10.032599853515626,0.2340332716703415,0.33530956506729126,0.43263131380081177
1757089340357554000,10.042553955078125,0.25887176394462585,0.2817632257938385,0.6263943910598755
1757089340367509200,10.05250927734375,0.29582953453063965,0.20914895832538605,0.8403958678245544
1757089340377463000,10.062463134765625,0.34381356835365295,0.12974920868873596,1.05097234249115
1757089340387418000,10.072418212890625,0.39438673853874207,0.05366162955760956,1.245543360710144
1757089340397373000,10.082373046875,0.4529786705970764,-0.024511201307177544,1.4274561405181885
1757089340407327000,10.092326904296876,0.510988712310791,-0.11033609509468079,1.588862657546997
1757089340417282000,10.102281982421875,0.5609980821609497,-0.19711627066135406,1.7337557077407837
1757089340427237000,10.112237060546875,0.5873620510101318,-0.2547835409641266,1.8809584379196167
1757089340437191000,10.12219091796875,0.5738826990127563,-0.3004322648048401,1.9926806688308716
1757089340447146000,10.13214599609375,0.506659746170044,-0.325210839509964,2.0229835510253906
1757089340457100000,10.14210009765625,0.44660866260528564,-0.27714237570762634,1.927625060081482
1757089340467055000,10.15205517578125,0.406422883272171,-0.13396260142326355,1.684963345527649
1757089340477009200,10.162009033203125,0.32575172185897827,0.006070675794035196,1.3162546157836914
1757089340486964000,10.1719638671875,0.2182455211877823,0.12434032559394836,0.8890087008476257
1757089340496919000,10.1819189453125,0.04470834881067276,0.15237009525299072,0.4525352418422699
1757089340506873000,10.191873046875,-0.11657321453094482,0.3754436671733856,-0.06427512317895889
1757089340516828200,10.201828125,-0.13651444017887115,0.9054084420204163,-0.6926946043968201
1757089340526782000,10.211781982421876,0.030841801315546036,1.3857191801071167,-1.417926549911499
1757089340536737000,10.221737060546875,0.2201981395483017,1.4191676378250122,-1.9658358097076416
1757089340546692000,10.231692138671875,0.30853360891342163,1.1035364866256714,-2.2050111293792725
1757089340556646100,10.241646240234376,0.30207598209381104,0.9028525948524475,-2.045269012451172
1757089340566601000,10.25160107421875,0.19376574456691742,0.9544156789779663,-1.5724788904190063
1757089340576555000,10.261554931640624,0.02895335480570793,1.0721625089645386,-1.0521854162216187
1757089340586509800,10.271509765625,-0.094507597386837,1.1270077228546143,-0.6620738506317139
1757089340596465000,10.28146484375,-0.08814077824354172,1.1287291049957275,-0.4171735346317291
1757089340606419200,10.291419189453125,-0.03695029392838478,1.064788818359375,-0.29092079401016235
1757089340616374000,10.3013740234375,0.02545609138906002,0.8473435640335083,-0.2751189172267914
1757089340626328000,10.311328125,0.08002106845378876,0.5467664003372192,-0.21529872715473175
1757089340636283000,10.321282958984375,0.12118900567293167,0.07845059782266617,0.014631140977144241
1757089340646238200,10.33123828125,0.1560191661119461,-0.6009287238121033,0.3923185169696808
1757089340656192000,10.34119189453125,0.18350964784622192,-1.2062101364135742,0.7431130409240723
1757089340666147000,10.35114697265625,0.21264594793319702,-1.5855331420898438,0.8374863862991333
1757089340676100900,10.361100830078126,0.3459014892578125,-1.569663405418396,0.5735756754875183
1757089340686056000,10.371055908203125,0.41434553265571594,-1.4374805688858032,0.12412780523300171
1757089340696011000,10.381010986328125,0.355467826128006,-1.3183132410049438,-0.11758202314376831
1757089340705965000,10.390965087890624,0.24548645317554474,-1.1775741577148438,0.02799062244594097
1757089340715920000,10.400919921875,0.18899202346801758,-0.907745361328125,0.35990598797798157
1757089340725874000,10.4108740234375,0.17052459716796875,-0.7161684632301331,0.6879112720489502
1757089340735829000,10.4208291015625,0.06240984797477722,-0.49966174364089966,0.9569547176361084
1757089340745784000,10.4307841796875,-0.17828159034252167,-0.18045473098754883,1.1581424474716187
1757089340755738000,10.440738037109375,-0.4313356876373291,0.053153231739997864,1.3557699918746948
1757089340765693000,10.45069287109375,-0.5703945159912109,-0.14088228344917297,1.5250658988952637
1757089340775647000,10.46064697265625,-0.4788408875465393,-0.7392623424530029,1.6774790287017822
1757089340785602000,10.47060205078125,-0.24085202813148499,-1.4916181564331055,1.7687737941741943
1757089340795557000,10.48055712890625,0.045641254633665085,-2.0786352157592773,1.787856936454773
1757089340805511000,10.490510986328125,0.3135184943675995,-2.246291399002075,1.7392569780349731
1757089340815466000,10.500466064453125,0.4579979181289673,-2.063396692276001,1.6142641305923462
1757089340825419800,10.510419677734374,0.5118116140365601,-1.637710690498352,1.398697018623352
1757089340835375000,10.520375,0.5555732250213623,-1.1793688535690308,1.2341663837432861
1757089340845329200,10.5303291015625,0.5261753797531128,-0.8224430084228516,1.161323070526123
1757089340855284000,10.540283935546874,0.46012791991233826,-0.6463731527328491,1.1550440788269043
1757089340865238800,10.55023876953125,0.39389508962631226,-0.5383012890815735,1.1431325674057007
1757089340875192800,10.56019287109375,0.3377322256565094,-0.4645354449748993,1.1058781147003174
1757089340885148200,10.570148193359374,0.2819347381591797,-0.4159271717071533,1.019453763961792
1757089340895102000,10.58010205078125,0.23008859157562256,-0.3762340843677521,0.9023460745811462
1757089340905057000,10.59005712890625,0.17853432893753052,-0.35394608974456787,0.7895135283470154
1757089340915011800,10.60001171875,0.10686173290014267,-0.28919345140457153,0.6607142686843872
1757089340924966000,10.6099658203125,0.04175969585776329,-0.18668439984321594,0.5322652459144592
1757089340934921000,10.6199208984375,-0.01107715256512165,-0.20469827950000763,0.5018450021743774
1757089340944875000,10.629875,-0.082264244556427,-0.3452197015285492,0.5405604243278503
1757089340954829800,10.639829833984376,-0.11732156574726105,-0.6048480868339539,0.612522542476654
1757089340964785000,10.649784912109375,-0.12594781816005707,-0.880547046661377,0.6941382884979248
1757089340974739200,10.6597392578125,-0.15563273429870605,-1.0684822797775269,0.7618648409843445
1757089340984694000,10.669694091796876,-0.1822611540555954,-1.0754810571670532,0.8308468461036682
1757089340994648000,10.67964794921875,-0.20921926200389862,-0.9994185566902161,0.8621904253959656
1757089341004603000,10.689602783203124,-0.2525012195110321,-0.9054939150810242,0.8374426960945129
1757089341014558000,10.699557861328126,-0.31006333231925964,-0.7486705183982849,0.7599921226501465
1757089341024512000,10.709511962890625,-0.35536450147628784,-0.6016895771026611,0.6657063961029053
1757089341034467000,10.719467041015625,-0.4097558259963989,-0.49582305550575256,0.6030550003051758
1757089341044420900,10.7294208984375,-0.447185754776001,-0.43942877650260925,0.5973624587059021
1757089341054376000,10.7393759765625,-0.48952069878578186,-0.4235486090183258,0.6401323080062866
1757089341064330000,10.749330078125,-0.5358335971832275,-0.4272690415382385,0.7064921855926514
1757089341074285000,10.75928515625,-0.58474200963974,-0.4626573920249939,0.7648614645004272
1757089341084240000,10.769239990234375,-0.633980393409729,-0.5331968069076538,0.79514479637146
1757089341094194000,10.77919384765625,-0.6419323682785034,-0.604098379611969,0.8168218731880188
1757089341104149000,10.78914892578125,-0.6318621039390564,-0.6474123001098633,0.8281443119049072
1757089341114104000,10.79910400390625,-0.6529183983802795,-0.5980652570724487,0.8112606406211853
1757089341124058000,10.80905810546875,-0.6311728954315186,-0.5448955297470093,0.779312014579773
1757089341134013000,10.819012939453126,-0.5939882397651672,-0.4482523500919342,0.7359848022460938
1757089341143967000,10.828967041015625,-0.5266968011856079,-0.4323064088821411,0.6433334350585938
1757089341153922000,10.838922119140625,-0.4441175162792206,-0.41501423716545105,0.5340601801872253
1757089341163876000,10.8488759765625,-0.34746742248535156,-0.2895737588405609,0.4376993179321289
1757089341173831000,10.858830810546875,-0.21444092690944672,-0.07140333950519562,0.3998059928417206
1757089341183786000,10.868785888671875,-0.06138692796230316,0.12736834585666656,0.44988033175468445
1757089341193739800,10.87873974609375,0.07583777606487274,0.15544578433036804,0.5390445590019226
1757089341203695000,10.888695068359375,0.1700494885444641,0.01357253361493349,0.5828279852867126
1757089341213649200,10.898649169921875,0.1941649466753006,-0.17275233566761017,0.55447918176651
1757089341223604000,10.90860400390625,0.19805902242660522,-0.43993690609931946,0.4931087791919708
1757089341233558800,10.918558837890625,0.20675823092460632,-0.72745281457901,0.41289809346199036
1757089341243512800,10.928512939453125,0.21049171686172485,-0.8419554233551025,0.2797115445137024
1757089341253468200,10.93846826171875,0.1952137053012848,-0.6853354573249817,0.0687449723482132
1757089341263422000,10.948421875,0.1900751292705536,-0.4153018593788147,-0.18689851462841034
1757089341273377000,10.958376953125,0.17542748153209686,-0.19275826215744019,-0.46644148230552673
1757089341283331800,10.968331787109374,0.25370869040489197,-0.07134635001420975,-0.7479269504547119
1757089341293286100,10.9782861328125,0.3083559572696686,0.06545597314834595,-0.991952121257782
1757089341303241000,10.988240966796875,0.374072402715683,0.20846772193908691,-1.2119876146316528
1757089341313195000,10.998195068359376,0.4327087998390198,0.3640882074832916,-1.3670836687088013
1757089341323149800,11.00814990234375,0.4710442125797272,0.5218666791915894,-1.4633861780166626
1757089341333105200,11.018105224609375,0.49767157435417175,0.5561529994010925,-1.6324859857559204
1757089341343059000,11.028058837890624,0.43854060769081116,0.5763512253761292,-1.9101245403289795
1757089341353014000,11.038013916015625,0.24246643483638763,0.6223538517951965,-2.1821932792663574
1757089341362968000,11.047968017578125,0.08583847433328629,0.6375064253807068,-2.3585519790649414
1757089341372923000,11.0579228515625,0.04374827817082405,0.5512125492095947,-2.450455665588379
1757089341382877000,11.067876953125,-0.007644337601959705,0.4291340410709381,-2.4897913932800293
1757089341392832000,11.07783203125,-0.08036701381206512,0.331786185503006,-2.434196949005127
1757089341402787000,11.087787109375,-0.11755859106779099,0.2956737279891968,-2.305837869644165
1757089341412740900,11.097740966796875,-0.1808944195508957,0.18380951881408691,-2.197455644607544
1757089341422696000,11.107696044921875,-0.25198403000831604,-0.007306648883968592,-2.138134241104126
1757089341432650000,11.11764990234375,-0.25818201899528503,-0.1800006628036499,-2.081103801727295
1757089341442605000,11.12760498046875,-0.24012391269207,-0.25409671664237976,-2.0084993839263916
1757089341452560000,11.137559814453125,-0.203121155500412,-0.1749129593372345,-1.8832948207855225
1757089341462514000,11.147513916015624,-0.1738351732492447,0.05862096697092056,-1.6989809274673462
1757089341472469000,11.157468994140626,-0.08733490854501724,0.557913601398468,-1.5077755451202393
1757089341482423000,11.167423095703125,0.034448519349098206,1.1571557521820068,-1.4132282733917236
1757089341492378000,11.177378173828124,0.08664301782846451,1.7381943464279175,-1.4235965013504028
1757089341502333000,11.1873330078125,0.023121563717722893,2.1193625926971436,-1.4915217161178589
1757089341512287000,11.197286865234375,-0.07350058108568192,2.220381021499634,-1.5885987281799316
1757089341522242000,11.207241943359374,-0.1013236939907074,2.1230151653289795,-1.716422438621521
1757089341532196000,11.217196044921875,-0.053820621222257614,1.860102653503418,-1.8913631439208984
1757089341542151000,11.22715087890625,0.0629185140132904,1.5899574756622314,-2.036463499069214
1757089341552106000,11.23710595703125,0.17147400975227356,1.3934098482131958,-2.1191751956939697
1757089341562059800,11.247059814453126,0.2887929081916809,1.2453340291976929,-1.986195683479309
1757089341572014600,11.2570146484375,0.3465624749660492,1.0716302394866943,-1.6296868324279785
1757089341581968600,11.26696875,0.30213722586631775,0.9399222135543823,-1.1820679903030396
1757089341591923700,11.276923828125,0.21736587584018707,0.731249988079071,-0.7093473076820374
1757089341601877800,11.286877685546875,0.1504875123500824,0.5604196190834045,-0.2981656491756439
1757089341611832600,11.29683251953125,0.15384867787361145,0.46722978353500366,0.0010186590952798724
1757089341621787600,11.30678759765625,0.16847583651542664,0.36358192563056946,0.16977278888225555
1757089341631741700,11.31674169921875,0.16769632697105408,0.3391178846359253,0.24641111493110657
1757089341641696800,11.32669677734375,0.15107819437980652,0.3759145140647888,0.30199846625328064
1757089341651650600,11.336650634765626,0.14896097779273987,0.42114484310150146,0.3891781270503998
1757089341661605600,11.346605712890625,0.16509707272052765,0.4374268651008606,0.5317794680595398
1757089341671560400,11.356560546875,0.19209034740924835,0.4413315951824188,0.7497709393501282
1757089341681514800,11.3665146484375,0.23440052568912506,0.4282030165195465,0.9914528131484985
1757089341691469600,11.376469482421875,0.2888781428337097,0.3849506080150604,1.2248985767364502
1757089341701423600,11.386423583984374,0.33678972721099854,0.2811123728752136,1.4286247491836548
1757089341711378700,11.396378662109376,0.3736598789691925,0.15677230060100555,1.6016085147857666
1757089341721333800,11.406333740234375,0.4016062915325165,0.02202940173447132,1.7508851289749146
1757089341731287800,11.416287841796875,0.40052664279937744,-0.08712291717529297,1.8820476531982422
1757089341741242600,11.42624267578125,0.36695191264152527,-0.1890740543603897,1.983454704284668
1757089341751196700,11.43619677734375,0.36515772342681885,-0.21874593198299408,2.045024871826172
1757089341761151500,11.4461513671875,0.4252985715866089,-0.2052769809961319,2.005833148956299
1757089341771105500,11.45610546875,0.5211254954338074,-0.2744920253753662,1.8200570344924927
1757089341781060600,11.466060546875,0.5632801651954651,-0.2586289048194885,1.5248805284500122
1757089341791015700,11.476015625,0.4865528643131256,-0.1995200365781784,1.1250475645065308
1757089341800969700,11.4859697265625,0.3165995180606842,-0.01016794890165329,0.5914236307144165
1757089341810924500,11.495924560546875,0.10932090133428574,0.3595706820487976,-0.018437596037983894
1757089341820878800,11.50587890625,-0.015687083825469017,0.7502963542938232,-0.6803274154663086
1757089341830833700,11.515833740234376,0.05814346298575401,0.7956973910331726,-1.2316312789916992
1757089341840788500,11.52578857421875,0.1432194709777832,0.5084179639816284,-1.4284600019454956
1757089341850742500,11.535742431640625,0.17947761714458466,0.15841494500637054,-1.3495714664459229
1757089341860697900,11.54569775390625,0.22153106331825256,-0.09079275280237198,-1.1645236015319824
1757089341870651600,11.555651611328125,0.22034089267253876,0.017727864906191826,-0.929561197757721
1757089341880606700,11.565606689453125,0.17327538132667542,0.31591400504112244,-0.6820605993270874
1757089341890561500,11.5755615234375,0.1296200454235077,0.6409056782722473,-0.4681940972805023
1757089341900515600,11.585515625,0.10183368623256683,0.8735064268112183,-0.3024751842021942
1757089341910470700,11.595470703125,0.07740344852209091,0.9618677496910095,-0.18086379766464233
1757089341920424700,11.6054248046875,0.033718813210725784,0.9152253866195679,-0.07363028079271317
1757089341930379500,11.615379638671875,-0.016519587486982346,0.7445993423461914,0.019951604306697845
1757089341940334600,11.62533447265625,-0.07048401981592178,0.4891268014907837,0.10859225690364838
1757089341950288600,11.63528857421875,-0.1241041049361229,0.14046017825603485,0.1951702982187271
1757089341960243700,11.64524365234375,-0.15950284898281097,-0.32207682728767395,0.27110233902931213
1757089341970197800,11.65519775390625,-0.174653559923172,-0.828396201133728,0.3311483561992645
1757089341980152600,11.665152587890624,-0.1207439973950386,-1.2658473253250122,0.29397621750831604
1757089341990106600,11.675106689453125,0.06907095015048981,-1.4985021352767944,0.09050033986568451
1757089342000061700,11.685061767578125,0.13346831500530243,-1.5259729623794556,-0.17204660177230835
1757089342010016800,11.695016845703124,0.05968676507472992,-1.507737398147583,-0.34144148230552673
1757089342019970600,11.704970458984375,0.02394315041601658,-1.4652600288391113,-0.29864075779914856
1757089342029925600,11.714925537109375,0.04436160624027252,-1.3213989734649658,0.01525831501930952
1757089342039879700,11.724879638671876,0.05976106971502304,-1.203035593032837,0.4819179177284241
1757089342049834800,11.734834716796875,0.07447343319654465,-1.2767468690872192,1.0180442333221436
1757089342059789600,11.74478955078125,0.06306977570056915,-1.3853402137756348,1.5603364706039429
1757089342069743600,11.75474365234375,-0.010538394562900066,-1.4665181636810303,2.0030157566070557
1757089342079698700,11.76469873046875,-0.15704527497291565,-1.4918341636657715,2.315159320831299
1757089342089652500,11.774652587890625,-0.2106909304857254,-1.4843440055847168,2.4761171340942383
1757089342099607800,11.78460791015625,-0.06403331458568573,-1.675168752670288,2.375758171081543
1757089342109562600,11.794562744140626,0.212531179189682,-2.0225675106048584,1.979798674583435
1757089342119516700,11.8045166015625,0.40512192249298096,-2.4516053199768066,1.4440921545028687
1757089342129471500,11.814471435546874,0.4411827325820923,-2.7599916458129883,0.9241927862167358
1757089342139425800,11.82442578125,0.4540378153324127,-2.8499083518981934,0.6215141415596008
1757089342149380600,11.834380615234375,0.4525970220565796,-2.757672071456909,0.6287286281585693
1757089342159335700,11.844335693359374,0.4276275038719177,-2.4151265621185303,0.8569791316986084
1757089342169289500,11.85428955078125,0.36217233538627625,-1.9884737730026245,1.1498712301254272
1757089342179244800,11.864244873046875,0.2971981167793274,-1.7525115013122559,1.3897043466567993
1757089342189198800,11.87419873046875,0.2640779912471771,-1.8239244222640991,1.4614543914794922
1757089342199153700,11.884153564453126,0.2334393858909607,-2.0215656757354736,1.3625874519348145
1757089342209107700,11.894107666015625,0.1916639804840088,-2.141331195831299,1.1952424049377441
1757089342219062500,11.9040625,0.18610835075378418,-2.065913200378418,1.035058856010437
1757089342229017900,11.914017822265626,0.14468394219875336,-1.742034912109375,0.8908423185348511
1757089342238971600,11.9239716796875,0.09874735027551651,-1.3107181787490845,0.7142177224159241
1757089342248926700,11.9339267578125,0.06459976732730865,-1.0177462100982666,0.6160152554512024
1757089342258880500,11.943880615234375,-0.005937517620623112,-0.8812543749809265,0.6199319362640381
1757089342268835600,11.953835693359375,-0.0736803486943245,-0.8804780840873718,0.6666691303253174
1757089342278790700,11.963790771484375,-0.1067216545343399,-1.105519413948059,0.6922586560249329
1757089342288744700,11.97374462890625,-0.1050712913274765,-1.4885797500610352,0.7307607531547546
1757089342298699500,11.983699462890625,-0.11454389244318008,-1.6953710317611694,0.8510245680809021
1757089342308653600,11.993653564453124,-0.13935282826423645,-1.67141854763031,1.0139551162719727
1757089342318608600,12.003608642578126,-0.17712391912937164,-1.602142572402954,1.1355096101760864
1757089342328563700,12.013563720703125,-0.22362616658210754,-1.5557169914245605,1.1652443408966064
1757089342338517800,12.023517822265624,-0.27751976251602173,-1.5586978197097778,1.1096220016479492
1757089342348472600,12.03347265625,-0.32079824805259705,-1.5720524787902832,1.0171728134155273
1757089342358426600,12.043426513671875,-0.3627409040927887,-1.5101639032363892,0.9275864362716675
1757089342368381700,12.053381591796875,-0.45065638422966003,-1.3221113681793213,0.8566148281097412
1757089342378335700,12.063335693359376,-0.5298947691917419,-1.108794093132019,0.8098776936531067
1757089342388290600,12.07329052734375,-0.5940181016921997,-1.0388621091842651,0.8048296570777893
1757089342398245600,12.08324560546875,-0.6340032815933228,-1.132411241531372,0.8113991022109985
1757089342408199400,12.093199462890626,-0.6394872665405273,-1.2706212997436523,0.807479739189148
1757089342418154800,12.10315478515625,-0.6259941458702087,-1.3483190536499023,0.7992767095565796
1757089342428108800,12.11310888671875,-0.5926164388656616,-1.370760440826416,0.7846412658691406
1757089342438063600,12.123063720703126,-0.5143647789955139,-1.4017239809036255,0.7595474123954773
1757089342448018400,12.133018310546875,-0.4016723334789276,-1.426969051361084,0.7290413975715637
1757089342457972500,12.142972412109375,-0.27219876646995544,-1.374597191810608,0.6842342615127563
1757089342467927800,12.152927734375,-0.16846278309822083,-1.2476608753204346,0.624712347984314
1757089342477881600,12.162881591796875,-0.10424091666936874,-1.1724995374679565,0.5520203113555908
1757089342487836700,12.172836669921875,-0.06782937794923782,-1.2118924856185913,0.4906024634838104
1757089342497791500,12.18279150390625,-0.06459949910640717,-1.3468183279037476,0.45832815766334534
1757089342507745800,12.192745849609375,-0.06528526544570923,-1.4978930950164795,0.4464384615421295
1757089342517700600,12.20270068359375,-0.07113249599933624,-1.5912302732467651,0.40218207240104675
1757089342527654700,12.212654541015626,-0.04362950101494789,-1.6132912635803223,0.3289600610733032
1757089342537609500,12.222609375,-0.025534920394420624,-1.558448314666748,0.2703939378261566
1757089342547563500,12.2325634765625,-0.017114805057644844,-1.476417899131775,0.2662007808685303
1757089342557518800,12.242518798828126,-0.03139334172010422,-1.3780417442321777,0.30642277002334595
1757089342567474200,12.25247412109375,-0.06826987117528915,-1.3739724159240723,0.3297787010669708
1757089342577428200,12.26242822265625,-0.0967973843216896,-1.4893040657043457,0.30014652013778687
1757089342587383000,12.272383056640624,-0.08650080114603043,-1.6041561365127563,0.21185632050037384
