time,seconds_elapsed,z,y,x
1757088575915897900,0.09689794921875,-0.694150984287262,0.7336969971656799,12.105461120605469
1757088575925450800,0.10645068359375,-1.2705990076065063,0.07542300224304199,11.839343070983887
1757088575935004000,0.11600390625,-1.7731809616088867,-0.04736899957060814,11.314208984375
1757088575944557000,0.12555712890625,-1.988265037536621,-0.15007799863815308,11.08590030670166
1757088575954110200,0.135110107421875,-2.060821056365967,-0.21781300008296967,10.983922958374023
1757088575963663400,0.144663330078125,-2.8022079467773438,-1.037598967552185,11.652924537658691
1757088575973216300,0.15421630859375,-3.6830339431762695,-1.7794699668884277,12.151384353637695
1757088575982769400,0.163769287109375,-4.27603006362915,-2.1808218955993652,11.841422080993652
1757088575992322800,0.17332275390625,-5.006612777709961,-2.8666861057281494,11.273090362548828
1757088576001875700,0.182875732421875,-5.90925407409668,-3.2523770332336426,10.984662055969238
1757088576011428900,0.192428955078125,-6.512557029724121,-3.287627935409546,11.367863655090332
1757088576020981800,0.201981689453125,-7.362054824829102,-3.3042359352111816,11.594646453857422
1757088576030535200,0.21153515625,-8.068492889404297,-3.626106023788452,11.705865859985352
1757088576040088000,0.221088134765625,-9.090408325195312,-3.816946029663086,11.688366889953613
1757088576049641200,0.23064111328125,-9.765276908874512,-4.042153835296631,11.293603897094727
1757088576059194400,0.2401943359375,-10.597282409667969,-4.415553092956543,11.148821830749512
1757088576068747300,0.249747314453125,-10.750362396240234,-4.429358005523682,10.916253089904785
1757088576078300400,0.259300537109375,-11.132458686828613,-4.537990093231201,10.917915344238281
1757088576087853800,0.268853759765625,-11.589537620544434,-4.680729866027832,10.731049537658691
1757088576097407000,0.278406982421875,-12.297676086425781,-4.960084915161133,10.052360534667969
1757088576106960000,0.2879599609375,-12.91171646118164,-4.704732894897461,9.061442375183105
1757088576116513000,0.297512939453125,-13.716065406799316,-4.661696910858154,8.55152416229248
1757088576126066000,0.30706591796875,-14.537426948547363,-4.918965816497803,8.308568954467773
1757088576135619300,0.316619384765625,-14.676956176757812,-4.928173065185547,8.343436241149902
1757088576145172200,0.326172119140625,-14.792289733886719,-5.03773307800293,9.170618057250977
1757088576154725400,0.335725341796875,-15.220211029052734,-4.677845001220703,9.717264175415039
1757088576164278500,0.345278564453125,-15.256807327270508,-4.423226833343506,9.702268600463867
1757088576173831400,0.35483154296875,-14.853801727294922,-4.4364728927612305,9.254883766174316
1757088576183384800,0.364384765625,-13.880430221557617,-4.209217071533203,8.673116683959961
1757088576192938000,0.37393798828125,-13.297186851501465,-4.3099870681762695,7.985352039337158
1757088576202491100,0.3834912109375,-12.998542785644531,-4.437199115753174,6.549458980560303
1757088576212044000,0.3930439453125,-12.662991523742676,-4.536725997924805,5.378606796264648
1757088576221597200,0.40259716796875,-12.740377426147461,-4.323888778686523,4.746519088745117
1757088576231150300,0.412150390625,-13.719217300415039,-4.157121181488037,5.2137861251831055
1757088576240703500,0.421703369140625,-15.04475212097168,-4.538987159729004,5.67013692855835
1757088576250256400,0.43125634765625,-15.177618026733398,-5.027300834655762,5.267428874969482
1757088576269362700,0.45036279296875,-25.522621154785156,-7.809287071228027,2.134298086166382
1757088576278915800,0.459915771484375,-23.049522399902344,-7.137294769287109,1.3873929977416992
1757088576288469000,0.469468994140625,-12.56688117980957,-6.265014171600342,2.4869608879089355
1757088576298022100,0.479022216796875,-5.852686882019043,-6.865821838378906,3.990447998046875
1757088576307575300,0.4885751953125,-4.95738410949707,-8.23763656616211,3.8481459617614746
1757088576317128400,0.49812841796875,-8.901026725769043,-8.514458656311035,0.7718549966812134
1757088576326681300,0.507681396484375,-12.28763198852539,-8.175433158874512,-2.1267189979553223
1757088576336234500,0.517234375,-11.631353378295898,-7.218092918395996,-2.8786349296569824
1757088576345787600,0.52678759765625,-7.706085205078125,-6.759613990783691,-1.5817300081253052
1757088576355340800,0.5363408203125,-4.879042148590088,-7.258277893066406,-0.1751590073108673
1757088576364894000,0.54589404296875,-8.161334991455078,-6.190564155578613,0.030108999460935593
1757088576374447000,0.555447021484375,-10.92692756652832,-5.09702205657959,-0.8704400062561035
1757088576384000000,0.565,-9.885395050048828,-5.358965873718262,-0.67153000831604
1757088576393553200,0.57455322265625,-7.8118510246276855,-5.098481178283691,-1.1208419799804688
1757088576403106300,0.584106201171875,-6.995031833648682,-5.540016174316406,-0.6868199706077576
1757088576412659500,0.593659423828125,-7.701837062835693,-6.292142868041992,0.23829199373722076
1757088576422212400,0.60321240234375,-8.648555755615234,-5.8856730461120605,-0.7657139897346497
1757088576431765800,0.612765869140625,-7.680575847625732,-4.057939052581787,-1.3119319677352905
1757088576441319000,0.62231884765625,-6.049258232116699,-3.2797470092773438,-0.5859140157699585
1757088576450871800,0.631871826171875,-5.610042095184326,-2.7854340076446533,-0.9522259831428528
1757088576460425000,0.641425048828125,-5.779611110687256,-1.3472559452056885,-2.924657106399536
1757088576469978000,0.65097802734375,-6.101688861846924,-0.8898869752883911,-3.738537073135376
1757088576479531300,0.66053125,-7.578672885894775,-1.4234509468078613,-4.963294982910156
1757088576489084400,0.67008447265625,-9.058355331420898,-2.737790107727051,-5.805230140686035
1757088576498637600,0.679637451171875,-9.20753288269043,-3.614703893661499,-6.040481090545654
1757088576508190500,0.6891904296875,-8.259806632995605,-4.886013984680176,-5.48018217086792
1757088576517743600,0.69874365234375,-5.954987049102783,-3.3619940280914307,-2.732192039489746
1757088576527297000,0.708297119140625,-5.549938201904297,-0.5991910099983215,-1.1722580194473267
1757088576536850000,0.717849853515625,-5.732082843780518,0.3436810076236725,-1.931015968322754
1757088576546403000,0.727403076171875,-6.017199993133545,1.522825002670288,-3.489919900894165
1757088576555956200,0.736956298828125,-5.618626117706299,1.7816989421844482,-3.511444091796875
1757088576565509400,0.74650927734375,-5.620936870574951,1.6189299821853638,-3.2638258934020996
1757088576575062300,0.756062255859375,-5.121476173400879,1.5721830129623413,-3.9429919719696045
1757088576584615400,0.765615478515625,-3.751344919204712,1.0906339883804321,-4.529321193695068
1757088576594168600,0.77516845703125,-3.0971100330352783,0.8383499979972839,-5.1218180656433105
1757088576603721700,0.7847216796875,-3.4652199745178223,1.178233027458191,-5.8160881996154785
1757088576613275000,0.79427490234375,-3.5793941020965576,1.4269399642944336,-6.194764137268066
1757088576622827800,0.803827880859375,-3.861208915710449,1.1423410177230835,-5.7691168785095215
1757088576632381000,0.813380859375,-5.125095844268799,-0.26200801134109497,-3.7752718925476074
1757088576641933800,0.822933837890625,-5.852283000946045,-1.4339940547943115,-4.071436882019043
1757088576651487200,0.8324873046875,-9.130735397338867,-4.468163967132568,-1.8985689878463745
1757088576661040400,0.842040283203125,-8.468306541442871,-14.380773544311523,2.522196054458618
1757088576670593300,0.85159326171875,-6.960422039031982,-27.178401947021484,-1.5864009857177734
1757088576680146400,0.861146484375,-5.377633094787598,-33.99106979370117,-5.308082103729248
1757088576689699600,0.870699462890625,-3.1499550342559814,-30.31537437438965,-3.0438530445098877
1757088576699252700,0.880252685546875,-3.352163076400757,-23.850521087646484,-0.34791100025177
1757088576708806000,0.889805908203125,-4.543776035308838,-15.339204788208008,1.2134970426559448
1757088576718359000,0.899359130859375,-7.133049964904785,-7.702814102172852,0.6146590113639832
1757088576727912000,0.908911865234375,-10.646441459655762,-2.5606980323791504,-0.4938569962978363
1757088576737465300,0.91846533203125,-9.865697860717773,0.45117101073265076,-2.1806960105895996
1757088576747018200,0.928018310546875,-7.021911144256592,1.819828987121582,-4.121306896209717
1757088576756571400,0.9375712890625,-4.305305004119873,2.723177909851074,-5.570895195007324
1757088576766124300,0.947124267578125,-2.9653730392456055,3.340085029602051,-6.175404071807861
1757088576775677400,0.956677490234375,-3.3945629596710205,3.5587680339813232,-5.906503200531006
1757088576785230800,0.96623095703125,-4.093113899230957,3.0913920402526855,-5.516485214233398
1757088576794783700,0.97578369140625,-4.706864833831787,1.1520110368728638,-5.451794147491455
1757088576804337000,0.9853369140625,-4.906182765960693,-0.7268829941749573,-5.333281993865967
1757088576813890000,0.99489013671875,-5.1102681159973145,-2.512737989425659,-5.135974884033203
1757088576823443200,1.004443115234375,-5.1723737716674805,-3.8381121158599854,-4.814617156982422
1757088576832996400,1.013996337890625,-5.087747097015381,-4.455667018890381,-4.2879838943481445
1757088576842549200,1.02354931640625,-4.674837112426758,-3.8867969512939453,-3.610198974609375
1757088576852102400,1.033102294921875,-3.9378879070281982,-2.5905818939208984,-3.6539759635925293
1757088576861655600,1.042655517578125,-3.441256046295166,-1.5880869626998901,-3.593696117401123
1757088576871208700,1.052208740234375,-3.3576500415802,-0.9576619863510132,-3.2459049224853516
1757088576880761900,1.061761962890625,-3.467466115951538,-0.6458340287208557,-2.810412883758545
1757088576890314800,1.071314697265625,-3.72194504737854,-0.6946229934692383,-2.524467945098877
1757088576899868000,1.080867919921875,-3.980715036392212,-0.9376639723777771,-2.435080051422119
1757088576909421000,1.090421142578125,-4.139584064483643,-1.114084005355835,-2.4449539184570312
1757088576918974200,1.09997412109375,-4.1252899169921875,-1.1620980501174927,-2.4367549419403076
1757088576928527400,1.10952734375,-3.9006409645080566,-1.0481829643249512,-2.4452390670776367
1757088576938080500,1.11908056640625,-3.6428329944610596,-0.8369380235671997,-2.423887014389038
1757088576947633700,1.128633544921875,-3.3328800201416016,-0.6478210091590881,-2.3761610984802246
1757088576957186600,1.1381865234375,-2.9934239387512207,-0.5402969717979431,-2.3022890090942383
1757088576966739700,1.14773974609375,-2.6303110122680664,-0.47320398688316345,-2.204991102218628
1757088576976292900,1.15729296875,-2.2856719493865967,-0.40692898631095886,-2.1203041076660156
1757088576985846000,1.166845947265625,-2.0156350135803223,-0.40746399760246277,-1.9823399782180786
1757088576995399200,1.176399169921875,-1.8343290090560913,-0.4139859974384308,-1.7791370153427124
1757088577004952000,1.1859521484375,-1.7640399932861328,-0.43244999647140503,-1.5239360332489014
1757088577014505500,1.19550537109375,-1.7395689487457275,-0.40884000062942505,-1.3333699703216553
1757088577024058400,1.205058349609375,-1.740826964378357,-0.3877840042114258,-1.2157200574874878
1757088577033611500,1.214611572265625,-1.7668509483337402,-0.3638080060482025,-1.1552679538726807
1757088577043164700,1.22416455078125,-1.7663949728012085,-0.32958200573921204,-1.1328020095825195
1757088577052717600,1.233717529296875,-1.7267400026321411,-0.3375509977340698,-1.163648009300232
1757088577062270700,1.243270751953125,-1.5913100242614746,-0.3476490080356598,-1.151764988899231
1757088577071824000,1.252823974609375,-1.3684849739074707,-0.34568101167678833,-1.1561529636383057
1757088577081376800,1.262376708984375,-1.1812679767608643,-0.32648900151252747,-1.1510000228881836
1757088577090930200,1.27193017578125,-1.0614720582962036,-0.28955700993537903,-1.152948021888733
1757088577100483000,1.281483154296875,-0.9599930047988892,-0.2586570084095001,-1.1434780359268188
1757088577110036200,1.2910361328125,-0.9319080114364624,-0.22376200556755066,-1.156708002090454
1757088577119589600,1.300589599609375,-0.9113309979438782,-0.20164400339126587,-1.1299810409545898
1757088577129142500,1.310142578125,-0.8569309711456299,-0.24033600091934204,-1.0567229986190796
1757088577138695700,1.31969580078125,-0.7641140222549438,-0.26809701323509216,-0.9168140292167664
1757088577148248600,1.32924853515625,-0.685155987739563,-0.29430899024009705,-0.7708799839019775
1757088577157801700,1.3388017578125,-0.6149010062217712,-0.3139519989490509,-0.6716669797897339
1757088577167355100,1.348355224609375,-0.5822349786758423,-0.37709999084472656,-0.6167160272598267
1757088577176908000,1.357907958984375,-0.5560370087623596,-0.3855220079421997,-0.5563889741897583
1757088577186461200,1.367461181640625,-0.5250309705734253,-0.34874799847602844,-0.5338280200958252
1757088577196014000,1.37701416015625,-0.5345849990844727,-0.3002069890499115,-0.5490220189094543
1757088577205567200,1.386567138671875,-0.5498219728469849,-0.25423699617385864,-0.5251209735870361
1757088577215120400,1.396120361328125,-0.5567520260810852,-0.2228340059518814,-0.543159008026123
1757088577224673500,1.405673583984375,-0.5105869770050049,-0.23714199662208557,-0.5059040188789368
1757088577234226400,1.415226318359375,-0.4440610110759735,-0.2683970034122467,-0.4592370092868805
1757088577243779600,1.424779541015625,-0.4054090082645416,-0.27819499373435974,-0.3789669871330261
1757088577253333000,1.4343330078125,-0.36783498525619507,-0.2689160108566284,-0.3348509967327118
1757088577262886000,1.443885986328125,-0.28380298614501953,-0.25729501247406006,-0.28405100107192993
1757088577272439000,1.45343896484375,-0.2036069929599762,-0.2384839951992035,-0.2247759997844696
1757088577281992000,1.462991943359375,-0.15477199852466583,-0.23163899779319763,-0.19166499376296997
1757088577291545300,1.47254541015625,-0.16269299387931824,-0.24156400561332703,-0.1765120029449463
1757088577301098500,1.482098388671875,-0.18329699337482452,-0.2610909938812256,-0.1644279956817627
1757088577310651400,1.4916513671875,-0.2244729995727539,-0.27821800112724304,-0.11906799674034119
1757088577320204500,1.50120458984375,-0.21939100325107574,-0.2929590046405792,-0.09676799923181534
1757088577329757700,1.5107578125,-0.17295899987220764,-0.28375500440597534,-0.08251500129699707
1757088577339310800,1.520310791015625,-0.0948449969291687,-0.2696560025215149,-0.030858000740408897
1757088577348864000,1.529864013671875,-0.05287700146436691,-0.2603299915790558,-0.03656600043177605
1757088577358417000,1.5394169921875,-0.05431099981069565,-0.23425200581550598,-0.042364999651908875
1757088577367970300,1.54897021484375,-0.07173699885606766,-0.2274239957332611,-0.08410900086164474
1757088577377523200,1.558523193359375,-0.11059500277042389,-0.24465900659561157,-0.12143199890851974
1757088577387076400,1.568076416015625,-0.1201310008764267,-0.2835249900817871,-0.14536400139331818
1757088577396629200,1.577629150390625,-0.13439199328422546,-0.2769649922847748,-0.15403799712657928
1757088577406182400,1.587182373046875,-0.13505199551582336,-0.25124698877334595,-0.1392270028591156
1757088577415735600,1.596735595703125,-0.14949600398540497,-0.2183919996023178,-0.13151800632476807
1757088577425288700,1.606288818359375,-0.1343899965286255,-0.19746899604797363,-0.10317999869585037
1757088577434841900,1.615841796875,-0.10715200006961823,-0.1980379968881607,-0.0803930014371872
1757088577444394800,1.625394775390625,-0.1004749983549118,-0.20806799829006195,-0.02895599976181984
1757088577453948000,1.634947998046875,-0.12395700067281723,-0.22282500565052032,0.02455100044608116
1757088577463501000,1.6445009765625,-0.08057200163602829,-0.2589620053768158,0.07524000108242035
1757088577473054200,1.65405419921875,-0.012795999646186829,-0.2949349880218506,0.09604399651288986
1757088577482607400,1.663607421875,0.027773000299930573,-0.2732889950275421,0.11992599815130234
1757088577492160300,1.67316015625,-0.007422000169754028,-0.2612600028514862,0.10351099818944931
1757088577501713400,1.68271337890625,-0.08181499689817429,-0.2446179986000061,0.07676099985837936
1757088577511266600,1.6922666015625,-0.16569000482559204,-0.24970899522304535,0.05820000171661377
1757088577520819700,1.70181982421875,-0.21496999263763428,-0.2430099993944168,0.02704799920320511
1757088577530372600,1.71137255859375,-0.24507099390029907,-0.25561198592185974,0.0044120000675320625
1757088577539925800,1.72092578125,-0.2207220047712326,-0.2658570110797882,-0.014972000382840633
1757088577549479200,1.730479248046875,-0.17043399810791016,-0.2568730115890503,-0.015207000076770782
1757088577559032000,1.740031982421875,-0.13923799991607666,-0.259782999753952,-0.01093200035393238
1757088577568585200,1.749585205078125,-0.1533450037240982,-0.26271000504493713,-0.011408999562263489
1757088577578138000,1.75913818359375,-0.20286299288272858,-0.2537809908390045,-0.00254100002348423
1757088577587691300,1.768691162109375,-0.228643998503685,-0.25220799446105957,-0.025546999648213387
1757088577597244700,1.77824462890625,-0.19339799880981445,-0.23626700043678284,-0.031261999160051346
1757088577606797600,1.787797607421875,-0.12610599398612976,-0.22980600595474243,-0.04306500032544136
1757088577616350700,1.797350830078125,-0.10371699929237366,-0.22083599865436554,-0.02015100046992302
1757088577625903900,1.80690380859375,-0.12326999753713608,-0.2190220057964325,0.017417000606656075
1757088577635456800,1.816456787109375,-0.09418199956417084,-0.22906999289989471,0.03252200037240982
1757088577645010000,1.826010009765625,-0.05807499960064888,-0.2437559962272644,0.04663899913430214
1757088577654563000,1.83556298828125,-0.03347799926996231,-0.25339698791503906,0.10478200018405914
1757088577664116200,1.8451162109375,-0.03755899891257286,-0.2557919919490814,0.11823000013828278
1757088577673669000,1.854669189453125,-0.03447499871253967,-0.25578999519348145,0.11007600277662277
1757088577683222500,1.864222412109375,-0.042635999619960785,-0.2510850131511688,0.08633600175380707
1757088577692775400,1.873775390625,-0.020646000280976295,-0.24882200360298157,0.045538000762462616
1757088577702328600,1.88332861328125,0.002767999889329076,-0.21781300008296967,0.034237999469041824
1757088577711881500,1.892881591796875,0.03654399886727333,-0.2011750042438507,0.000901999999769032
1757088577721434600,1.9024345703125,0.09346599876880646,-0.16530700027942657,-0.025947999209165573
1757088577730987800,1.91198779296875,0.12889400124549866,-0.14859899878501892,-0.0717960000038147
1757088577740541000,1.921541015625,0.15499499440193176,-0.18452799320220947,-0.09254699945449829
1757088577750093800,1.93109375,0.11799299716949463,-0.24216200411319733,-0.1259389966726303
1757088577759647200,1.940647216796875,0.04422599822282791,-0.32877999544143677,-0.1509079933166504
1757088577769200400,1.950200439453125,-0.031769998371601105,-0.3918060064315796,-0.18544499576091766
1757088577778753300,1.959753173828125,-0.06864999979734421,-0.41422298550605774,-0.15916800498962402
1757088577788306400,1.969306396484375,-0.01609399914741516,-0.40556201338768005,-0.19318799674510956
1757088577797859600,1.978859619140625,0.1334560066461563,-0.32004299759864807,-0.22482900321483612
1757088577807412700,1.988412841796875,0.2243330031633377,-0.20571599900722504,-0.2676810026168823
1757088577816966000,1.9979658203125,0.2887040078639984,-0.16078299283981323,-0.29155299067497253
1757088577826518800,2.007518798828125,0.26463499665260315,-0.13740800321102142,-0.25672200322151184
1757088577836072000,2.017072021484375,0.1982789933681488,-0.15469500422477722,-0.1825989931821823
1757088577845625000,2.026625,0.14918699860572815,-0.20061300694942474,-0.10542900115251541
1757088577855178200,2.03617822265625,0.10090599954128265,-0.2630780041217804,-0.002942000050097704
1757088577864731100,2.045731201171875,0.09142299741506577,-0.31318399310112,0.10260900110006332
1757088577874284300,2.0552841796875,0.059751998633146286,-0.35117900371551514,0.14730699360370636
1757088577883837200,2.064837158203125,0.029498999938368797,-0.3483720123767853,0.17509199678897858
1757088577893390600,2.074390625,-0.03340199962258339,-0.32186099886894226,0.1329050064086914
1757088577902943700,2.08394384765625,-0.0840810015797615,-0.2906759977340698,0.1171640008687973
1757088577912496600,2.09349658203125,-0.10678499937057495,-0.2524940073490143,0.07701999694108963
1757088577922049800,2.1030498046875,-0.09336800128221512,-0.2311840057373047,0.05041399970650673
1757088577931603000,2.11260302734375,-0.05724399909377098,-0.23378600180149078,0.0433260016143322
1757088577941156000,2.122156005859375,-0.008781000040471554,-0.24112699925899506,0.03195999935269356
1757088577950709000,2.131708984375,0.03497999906539917,-0.2531369924545288,0.041680000722408295
1757088577960262100,2.14126220703125,0.01550500001758337,-0.26512300968170166,0.06205800175666809
1757088577969815300,2.150815185546875,-0.009279999881982803,-0.25803300738334656,0.0632840022444725
1757088577979368200,2.1603681640625,-0.023372000083327293,-0.2532989978790283,0.08937399834394455
1757088577988921600,2.169921630859375,-0.020270999521017075,-0.23180100321769714,0.09826300293207169
1757088577998474500,2.179474609375,-0.012005999684333801,-0.2246440052986145,0.11118599772453308
1757088578008027600,2.189027587890625,0.046202000230550766,-0.19347700476646423,0.09619700163602829
1757088578017580500,2.19858056640625,0.08748900145292282,-0.20778299868106842,0.06365499645471573
1757088578027133700,2.2081337890625,0.09692300111055374,-0.24613499641418457,0.021371999755501747
1757088578036686800,2.217686767578125,0.10545899718999863,-0.3157379925251007,-0.03246200084686279
1757088578046240000,2.227239990234375,0.10840900242328644,-0.3686800003051758,-0.0721760019659996
1757088578055793200,2.236793212890625,0.1086530014872551,-0.3881640136241913,-0.09156099706888199
1757088578065346300,2.24634619140625,0.10231100022792816,-0.33585500717163086,-0.08208800107240677
1757088578074899500,2.2558994140625,0.10777799785137177,-0.2548089921474457,-0.06311800330877304
1757088578084452400,2.265452392578125,0.1600479930639267,-0.19513699412345886,-0.03989600017666817
1757088578094005500,2.275005615234375,0.20591400563716888,-0.16633599996566772,-0.006120999809354544
1757088578103558700,2.28455859375,0.19136400520801544,-0.16125400364398956,0.04836000129580498
1757088578113111800,2.29411181640625,0.1675329953432083,-0.23056000471115112,0.011602000333368778
1757088578122664700,2.303664794921875,0.133201003074646,-0.2519420087337494,0.0378200002014637
1757088578132217900,2.3132177734375,0.0800660029053688,-0.2756989896297455,0.07403100281953812
1757088578141770800,2.322770751953125,0.011832999996840954,-0.30185699462890625,0.11268900334835052
1757088578151324200,2.33232421875,-0.06798200309276581,-0.31612199544906616,0.13981500267982483
1757088578160877300,2.341877197265625,-0.11347399652004242,-0.30895400047302246,0.13801899552345276
1757088578170430200,2.35143017578125,-0.14682699739933014,-0.28986498713493347,0.14962199330329895
1757088578179983400,2.3609833984375,-0.1283479928970337,-0.29224199056625366,0.16033299267292023
1757088578189536500,2.37053662109375,-0.11513099819421768,-0.2851020097732544,0.13616600632667542
1757088578199089700,2.380089599609375,-0.09299000352621078,-0.24923700094223022,0.1267230063676834
1757088578208642600,2.389642578125,-0.05146000161767006,-0.251693993806839,0.08790399879217148
1757088578218195700,2.39919580078125,-0.032290998846292496,-0.261355996131897,0.07620199769735336
1757088578227748600,2.40874853515625,-0.04758000001311302,-0.2638559937477112,0.09015200287103653
1757088578237302300,2.41830224609375,-0.045221999287605286,-0.25676798820495605,0.10790999978780746
1757088578246855200,2.427855224609375,-0.006306000053882599,-0.2807280123233795,0.10648699849843979
1757088578256408000,2.437407958984375,0.028423000127077103,-0.28300100564956665,0.12555299699306488
1757088578265961200,2.446961181640625,0.06340699642896652,-0.28995099663734436,0.12764400243759155
1757088578275514000,2.45651416015625,0.07371299713850021,-0.292044997215271,0.13152900338172913
1757088578285067300,2.4660673828125,0.09236499667167664,-0.2989189922809601,0.11221899837255478
1757088578294620700,2.47562060546875,0.0847259983420372,-0.3012180030345917,0.0462770015001297
1757088578304173600,2.485173583984375,0.07040099799633026,-0.2631109952926636,-0.03166700154542923
1757088578313726700,2.494726806640625,0.04553300142288208,-0.24682900309562683,-0.08447600156068802
1757088578323280000,2.50427978515625,0.04669800028204918,-0.2522389888763428,-0.11802200227975845
1757088578332833000,2.5138330078125,0.06543099880218506,-0.23603999614715576,-0.11072800308465958
1757088578342386000,2.523385986328125,0.057728998363018036,-0.2387399971485138,-0.03584900125861168
1757088578351939000,2.53293896484375,0.06358099728822708,-0.24115300178527832,0.03009900078177452
1757088578361492000,2.542491943359375,0.06192899867892265,-0.23620900511741638,0.06953399628400803
1757088578371045000,2.552045166015625,0.030706999823451042,-0.2503780126571655,0.09273800253868103
1757088578380598300,2.561598388671875,-0.0007179999956861138,-0.25999000668525696,0.05333999916911125
1757088578390151400,2.5711513671875,-0.005282000172883272,-0.2554129958152771,0.009336999617516994
1757088578399704300,2.580704345703125,0.010808000341057777,-0.27245500683784485,-0.02087699994444847
1757088578409257500,2.590257568359375,0.037126000970602036,-0.270236998796463,-0.010797999799251556
1757088578418810400,2.599810302734375,0.01885800063610077,-0.2775309979915619,0.02143999934196472
1757088578428363800,2.60936376953125,-0.020980000495910645,-0.270577996969223,0.015487000346183777
1757088578437917000,2.6189169921875,-0.04466899856925011,-0.26609599590301514,0.016530999913811684
1757088578447469800,2.6284697265625,-0.044039998203516006,-0.25925999879837036,0.013101000338792801
1757088578457023000,2.63802294921875,-0.029649000614881516,-0.26433300971984863,0.025880999863147736
1757088578466576100,2.647576171875,-0.007054999936372042,-0.2622309923171997,0.008706999942660332
1757088578476129300,2.65712939453125,0.027533000335097313,-0.24071000516414642,0.048983000218868256
1757088578485682200,2.66668212890625,0.07370500266551971,-0.22615499794483185,0.06645599752664566
1757088578495235300,2.6762353515625,0.09459400177001953,-0.2402070015668869,0.08061199635267258
1757088578504788200,2.685788330078125,0.07574799656867981,-0.24243199825286865,0.05317400023341179
1757088578514341600,2.695341552734375,0.06231300160288811,-0.26627299189567566,0.04309700056910515
1757088578523894800,2.704894775390625,0.04720799997448921,-0.27823901176452637,0.029231000691652298
1757088578533447700,2.71444775390625,0.019171999767422676,-0.2879129946231842,0.020670000463724136
1757088578543000800,2.724000732421875,0.0041669998317956924,-0.28085801005363464,0.028517000377178192
1757088578552554200,2.73355419921875,0.0061240000650286674,-0.2881210148334503,0.04023699834942818
1757088578562107100,2.743107177734375,0.04442699998617172,-0.2689419984817505,0.03747899830341339
1757088578571660000,2.752659912109375,0.0963210016489029,-0.24252599477767944,0.007540000136941671
1757088578581213200,2.762213134765625,0.10397300124168396,-0.23532900214195251,-0.032363999634981155
1757088578590766300,2.771766357421875,0.10636799782514572,-0.21380500495433807,-0.04984100162982941
1757088578600319500,2.781319580078125,0.1015549972653389,-0.21874800324440002,-0.07728400081396103
1757088578609872400,2.790872314453125,0.07430899888277054,-0.23088300228118896,-0.05786599963903427
1757088578619425500,2.800425537109375,0.037390999495983124,-0.24539899826049805,-0.016462000086903572
1757088578628978400,2.809978515625,0.00304200011305511,-0.2550800144672394,0.036642998456954956
1757088578638531600,2.819531494140625,-0.001585999969393015,-0.2742629945278168,0.0639759972691536
1757088578648085000,2.8290849609375,0.01710199937224388,-0.27899599075317383,0.07362700253725052
1757088578657638000,2.838637939453125,0.03691500052809715,-0.27651599049568176,0.05743800103664398
1757088578667191000,2.84819091796875,0.04166200011968613,-0.2740800082683563,0.03046100027859211
1757088578676744200,2.857744140625,0.04332000017166138,-0.28126299381256104,0.007083999924361706
1757088578686297300,2.86729736328125,0.04251699894666672,-0.2812660038471222,0.007724999915808439
1757088578695850200,2.876850341796875,0.03781599923968315,-0.2692449986934662,0.03800699859857559
1757088578705403400,2.8864033203125,0.05397599935531616,-0.2714189887046814,0.07807999849319458
1757088578714956300,2.895956298828125,0.07378199696540833,-0.2662479877471924,0.10922999680042267
1757088578724509700,2.905509765625,0.07450799643993378,-0.25621500611305237,0.1295350044965744
1757088578734062800,2.915062744140625,0.09332700073719025,-0.25574201345443726,0.11916500329971313
1757088578743615700,2.92461572265625,0.09723400324583054,-0.257658988237381,0.1091030016541481
1757088578753169000,2.9341689453125,0.05979999899864197,-0.27425700426101685,0.04294800013303757
1757088578762721800,2.9437216796875,0.028903000056743622,-0.26708298921585083,0.02136700041592121
1757088578772275200,2.953275146484375,0.02703399956226349,-0.26471400260925293,0.023760000243782997
1757088578781828000,2.962828125,0.0479619987308979,-0.2813819944858551,0.044280000030994415
1757088578791381200,2.97238134765625,0.07228200137615204,-0.26680999994277954,0.0568000003695488
1757088578800934100,2.98193408203125,0.05214099958539009,-0.27620598673820496,0.06407999992370605
1757088578810487600,2.991487548828125,0.02221900038421154,-0.2521679997444153,0.06400799751281738
1757088578820040400,3.00104052734375,0.03034999966621399,-0.2568660080432892,0.06177999824285507
1757088578829593600,3.010593505859375,0.07450500130653381,-0.2806279957294464,0.052584998309612274
1757088578839146500,3.020146484375,0.08906000107526779,-0.2805590033531189,0.0028619999065995216
1757088578848699600,3.02969970703125,0.07124199718236923,-0.26401999592781067,-0.062095001339912415
1757088578858252800,3.039252685546875,0.07245799899101257,-0.24757499992847443,-0.07753100246191025
1757088578867806000,3.048805908203125,0.1028830036520958,-0.22151300311088562,-0.08033700287342072
1757088578877359000,3.058359130859375,0.1110529974102974,-0.21683600544929504,-0.03742700070142746
1757088578886912000,3.067912109375,0.09147299826145172,-0.21915900707244873,0.02811500057578087
1757088578896465000,3.07746484375,0.09333900362253189,-0.2619439959526062,0.0874280035495758
1757088578906018000,3.08701806640625,0.09069599956274033,-0.2784540057182312,0.06852199882268906
1757088578915571200,3.0965712890625,0.09707500040531158,-0.27351298928260803,0.03478199988603592
1757088578925124400,3.106124267578125,0.07566999644041061,-0.24717900156974792,0.010095999576151371
1757088578934677500,3.115677490234375,0.06228499859571457,-0.23528100550174713,0.002710999920964241
1757088578944230700,3.125230712890625,0.02703000046312809,-0.2282319962978363,0.013970999978482723
1757088578953783800,3.13478369140625,0.032538000494241714,-0.24272899329662323,0.017959000542759895
1757088578972889900,3.153889892578125,0.07259099930524826,-0.280921995639801,0.01750599965453148
1757088578982442800,3.16344287109375,0.031116999685764313,-0.28566399216651917,0.03645100072026253
1757088578991996000,3.172995849609375,0.005917000118643045,-0.2809619903564453,0.02028599940240383
1757088579001549000,3.182549072265625,0.014386000111699104,-0.28588899970054626,0.002471999963745475
1757088579011102200,3.192102294921875,0.027240000665187836,-0.30037999153137207,-0.003343000076711178
1757088579020655000,3.201655029296875,0.05748699977993965,-0.2956309914588928,-0.009285000152885914
1757088579030208300,3.211208251953125,0.06584200263023376,-0.2884669899940491,-0.01534000039100647
1757088579039761700,3.22076171875,0.09008599817752838,-0.2669599950313568,-0.034800998866558075
1757088579049314600,3.230314453125,0.09080100059509277,-0.24320100247859955,-0.06906600296497345
1757088579058867700,3.23986767578125,0.09655299782752991,-0.25067800283432007,-0.0970500037074089
1757088579068420600,3.249420654296875,0.1227250024676323,-0.27730798721313477,-0.11475999653339386
1757088579077973500,3.258973388671875,0.14061599969863892,-0.2990899980068207,-0.12084399908781052
1757088579087527000,3.26852685546875,0.15102200210094452,-0.2802560031414032,-0.1541309952735901
1757088579097079800,3.278079833984375,0.16596899926662445,-0.23518699407577515,-0.18112799525260925
1757088579106633000,3.287633056640625,0.1610410064458847,-0.1949930042028427,-0.18400399386882782
1757088579116186000,3.29718603515625,0.20555399358272552,-0.13584299385547638,-0.22679099440574646
1757088579125739300,3.3067392578125,0.26489800214767456,-0.11028199642896652,-0.23901499807834625
1757088579135292400,3.31629248046875,0.3060790002346039,-0.0920339971780777,-0.25617799162864685
1757088579144845300,3.32584521484375,0.3365029990673065,-0.1289529949426651,-0.2622469961643219
1757088579154398500,3.3353984375,0.3251039981842041,-0.189860001206398,-0.23536799848079681
1757088579163951400,3.344951416015625,0.32385799288749695,-0.23380599915981293,-0.1615149974822998
1757088579173504500,3.35450439453125,0.3109450042247772,-0.2606930136680603,-0.07276800274848938
1757088579183057700,3.3640576171875,0.3248650133609772,-0.2392510026693344,0.02065799944102764
1757088579192610800,3.37361083984375,0.2604449987411499,-0.14547200500965118,0.1541299968957901
1757088579202163700,3.383163818359375,0.16580699384212494,-0.17191800475120544,0.08792900294065475
1757088579211716900,3.392716796875,0.027358999475836754,-0.13602900505065918,0.17948199808597565
1757088579221270000,3.40227001953125,-0.09966599941253662,-0.14548300206661224,0.2740910053253174
1757088579230823200,3.4118232421875,-0.24342699348926544,-0.11459299921989441,0.2969070076942444
1757088579240376000,3.4213759765625,-0.3378080129623413,-0.06276199966669083,0.2836430072784424
1757088579249929200,3.43092919921875,-0.32738301157951355,-0.052340999245643616,0.23210899531841278
1757088579259482000,3.440482177734375,-0.21315200626850128,-0.018154000863432884,0.183010995388031
1757088579269035300,3.45003515625,-0.0574290007352829,-0.0010839999886229634,0.12494900077581406
1757088579278588700,3.459588623046875,0.05349100008606911,-0.01348000019788742,0.01604500040411949
1757088579288141600,3.4691416015625,0.11943499743938446,-0.02655000053346157,-0.036681998521089554
1757088579297694700,3.47869482421875,0.18721799552440643,-0.044270001351833344,0.07798799872398376
1757088579307247600,3.48824755859375,0.12579399347305298,-0.05333700031042099,0.08785399794578552
1757088579316800500,3.497800537109375,-0.023042000830173492,-0.10922399908304214,0.15850600600242615
1757088579326354000,3.50735400390625,-0.08171900361776352,-0.12545199692249298,0.2695060074329376
1757088579335907000,3.516906982421875,-0.03724199905991554,-0.08776000142097473,0.26687800884246826
1757088579345460000,3.5264599609375,0.07712099701166153,-0.010427000001072884,0.19795699417591095
1757088579355013000,3.53601318359375,0.21728099882602692,0.07572600245475769,0.10310100018978119
1757088579364566300,3.545566162109375,0.2923769950866699,0.20780900120735168,-0.20949800312519073
1757088579374119400,3.555119384765625,0.2836669981479645,0.25128600001335144,-0.4825510084629059
1757088579383672300,3.56467236328125,0.21034899353981018,0.27290499210357666,-0.6388199925422668
1757088579393225500,3.5742255859375,0.20638899505138397,0.296858012676239,-0.8161140084266663
1757088579402778600,3.583778564453125,0.22598299384117126,0.29515698552131653,-0.7978379726409912
1757088579412331800,3.593331787109375,0.4244840145111084,0.31219398975372314,-0.8852949738502502
1757088579421884700,3.602884765625,0.4950830042362213,0.43409401178359985,-1.054494023323059
1757088579431437800,3.612437744140625,0.4729970097541809,0.5022090077400208,-1.3542139530181885
1757088579440990700,3.62199072265625,0.5446839928627014,0.46425798535346985,-1.1865580081939697
1757088579450544000,3.631544189453125,0.7220190167427063,0.3085860013961792,-0.6382480263710022
1757088579460097000,3.641096923828125,0.46208301186561584,0.2406180053949356,-0.31918200850486755
1757088579469650200,3.650650146484375,0.2537519931793213,0.36751100420951843,-0.17317399382591248
1757088579479203000,3.660203125,0.5771679878234863,0.32488200068473816,-0.13347099721431732
1757088579488756200,3.669756103515625,2.0439600944519043,0.14130400121212006,0.25486698746681213
1757088579498309400,3.679309326171875,2.994849920272827,-0.1259620040655136,1.0683850049972534
1757088579507862500,3.688862548828125,2.22155499458313,-0.3570150136947632,1.490676999092102
1757088579517415700,3.698415771484375,0.5921149849891663,-0.23347899317741394,1.0934319496154785
1757088579526968600,3.707968505859375,-0.44540199637413025,-0.14161300659179688,0.541333019733429
1757088579536521500,3.717521484375,-0.21600599586963654,0.02523699961602688,-0.2783989906311035
1757088579546075000,3.727074951171875,0.5849699974060059,0.0906519964337349,-0.907226026058197
1757088579555628000,3.7366279296875,1.475808024406433,-0.039163000881671906,-0.8645129799842834
1757088579565181000,3.746180908203125,1.7331780195236206,-0.1639080047607422,-0.25814101099967957
1757088579574733800,3.75573388671875,2.0294349193573,-0.33754000067710876,0.3314400017261505
1757088579584287000,3.765286865234375,0.4745529890060425,-0.23757100105285645,0.7651870250701904
1757088579593840000,3.774840087890625,-0.7168340086936951,-0.7875069975852966,0.594452977180481
1757088579603393300,3.784393310546875,-1.5052920579910278,-1.58440101146698,0.059762999415397644
1757088579612946400,3.793946533203125,-0.6635919809341431,-2.020901918411255,0.04704299941658974
1757088579622499600,3.80349951171875,-0.003942999988794327,-1.799765944480896,-0.37996000051498413
1757088579632052500,3.813052490234375,-0.5325779914855957,-1.0133830308914185,-0.0389229990541935
1757088579641605600,3.822605712890625,-0.8281580209732056,-0.49948999285697937,0.44071999192237854
1757088579651158500,3.832158447265625,-0.1333329975605011,-0.20537200570106506,0.06972700357437134
1757088579660711700,3.841711669921875,0.6665589809417725,0.06766899675130844,-0.159621000289917
1757088579670264600,3.8512646484375,0.4785340130329132,0.43760600686073303,0.08979500085115433
1757088579679817700,3.860817626953125,0.2296600043773651,0.43158799409866333,0.5127869844436646
1757088579689371000,3.870370849609375,0.28508201241493225,0.19734999537467957,0.762561023235321
1757088579698924000,3.879924072265625,0.2558650076389313,0.09026999771595001,0.6763989925384521
1757088579708477000,3.889476806640625,0.4291119873523712,0.3281959891319275,0.6446419954299927
1757088579718030300,3.8990302734375,0.21791499853134155,0.725799024105072,0.5146859884262085
1757088579727583500,3.90858349609375,-0.11588499695062637,1.2793749570846558,0.23482400178909302
1757088579737136400,3.918136474609375,-0.38313400745391846,2.108957052230835,0.07548300176858902
1757088579746689500,3.927689453125,-0.5973629951477051,2.8372669219970703,0.004170999862253666
1757088579756242400,3.937242431640625,-0.5153149962425232,2.994025945663452,0.07241100072860718
1757088579765795600,3.946795654296875,-0.41452398896217346,3.159562110900879,0.42291900515556335
1757088579775348500,3.956348388671875,-0.0011599999852478504,2.9839189052581787,1.3208249807357788
1757088579784902000,3.96590185546875,0.07954499870538712,3.048943042755127,1.6384539604187012
1757088579794454800,3.975454833984375,-0.1233619973063469,2.8879969120025635,1.8283569812774658
1757088579804008000,3.985008056640625,-0.12832899391651154,1.955428957939148,1.805521011352539
1757088579813560800,3.994560791015625,-0.6331999897956848,0.9458280205726624,1.7869999408721924
1757088579823114000,4.004114013671875,-0.9470319747924805,0.27749699354171753,1.851256012916565
1757088579832667100,4.013667236328125,-0.8079649806022644,0.03041600063443184,1.4404710531234741
1757088579842220300,4.02322021484375,-0.37786999344825745,0.34262099862098694,0.7170640230178833
1757088579851773400,4.0327734375,-0.1206979975104332,0.7817559838294983,-0.29951000213623047
1757088579861326300,4.042326416015625,-0.04305500164628029,1.0210410356521606,-0.7929930090904236
1757088579870879500,4.05187939453125,-0.16687199473381042,1.3355350494384766,-0.8328030109405518
1757088579880432400,4.061432373046875,-0.1769929975271225,0.9208980202674866,-0.5745909810066223
1757088579889985500,4.070985595703125,-0.2891770005226135,0.4319620132446289,-0.19320200383663177
1757088579899538700,4.08053857421875,-0.6234260201454163,0.09818299859762192,0.17205800116062164
1757088579909091600,4.090091552734375,-0.5044260025024414,0.5148159861564636,-0.22773900628089905
1757088579918645000,4.09964501953125,0.36247700452804565,0.0010460000485181808,-0.5919399857521057
1757088579928198000,4.109197998046875,-0.599498987197876,-0.1887120008468628,-0.017396999523043633
1757088579937751000,4.1187509765625,-0.9522650241851807,-0.4372299909591675,0.2248300015926361
1757088579947304200,4.12830419921875,-0.6042010188102722,-0.3712809979915619,0.4880569875240326
1757088579956857000,4.137857177734375,-0.2311529964208603,-0.19971099495887756,0.8491389751434326
1757088579966410200,4.14741015625,-0.1491200029850006,-0.23001700639724731,0.6532400250434875
1757088579975963100,4.156963134765625,-0.098642997443676,-0.19470399618148804,0.6322579979896545
1757088579985516300,4.166516357421875,-0.2509399950504303,-0.724888026714325,0.28932899236679077
1757088579995069400,4.1760693359375,-0.6652430295944214,-0.07526499778032303,-0.07330399751663208
1757088580004622600,4.18562255859375,-0.7946159839630127,-0.2283799946308136,-0.21550899744033813
1757088580014175700,4.19517578125,-1.49338698387146,0.12404800206422806,0.26250699162483215
1757088580023728600,4.204728759765625,-1.3822909593582153,-0.11964099854230881,0.22127899527549744
1757088580033281500,4.214281494140625,-1.3833370208740234,-0.2965629994869232,0.2922550141811371
1757088580042834700,4.223834716796875,-1.3522340059280396,-0.347557008266449,0.3547790050506592
1757088580052387800,4.233387939453125,-0.568382978439331,-0.5347229838371277,0.5548340082168579
1757088580061941000,4.24294091796875,-0.23851600289344788,-0.3744859993457794,0.6291519999504089
1757088580071494000,4.252493896484375,-0.673209011554718,-0.11290200054645538,0.9825339913368225
1757088580081047300,4.26204736328125,-0.7638790011405945,-0.324537992477417,0.6137189865112305
1757088580090600200,4.27160009765625,-0.6647329926490784,-0.5245190262794495,0.3960300087928772
1757088580100153300,4.2811533203125,-0.3729659914970398,-0.6360899806022644,0.06705400347709656
1757088580109706200,4.290706298828125,-0.24814599752426147,-0.5015810132026672,-0.3803670108318329
1757088580119259400,4.30025927734375,-0.48735499382019043,-0.2844569981098175,-0.7138530015945435
1757088580128812500,4.3098125,-0.6726239919662476,-0.32816100120544434,-0.7443150281906128
1757088580138365700,4.31936572265625,-0.8327630162239075,-0.48424801230430603,-0.4834499955177307
1757088580147918800,4.3289189453125,-0.9982020258903503,-0.2772980034351349,-0.3279939889907837
1757088580157471700,4.3384716796875,-1.2173819541931152,-0.10576699674129486,-0.025763999670743942
1757088580167024600,4.348024658203125,-1.2387789487838745,-0.08023899793624878,-0.08666100353002548
1757088580176577800,4.357577880859375,-1.1101939678192139,-0.05174199864268303,-0.18639199435710907
1757088580186131000,4.367130859375,-1.0302929878234863,-0.016550999134778976,-0.44427400827407837
1757088580195684000,4.37668408203125,-0.9034540057182312,-0.055987000465393066,-0.31609800457954407
1757088580205237000,4.386237060546875,-0.9423009753227234,-0.1720529943704605,-0.6338880062103271
1757088580214790100,4.3957900390625,-0.9360349774360657,-0.3167470097541809,-0.7966939806938171
1757088580224343300,4.40534326171875,-0.8583739995956421,-0.44591400027275085,-0.743395984172821
1757088580233896400,4.414896484375,-0.835623025894165,-0.409294992685318,-0.7700790166854858
1757088580243449600,4.42444970703125,-0.6658279895782471,-0.24588899314403534,-0.6347740292549133
1757088580253002500,4.43400244140625,-0.31091800332069397,-0.07482799887657166,-0.6118699908256531
1757088580262555400,4.443555419921875,0.1319350004196167,0.2655920088291168,-0.36370500922203064
1757088580272108500,4.453108642578125,0.44297298789024353,0.7421069741249084,-0.0015770000172778964
1757088580281661700,4.46266162109375,0.38529300689697266,0.9391319751739502,-0.03200099989771843
1757088580291214600,4.472214599609375,0.05914200097322464,1.0271879434585571,-0.08382000029087067
1757088580300767700,4.481767822265625,-0.047965001314878464,0.8754870295524597,-0.2749919891357422
1757088580310321000,4.49132080078125,-0.1078839972615242,0.8384169936180115,-0.40997999906539917
1757088580319873800,4.500873779296875,-0.11633100360631943,0.6943249702453613,-0.45464199781417847
1757088580329427000,4.510427001953125,-0.1323080062866211,0.6046770215034485,-0.2627669870853424
1757088580338980000,4.51997998046875,0.002308000111952424,0.4444040060043335,-0.11969699710607529
1757088580348533200,4.529533203125,0.21360400319099426,0.32961198687553406,-0.024754000827670097
1757088580358086100,4.539086181640625,0.3958609998226166,0.20900499820709229,-0.07860399782657623
1757088580367639300,4.548639404296875,0.4176639914512634,0.20702700316905975,-0.1589210033416748
1757088580377192400,4.5581923828125,0.31033700704574585,0.2880620062351227,-0.22918300330638885
1757088580386745600,4.56774560546875,0.35622501373291016,0.3425930142402649,-0.2579280138015747
1757088580396298500,4.577298583984375,0.3878209888935089,0.3591170012950897,-0.21315400302410126
1757088580405851400,4.586851318359375,0.39047399163246155,0.27692800760269165,-0.13240399956703186
1757088580415404500,4.596404541015625,0.21188800036907196,0.4116860032081604,0.09100499749183655
1757088580424957400,4.60595751953125,0.09643799811601639,0.04709399864077568,-0.10110999643802643
1757088580434510600,4.615510498046875,0.22529500722885132,-0.6232020258903503,-0.3728030025959015
1757088580444063700,4.625063720703125,0.10859700292348862,-0.5747550129890442,-0.10704299807548523
1757088580453617000,4.634616943359375,-0.06212500110268593,-0.46352699398994446,0.10290399938821793
1757088580463169800,4.644169677734375,-0.06490500271320343,-0.38644200563430786,0.12014000117778778
1757088580472723000,4.653722900390625,-0.06507600098848343,-0.3643850088119507,0.18316200375556946
1757088580482276000,4.663276123046875,-0.09154699742794037,-0.3824250102043152,0.24361999332904816
1757088580491829200,4.672829345703125,-0.03441999852657318,-0.44223999977111816,0.29702600836753845
1757088580501382100,4.682382080078125,-0.042367998510599136,-0.5447959899902344,0.3292919993400574
1757088580510935300,4.691935302734375,-0.014523000456392765,-0.5389509797096252,0.329120010137558
1757088580520488400,4.701488525390625,0.06583300232887268,-0.570393979549408,0.45065900683403015
1757088580530041600,4.71104150390625,0.14396999776363373,-0.5060439705848694,0.527055025100708
1757088580539594500,4.720594482421875,0.24350500106811523,-0.5024970173835754,0.5599989891052246
1757088580549147600,4.730147705078125,0.2687680125236511,-0.4491710066795349,0.558201014995575
1757088580558700500,4.739700439453125,0.1503240019083023,-0.37947899103164673,0.5692359805107117
1757088580568253700,4.749253662109375,-0.14485499262809753,-0.20126399397850037,0.41938599944114685
1757088580577806800,4.758806884765625,-0.3941250145435333,-0.055776000022888184,0.18425099551677704
1757088580587360000,4.768360107421875,-0.5690649747848511,-0.039739999920129776,-0.21685199439525604
1757088580596913000,4.777912841796875,-0.47890400886535645,-0.19638100266456604,-0.35017600655555725
1757088580606466000,4.787466064453125,-0.3695470094680786,-0.200982004404068,-0.19276300072669983
1757088580616019000,4.79701904296875,-0.11867599934339523,-0.15212999284267426,-0.01115499995648861
1757088580625572000,4.806572021484375,0.13283400237560272,-0.0023250000085681677,0.12323399633169174
1757088580635125200,4.816125244140625,0.3845190107822418,0.06780999898910522,0.07174500077962875
1757088580644678100,4.82567822265625,0.4922879934310913,0.01513299997895956,-0.09767100214958191
1757088580654231300,4.835231201171875,0.4850429892539978,-0.04209199920296669,-0.2351430058479309
1757088580663784400,4.844784423828125,0.5020920038223267,-0.01600000075995922,-0.30068299174308777
1757088580673337600,4.854337646484375,0.39107298851013184,0.18014900386333466,-0.33481699228286743
1757088580682890500,4.863890380859375,0.26378199458122253,0.25996801257133484,-0.3863289952278137
1757088580692443600,4.873443603515625,0.11090199649333954,0.43365100026130676,-0.4702660143375397
1757088580701996500,4.88299658203125,0.013213000260293484,0.5183420181274414,-0.48388999700546265
1757088580711549700,4.8925498046875,-0.06265799701213837,0.6803330183029175,-0.3732919991016388
1757088580721102800,4.902102783203125,-0.012431000359356403,0.5727159976959229,-0.3214290142059326
1757088580730656000,4.911656005859375,0.13500100374221802,0.3624500036239624,-0.16482199728488922
1757088580740209000,4.921208984375,0.2557249963283539,0.28293099999427795,-0.08414600044488907
1757088580749762000,4.930761962890625,0.3209030032157898,0.15645499527454376,-0.076323002576828
1757088580759315200,4.940315185546875,0.26846298575401306,0.061250001192092896,-0.05977100133895874
1757088580768868400,4.949868408203125,0.23740600049495697,-0.018588000908493996,0.016498999670147896
1757088580778421200,4.959421142578125,0.2037629932165146,-0.1131799966096878,0.08982700109481812
1757088580787974100,4.96897412109375,0.1409749984741211,-0.26434600353240967,0.1232839971780777
1757088580797527300,4.97852734375,0.034908998757600784,-0.3451730012893677,0.12731599807739258
1757088580807080700,4.988080810546875,-0.061507001519203186,-0.3456740081310272,0.148498997092247
1757088580816633600,4.997633544921875,-0.16994599997997284,-0.35075798630714417,0.09032999724149704
1757088580826186800,5.007186767578125,-0.2043280005455017,-0.3630709946155548,0.04977799952030182
1757088580835739600,5.01673974609375,-0.2365490049123764,-0.3786889910697937,0.03905000165104866
1757088580845292800,5.026292724609375,-0.26427799463272095,-0.4227510094642639,0.05148199945688248
1757088580854846000,5.035845947265625,-0.22052699327468872,-0.4716910123825073,0.019903000444173813
1757088580864398800,5.04539892578125,-0.12663400173187256,-0.4621489942073822,0.001973999897018075
1757088580873952000,5.054951904296875,-0.028459999710321426,-0.551675021648407,0.01384500041604042
1757088580883505200,5.064505126953125,0.09553500264883041,-0.6382240056991577,0.010553999803960323
1757088580893058300,5.074058349609375,0.22430400550365448,-0.6089919805526733,0.042426999658346176
1757088580902611200,5.083611083984375,0.2491759955883026,-0.3120500147342682,0.031741999089717865
1757088580912164400,5.093164306640625,0.28248700499534607,-0.07684600353240967,-0.011575999669730663
1757088580921717200,5.10271728515625,0.22572200000286102,0.0729679986834526,-0.004860000219196081
1757088580931270100,5.112270263671875,0.205252006649971,0.13649000227451324,0.015968000516295433
1757088580940823600,5.121823486328125,0.12021899968385696,0.15087400376796722,0.04639099910855293
1757088580950376700,5.131376708984375,0.01575399935245514,0.10107100009918213,0.010487000457942486
1757088580959929600,5.1409296875,-0.03420500084757805,-0.006256999913603067,-0.012012000195682049
1757088580969482800,5.150482666015625,-0.05776999890804291,0.02667899988591671,-0.052129000425338745
1757088580979035600,5.16003564453125,-0.03832000121474266,0.03163500130176544,-0.09333200007677078
1757088580988588800,5.1695888671875,0.012330999597907066,0.06439799815416336,-0.10614199936389923
1757088580998142000,5.179141845703125,0.07020899653434753,0.09628599882125854,-0.1324169933795929
1757088581007694800,5.18869482421875,0.10173700004816055,0.10218899697065353,-0.12380799651145935
1757088581017248000,5.198248046875,0.1378840059041977,0.07177100330591202,-0.12865400314331055
1757088581026801000,5.20780078125,0.17169900238513947,0.08359400182962418,-0.11165499687194824
1757088581036354000,5.21735400390625,0.18648900091648102,0.10344299674034119,-0.056102000176906586
1757088581045907200,5.2269072265625,0.1870730072259903,0.1354130059480667,-0.027389999479055405
1757088581055460400,5.23646044921875,0.19256600737571716,0.15175500512123108,0.020780999213457108
1757088581065013200,5.24601318359375,0.15024900436401367,0.16472899913787842,0.062102001160383224
1757088581074566100,5.255566162109375,0.12461400032043457,0.1478700041770935,0.09710399806499481
1757088581084119300,5.265119384765625,0.07506600022315979,0.16148099303245544,0.08725100010633469
1757088581093672700,5.274672607421875,0.06124600023031235,0.12754899263381958,0.10529600083827972
1757088581103225600,5.2842255859375,0.05203799903392792,0.08481799811124802,0.13799400627613068
1757088581112778800,5.29377880859375,0.04505699872970581,0.056255001574754715,0.12096499651670456
1757088581122332000,5.303331787109375,0.04028400033712387,0.013857999816536903,0.10423699766397476
1757088581131884800,5.312884765625,0.05694900080561638,-0.010240999981760979,0.09704499691724777
1757088581141438000,5.32243798828125,0.0615679994225502,-0.03541399911046028,0.10569799691438675
1757088581150990800,5.331990966796875,0.09004899859428406,-0.06172199919819832,0.12498699873685837
1757088581160544000,5.3415439453125,0.07769100368022919,-0.10054700076580048,0.1002419963479042
1757088581170097000,5.351096923828125,0.07481499761343002,-0.11919700354337692,0.08376099914312363
1757088581179650000,5.360650146484375,0.04088100045919418,-0.10543400049209595,0.06367500126361847
1757088581189203200,5.370203125,0.0307180006057024,-0.14666199684143066,0.10176599770784378
1757088581198756400,5.37975634765625,0.003823000006377697,-0.13575200736522675,0.0925849974155426
1757088581208309200,5.389309326171875,-0.0038189999759197235,-0.10956600308418274,0.09920799732208252
1757088581217862100,5.398862060546875,0.014775999821722507,-0.12281099706888199,0.08223100006580353
1757088581227415600,5.40841552734375,0.01884699985384941,-0.1598680019378662,0.17434999346733093
1757088581236968400,5.417968505859375,0.08016999810934067,-0.18972299993038177,0.16123899817466736
1757088581246521600,5.427521484375,0.05067399889230728,-0.1385509967803955,0.023250000551342964
1757088581256074800,5.43707470703125,0.028620000928640366,-0.08872099965810776,-0.025025000795722008
1757088581265627600,5.446627685546875,0.035300999879837036,-0.09656199812889099,-0.02473199926316738
1757088581275181000,5.45618115234375,0.025404000654816628,-0.06607600301504135,-0.026628000661730766
1757088581284734000,5.46573388671875,0.025384999811649323,-0.008322999812662601,-0.017260000109672546
1757088581294286800,5.475286865234375,0.027665000408887863,-0.02609799988567829,-0.051190998405218124
1757088581303840000,5.484840087890625,0.017971999943256378,-0.02483999915421009,-0.06962600350379944
1757088581313393000,5.494392822265625,0.022683000192046165,-0.019231999292969704,-0.07781799882650375
1757088581322946000,5.503946044921875,0.034699998795986176,0.006312999874353409,-0.07435400038957596
1757088581332499200,5.513499267578125,0.05876300111413002,0.025981999933719635,-0.08208300173282623
1757088581342052000,5.523052001953125,0.06138800084590912,0.04904400184750557,-0.07804899662733078
1757088581351605200,5.532605224609375,0.07124599814414978,0.05953099951148033,-0.06032799929380417
1757088581361158100,5.542158203125,0.09066499769687653,0.058090999722480774,-0.056779999285936356
1757088581370711300,5.551711181640625,0.08124999701976776,0.03649400174617767,-0.05781000107526779
1757088581380264400,5.561264404296875,0.0885860025882721,0.04121499881148338,-0.06979399919509888
1757088581389817600,5.570817626953125,0.08404199779033661,0.06617599725723267,-0.058049000799655914
1757088581399370500,5.58037060546875,0.08188900351524353,0.06734500080347061,-0.049192000180482864
1757088581408923600,5.589923583984375,0.07492999732494354,0.06638500094413757,-0.0314750000834465
1757088581418476800,5.599476806640625,0.07500399649143219,0.03625300154089928,-0.016666999086737633
1757088581428030000,5.609030029296875,0.06070299819111824,0.03521399945020676,0.006651999894529581
1757088581437582800,5.618582763671875,0.07058200240135193,0.08391900360584259,0.04655500128865242
1757088581447135700,5.6281357421875,0.04916900023818016,0.04872399941086769,0.0547030009329319
1757088581456689000,5.63768896484375,0.05368199944496155,-0.04785599932074547,0.06475599855184555
1757088581466242300,5.6472421875,0.09897000342607498,-0.03272600099444389,0.08753299713134766
1757088581475795200,5.656795166015625,0.08962099999189377,0.06283900141716003,0.09914500266313553
1757088581485348000,5.66634814453125,0.09939700365066528,0.05828100070357323,0.08220099657773972
1757088581494901200,5.6759013671875,0.07788299769163132,0.022306999191641808,0.06136799976229668
1757088581504454400,5.685454345703125,0.07325500249862671,0.05145300179719925,0.03551299870014191
1757088581514007600,5.695007568359375,0.05893800035119057,0.02921699918806553,0.004693000111728907
1757088581523560400,5.704560546875,0.051545001566410065,-0.03262399882078171,0.0005540000274777412
1757088581533113600,5.714113525390625,0.03950300067663193,-0.0053159999661147594,0.01232099998742342
1757088581542666500,5.72366650390625,0.05864600092172623,0.011366999708116055,-0.037654999643564224
1757088581552219600,5.7332197265625,0.08258599787950516,0.011169999837875366,-0.03308400139212608
1757088581561772500,5.7427724609375,0.09708700329065323,0.0471469983458519,-0.07402300089597702
1757088581571325700,5.75232568359375,0.07079599797725677,0.02441900037229061,-0.08793000131845474
1757088581580878800,5.76187890625,0.06589999794960022,-0.005932999774813652,-0.09428299963474274
1757088581590431700,5.771431640625,0.051440998911857605,-0.0030070000793784857,-0.10491299629211426
1757088581599985000,5.78098486328125,0.04891499876976013,-0.01142599992454052,-0.08087000250816345
1757088581609537800,5.790537841796875,0.041517000645399094,-0.023677999153733253,-0.08517900109291077
1757088581619090700,5.800090576171875,0.06521499902009964,-0.02349100075662136,-0.08256000280380249
1757088581628644000,5.80964404296875,0.04827500134706497,-0.007472999859601259,-0.09646899998188019
1757088581638197000,5.819197021484375,0.0672760009765625,0.003194000106304884,-0.11902400106191635
1757088581647750100,5.828750244140625,0.09113699942827225,0.02463500015437603,-0.1291860044002533
1757088581657303300,5.83830322265625,0.07908699661493301,0.026624999940395355,-0.15895600616931915
1757088581666856200,5.847856201171875,0.06228199973702431,0.030570000410079956,-0.14164899289608002
1757088581676409300,5.857409423828125,0.04323900118470192,0.054405998438596725,-0.08437500149011612
1757088581685962500,5.86696240234375,0.026583999395370483,0.043056000024080276,-0.029897000640630722
1757088581695515400,5.876515380859375,0.026593999937176704,0.021517999470233917,0.014946999959647655
1757088581705068300,5.886068359375,0.045614998787641525,-0.009542999789118767,0.06202000007033348
1757088581714621400,5.895621337890625,0.06453900039196014,-0.02723100036382675,0.07020200043916702
1757088581724174600,5.905174560546875,0.056988999247550964,-0.05985499918460846,0.07545299828052521
1757088581733727500,5.9147275390625,0.0782260000705719,-0.0524820014834404,0.07107199728488922
1757088581743280600,5.92428076171875,0.08513200283050537,-0.05046600103378296,0.07123199850320816
1757088581752833800,5.933833740234375,0.08740600198507309,-0.024298999458551407,0.05558900162577629
1757088581762386700,5.94338671875,0.07780800014734268,-0.0021639999467879534,0.03691000118851662
1757088581771939800,5.95293994140625,0.07075899839401245,0.027580000460147858,0.053828999400138855
1757088581781493000,5.962492919921875,0.05894799903035164,0.035255998373031616,0.04538499936461449
1757088581791046100,5.972046142578125,0.051959000527858734,0.044833000749349594,0.039659999310970306
1757088581800599000,5.98159912109375,0.06887400150299072,0.042876001447439194,0.03638700023293495
1757088581810152000,5.99115185546875,0.064301997423172,0.056922998279333115,0.02367899939417839
1757088581819705300,6.000705322265625,0.06693299859762192,0.05900400131940842,0.04721200093626976
1757088581829258200,6.01025830078125,0.06477399915456772,0.05655600130558014,0.06203300133347511
1757088581838811400,6.019811279296875,0.057677000761032104,0.027365000918507576,0.059838999062776566
1757088581848364300,6.0293642578125,0.05537699908018112,0.03357899934053421,0.023669999092817307
1757088581857917400,6.03891748046875,0.05791199952363968,0.041475001722574234,-0.0015170000260695815
1757088581867470600,6.048470703125,0.06516599655151367,0.02400599978864193,0.0064489999786019325
1757088581877023500,6.0580234375,0.060485001653432846,0.03223000094294548,-0.0062350002117455006
1757088581886576600,6.06757666015625,0.06789799779653549,0.05806000158190727,0.0017859999788925052
1757088581896129800,6.0771298828125,0.0799650028347969,0.02603599987924099,0.030115999281406403
1757088581905682700,6.0866826171875,0.06311000138521194,-0.006134999915957451,-0.00873900018632412
1757088581915235600,6.096235595703125,0.036556001752614975,-0.0366940014064312,-0.011396000161767006
1757088581924788700,6.105788818359375,0.04595499858260155,-0.0247150007635355,-0.001918999943882227
1757088581934342000,6.115341796875,0.028999000787734985,-0.024441000074148178,0.009619000367820263
1757088581943895000,6.12489501953125,0.00954500027000904,-0.048987001180648804,0.03437599912285805
1757088581953448000,6.134447998046875,0.04022499918937683,-0.07864200323820114,0.06936600059270859
1757088581963001000,6.1440009765625,0.04695599898695946,-0.0841049998998642,0.09097599983215332
1757088581972554200,6.15355419921875,0.056035999208688736,-0.09169299900531769,0.07503200322389603
1757088581982107100,6.163107177734375,0.084136001765728,-0.11900799721479416,0.07581400126218796
1757088581991660300,6.172660400390625,0.07854799926280975,-0.14940500259399414,0.04474399983882904
1757088582001213200,6.182213134765625,0.06584399938583374,-0.13060499727725983,-0.0010229999898001552
1757088582010766300,6.191766357421875,0.06760600209236145,-0.11083299666643143,-0.005688000004738569
1757088582020319500,6.201319580078125,0.05504700168967247,-0.10613799840211868,-0.023274000734090805
1757088582029872600,6.21087255859375,0.06674099713563919,-0.043189000338315964,-0.04433500021696091
1757088582039425500,6.220425537109375,0.0761450007557869,-0.02002899907529354,-0.08458399772644043
1757088582048978400,6.229978515625,0.07583300024271011,-0.04582500085234642,-0.1294800043106079
1757088582058531800,6.23953173828125,0.10457800328731537,0.015526999719440937,-0.11566200107336044
1757088582068084700,6.249084716796875,0.11920899897813797,0.06663600355386734,-0.09583599865436554
1757088582077638000,6.258637939453125,0.11736399680376053,0.12368199974298477,-0.11073199659585953
1757088582087190800,6.268190673828125,0.11320599913597107,0.14581599831581116,-0.133542001247406
1757088582096744000,6.277743896484375,0.08987700194120407,0.143885999917984,-0.14577700197696686
1757088582106296800,6.287296875,0.0808589980006218,0.13535800576210022,-0.13009899854660034
1757088582115850200,6.296850341796875,0.098471999168396,0.1834239959716797,-0.07497899979352951
1757088582125403100,6.306403076171875,0.11116699874401093,0.14717599749565125,-0.03359900042414665
1757088582134956300,6.315956298828125,0.12832599878311157,0.08825399726629257,-0.06236900016665459
1757088582144509200,6.32550927734375,0.11433299630880356,0.09177300333976746,-0.08076799660921097
1757088582154062300,6.335062255859375,0.105103999376297,0.0742650032043457,-0.03564399853348732
1757088582163615500,6.344615478515625,0.16307100653648376,0.09372600167989731,0.052971001714468
1757088582182721500,6.363721435546875,0.1213890016078949,0.13535800576210022,0.0979280024766922
1757088582192274400,6.3732744140625,0.12433300167322159,0.0693959966301918,0.19353200495243073
1757088582201827600,6.38282763671875,0.11501699686050415,0.02582699991762638,0.12985000014305115
1757088582211380500,6.39238037109375,0.03319400176405907,-0.08191599696874619,-0.02795499935746193
1757088582220933600,6.40193359375,-0.02261500060558319,-0.11884400248527527,-0.09400200098752975
1757088582230486800,6.41148681640625,-0.03749699890613556,-0.052657000720500946,-0.04254800081253052
1757088582240039700,6.421039794921875,-0.011200999841094017,0.058090999722480774,-0.006783999968320131
1757088582249592800,6.4305927734375,0.03184200078248978,0.05466900020837784,0.0021869998890906572
1757088582259146000,6.44014599609375,0.05524099990725517,-0.04810800030827522,-0.036281000822782516
1757088582268699100,6.44969921875,0.09773799777030945,-0.06612999737262726,-0.02025499939918518
1757088582278252000,6.459251953125,0.1404539942741394,-0.04297799989581108,0.07126899808645248
1757088582287805200,6.46880517578125,0.16193099319934845,0.017059000208973885,0.08666200190782547
1757088582297358000,6.478358154296875,0.17862999439239502,0.05013899877667427,0.020509999245405197
1757088582306911200,6.4879111328125,0.13346600532531738,0.16291800141334534,0.13715499639511108
1757088582316464000,6.497464111328125,-0.012130999937653542,0.2122489959001541,0.1961279958486557
1757088582326017300,6.507017333984375,-0.0267340000718832,0.09720399975776672,0.05977800115942955
1757088582335570400,6.5165703125,-0.06843400001525879,-0.051777999848127365,-0.01687600091099739
1757088582345123300,6.526123291015625,-0.048576001077890396,-0.2020539939403534,-0.025026999413967133
1757088582354676500,6.535676513671875,0.025950999930500984,-0.2879050076007843,0.006415999960154295
1757088582364229400,6.5452294921875,0.02179200015962124,-0.21328100562095642,-0.012143000029027462
1757088582373782500,6.554782470703125,0.06857100129127502,-0.06776999682188034,-0.030660999938845634
1757088582383335700,6.564335693359375,0.10628700256347656,0.06678300350904465,-0.028379999101161957
1757088582392888600,6.573888671875,0.038217999041080475,0.03812900185585022,-0.042764000594615936
1757088582402441500,6.58344140625,0.02710000053048134,-0.017131000757217407,-0.03521300107240677
1757088582411995000,6.592994873046875,0.03890300169587135,-0.14214900135993958,-0.07270299643278122
1757088582421547800,6.6025478515625,-0.009943000040948391,-0.21898899972438812,-0.010893999598920345
1757088582431101000,6.612100830078125,-0.04804300144314766,-0.03261899948120117,-0.04089599847793579
1757088582440653800,6.62165380859375,0.09633199870586395,0.07025299966335297,0.1880200058221817
1757088582450207000,6.63120703125,-0.0488089993596077,0.1031230017542839,0.1537729948759079
1757088582459759900,6.640759765625,0.013648999854922295,0.04216400161385536,0.09118500351905823
1757088582469313000,6.65031298828125,0.01824299991130829,0.010830000042915344,0.12478700280189514
1757088582478866200,6.6598662109375,0.13722999393939972,-0.04835699871182442,0.26097801327705383
1757088582488419000,6.669419189453125,0.1317639946937561,-0.09155300259590149,0.2202260047197342
1757088582497972200,6.67897216796875,0.17642399668693542,-0.0685420036315918,0.35044699907302856
1757088582507525000,6.688525146484375,0.1364700049161911,-0.10363899916410446,0.38916298747062683
1757088582517078300,6.698078369140625,0.02763500064611435,-0.07861799746751785,0.4281800091266632
1757088582526631400,6.70763134765625,-0.17833900451660156,-0.022167999297380447,0.14572300016880035
1757088582536184300,6.717184326171875,-0.22674499452114105,-0.03779499977827072,-0.3088119924068451
1757088582545737500,6.726737548828125,-0.15638099610805511,0.11268399655818939,-0.33683401346206665
1757088582555290400,6.736290283203125,0.03988200053572655,0.08022899925708771,-0.3314239978790283
1757088582564843500,6.745843505859375,-0.04613099992275238,-0.05982799828052521,-0.39680299162864685
1757088582574396700,6.755396728515625,0.3306390047073364,0.04686100035905838,-0.29579201340675354
1757088582583949800,6.76494970703125,0.307341992855072,0.09283100068569183,-0.049674998968839645
1757088582593502700,6.774502685546875,0.2190849930047989,0.15975700318813324,0.12407100200653076
1757088582603055600,6.7840556640625,0.13808900117874146,0.12788499891757965,-0.03343300148844719
1757088582612608800,6.79360888671875,-0.08195000141859055,-0.006568000186234713,-0.1786320060491562
1757088582622162000,6.803161865234375,-0.15095500648021698,-0.0778070017695427,-0.2697319984436035
1757088582631715000,6.812715087890625,-0.16021500527858734,0.02175999991595745,-0.2606000006198883
1757088582641268000,6.82226806640625,-0.22453199326992035,0.17494599521160126,-0.19787800312042236
1757088582650821000,6.831821044921875,-0.007656999863684177,0.2519429922103882,-0.1960339993238449
1757088582660374000,6.8413740234375,0.10533999651670456,0.09279300272464752,-0.27385398745536804
1757088582669927200,6.85092724609375,0.05354100093245506,-0.0715240016579628,-0.30907899141311646
1757088582679480300,6.860480224609375,0.2500379979610443,-0.24990999698638916,-0.18547099828720093
1757088582689033200,6.870033203125,0.26353898644447327,-0.33228200674057007,-0.17006200551986694
1757088582698586400,6.87958642578125,0.06267999857664108,-0.3823480010032654,0.058173999190330505
1757088582708139500,6.889139404296875,0.18372300267219543,0.0709099993109703,-0.03651399910449982
1757088582717692400,6.8986923828125,-0.03302900120615959,0.45506900548934937,-0.04964999854564667
1757088582727245600,6.90824560546875,-0.0971129983663559,0.5162379741668701,0.04539399966597557
1757088582736798500,6.917798583984375,0.08162400126457214,0.3423199951648712,0.15550200641155243
1757088582746351600,6.9273515625,-0.029520999640226364,-0.016614999622106552,0.21954099833965302
1757088582755904500,6.936904541015625,-0.01526699960231781,-0.24464799463748932,0.2556209862232208
1757088582765457700,6.946457763671875,0.19711700081825256,-0.16301999986171722,0.17441900074481964
1757088582775010800,6.9560107421875,0.11182799935340881,0.014499000273644924,0.2581169903278351
1757088582784563700,6.965563720703125,0.09537500143051147,0.0469839982688427,-0.19450299441814423
1757088582794116900,6.975116943359375,0.08525700122117996,-0.032944001257419586,-0.4486829936504364
1757088582803669800,6.984669677734375,0.06547299772500992,-0.4543200135231018,-0.41053301095962524
1757088582813223200,6.99422314453125,0.10784699767827988,-0.4749610126018524,-0.4073910117149353
1757088582832329200,7.0133291015625,0.08873700350522995,-0.2087080031633377,0.4026600122451782
1757088582841882000,7.022882080078125,-0.08687999844551086,0.023791000247001648,0.5387889742851257
1757088582851435000,7.03243505859375,-0.20247000455856323,0.12457899749279022,0.3210330009460449
1757088582860988200,7.04198828125,-0.27314698696136475,-0.006273999810218811,-0.040745001286268234
1757088582870541300,7.051541259765625,-0.17757199704647064,-0.020483000203967094,-0.4569149911403656
1757088582880094500,7.061094482421875,0.019509999081492424,-0.007550999987870455,-0.627610981464386
1757088582889647400,7.0706474609375,0.15964199602603912,0.2336069941520691,-0.7186859846115112
1757088582899200500,7.080200439453125,0.25575000047683716,0.42267200350761414,-0.38043200969696045
1757088582908753400,7.08975341796875,0.18294300138950348,0.0844620019197464,0.1471399962902069
1757088582918306600,7.099306640625,0.2669079899787903,-0.23716700077056885,0.373214989900589
1757088582927859700,7.108859619140625,0.2423429936170578,-0.11509999632835388,0.2642210125923157
1757088582937412600,7.11841259765625,0.13178600370883942,0.16919000446796417,-0.08940800279378891
1757088582946965500,7.127965576171875,0.03870600089430809,0.4681189954280853,-0.18519200384616852
1757088582956518700,7.1375185546875,0.04311100021004677,0.4541339874267578,-0.23465199768543243
1757088582966071800,7.14707177734375,-0.06897100061178207,0.14234499633312225,-0.18851600587368011
1757088582975625000,7.156625,-0.1917099952697754,0.06641499698162079,0.2881990075111389
1757088582985177900,7.166177734375,-0.2565290033817291,0.13579200208187103,0.7070459723472595
1757088582994731000,7.17573095703125,-0.11219099909067154,0.018871000036597252,0.8252769708633423
1757088583004284000,7.185283935546875,0.014631999656558037,-0.16509099304676056,0.5672990083694458
1757088583013837300,7.19483740234375,0.06693600118160248,-0.2546519935131073,0.33494099974632263
1757088583023390200,7.20439013671875,0.14499500393867493,-0.22978100180625916,-0.03642699867486954
1757088583032943000,7.213943115234375,0.12492500245571136,-0.1890230029821396,-0.04775099828839302
1757088583042496300,7.223496337890625,0.11290799826383591,-0.3027940094470978,-0.2059199959039688
1757088583052049700,7.233049560546875,0.11310099810361862,-0.2582789957523346,-0.20173700153827667
1757088583061602300,7.242602294921875,0.03258499875664711,-0.20006699860095978,-0.23097099363803864
1757088583071155500,7.252155517578125,-0.013260000385344028,-0.24764500558376312,-0.27902400493621826
1757088583080708400,7.261708251953125,0.09690000116825104,-0.25194400548934937,-0.21310900151729584
1757088583090261500,7.271261474609375,0.14329299330711365,0.03710800036787987,-0.06877300143241882
1757088583099814700,7.280814697265625,-0.09617500007152557,-0.00009200000204145908,-0.09833700209856033
1757088583109367800,7.290367919921875,0.23936699330806732,0.6074349880218506,-0.48502999544143677
1757088583118920700,7.299920654296875,0.4989520013332367,1.6090320348739624,-0.4100149869918823
1757088583128473600,7.3094736328125,0.16617199778556824,1.2880810499191284,0.3684700131416321
1757088583138026800,7.31902685546875,-0.3238219916820526,0.17859399318695068,0.3110809922218323
1757088583147580000,7.328579833984375,-0.15482600033283234,-0.6177610158920288,-0.05831899866461754
1757088583157132800,7.3381328125,-0.3295759856700897,-0.9880120158195496,0.4673210084438324
1757088583166685700,7.347685791015625,0.004263999871909618,-1.097754955291748,0.28404200077056885
1757088583176238800,7.35723876953125,-0.1742289960384369,-0.8646640181541443,0.5230399966239929
1757088583185792000,7.3667919921875,-0.4864619970321655,-0.4344809949398041,0.8126029968261719
1757088583195345000,7.376344970703125,-0.18196800351142883,0.05781000107526779,0.7389079928398132
1757088583204898000,7.38589794921875,0.09471499919891357,0.45994099974632263,0.5538840293884277
1757088583214451200,7.395451171875,0.42607301473617554,0.5757290124893188,0.24170100688934326
1757088583224004000,7.405004150390625,0.34560099244117737,0.2828739881515503,0.2503350079059601
1757088583233557200,7.41455712890625,0.148840993642807,0.08496300131082535,0.07027500122785568
1757088583243110100,7.424110107421875,0.06528100371360779,-0.1802770048379898,-0.6088290214538574
1757088583252663000,7.4336630859375,0.20820499956607819,-0.309810996055603,-1.0258430242538452
1757088583262216400,7.443216552734375,0.0635489970445633,-0.25814101099967957,-1.1463559865951538
1757088583271769600,7.45276953125,-0.13305899500846863,-0.3902209997177124,-0.7108510136604309
1757088583281322500,7.462322509765625,-0.1457120031118393,-0.41274601221084595,-0.45169100165367126
1757088583290875400,7.47187548828125,-0.04674199968576431,-0.46320900321006775,-0.08911199867725372
1757088583300428500,7.481428466796875,-0.09264399856328964,-0.3849349915981293,0.04761499911546707
1757088583309981400,7.4909814453125,-0.07402099668979645,-0.10233999788761139,-0.06339800357818604
1757088583319534600,7.50053466796875,-0.04307899996638298,-0.11574500054121017,-0.5483559966087341
1757088583329087700,7.510087646484375,0.0989070013165474,-0.29771900177001953,-0.02138799987733364
1757088583338640600,7.519640625,-0.06475400179624557,-0.5195590257644653,0.4367139935493469
1757088583348193800,7.52919384765625,-0.19463300704956055,-0.4789220094680786,0.36042800545692444
1757088583357746700,7.53874658203125,-0.16184499859809875,-0.40748998522758484,0.01972300000488758
1757088583367299800,7.5482998046875,-0.04734800010919571,-0.3503980040550232,-0.25001800060272217
1757088583376852700,7.557852783203125,-0.010580999776721,-0.3755350112915039,-0.1777539998292923
1757088583386406000,7.567406005859375,0.031127000227570534,-0.46210700273513794,0.12227000296115875
1757088583395959000,7.576958984375,0.054255999624729156,-0.6314529776573181,0.06414800137281418
1757088583405512000,7.586511962890625,-0.022614000365138054,-0.9632650017738342,-0.267987996339798
1757088583415065000,7.596065185546875,-0.15986500680446625,-1.2373909950256348,-0.31501999497413635
1757088583424618200,7.6056181640625,0.07735200226306915,-1.474403977394104,-0.22454999387264252
1757088583434171100,7.615171142578125,0.006711000110954046,-1.559852957725525,-0.7403709888458252
1757088583443724300,7.624724365234375,0.06859900057315826,-1.5074390172958374,0.28835800290107727
1757088583453277400,7.63427734375,0.37073999643325806,-2.435396909713745,2.076667070388794
1757088583462830300,7.643830322265625,0.5441589951515198,-2.731412887573242,2.1102728843688965
1757088583472383200,7.65338330078125,-0.5089390277862549,-1.211300015449524,0.8189200162887573
1757088583481936400,7.662936279296875,-0.8567559719085693,-0.040980998426675797,-0.2421710044145584
1757088583491489500,7.672489501953125,-1.028818964958191,0.40092700719833374,-0.0764160007238388
1757088583501042400,7.68204248046875,-1.2521849870681763,0.5450199842453003,-0.523294985294342
1757088583510595600,7.691595703125,-1.2788859605789185,-0.5166919827461243,-0.6274870038032532
1757088583520148500,7.7011484375,-1.8037159442901611,-1.395035982131958,1.2088229656219482
1757088583529701600,7.71070166015625,-1.7073179483413696,-1.859868049621582,0.5612130165100098
1757088583539254800,7.7202548828125,-1.4331300258636475,-2.200697898864746,-1.9657390117645264
1757088583548807700,7.7298076171875,-1.4791430234909058,-2.5502190589904785,-4.1495208740234375
1757088583558360600,7.739360595703125,-0.37052300572395325,-1.3206080198287964,-4.629724025726318
1757088583567914000,7.7489140625,-0.2838590145111084,2.0107951164245605,-4.119726181030273
1757088583577467000,7.758466796875,-0.019063999876379967,3.2691409587860107,-2.141201972961426
1757088583587020000,7.76802001953125,0.8676109910011292,3.658626079559326,-1.4593709707260132
1757088583596573000,7.777572998046875,0.4195280075073242,0.896012008190155,0.37935200333595276
1757088583606125800,7.787125732421875,-1.2920279502868652,-1.8471909761428833,1.1722160577774048
1757088583615679000,7.796678955078125,0.061163999140262604,-5.73875093460083,-1.034561038017273
1757088583625232100,7.806232177734375,2.461146116256714,-1.6423569917678833,1.8629579544067383
1757088583634785300,7.815785400390625,1.6688849925994873,0.16843299567699432,2.777477979660034
1757088583644338200,7.825338134765625,-0.10299299657344818,4.356657028198242,3.5096359252929688
1757088583653891000,7.83489111328125,-1.5054420232772827,4.677516937255859,0.053700998425483704
1757088583663444200,7.8444443359375,-2.1736059188842773,3.6372640132904053,-3.0953760147094727
1757088583672997400,7.853997314453125,-3.5974020957946777,2.6271018981933594,-7.265213966369629
1757088583682550500,7.863550537109375,-2.7402501106262207,1.5862499475479126,-7.6061320304870605
1757088583692103400,7.873103515625,-0.7841479778289795,-2.368307113647461,-4.3528900146484375
1757088583701656600,7.882656494140625,-5.009167194366455,-5.317024230957031,0.6795079708099365
1757088583711209500,7.89220947265625,2.8540380001068115,-6.378757953643799,6.703910827636719
1757088583720762400,7.901762451171875,8.787420272827148,-8.151019096374512,2.8151841163635254
1757088583730315500,7.9113154296875,8.545955657958984,-2.875894069671631,10.194805145263672
1757088583739868700,7.92086865234375,1.575181007385254,-1.8536189794540405,11.860990524291992
1757088583749421800,7.930421875,-3.6418139934539795,-0.038453999906778336,7.457275867462158
1757088583758974700,7.939974609375,-3.9795420169830322,2.5568599700927734,3.2362871170043945
1757088583768527600,7.949527587890625,-5.265161991119385,1.7276109457015991,6.921868801116943
1757088583778080800,7.959080810546875,-8.369803428649902,-0.872044026851654,-4.222679138183594
1757088583787634000,7.968634033203125,-7.796494007110596,2.5807549953460693,-3.4093821048736572
1757088583797187000,7.97818701171875,-5.652282238006592,1.7832579612731934,-2.2269299030303955
1757088583806740000,7.987739990234375,-3.2870569229125977,1.3474010229110718,-0.32510700821876526
1757088583816293000,7.997293212890625,-1.7661590576171875,0.6495800018310547,2.137626886367798
1757088583825846000,8.006845947265624,-0.2866640090942383,-0.3163439929485321,2.660269021987915
1757088583835399000,8.01639892578125,0.9522389769554138,-1.2642329931259155,1.8431580066680908
1757088583844952000,8.0259521484375,-1.1451549530029297,-2.831516981124878,1.9006479978561401
1757088583854505200,8.035505126953124,-1.5402430295944214,-1.7631160020828247,1.1483700275421143
1757088583864058000,8.04505810546875,0.5638819932937622,-0.914680004119873,1.7029310464859009
1757088583873611300,8.054611328125,-2.892354965209961,-1.327360987663269,4.712961196899414
1757088583883164400,8.064164306640626,-5.077803134918213,-1.202543020248413,7.289780139923096
1757088583892717300,8.07371728515625,-4.31934118270874,-0.2264080047607422,10.06197452545166
1757088583902270500,8.0832705078125,-4.1260528564453125,1.3342020511627197,9.121438980102539
1757088583911823400,8.0928232421875,-4.816213130950928,2.292311906814575,7.304304122924805
1757088583921376300,8.102376220703125,-5.9006218910217285,2.522386074066162,6.007326126098633
1757088583930929400,8.111929443359376,-6.813868999481201,2.5927209854125977,5.257081985473633
1757088583940482600,8.121482666015625,-6.690911769866943,2.504439115524292,4.893301010131836
1757088583950035700,8.13103564453125,-5.389740943908691,1.6760740280151367,3.9905550479888916
1757088583959588600,8.140588623046876,-3.7157440185546875,1.2079219818115234,2.512708902359009
1757088583969141800,8.150141845703125,-2.655397891998291,1.8663359880447388,1.7766779661178589
1757088583978694700,8.159694580078124,-0.5420740246772766,1.3957279920578003,0.1468220055103302
1757088583988247800,8.169247802734375,2.073683977127075,1.4827560186386108,-0.4482420086860657
1757088583997801000,8.178801025390625,2.7427659034729004,1.6859389543533325,-0.1487089991569519
1757088584007353900,8.188353759765626,3.2364161014556885,2.5850720405578613,0.37238800525665283
1757088584016907000,8.197906982421875,3.236392021179199,3.122420072555542,0.9125540256500244
1757088584026460000,8.2074599609375,3.0805530548095703,3.007021903991699,1.2301609516143799
1757088584036013000,8.217012939453125,2.940398931503296,2.6455180644989014,1.5418440103530884
1757088584045566200,8.226566162109375,2.4567410945892334,2.11783504486084,1.5107049942016602
1757088584055119000,8.236119140625,1.3169430494308472,0.7311149835586548,0.4184519946575165
1757088584064672000,8.245672119140625,0.07998800277709961,-0.9121630191802979,-0.12057500332593918
1757088584074225200,8.25522509765625,-0.5104020237922668,-2.35384202003479,-2.2699949741363525
1757088584083778300,8.2647783203125,-1.34312903881073,-2.254338026046753,-4.226156234741211
1757088584093331500,8.27433154296875,-1.794389009475708,-2.353856086730957,-5.375636100769043
1757088584102884400,8.28388427734375,-1.9405490159988403,-2.8068089485168457,-6.266503810882568
1757088584112437200,8.293437255859375,-2.158869981765747,-2.958801031112671,-6.821750164031982
1757088584121990400,8.302990478515625,-2.4980990886688232,-2.721237897872925,-7.306949138641357
1757088584131543300,8.312543212890626,-2.7746829986572266,-2.0065410137176514,-7.633041858673096
1757088584141096400,8.322096435546875,-3.0223169326782227,-1.032755970954895,-7.542435169219971
1757088584150649600,8.331649658203125,-3.3123209476470947,-0.4766870141029358,-6.978344917297363
1757088584160202500,8.341202392578126,-3.5406599044799805,-0.3623709976673126,-6.495512008666992
1757088584169755600,8.350755615234375,-3.224061965942383,0.5643320083618164,-6.201988220214844
1757088584179308500,8.36030859375,-2.836566925048828,-1.0440340042114258,-5.1557512283325195
1757088584188861400,8.369861328125,-2.779141902923584,-1.1153639554977417,-4.6941142082214355
1757088584198414600,8.37941455078125,-3.0405759811401367,-1.3982510566711426,-4.318724155426025
1757088584207968000,8.388968017578126,-3.272157907485962,-2.0790529251098633,-3.9733951091766357
1757088584217521000,8.39852099609375,-3.6799139976501465,-2.7047688961029053,-3.6342520713806152
1757088584227073800,8.40807373046875,-4.45095682144165,-3.033907890319824,-3.1615819931030273
1757088584236626700,8.417626708984375,-6.5014519691467285,-2.0806970596313477,-2.7191290855407715
1757088584246179800,8.427179931640625,-9.196114540100098,0.10993699729442596,-3.585705041885376
1757088584255733000,8.43673291015625,-7.53382682800293,1.6149580478668213,-4.853457927703857
1757088584265286100,8.4462861328125,5.257978916168213,2.094717025756836,4.858648777008057
1757088584274839000,8.455839111328125,12.660388946533203,3.444150924682617,21.27045440673828
1757088584284392000,8.465391845703126,4.586905002593994,2.1544010639190674,15.750844955444336
1757088584293945000,8.474945068359375,9.012980461120605,0.20588700473308563,8.724056243896484
1757088584303498000,8.484498046875,6.156002998352051,-1.8104259967803955,0.6558150053024292
1757088584313051100,8.494051025390625,2.1497159004211426,-3.6061289310455322,-2.399595022201538
1757088584322604300,8.503604248046875,0.5301809906959534,-4.129191875457764,-3.4277989864349365
1757088584332157200,8.5131572265625,-0.450762003660202,-3.9501678943634033,-3.6144518852233887
1757088584341710300,8.52271044921875,-0.452457994222641,-2.6873679161071777,-2.4359378814697266
1757088584351263500,8.532263427734375,-0.3973099887371063,-1.149554967880249,-0.6718609929084778
1757088584360816400,8.54181640625,0.05088299885392189,0.20875999331474304,1.060634970664978
1757088584370369500,8.55136962890625,0.5600919723510742,1.0287259817123413,2.087049961090088
1757088584379922400,8.56092236328125,0.9539570212364197,1.517861008644104,2.867769956588745
1757088584389475300,8.570475341796875,1.1237399578094482,1.7589010000228882,3.3224780559539795
1757088584399028500,8.580028564453125,1.0740859508514404,1.537580966949463,2.681133985519409
1757088584408581600,8.58958154296875,0.9581859707832336,1.0889019966125488,1.2929309606552124
1757088584418134800,8.599134765625,0.6939169764518738,0.7374449968338013,0.4707280099391937
1757088584427687700,8.608687744140624,0.20847700536251068,0.5935140252113342,0.4796240031719208
1757088584437240800,8.61824072265625,-0.29528799653053284,0.5486729741096497,0.8989080190658569
1757088584446793700,8.627793701171875,-0.7177820205688477,0.4978620111942291,1.281728982925415
1757088584456347000,8.637346923828124,-0.9788510203361511,0.40091899037361145,1.3706090450286865
1757088584465899800,8.646899658203125,-1.01780104637146,0.28804799914360046,1.2165470123291016
1757088584475453000,8.656452880859375,-0.7613639831542969,0.22818100452423096,0.9324169754981995
1757088584485005800,8.666005859375,-0.3424539864063263,0.2966110110282898,0.7157269716262817
1757088584494559000,8.67555908203125,0.010633000172674656,0.4061200022697449,0.597536027431488
1757088584504112000,8.685112060546874,0.18845300376415253,0.4257580041885376,0.5054389834403992
1757088584513665300,8.694665283203125,0.11110299825668335,0.43679800629615784,0.47557100653648376
1757088584523218200,8.70421826171875,-0.09709800034761429,0.4225189983844757,0.5648930072784424
1757088584532771000,8.71377099609375,-0.30906999111175537,0.40532800555229187,0.6491259932518005
1757088584542324200,8.72332421875,-0.18194399774074554,0.2748669981956482,0.879086971282959
1757088584551877400,8.73287744140625,0.26457899808883667,0.25826698541641235,0.8156970143318176
1757088584561430300,8.74243017578125,-0.39895099401474,0.5990960001945496,0.5771160125732422
1757088584570983400,8.7519833984375,-0.3689019978046417,0.595009982585907,0.17076900601387024
1757088584580536600,8.76153662109375,-0.6037859916687012,0.35385799407958984,-0.075033999979496
1757088584590089500,8.77108935546875,-0.7588499784469604,0.0947830006480217,-0.035349998623132706
1757088584599642600,8.780642578125,-0.5011129975318909,-0.05355300009250641,0.10373900085687637
1757088584609195500,8.790195556640626,-0.29444101452827454,-0.053507000207901,0.11534799635410309
