time,seconds_elapsed,z,y,x
1757088575906344700,0.0873447265625,4.941000461578369,-3.8989500999450684,5.395050048828125
1757088575915897900,0.09689794921875,4.351950168609619,-4.600050449371338,5.605050086975098
1757088575925450800,0.10645068359375,4.207950115203857,-5.055000305175781,5.529000282287598
1757088575935004000,0.11600390625,4.354050159454346,-5.220000267028809,5.670000076293945
1757088575944557000,0.12555712890625,4.740000247955322,-5.3110504150390625,6.160950183868408
1757088575954110200,0.135110107421875,5.2069501876831055,-5.308950424194336,6.810000419616699
1757088575963663400,0.144663330078125,4.8070502281188965,-5.842950344085693,7.758000373840332
1757088575973216300,0.15421630859375,4.242000102996826,-6.283050060272217,8.536050796508789
1757088575982769400,0.163769287109375,3.9430501461029053,-6.369000434875488,8.513999938964844
1757088575992322800,0.17332275390625,3.487950086593628,-6.721050262451172,8.248950004577637
1757088576001875700,0.182875732421875,2.8410000801086426,-6.757050514221191,8.281949996948242
1757088576011428900,0.192428955078125,2.4750001430511475,-6.429000377655029,9.019050598144531
1757088576020981800,0.201981689453125,1.8379501104354858,-6.075000286102295,9.634950637817383
1757088576030535200,0.21153515625,1.3140000104904175,-6.022050380706787,10.159050941467285
1757088576040088000,0.221088134765625,0.43695002794265747,-5.839950084686279,10.554000854492188
1757088576049641200,0.23064111328125,-0.1270500123500824,-5.701050281524658,10.570950508117676
1757088576059194400,0.2401943359375,-0.8830500245094299,-5.7210001945495605,10.813050270080566
1757088576068747300,0.249747314453125,-0.9910500645637512,-5.395050048828125,10.944000244140625
1757088576078300400,0.259300537109375,-1.3519500494003296,-5.172000408172607,11.277000427246094
1757088576087853800,0.268853759765625,-1.810050129890442,-4.99500036239624,11.392050743103027
1757088576097407000,0.278406982421875,-2.5350000858306885,-4.966050148010254,10.987950325012207
1757088576106960000,0.2879599609375,-3.181950092315674,-4.41795015335083,10.255050659179688
1757088576116513000,0.297512939453125,-4.0320000648498535,-4.096950054168701,9.991950035095215
1757088576126066000,0.30706591796875,-4.909950256347656,-4.096950054168701,9.988950729370117
1757088576135619300,0.316619384765625,-5.119050025939941,-3.8749501705169678,10.269000053405762
1757088576145172200,0.326172119140625,-5.308050155639648,-3.772050142288208,11.320050239562988
1757088576154725400,0.335725341796875,-5.8060503005981445,-3.223050117492676,12.04800033569336
1757088576164278500,0.345278564453125,-5.904000282287598,-2.806950092315674,12.169950485229492
1757088576173831400,0.35483154296875,-5.550000190734863,-2.682000160217285,11.81100082397461
1757088576183384800,0.364384765625,-4.61400032043457,-2.3329501152038574,11.277000427246094
1757088576192938000,0.37393798828125,-4.060050010681152,-2.31600022315979,10.609050750732422
1757088576202491100,0.3834912109375,-3.9310503005981445,-2.4430501461029053,9.709050178527832
1757088576212044000,0.3930439453125,-3.7950000762939453,-2.565000057220459,9.072000503540039
1757088576221597200,0.40259716796875,-4.111050128936768,-2.3710501194000244,8.976000785827637
1757088576231150300,0.412150390625,-5.131050109863281,-2.1030001640319824,9.478950500488281
1757088576240703500,0.421703369140625,-6.4930500984191895,-2.395050048828125,9.964950561523438
1757088576250256400,0.43125634765625,-6.651000499725342,-2.814000129699707,9.57705020904541
1757088576259809500,0.4408095703125,-8.368050575256348,-3.7140002250671387,8.373000144958496
1757088576269362700,0.45036279296875,-16.954050064086914,-5.596050262451172,6.358950138092041
1757088576278915800,0.459915771484375,-14.389050483703613,-5.071950435638428,5.500050067901611
1757088576288469000,0.469468994140625,-3.9910502433776855,-4.633950233459473,6.9559502601623535
1757088576298022100,0.479022216796875,2.647050142288208,-5.692050457000732,8.73705005645752
1757088576307575300,0.4885751953125,3.5329501628875732,-7.096950531005859,8.620050430297852
1757088576317128400,0.49812841796875,-0.5670000314712524,-7.825050354003906,5.895000457763672
1757088576326681300,0.507681396484375,-4.135050296783447,-7.951950550079346,3.3190500736236572
1757088576336234500,0.517234375,-3.510000228881836,-7.030050277709961,2.614950180053711
1757088576345787600,0.52678759765625,0.38700002431869507,-6.613950252532959,3.9529502391815186
1757088576355340800,0.5363408203125,3.0829501152038574,-7.558950424194336,5.5410003662109375
1757088576364894000,0.54589404296875,-0.45705002546310425,-6.906000137329102,6.055050373077393
1757088576374447000,0.555447021484375,-3.5620501041412354,-6.207000255584717,5.509050369262695
1757088576384000000,0.565,-2.8560001850128174,-6.889050483703613,5.992950439453125
1757088576393553200,0.57455322265625,-0.8040000200271606,-6.678000450134277,5.55495023727417
1757088576403106300,0.584106201171875,-0.22005000710487366,-7.564050197601318,6.1080002784729
1757088576412659500,0.593659423828125,-0.9019500613212585,-8.380949974060059,6.988950252532959
1757088576422212400,0.60321240234375,-2.1040501594543457,-8.445000648498535,6.075000286102295
1757088576431765800,0.612765869140625,-1.432050108909607,-7.081050395965576,5.614950180053711
1757088576441319000,0.62231884765625,-0.06195000186562538,-6.697050094604492,6.388050079345703
1757088576450871800,0.631871826171875,0.10905000567436218,-6.585000514984131,6.048000335693359
1757088576460425000,0.641425048828125,-0.09795000404119492,-5.2819504737854,4.0320000648498535
1757088576469978000,0.65097802734375,-0.5100000500679016,-5.005050182342529,3.1870501041412354
1757088576479531300,0.66053125,-2.1310501098632812,-5.7709503173828125,1.9350000619888306
1757088576489084400,0.67008447265625,-3.7729501724243164,-7.365000247955322,1.0369499921798706
1757088576498637600,0.679637451171875,-4.4239501953125,-8.974050521850586,0.6349500417709351
1757088576508190500,0.6891904296875,-3.607950210571289,-10.531050682067871,1.051050066947937
1757088576517743600,0.69874365234375,-1.582050085067749,-9.520050048828125,3.5220000743865967
1757088576527297000,0.708297119140625,-1.0339500904083252,-6.913050174713135,4.819950103759766
1757088576536850000,0.717849853515625,-1.0410000085830688,-6.079950332641602,3.8050501346588135
1757088576546403000,0.727403076171875,-1.194000005722046,-4.98105001449585,2.0429999828338623
1757088576555956200,0.736956298828125,-0.7470000386238098,-4.792050361633301,1.894050121307373
1757088576565509400,0.74650927734375,-0.7870500087738037,-5.026050090789795,2.0880000591278076
1757088576575062300,0.756062255859375,-0.37095001339912415,-5.148000240325928,1.3890000581741333
1757088576584615400,0.765615478515625,0.934950053691864,-5.697000503540039,0.7740000486373901
1757088576594168600,0.77516845703125,1.5940500497817993,-6.0010504722595215,0.1099500060081482
1757088576603721700,0.7847216796875,1.3090500831604004,-5.706000328063965,-0.7189500331878662
1757088576613275000,0.79427490234375,1.3399500846862793,-5.506950378417969,-1.308000087738037
1757088576622827800,0.803827880859375,1.2400500774383545,-5.8470001220703125,-1.15500009059906
1757088576632381000,0.813380859375,0.17400000989437103,-7.308000564575195,0.51705002784729
1757088576641933800,0.822933837890625,-0.37605002522468567,-8.527050018310547,-0.08700000494718552
1757088576651487200,0.8324873046875,-3.5620501041412354,-11.614950180053711,1.852950096130371
1757088576661040400,0.842040283203125,-2.8969502449035645,-21.589950561523438,6.148950099945068
1757088576670593300,0.85159326171875,-1.4629501104354858,-34.46895217895508,1.9900500774383545
1757088576680146400,0.861146484375,-0.0070500001311302185,-41.40300369262695,-1.7869501113891602
1757088576689699600,0.870699462890625,2.089050054550171,-37.858951568603516,0.39000001549720764
1757088576699252700,0.880252685546875,1.7590501308441162,-31.500001907348633,3.0460500717163086
1757088576708806000,0.889805908203125,0.43695002794265747,-23.053050994873047,4.654950141906738
1757088576718359000,0.899359130859375,-2.2890000343322754,-15.44895076751709,4.177950382232666
1757088576727912000,0.908911865234375,-5.9569501876831055,-10.330050468444824,3.223050117492676
1757088576737465300,0.91846533203125,-5.7870001792907715,-7.588050365447998,1.6789500713348389
1757088576747018200,0.928018310546875,-3.0739500522613525,-6.235050201416016,-0.15900000929832458
1757088576756571400,0.9375712890625,-0.42600002884864807,-5.337000370025635,-1.5529500246047974
1757088576766124300,0.947124267578125,0.922950029373169,-4.714950084686279,-2.1559500694274902
1757088576775677400,0.956677490234375,0.5670000314712524,-4.483050346374512,-1.9309500455856323
1757088576785230800,0.96623095703125,-0.025950001552700996,-4.933050155639648,-1.612950086593628
1757088576794783700,0.97578369140625,-0.5260500311851501,-6.8550004959106445,-1.633950114250183
1757088576804337000,0.9853369140625,-0.8400000333786011,-8.95305061340332,-1.8739501237869263
1757088576813890000,0.99489013671875,-0.9649500250816345,-10.734000205993652,-1.7610000371932983
1757088576823443200,1.004443115234375,-0.9769500494003296,-12.061050415039062,-1.5049500465393066
1757088576832996400,1.013996337890625,-0.8740500211715698,-12.682950973510742,-1.0140000581741333
1757088576842549200,1.02354931640625,-0.46905001997947693,-12.121050834655762,-0.34095001220703125
1757088576852102400,1.033102294921875,0.2460000067949295,-10.830000877380371,-0.3720000088214874
1757088576861655600,1.042655517578125,0.547950029373169,-9.99000072479248,-0.4849500358104706
1757088576871208700,1.052208740234375,0.4420500099658966,-9.504000663757324,-0.29805001616477966
1757088576880761900,1.061761962890625,0.1380000114440918,-9.322050094604492,-0.0010500000789761543
1757088576890314800,1.071314697265625,-0.32295000553131104,-9.492000579833984,0.16305001080036163
1757088576899868000,1.080867919921875,-0.8020500540733337,-9.850950241088867,0.13695000112056732
1757088576909421000,1.090421142578125,-1.1869500875473022,-10.138050079345703,0.0070500001311302185
1757088576918974200,1.09997412109375,-1.3980001211166382,-10.28895092010498,-0.10695000737905502
1757088576928527400,1.10952734375,-1.3860000371932983,-10.267050743103027,-0.24300001561641693
1757088576938080500,1.11908056640625,-1.3260000944137573,-10.138050079345703,-0.35295000672340393
1757088576947633700,1.128633544921875,-1.1970000267028809,-10.021050453186035,-0.43905001878738403
1757088576957186600,1.1381865234375,-1.0200001001358032,-9.975000381469727,-0.4990500211715698
1757088576966739700,1.14773974609375,-0.7990500330924988,-9.961050033569336,-0.5329500436782837
1757088576976292900,1.15729296875,-0.5790000557899475,-9.939000129699707,-0.5760000348091125
1757088576985846000,1.166845947265625,-0.41895002126693726,-9.97800064086914,-0.5590500235557556
1757088576995399200,1.176399169921875,-0.33705002069473267,-10.015950202941895,-0.46605002880096436
1757088577004952000,1.1859521484375,-0.364050030708313,-10.06095027923584,-0.3049500286579132
1757088577014505500,1.19550537109375,-0.4350000321865082,-10.06095027923584,-0.1980000138282776
1757088577024058400,1.205058349609375,-0.534000039100647,-10.06095027923584,-0.15405000746250153
1757088577033611500,1.214611572265625,-0.6580500602722168,-10.057050704956055,-0.16395001113414764
1757088577043164700,1.22416455078125,-0.7560000419616699,-10.039950370788574,-0.208950012922287
1757088577052717600,1.233717529296875,-0.814050018787384,-10.063950538635254,-0.31005001068115234
1757088577062270700,1.243270751953125,-0.7680000066757202,-10.087950706481934,-0.3679500222206116
1757088577071824000,1.252823974609375,-0.6220500469207764,-10.09695053100586,-0.4420500099658966
1757088577081376800,1.262376708984375,-0.49995002150535583,-10.087950706481934,-0.5059500336647034
1757088577090930200,1.27193017578125,-0.43800002336502075,-10.059000015258789,-0.5779500007629395
1757088577100483000,1.281483154296875,-0.38805001974105835,-10.035000801086426,-0.6379500031471252
1757088577110036200,1.2910361328125,-0.40905001759529114,-10.006050109863281,-0.7219500541687012
1757088577119589600,1.300589599609375,-0.43800002336502075,-9.99000072479248,-0.76500004529953
1757088577129142500,1.310142578125,-0.43095001578330994,-10.033050537109375,-0.7579500079154968
1757088577138695700,1.31969580078125,-0.37995001673698425,-10.063950538635254,-0.6760500073432922
1757088577148248600,1.32924853515625,-0.34005001187324524,-10.093050003051758,-0.5809500217437744
1757088577157801700,1.3388017578125,-0.3040500283241272,-10.11405086517334,-0.5260500311851501
1757088577167355100,1.348355224609375,-0.3040500283241272,-10.179000854492188,-0.5110500454902649
1757088577176908000,1.357907958984375,-0.30900001525878906,-10.188000679016113,-0.48705002665519714
1757088577186461200,1.367461181640625,-0.3060000240802765,-10.152000427246094,-0.4990500211715698
1757088577196014000,1.37701416015625,-0.3450000286102295,-10.105050086975098,-0.5490000247955322
1757088577205567200,1.386567138671875,-0.39000001549720764,-10.059000015258789,-0.5590500235557556
1757088577215120400,1.396120361328125,-0.42795002460479736,-10.027950286865234,-0.612000048160553
1757088577224673500,1.405673583984375,-0.4120500087738037,-10.0420503616333,-0.6070500016212463
1757088577234226400,1.415226318359375,-0.37095001339912415,-10.07295036315918,-0.5899500250816345
1757088577243779600,1.424779541015625,-0.3559500277042389,-10.083000183105469,-0.5350500345230103
1757088577253333000,1.4343330078125,-0.34200000762939453,-10.07295036315918,-0.5140500068664551
1757088577262886000,1.443885986328125,-0.2770500183105469,-10.06095027923584,-0.4819500148296356
1757088577272439000,1.45343896484375,-0.21300001442432404,-10.0420503616333,-0.43905001878738403
1757088577281992000,1.462991943359375,-0.1770000010728836,-10.035000801086426,-0.42000001668930054
1757088577291545300,1.47254541015625,-0.1980000138282776,-10.045050621032715,-0.41805002093315125
1757088577301098500,1.482098388671875,-0.23400001227855682,-10.063950538635254,-0.41805002093315125
1757088577310651400,1.4916513671875,-0.2939999997615814,-10.081050872802734,-0.3820500075817108
1757088577320204500,1.50120458984375,-0.30900001525878906,-10.095000267028809,-0.3679500222206116
1757088577329757700,1.5107578125,-0.28005000948905945,-10.08495044708252,-0.36000001430511475
1757088577339310800,1.520310791015625,-0.21495001018047333,-10.071000099182129,-0.31200000643730164
1757088577348864000,1.529864013671875,-0.18405000865459442,-10.06095027923584,-0.322050005197525
1757088577358417000,1.5394169921875,-0.1960500031709671,-10.035000801086426,-0.33195000886917114
1757088577367970300,1.54897021484375,-0.22500000894069672,-10.027950286865234,-0.37905001640319824
1757088577377523200,1.558523193359375,-0.2770500183105469,-10.045050621032715,-0.4249500334262848
1757088577387076400,1.568076416015625,-0.30105000734329224,-10.083000183105469,-0.45900002121925354
1757088577396629200,1.577629150390625,-0.33000001311302185,-10.075950622558594,-0.47805002331733704
1757088577406182400,1.587182373046875,-0.3450000286102295,-10.0489501953125,-0.4729500114917755
1757088577415735600,1.596735595703125,-0.3730500042438507,-10.015950202941895,-0.47505003213882446
1757088577425288700,1.606288818359375,-0.37095001339912415,-9.994050025939941,-0.45600003004074097
1757088577434841900,1.615841796875,-0.3540000021457672,-9.994050025939941,-0.4420500099658966
1757088577444394800,1.625394775390625,-0.3559500277042389,-10.003950119018555,-0.3960000276565552
1757088577453948000,1.634947998046875,-0.39000001549720764,-10.018050193786621,-0.3460500240325928
1757088577463501000,1.6445009765625,-0.3540000021457672,-10.05405044555664,-0.2959500253200531
1757088577473054200,1.65405419921875,-0.28905001282691956,-10.09005069732666,-0.2740500271320343
1757088577482607400,1.663607421875,-0.24900001287460327,-10.069050788879395,-0.24795001745224
1757088577492160300,1.67316015625,-0.2850000262260437,-10.057050704956055,-0.26205000281333923
1757088577501713400,1.68271337890625,-0.364050030708313,-10.039950370788574,-0.28905001282691956
1757088577511266600,1.6922666015625,-0.45705002546310425,-10.045050621032715,-0.3079500198364258
1757088577520819700,1.70181982421875,-0.5190000534057617,-10.03695011138916,-0.34095001220703125
1757088577530372600,1.71137255859375,-0.5650500059127808,-10.0489501953125,-0.3679500222206116
1757088577539925800,1.72092578125,-0.5550000071525574,-10.059000015258789,-0.3910500109195709
1757088577549479200,1.730479248046875,-0.51705002784729,-10.0489501953125,-0.3960000276565552
1757088577559032000,1.740031982421875,-0.49500003457069397,-10.051950454711914,-0.3960000276565552
1757088577568585200,1.749585205078125,-0.5190000534057617,-10.05405044555664,-0.40095001459121704
1757088577578138000,1.75913818359375,-0.5820000171661377,-10.045050621032715,-0.3960000276565552
1757088577587691300,1.768691162109375,-0.6220500469207764,-10.0420503616333,-0.4249500334262848
1757088577597244700,1.77824462890625,-0.6010500192642212,-10.026000022888184,-0.43695002794265747
1757088577606797600,1.787797607421875,-0.5430000424385071,-10.018050193786621,-0.45600003004074097
1757088577616350700,1.797350830078125,-0.5290500521659851,-10.009050369262695,-0.43905001878738403
1757088577625903900,1.80690380859375,-0.5580000281333923,-10.006050109863281,-0.40605002641677856
1757088577635457000,1.81645703125,-0.5359500050544739,-10.015950202941895,-0.3940500319004059
1757088577645010000,1.826010009765625,-0.505050003528595,-10.030050277709961,-0.3820500075817108
1757088577654563000,1.83556298828125,-0.4830000102519989,-10.039950370788574,-0.322050005197525
1757088577664116200,1.8451162109375,-0.4909500181674957,-10.0420503616333,-0.3049500286579132
1757088577673669000,1.854669189453125,-0.4909500181674957,-10.0420503616333,-0.31005001068115234
1757088577683222500,1.864222412109375,-0.5029500126838684,-10.03695011138916,-0.33195000886917114
1757088577692775400,1.873775390625,-0.4830000102519989,-10.035000801086426,-0.3720000088214874
1757088577702328600,1.88332861328125,-0.4620000123977661,-10.003950119018555,-0.3840000033378601
1757088577711881500,1.892881591796875,-0.42795002460479736,-9.987000465393066,-0.42000001668930054
1757088577721434600,1.9024345703125,-0.3679500222206116,-9.951000213623047,-0.4510500133037567
1757088577730987800,1.91198779296875,-0.32805001735687256,-9.934950828552246,-0.5040000081062317
1757088577740541000,1.921541015625,-0.2939999997615814,-9.970050811767578,-0.5329500436782837
1757088577750093800,1.93109375,-0.32505002617836,-10.027950286865234,-0.5760000348091125
1757088577759647200,1.940647216796875,-0.39705002307891846,-10.11405086517334,-0.612000048160553
1757088577769200400,1.950200439453125,-0.4759500324726105,-10.176000595092773,-0.6600000262260437
1757088577778753300,1.959753173828125,-0.5190000534057617,-10.198050498962402,-0.6450000405311584
1757088577788306400,1.969306396484375,-0.4710000157356262,-10.188000679016113,-0.6930000185966492
1757088577797859600,1.978859619140625,-0.31800001859664917,-10.10205078125,-0.7410000562667847
1757088577807412700,1.988412841796875,-0.2179500162601471,-9.987000465393066,-0.8029500246047974
1757088577816966000,1.9979658203125,-0.13905000686645508,-9.942000389099121,-0.8490000367164612
1757088577826518800,2.007518798828125,-0.14805001020431519,-9.918000221252441,-0.8340000510215759
1757088577836072000,2.017072021484375,-0.20295001566410065,-9.934950828552246,-0.7770000100135803
1757088577845625000,2.026625,-0.2440500110387802,-9.979950904846191,-0.7120500206947327
1757088577855178200,2.03617822265625,-0.286950021982193,-10.0420503616333,-0.6169500350952148
1757088577864731100,2.045731201171875,-0.29205000400543213,-10.093050003051758,-0.5110500454902649
1757088577874284300,2.0552841796875,-0.32100000977516174,-10.131000518798828,-0.4630500078201294
1757088577883837200,2.064837158203125,-0.34905001521110535,-10.128000259399414,-0.4300500154495239
1757088577893390600,2.074390625,-0.4140000343322754,-10.10205078125,-0.46800002455711365
1757088577902943700,2.08394384765625,-0.46905001997947693,-10.071000099182129,-0.48000001907348633
1757088577912496600,2.09349658203125,-0.49800002574920654,-10.033050537109375,-0.5179499983787537
1757088577922049800,2.1030498046875,-0.4909500181674957,-10.011000633239746,-0.544950008392334
1757088577931603000,2.11260302734375,-0.45900002121925354,-10.01400089263916,-0.5520000457763672
1757088577941156000,2.122156005859375,-0.4140000343322754,-10.021050453186035,-0.5640000104904175
1757088577950709000,2.131708984375,-0.37095001339912415,-10.033050537109375,-0.5539500117301941
1757088577960262100,2.14126220703125,-0.39195001125335693,-10.045050621032715,-0.5329500436782837
1757088577969815300,2.150815185546875,-0.4210500121116638,-10.03695011138916,-0.5299500226974487
1757088577979368200,2.1603681640625,-0.43995001912117004,-10.033050537109375,-0.5020500421524048
1757088577988921600,2.169921630859375,-0.4429500102996826,-10.011000633239746,-0.4900500178337097
1757088577998474500,2.179474609375,-0.43995001912117004,-10.003950119018555,-0.4729500114917755
1757088578008027600,2.189027587890625,-0.3850500285625458,-9.973050117492676,-0.4849500358104706
1757088578017580500,2.19858056640625,-0.3450000286102295,-9.987000465393066,-0.5160000324249268
1757088578027133700,2.2081337890625,-0.3349500298500061,-10.026000022888184,-0.5590500235557556
1757088578036686800,2.217686767578125,-0.32505002617836,-10.095000267028809,-0.6169500350952148
1757088578046240000,2.227239990234375,-0.32100000977516174,-10.147950172424316,-0.6619500517845154
1757088578055793200,2.236793212890625,-0.31800001859664917,-10.167000770568848,-0.6880500316619873
1757088578065346300,2.24634619140625,-0.32295000553131104,-10.11405086517334,-0.6859500408172607
1757088578074899500,2.2558994140625,-0.3160500228404999,-10.033050537109375,-0.6739500164985657
1757088578084452400,2.265452392578125,-0.2580000162124634,-9.973050117492676,-0.6570000052452087
1757088578094005500,2.275005615234375,-0.20295001566410065,-9.943950653076172,-0.6280500292778015
1757088578103558400,2.284558349609375,-0.20805001258850098,-9.939000129699707,-0.5760000348091125
1757088578113111800,2.29411181640625,-0.22200001776218414,-10.009050369262695,-0.6169500350952148
1757088578122664700,2.303664794921875,-0.24900001287460327,-10.030050277709961,-0.5929500460624695
1757088578132217900,2.3132177734375,-0.2970000207424164,-10.05405044555664,-0.556950032711029
1757088578141770800,2.322770751953125,-0.364050030708313,-10.081050872802734,-0.5160000324249268
1757088578151324200,2.33232421875,-0.44700002670288086,-10.095000267028809,-0.4849500358104706
1757088578160877300,2.341877197265625,-0.49995002150535583,-10.087950706481934,-0.4819500148296356
1757088578170430200,2.35143017578125,-0.5430000424385071,-10.069050788879395,-0.46605002880096436
1757088578179983400,2.3609833984375,-0.534000039100647,-10.071000099182129,-0.44895002245903015
1757088578189536500,2.37053662109375,-0.5290500521659851,-10.063950538635254,-0.46800002455711365
1757088578199089700,2.380089599609375,-0.5140500068664551,-10.027950286865234,-0.4729500114917755
1757088578208642600,2.389642578125,-0.47895002365112305,-10.030050277709961,-0.5089499950408936
1757088578218195700,2.39919580078125,-0.4639500081539154,-10.039950370788574,-0.5179499983787537
1757088578227748600,2.40874853515625,-0.48600003123283386,-10.0420503616333,-0.5020500421524048
1757088578237302300,2.41830224609375,-0.4909500181674957,-10.035000801086426,-0.48000001907348633
1757088578246855200,2.427855224609375,-0.45705002546310425,-10.059000015258789,-0.47805002331733704
1757088578256408000,2.437407958984375,-0.42600002884864807,-10.06095027923584,-0.4540500342845917
1757088578265961200,2.446961181640625,-0.39195001125335693,-10.069050788879395,-0.44700002670288086
1757088578275514000,2.45651416015625,-0.3829500079154968,-10.071000099182129,-0.43695002794265747
1757088578285067300,2.4660673828125,-0.364050030708313,-10.07805061340332,-0.4510500133037567
1757088578294620700,2.47562060546875,-0.37095001339912415,-10.081050872802734,-0.5160000324249268
1757088578304173600,2.485173583984375,-0.3850500285625458,-10.0420503616333,-0.597000002861023
1757088578313726700,2.494726806640625,-0.4120500087738037,-10.026000022888184,-0.6570000052452087
1757088578323280000,2.50427978515625,-0.4120500087738037,-10.030050277709961,-0.7000500559806824
1757088578332833000,2.5138330078125,-0.39195001125335693,-10.01400089263916,-0.7030500173568726
1757088578342386000,2.523385986328125,-0.40005001425743103,-10.015950202941895,-0.6330000162124634
1757088578351939000,2.53293896484375,-0.39195001125335693,-10.018050193786621,-0.5689499974250793
1757088578361492000,2.542491943359375,-0.39195001125335693,-10.01400089263916,-0.527999997138977
1757088578371045000,2.552045166015625,-0.4240500330924988,-10.027950286865234,-0.5020500421524048
1757088578380598300,2.561598388671875,-0.45705002546310425,-10.03695011138916,-0.5400000214576721
1757088578390151400,2.5711513671875,-0.4639500081539154,-10.033050537109375,-0.5850000381469727
1757088578399704300,2.580704345703125,-0.45000001788139343,-10.0489501953125,-0.6190500259399414
1757088578409257500,2.590257568359375,-0.4240500330924988,-10.047000885009766,-0.612000048160553
1757088578418810600,2.599810546875,-0.4429500102996826,-10.05405044555664,-0.5809500217437744
1757088578428363800,2.60936376953125,-0.48600003123283386,-10.047000885009766,-0.5879999995231628
1757088578437917000,2.6189169921875,-0.5140500068664551,-10.0420503616333,-0.5879999995231628
1757088578447469800,2.6284697265625,-0.5190000534057617,-10.035000801086426,-0.5929500460624695
1757088578457023000,2.63802294921875,-0.5100000500679016,-10.039950370788574,-0.5809500217437744
1757088578466576100,2.647576171875,-0.4909500181674957,-10.03695011138916,-0.6000000238418579
1757088578476129300,2.65712939453125,-0.45705002546310425,-10.015950202941895,-0.5590500235557556
1757088578485682200,2.66668212890625,-0.40905001759529114,-10.00200080871582,-0.5400000214576721
1757088578495235300,2.6762353515625,-0.3850500285625458,-10.015950202941895,-0.5230500102043152
1757088578504788200,2.685788330078125,-0.4020000100135803,-10.018050193786621,-0.5490000247955322
1757088578514341600,2.695341552734375,-0.4140000343322754,-10.0420503616333,-0.5590500235557556
1757088578523894800,2.704894775390625,-0.42795002460479736,-10.05405044555664,-0.5730000138282776
1757088578533447700,2.71444775390625,-0.45705002546310425,-10.063950538635254,-0.583050012588501
1757088578543000800,2.724000732421875,-0.4740000367164612,-10.057050704956055,-0.5760000348091125
1757088578552554200,2.73355419921875,-0.4740000367164612,-10.063950538635254,-0.5640000104904175
1757088578562107100,2.743107177734375,-0.4350000321865082,-10.045050621032715,-0.5659500360488892
1757088578571660000,2.752659912109375,-0.37995001673698425,-10.018050193786621,-0.597000002861023
1757088578581213200,2.762213134765625,-0.3679500222206116,-10.011000633239746,-0.6400500535964966
1757088578590766300,2.771766357421875,-0.361050009727478,-9.99000072479248,-0.6619500517845154
1757088578600319500,2.781319580078125,-0.361050009727478,-9.994050025939941,-0.6960000395774841
1757088578609872400,2.790872314453125,-0.3850500285625458,-10.006050109863281,-0.6810000538825989
1757088578619425500,2.800425537109375,-0.4210500121116638,-10.021050453186035,-0.6430500149726868
1757088578628978400,2.809978515625,-0.45705002546310425,-10.030050277709961,-0.5899500250816345
1757088578638531600,2.819531494140625,-0.4639500081539154,-10.0489501953125,-0.5610000491142273
1757088578648085000,2.8290849609375,-0.44700002670288086,-10.05405044555664,-0.5490000247955322
1757088578657638000,2.838637939453125,-0.42795002460479736,-10.051950454711914,-0.5640000104904175
1757088578667191000,2.84819091796875,-0.4240500330924988,-10.0489501953125,-0.5899500250816345
1757088578676744200,2.857744140625,-0.4210500121116638,-10.057050704956055,-0.6139500141143799
1757088578686297300,2.86729736328125,-0.4210500121116638,-10.057050704956055,-0.6139500141143799
1757088578695850200,2.876850341796875,-0.42600002884864807,-10.045050621032715,-0.583050012588501
1757088578705403400,2.8864033203125,-0.40905001759529114,-10.047000885009766,-0.5400000214576721
1757088578714956500,2.89595654296875,-0.38805001974105835,-10.0420503616333,-0.5040000081062317
1757088578724509700,2.905509765625,-0.3850500285625458,-10.033050537109375,-0.47805002331733704
1757088578734062800,2.915062744140625,-0.364050030708313,-10.033050537109375,-0.4819500148296356
1757088578743615700,2.92461572265625,-0.3559500277042389,-10.035000801086426,-0.48705002665519714
1757088578753169000,2.9341689453125,-0.39195001125335693,-10.051950454711914,-0.5520000457763672
1757088578762721800,2.9437216796875,-0.4240500330924988,-10.045050621032715,-0.5730000138282776
1757088578772275000,2.95327490234375,-0.42600002884864807,-10.0420503616333,-0.5710500478744507
1757088578781828000,2.962828125,-0.4039500057697296,-10.059000015258789,-0.5490000247955322
1757088578791381200,2.97238134765625,-0.37800002098083496,-10.045050621032715,-0.5350500345230103
1757088578800934100,2.98193408203125,-0.39705002307891846,-10.05405044555664,-0.5260500311851501
1757088578810487600,2.991487548828125,-0.42795002460479736,-10.030050277709961,-0.5230500102043152
1757088578820040400,3.00104052734375,-0.4210500121116638,-10.035000801086426,-0.5230500102043152
1757088578829593600,3.010593505859375,-0.37605002522468567,-10.059000015258789,-0.5299500226974487
1757088578839146500,3.020146484375,-0.35895001888275146,-10.059000015258789,-0.5809500217437744
1757088578848699600,3.02969970703125,-0.37605002522468567,-10.0420503616333,-0.6499500274658203
1757088578858252800,3.039252685546875,-0.3730500042438507,-10.026000022888184,-0.6720000505447388
1757088578867806000,3.048805908203125,-0.34005001187324524,-9.999000549316406,-0.6810000538825989
1757088578877359000,3.058359130859375,-0.32805001735687256,-9.994050025939941,-0.6430500149726868
1757088578886912000,3.067912109375,-0.3450000286102295,-9.997050285339355,-0.5779500007629395
1757088578896465000,3.07746484375,-0.34005001187324524,-10.039950370788574,-0.5160000324249268
1757088578906018000,3.08701806640625,-0.34005001187324524,-10.057050704956055,-0.5329500436782837
1757088578915571200,3.0965712890625,-0.33000001311302185,-10.051950454711914,-0.5659500360488892
1757088578925124400,3.106124267578125,-0.34905001521110535,-10.026000022888184,-0.5929500460624695
1757088578934677500,3.115677490234375,-0.361050009727478,-10.01400089263916,-0.6019500494003296
1757088578944230700,3.125230712890625,-0.39705002307891846,-10.006050109863281,-0.5929500460624695
1757088578953783800,3.13478369140625,-0.39195001125335693,-10.021050453186035,-0.5899500250816345
1757088578972889900,3.153889892578125,-0.3469500243663788,-10.059000015258789,-0.5929500460624695
1757088578982442800,3.16344287109375,-0.38805001974105835,-10.063950538635254,-0.5730000138282776
1757088578991996000,3.172995849609375,-0.4140000343322754,-10.059000015258789,-0.5899500250816345
1757088579001549000,3.182549072265625,-0.4069500267505646,-10.063950538635254,-0.609000027179718
1757088579011102200,3.192102294921875,-0.3949500322341919,-10.07805061340332,-0.6169500350952148
1757088579020655000,3.201655029296875,-0.364050030708313,-10.07295036315918,-0.6240000128746033
1757088579030208300,3.211208251953125,-0.3540000021457672,-10.06605052947998,-0.6310500502586365
1757088579039761700,3.22076171875,-0.32805001735687256,-10.045050621032715,-0.6520500183105469
1757088579049314600,3.230314453125,-0.32505002617836,-10.021050453186035,-0.6910500526428223
1757088579058867700,3.23986767578125,-0.31800001859664917,-10.027950286865234,-0.7240500450134277
1757088579068420600,3.249420654296875,-0.28905001282691956,-10.05405044555664,-0.7480500340461731
1757088579077973500,3.258973388671875,-0.26805001497268677,-10.075950622558594,-0.7600500583648682
1757088579087527000,3.26852685546875,-0.25394999980926514,-10.057050704956055,-0.8010000586509705
1757088579097079800,3.278079833984375,-0.23400001227855682,-10.011000633239746,-0.8370000123977661
1757088579106633000,3.287633056640625,-0.2370000183582306,-9.970050811767578,-0.8490000367164612
1757088579116186000,3.29718603515625,-0.18900001049041748,-9.910950660705566,-0.9040500521659851
1757088579125739300,3.3067392578125,-0.12405000627040863,-9.883950233459473,-0.9300000667572021
1757088579135292400,3.31629248046875,-0.07605000585317612,-9.865050315856934,-0.9640500545501709
1757088579144845300,3.32584521484375,-0.037950001657009125,-9.901050567626953,-0.9880500435829163
1757088579154398500,3.3353984375,-0.04305000230669975,-9.961050033569336,-0.9780000448226929
1757088579163951400,3.344951416015625,-0.037950001657009125,-10.003950119018555,-0.9180000424385071
1757088579173504500,3.35450439453125,-0.04500000178813934,-10.030050277709961,-0.8389500379562378
1757088579183057700,3.3640576171875,-0.024000000208616257,-10.009050369262695,-0.7510500550270081
1757088579192610800,3.37361083984375,-0.08400000631809235,-9.915000915527344,-0.6139500141143799
1757088579202163700,3.383163818359375,-0.1789500117301941,-9.942000389099121,-0.6810000538825989
1757088579211716900,3.392716796875,-0.32805001735687256,-9.906000137329102,-0.5850000381469727
1757088579221270000,3.40227001953125,-0.4740000367164612,-9.915000915527344,-0.48000001907348633
1757088579230823200,3.4118232421875,-0.6490500569343567,-9.883950233459473,-0.4440000355243683
1757088579240376000,3.4213759765625,-0.7849500179290771,-9.832050323486328,-0.4440000355243683
1757088579249929200,3.43092919921875,-0.8230500221252441,-9.820050239562988,-0.4849500358104706
1757088579259482000,3.440482177734375,-0.7560000419616699,-9.784050941467285,-0.5230500102043152
1757088579269035300,3.45003515625,-0.6460500359535217,-9.765000343322754,-0.5730000138282776
1757088579278588700,3.459588623046875,-0.5820000171661377,-9.77400016784668,-0.6810000538825989
1757088579288141600,3.4691416015625,-0.5650500059127808,-9.784050941467285,-0.736050009727478
1757088579297694700,3.47869482421875,-0.547950029373169,-9.79800033569336,-0.6169500350952148
1757088579307247600,3.48824755859375,-0.6700500249862671,-9.802950859069824,-0.6000000238418579
1757088579316800500,3.497800537109375,-0.895050048828125,-9.853050231933594,-0.5160000324249268
1757088579326354000,3.50735400390625,-1.0410000085830688,-9.862950325012207,-0.3820500075817108
1757088579335907000,3.516906982421875,-1.0890001058578491,-9.81705093383789,-0.35805001854896545
1757088579345460000,3.5264599609375,-1.068000078201294,-9.730950355529785,-0.40095001459121704
1757088579355013000,3.53601318359375,-1.0170000791549683,-9.634950637817383,-0.4729500114917755
1757088579364566300,3.545566162109375,-1.0320000648498535,-9.492000579833984,-0.781950056552887
1757088579374119400,3.555119384765625,-1.1320500373840332,-9.433950424194336,-1.071000099182129
1757088579383672300,3.56467236328125,-1.3020000457763672,-9.396000862121582,-1.2610501050949097
1757088579393225500,3.5742255859375,-1.4029500484466553,-9.352950096130371,-1.4899500608444214
1757088579402778600,3.583778564453125,-1.4790000915527344,-9.334050178527832,-1.5310500860214233
1757088579412331800,3.593331787109375,-1.3669500350952148,-9.295050621032715,-1.689000129699707
1757088579421884700,3.602884765625,-1.3810501098632812,-9.148950576782227,-1.9480501413345337
1757088579431437800,3.612437744140625,-1.4940000772476196,-9.051000595092773,-2.367000102996826
1757088579440990700,3.62199072265625,-1.5150001049041748,-9.055950164794922,-2.319000005722046
1757088579450544000,3.631544189453125,-1.429050087928772,-9.180000305175781,-1.858950138092041
1757088579460097000,3.641096923828125,-1.810050129890442,-9.211050033569336,-1.6050000190734863
1757088579469650200,3.650650146484375,-2.170950174331665,-9.039000511169434,-1.5120000839233398
1757088579479203000,3.660203125,-1.9990501403808594,-9.034049987792969,-1.5220500230789185
1757088579488756200,3.669756103515625,-0.6010500192642212,-9.195000648498535,-1.1599500179290771
1757088579498309400,3.679309326171875,0.33705002069473267,-9.463050842285156,-0.3169500231742859
1757088579507862500,3.688862548828125,-0.49995002150535583,-9.68595027923584,0.17505000531673431
1757088579517415700,3.698415771484375,-2.313000202178955,-9.516000747680664,-0.1570500135421753
1757088579526968600,3.707968505859375,-3.627000093460083,-9.337950706481934,-0.6640500426292419
1757088579536521500,3.717521484375,-3.6940500736236572,-9.063000679016113,-1.4880000352859497
1757088579546075000,3.727074951171875,-3.1579501628875732,-8.883000373840332,-2.1780002117156982
1757088579555628000,3.7366279296875,-2.473050117492676,-8.91195011138916,-2.218050003051758
1757088579565181000,3.746180908203125,-2.389050006866455,-8.94795036315918,-1.67205011844635
1757088579574733800,3.75573388671875,-2.2260000705718994,-9.052950859069824,-1.1100000143051147
1757088579584287000,3.765286865234375,-3.985950231552124,-8.851950645446777,-0.6640500426292419
1757088579593840000,3.774840087890625,-5.416050434112549,-9.277950286865234,-0.8130000233650208
1757088579603393300,3.784393310546875,-6.412050247192383,-9.955950736999512,-1.3540500402450562
1757088579612946400,3.793946533203125,-5.767950057983398,-10.27500057220459,-1.3609501123428345
1757088579622499600,3.80349951171875,-5.284050464630127,-9.943950653076172,-1.7749500274658203
1757088579632052500,3.813052490234375,-5.968950271606445,-9.055950164794922,-1.426050066947937
1757088579641605600,3.822605712890625,-6.439950466156006,-8.425950050354004,-0.9109500646591187
1757088579651158500,3.832158447265625,-5.8969502449035645,-8.023950576782227,-1.2750000953674316
1757088579660711700,3.841711669921875,-5.217000484466553,-7.657950401306152,-1.5240000486373901
1757088579670264600,3.8512646484375,-5.545050144195557,-7.176000118255615,-1.2889500856399536
1757088579679817700,3.860817626953125,-5.952000141143799,-7.054050445556641,-0.8680500388145447
1757088579689371000,3.870370849609375,-6.0520501136779785,-7.1569504737854,-0.6169500350952148
1757088579698924000,3.879924072265625,-6.238950252532959,-7.123950481414795,-0.7120500206947327
1757088579708477000,3.889476806640625,-6.225000381469727,-6.736050128936768,-0.7630500197410583
1757088579718030300,3.8990302734375,-6.607950210571289,-6.166050434112549,-0.922950029373169
1757088579727583500,3.90858349609375,-7.132050514221191,-5.409000396728516,-1.2439500093460083
1757088579737136400,3.918136474609375,-7.6110005378723145,-4.33905029296875,-1.4520000219345093
1757088579746689500,3.927689453125,-7.936950206756592,-3.4770002365112305,-1.549950122833252
1757088579756242400,3.937242431640625,-7.957950592041016,-3.195000171661377,-1.495050072669983
1757088579765795600,3.946795654296875,-7.956000328063965,-2.9070000648498535,-1.1500500440597534
1757088579775348500,3.956348388671875,-7.636950492858887,-2.962050199508667,-0.2550000250339508
1757088579784902000,3.96590185546875,-7.651950359344482,-2.7709500789642334,0.05295000225305557
1757088579794454800,3.975454833984375,-7.948950290679932,-2.7970502376556396,0.2160000056028366
1757088579804008000,3.985008056640625,-8.128050804138184,-3.501000165939331,0.26100000739097595
1757088579813561000,3.99456103515625,-8.77500057220459,-4.318050384521484,0.3139500021934509
1757088579823114000,4.004114013671875,-9.211050033569336,-4.818000316619873,0.46905001997947693
1757088579832667100,4.013667236328125,-9.178950309753418,-4.9110002517700195,0.15300001204013824
1757088579842220300,4.02322021484375,-8.85105037689209,-4.440000057220459,-0.5020500421524048
1757088579851773400,4.0327734375,-8.692950248718262,-3.8200502395629883,-1.5220500230789185
1757088579861326300,4.042326416015625,-8.713050842285156,-3.384000062942505,-2.055000066757202
1757088579870879500,4.05187939453125,-8.938050270080566,-2.8500001430511475,-2.142000198364258
1757088579880432400,4.061432373046875,-9.03600025177002,-3.063000202178955,-1.918950080871582
1757088579889985500,4.070985595703125,-9.225000381469727,-3.373950242996216,-1.5430500507354736
1757088579899538700,4.08053857421875,-9.631950378417969,-3.5440502166748047,-1.1460000276565552
1757088579909091600,4.090091552734375,-9.586050033569336,-2.946000099182129,-1.5310500860214233
1757088579918645000,4.09964501953125,-8.7649507522583,-3.324000120162964,-1.9290001392364502
1757088579928198000,4.109197998046875,-9.778050422668457,-3.372000217437744,-1.3519500494003296
1757088579937751000,4.1187509765625,-10.17495059967041,-3.481950283050537,-1.1239500045776367
1757088579947304200,4.12830419921875,-9.87405014038086,-3.2779500484466553,-0.8460000157356262
1757088579956857000,4.137857177734375,-9.547950744628906,-2.9700000286102295,-0.44700002670288086
1757088579966410200,4.14741015625,-9.510000228881836,-2.8690500259399414,-0.6000000238418579
1757088579975963100,4.156963134765625,-9.499950408935547,-2.7060000896453857,-0.5760000348091125
1757088579985516300,4.166516357421875,-9.682050704956055,-3.135000228881836,-0.8940000534057617
1757088579995069400,4.1760693359375,-10.132050514221191,-2.3449501991271973,-1.2490500211715698
1757088580004622600,4.18562255859375,-10.293000221252441,-2.368950128555298,-1.3830000162124634
1757088580014175700,4.19517578125,-11.020950317382812,-1.897050142288208,-0.8800500631332397
1757088580023728600,4.204728759765625,-10.93695068359375,-2.026050090789795,-0.8890500664710999
1757088580033281500,4.214281494140625,-10.963050842285156,-2.095950126647949,-0.778950035572052
1757088580042834700,4.223834716796875,-10.956000328063965,-2.044950008392334,-0.6670500040054321
1757088580052387800,4.233387939453125,-10.195050239562988,-2.158050060272217,-0.3720000088214874
1757088580061941000,4.24294091796875,-9.8860502243042,-1.9260001182556152,-0.1980000138282776
1757088580071494000,4.252493896484375,-10.342950820922852,-1.576050043106079,0.2659500241279602
1757088580081047300,4.26204736328125,-10.450950622558594,-1.7130000591278076,-0.016050001606345177
1757088580090600200,4.27160009765625,-10.36500072479248,-1.8510000705718994,-0.16200000047683716
1757088580100153300,4.2811533203125,-10.081950187683105,-1.915950059890747,-0.43695002794265747
1757088580109706200,4.290706298828125,-9.964950561523438,-1.7359501123428345,-0.8509500622749329
1757088580119259400,4.30025927734375,-10.21095085144043,-1.4680501222610474,-1.1620500087738037
1757088580128812500,4.3098125,-10.402950286865234,-1.4680501222610474,-1.1700000762939453
1757088580138365700,4.31936572265625,-10.567950248718262,-1.593000054359436,-0.8749500513076782
1757088580147918800,4.3289189453125,-10.74000072479248,-1.339050054550171,-0.6739500164985657
1757088580157471700,4.3384716796875,-10.966050148010254,-1.1239500045776367,-0.3360000252723694
1757088580167024600,4.348024658203125,-10.992000579833984,-1.057050108909607,-0.3750000298023224
1757088580176577800,4.357577880859375,-10.867050170898438,-0.9919500350952148,-0.45600003004074097
1757088580186131000,4.367130859375,-10.791000366210938,-0.9270000457763672,-0.6960000395774841
1757088580195684000,4.37668408203125,-10.666050910949707,-0.9420000314712524,-0.5659500360488892
1757088580205237000,4.386237060546875,-10.707000732421875,-1.0420500040054321,-0.8659500479698181
1757088580214790100,4.3957900390625,-10.70205020904541,-1.1759999990463257,-1.0039499998092651
1757088580224343300,4.40534326171875,-10.623000144958496,-1.3170000314712524,-0.9640500545501709
1757088580233896400,4.414896484375,-10.599000930786133,-1.2910500764846802,-1.002000093460083
1757088580243449600,4.42444970703125,-10.42905044555664,-1.128000020980835,-0.8730000257492065
1757088580253002500,4.43400244140625,-10.075050354003906,-0.9490500688552856,-0.8580000400543213
1757088580262555400,4.443555419921875,-9.634050369262695,-0.5820000171661377,-0.609000027179718
1757088580272108500,4.453108642578125,-9.32805061340332,-0.05595000088214874,-0.23295001685619354
1757088580281661700,4.46266162109375,-9.390000343322754,0.1969500035047531,-0.25995001196861267
1757088580291214600,4.472214599609375,-9.721050262451172,0.3460500240325928,-0.3169500231742859
1757088580300767700,4.481767822265625,-9.831000328063965,0.24705001711845398,-0.5299500226974487
1757088580310321000,4.49132080078125,-9.892950057983398,0.2639999985694885,-0.7000500559806824
1757088580319873800,4.500873779296875,-9.90195083618164,0.16395001113414764,-0.7870500087738037
1757088580329427000,4.510427001953125,-9.919050216674805,0.10905000567436218,-0.6240000128746033
1757088580338980000,4.51997998046875,-9.784950256347656,-0.028950002044439316,-0.4939500093460083
1757088580348533200,4.529533203125,-9.574050903320312,-0.13199999928474426,-0.39900001883506775
1757088580358086100,4.539086181640625,-9.393000602722168,-0.25005000829696655,-0.44895002245903015
1757088580367639300,4.548639404296875,-9.370950698852539,-0.24705001711845398,-0.527999997138977
1757088580377192400,4.5581923828125,-9.478950500488281,-0.15405000746250153,-0.6019500494003296
1757088580386745600,4.56774560546875,-9.433050155639648,-0.08205000311136246,-0.6400500535964966
1757088580396298500,4.577298583984375,-9.402000427246094,-0.04605000093579292,-0.6049500107765198
1757088580405851400,4.586851318359375,-9.400050163269043,-0.11595000326633453,-0.5299500226974487
1757088580415404500,4.596404541015625,-9.579000473022461,0.037050001323223114,-0.30000001192092896
1757088580424957400,4.60595751953125,-9.694050788879395,-0.33105000853538513,-0.5020500421524048
1757088580434510600,4.615510498046875,-9.562950134277344,-1.0470000505447388,-0.7960500121116638
1757088580444063700,4.625063720703125,-9.676950454711914,-1.0399500131607056,-0.527999997138977
1757088580453617000,4.634616943359375,-9.847050666809082,-0.9580500721931458,-0.30000001192092896
1757088580463169800,4.644169677734375,-9.850050926208496,-0.9030000567436218,-0.2650500237941742
1757088580472723000,4.653722900390625,-9.850050926208496,-0.9010500311851501,-0.17805001139640808
1757088580482276000,4.663276123046875,-9.87600040435791,-0.9390000700950623,-0.09000000357627869
1757088580491829200,4.672829345703125,-9.819000244140625,-1.0230000019073486,-0.004050000105053186
1757088580501382100,4.682382080078125,-9.826050758361816,-1.15500009059906,0.06195000186562538
1757088580510935300,4.691935302734375,-9.796950340270996,-1.1759999990463257,0.09600000083446503
1757088580520488400,4.701488525390625,-9.715950012207031,-1.2360000610351562,0.2560500204563141
1757088580530041600,4.71104150390625,-9.63705062866211,-1.1950500011444092,0.37605002522468567
1757088580539594500,4.720594482421875,-9.535950660705566,-1.215000033378601,0.4549500346183777
1757088580549147600,4.730147705078125,-9.510000228881836,-1.1809500455856323,0.5010000467300415
1757088580558700500,4.739700439453125,-9.62700080871582,-1.128000020980835,0.559950053691864
1757088580568253700,4.749253662109375,-9.922050476074219,-0.9580500721931458,0.45000001788139343
1757088580577806800,4.758806884765625,-10.171050071716309,-0.8149500489234924,0.24195000529289246
1757088580587360000,4.768360107421875,-10.345050811767578,-0.7999500632286072,-0.15405000746250153
1757088580596913000,4.777912841796875,-10.254000663757324,-0.9679500460624695,-0.29295000433921814
1757088580606466000,4.787466064453125,-10.144050598144531,-0.9820500612258911,-0.13500000536441803
1757088580616019000,4.79701904296875,-9.892950057983398,-0.9390000700950623,0.05505000427365303
1757088580625572000,4.806572021484375,-9.642000198364258,-0.7860000133514404,0.21105000376701355
1757088580635125200,4.816125244140625,-9.390000343322754,-0.7090500593185425,0.18195000290870667
1757088580644678100,4.82567822265625,-9.282000541687012,-0.7600500583648682,0.027000000700354576
1757088580654231300,4.835231201171875,-9.289950370788574,-0.817050039768219,-0.10695000737905502
1757088580663784400,4.844784423828125,-9.273000717163086,-0.7879500389099121,-0.17805001139640808
1757088580673337600,4.854337646484375,-9.385050773620605,-0.5749500393867493,-0.22905001044273376
1757088580682890500,4.863890380859375,-9.5149507522583,-0.4720500111579895,-0.3049500286579132
1757088580692443600,4.873443603515625,-9.670050621032715,-0.2639999985694885,-0.4230000078678131
1757088580701996500,4.88299658203125,-9.771000862121582,-0.1399500072002411,-0.4729500114917755
1757088580711549700,4.8925498046875,-9.850050926208496,0.07005000114440918,-0.3940500319004059
1757088580721102800,4.902102783203125,-9.802050590515137,0.003000000026077032,-0.37005001306533813
1757088580730656000,4.911656005859375,-9.655950546264648,-0.18000000715255737,-0.22905001044273376
1757088580740209000,4.921208984375,-9.535950660705566,-0.24000000953674316,-0.1570500135421753
1757088580749762000,4.930761962890625,-9.472050666809082,-0.3550500273704529,-0.15900000929832458
1757088580759315200,4.940315185546875,-9.523950576782227,-0.4440000355243683,-0.15405000746250153
1757088580768868400,4.949868408203125,-9.555000305175781,-0.520050048828125,-0.08700000494718552
1757088580778421200,4.959421142578125,-9.58905029296875,-0.6160500049591064,-0.019950000569224358
1757088580787974100,4.96897412109375,-9.651000022888184,-0.775950014591217,0.0070500001311302185
1757088580797527300,4.97852734375,-9.756000518798828,-0.8700000643730164,0.0070500001311302185
1757088580807080700,4.988080810546875,-9.85200023651123,-0.8820000290870667,0.027000000700354576
1757088580816633600,4.997633544921875,-9.960000038146973,-0.89805006980896,-0.034950003027915955
1757088580826186800,5.007186767578125,-9.993000030517578,-0.9250500202178955,-0.0799500048160553
1757088580835739600,5.01673974609375,-10.02495002746582,-0.9580500721931458,-0.09495000541210175
1757088580845292800,5.026292724609375,-10.051050186157227,-1.0249500274658203,-0.08295000344514847
1757088580854846000,5.035845947265625,-10.005000114440918,-1.1020500659942627,-0.11400000751018524
1757088580864398800,5.04539892578125,-9.910050392150879,-1.1209501028060913,-0.13005000352859497
1757088580873952000,5.054951904296875,-9.808950424194336,-1.2460500001907349,-0.11595000326633453
1757088580883505200,5.064505126953125,-9.682050704956055,-1.3729500770568848,-0.11595000326633453
1757088580893058300,5.074058349609375,-9.550950050354004,-1.3819500207901,-0.07800000160932541
1757088580902611200,5.083611083984375,-9.523950576782227,-1.1040000915527344,-0.08295000344514847
1757088580912164400,5.093164306640625,-9.490950584411621,-0.8719500303268433,-0.12300000339746475
1757088580921717200,5.10271728515625,-9.547950744628906,-0.7140000462532043,-0.11400000751018524
1757088580931270100,5.112270263671875,-9.570000648498535,-0.6379500031471252,-0.09000000357627869
1757088580940823600,5.121823486328125,-9.655950546264648,-0.609000027179718,-0.05595000088214874
1757088580950376700,5.131376708984375,-9.760950088500977,-0.6469500064849854,-0.09195000678300858
1757088580959929600,5.1409296875,-9.81195068359375,-0.7500000596046448,-0.11595000326633453
1757088580969482800,5.150482666015625,-9.835050582885742,-0.7120500206947327,-0.15900000929832458
1757088580979035600,5.16003564453125,-9.816000938415527,-0.7020000219345093,-0.2050500065088272
1757088580988588800,5.1695888671875,-9.766050338745117,-0.6640500426292419,-0.22095000743865967
1757088580998142000,5.179141845703125,-9.709050178527832,-0.625950038433075,-0.2530499994754791
1757088581007694800,5.18869482421875,-9.676950454711914,-0.6139500141143799,-0.24795001745224
1757088581017248000,5.198248046875,-9.642000198364258,-0.6400500535964966,-0.2569500207901001
1757088581026801000,5.20780078125,-9.607950210571289,-0.62295001745224,-0.24495001137256622
1757088581036354000,5.21735400390625,-9.594000816345215,-0.597000002861023,-0.19305001199245453
1757088581045907200,5.2269072265625,-9.594000816345215,-0.5560500025749207,-0.1660500019788742
1757088581055460400,5.23646044921875,-9.58905029296875,-0.5299500226974487,-0.1189500093460083
1757088581065013200,5.24601318359375,-9.631950378417969,-0.5059500336647034,-0.07500000298023224
1757088581074566100,5.255566162109375,-9.658050537109375,-0.5130000114440918,-0.037050001323223114
1757088581084119300,5.265119384765625,-9.709050178527832,-0.48900002241134644,-0.043950002640485764
1757088581093672700,5.274672607421875,-9.723000526428223,-0.5149500370025635,-0.022950001060962677
1757088581103225600,5.2842255859375,-9.733050346374512,-0.5539500117301941,0.015000000596046448
1757088581112778800,5.29377880859375,-9.739950180053711,-0.5800500512123108,0.003000000026077032
1757088581122332000,5.303331787109375,-9.744000434875488,-0.62295001745224,-0.00795000046491623
1757088581131884800,5.312884765625,-9.727950096130371,-0.6490500569343567,-0.010950000956654549
1757088581141438000,5.32243798828125,-9.723000526428223,-0.6780000329017639,0.003000000026077032
1757088581150990800,5.331990966796875,-9.694050788879395,-0.7090500593185425,0.028950002044439316
1757088581160544000,5.3415439453125,-9.706050872802734,-0.7549500465393066,0.010050000622868538
1757088581170097000,5.351096923828125,-9.709050178527832,-0.7810500264167786,-0.0010500000789761543
1757088581179650000,5.360650146484375,-9.742050170898438,-0.7740000486373901,-0.018000001087784767
1757088581189203200,5.370203125,-9.75195026397705,-0.8239500522613525,0.024000000208616257
1757088581198756400,5.37975634765625,-9.778050422668457,-0.8220000267028809,0.019050000235438347
1757088581208309200,5.389309326171875,-9.784950256347656,-0.8029500246047974,0.031050002202391624
1757088581217862100,5.398862060546875,-9.766050338745117,-0.8239500522613525,0.019050000235438347
1757088581227415600,5.40841552734375,-9.760950088500977,-0.8719500303268433,0.12195000797510147
1757088581236968400,5.417968505859375,-9.699000358581543,-0.9150000214576721,0.12000000476837158
1757088581246521600,5.427521484375,-9.727950096130371,-0.8749500513076782,-0.013050000183284283
1757088581256074800,5.43707470703125,-9.748950004577637,-0.831000030040741,-0.06105000153183937
1757088581265627600,5.446627685546875,-9.742050170898438,-0.8460000157356262,-0.06105000153183937
1757088581275181000,5.45618115234375,-9.75195026397705,-0.8190000653266907,-0.06300000101327896
1757088581284734000,5.46573388671875,-9.75195026397705,-0.7620000243186951,-0.05400000140070915
1757088581294286800,5.475286865234375,-9.748950004577637,-0.7810500264167786,-0.09000000357627869
1757088581303840000,5.484840087890625,-9.759000778198242,-0.7810500264167786,-0.11100000888109207
1757088581313393000,5.494392822265625,-9.754050254821777,-0.775950014591217,-0.12300000339746475
1757088581322946000,5.503946044921875,-9.742050170898438,-0.7500000596046448,-0.12300000339746475
1757088581332499200,5.513499267578125,-9.718050003051758,-0.7279500365257263,-0.13500000536441803
1757088581342052000,5.523052001953125,-9.715950012207031,-0.7020000219345093,-0.13500000536441803
1757088581351605200,5.532605224609375,-9.706050872802734,-0.6880500316619873,-0.12105000764131546
1757088581361158400,5.542158447265625,-9.687000274658203,-0.6850500106811523,-0.12105000764131546
1757088581370711300,5.551711181640625,-9.697050094604492,-0.7050000429153442,-0.12600000202655792
1757088581380264400,5.561264404296875,-9.688950538635254,-0.6970500349998474,-0.14205001294612885
1757088581389817600,5.570817626953125,-9.694050788879395,-0.6690000295639038,-0.13500000536441803
1757088581399370500,5.58037060546875,-9.697050094604492,-0.6640500426292419,-0.13005000352859497
1757088581408923600,5.589923583984375,-9.703950881958008,-0.661050021648407,-0.11595000326633453
1757088581418476800,5.599476806640625,-9.703950881958008,-0.690000057220459,-0.10395000129938126
1757088581428030000,5.609030029296875,-9.718050003051758,-0.690000057220459,-0.08295000344514847
1757088581437582800,5.618582763671875,-9.709050178527832,-0.6379500031471252,-0.04200000315904617
1757088581447135700,5.6281357421875,-9.730050086975098,-0.6709500551223755,-0.031950000673532486
1757088581456689000,5.63768896484375,-9.724950790405273,-0.7720500230789185,-0.019950000569224358
1757088581466242300,5.6472421875,-9.679950714111328,-0.7600500583648682,0.004950000438839197
1757088581475795200,5.656795166015625,-9.688950538635254,-0.661050021648407,0.022050000727176666
1757088581485348000,5.66634814453125,-9.679950714111328,-0.6640500426292419,0.010050000622868538
1757088581494901200,5.6759013671875,-9.700950622558594,-0.7000500559806824,-0.006000000052154064
1757088581504454100,5.6854541015625,-9.706050872802734,-0.6690000295639038,-0.030000001192092896
1757088581514007600,5.695007568359375,-9.721050262451172,-0.690000057220459,-0.06105000153183937
1757088581523560400,5.704560546875,-9.727950096130371,-0.7549500465393066,-0.06599999964237213
1757088581533113600,5.714113525390625,-9.739950180053711,-0.7279500365257263,-0.05400000140070915
1757088581542666500,5.72366650390625,-9.721050262451172,-0.7120500206947327,-0.10695000737905502
1757088581552219600,5.7332197265625,-9.697050094604492,-0.7120500206947327,-0.10395000129938126
1757088581561772500,5.7427724609375,-9.682050704956055,-0.673050045967102,-0.15000000596046448
1757088581571325700,5.75232568359375,-9.709050178527832,-0.6949500441551208,-0.16905000805854797
1757088581580878800,5.76187890625,-9.712950706481934,-0.7260000109672546,-0.18105000257492065
1757088581590431700,5.771431640625,-9.727950096130371,-0.7240500450134277,-0.1980000138282776
1757088581599985000,5.78098486328125,-9.730050086975098,-0.7330500483512878,-0.17805001139640808
1757088581609537800,5.790537841796875,-9.736950874328613,-0.7480500340461731,-0.1879500150680542
1757088581619090700,5.800090576171875,-9.712950706481934,-0.7500000596046448,-0.19005000591278076
1757088581628644000,5.80964404296875,-9.730050086975098,-0.736050009727478,-0.208950012922287
1757088581638197000,5.819197021484375,-9.711000442504883,-0.7260000109672546,-0.23805001378059387
1757088581647750100,5.828750244140625,-9.687000274658203,-0.7050000429153442,-0.2550000250339508
1757088581657303300,5.83830322265625,-9.699000358581543,-0.7020000219345093,-0.29295000433921814
1757088581666856200,5.847856201171875,-9.715950012207031,-0.6970500349998474,-0.28395000100135803
1757088581676409300,5.857409423828125,-9.735000610351562,-0.6709500551223755,-0.23100000619888306
1757088581685962500,5.86696240234375,-9.75195026397705,-0.6810000538825989,-0.17805001139640808
1757088581695515400,5.876515380859375,-9.75195026397705,-0.7020000219345093,-0.13305000960826874
1757088581705068300,5.886068359375,-9.733050346374512,-0.736050009727478,-0.08295000344514847
1757088581714621400,5.895621337890625,-9.712950706481934,-0.7570500373840332,-0.07095000147819519
1757088581724174600,5.905174560546875,-9.721050262451172,-0.7960500121116638,-0.06105000153183937
1757088581733727500,5.9147275390625,-9.699000358581543,-0.7930500507354736,-0.06105000153183937
1757088581743280600,5.92428076171875,-9.691950798034668,-0.7960500121116638,-0.05595000088214874
1757088581752833800,5.933833740234375,-9.688950538635254,-0.7720500230789185,-0.06795000284910202
1757088581762386700,5.94338671875,-9.699000358581543,-0.7500000596046448,-0.08505000174045563
1757088581771939800,5.95293994140625,-9.706050872802734,-0.7189500331878662,-0.06599999964237213
1757088581781493000,5.962492919921875,-9.718050003051758,-0.7090500593185425,-0.07304999977350235
1757088581791046100,5.972046142578125,-9.724950790405273,-0.6970500349998474,-0.07800000160932541
1757088581800599000,5.98159912109375,-9.709050178527832,-0.6970500349998474,-0.0799500048160553
1757088581810152000,5.99115185546875,-9.712950706481934,-0.6810000538825989,-0.09195000678300858
1757088581819705300,6.000705322265625,-9.711000442504883,-0.6760500073432922,-0.06599999964237213
1757088581829258200,6.01025830078125,-9.712950706481934,-0.6760500073432922,-0.046950001269578934
1757088581838811400,6.019811279296875,-9.721050262451172,-0.7050000429153442,-0.043950002640485764
1757088581848364300,6.0293642578125,-9.723000526428223,-0.6970500349998474,-0.07800000160932541
1757088581857917400,6.03891748046875,-9.721050262451172,-0.6880500316619873,-0.10200000554323196
1757088581867470600,6.048470703125,-9.712950706481934,-0.7050000429153442,-0.09195000678300858
1757088581877023500,6.0580234375,-9.718050003051758,-0.6949500441551208,-0.10395000129938126
1757088581886576600,6.06757666015625,-9.711000442504883,-0.6660000085830688,-0.09495000541210175
1757088581896129800,6.0771298828125,-9.699000358581543,-0.6970500349998474,-0.06300000101327896
1757088581905682700,6.0866826171875,-9.715950012207031,-0.7309500575065613,-0.10200000554323196
1757088581915235600,6.096235595703125,-9.742050170898438,-0.7639500498771667,-0.10395000129938126
1757088581924788700,6.105788818359375,-9.733050346374512,-0.7549500465393066,-0.09495000541210175
1757088581934342000,6.115341796875,-9.748950004577637,-0.7570500373840332,-0.08295000344514847
1757088581943895000,6.12489501953125,-9.768000602722168,-0.7860000133514404,-0.05595000088214874
1757088581953448000,6.134447998046875,-9.736950874328613,-0.8220000267028809,-0.018000001087784767
1757088581963001000,6.1440009765625,-9.730050086975098,-0.8340000510215759,0.0070500001311302185
1757088581972554200,6.15355419921875,-9.721050262451172,-0.8479500412940979,-0.004050000105053186
1757088581982107100,6.163107177734375,-9.691950798034668,-0.8839500546455383,0
1757088581991660300,6.172660400390625,-9.697050094604492,-0.9250500202178955,-0.028050001710653305
1757088582001213200,6.182213134765625,-9.709050178527832,-0.9150000214576721,-0.07304999977350235
1757088582010766300,6.191766357421875,-9.706050872802734,-0.9030000567436218,-0.07800000160932541
1757088582020319500,6.201319580078125,-9.718050003051758,-0.906000018119812,-0.0970500037074089
1757088582029872600,6.21087255859375,-9.706050872802734,-0.8460000157356262,-0.12105000764131546
1757088582039425500,6.220425537109375,-9.697050094604492,-0.8239500522613525,-0.1660500019788742
1757088582048978400,6.229978515625,-9.697050094604492,-0.8530500531196594,-0.21900001168251038
1757088582058531800,6.23953173828125,-9.667950630187988,-0.7909500598907471,-0.21195000410079956
1757088582068084700,6.249084716796875,-9.652950286865234,-0.736050009727478,-0.1980000138282776
1757088582077638000,6.258637939453125,-9.655950546264648,-0.6709500551223755,-0.21900001168251038
1757088582087190800,6.268190673828125,-9.661050796508789,-0.6400500535964966,-0.25005000829696655
1757088582096744000,6.277743896484375,-9.685050010681152,-0.6330000162124634,-0.27195000648498535
1757088582106296800,6.287296875,-9.694050788879395,-0.6330000162124634,-0.2650500237941742
1757088582115850200,6.296850341796875,-9.676950454711914,-0.5730000138282776,-0.21405000984668732
1757088582125403100,6.306403076171875,-9.664950370788574,-0.5989500284194946,-0.17595000565052032
1757088582134956300,6.315956298828125,-9.64905071258545,-0.6520500183105469,-0.208950012922287
1757088582144509200,6.32550927734375,-9.663000106811523,-0.6420000195503235,-0.23295001685619354
1757088582154062300,6.335062255859375,-9.673050880432129,-0.6540000438690186,-0.19305001199245453
1757088582163615500,6.344615478515625,-9.61500072479248,-0.6280500292778015,-0.10395000129938126
1757088582173168400,6.35416845703125,-9.63705062866211,-0.5869500041007996,-0.06795000284910202
1757088582182721500,6.363721435546875,-9.658050537109375,-0.5680500268936157,-0.05400000140070915
1757088582192274400,6.3732744140625,-9.655950546264648,-0.6280500292778015,0.04800000041723251
1757088582201827600,6.38282763671875,-9.664950370788574,-0.6690000295639038,-0.010950000956654549
1757088582211380500,6.39238037109375,-9.747000694274902,-0.7810500264167786,-0.17400000989437103
1757088582220933600,6.40193359375,-9.802050590515137,-0.8269500136375427,-0.24795001745224
1757088582230486800,6.41148681640625,-9.816000938415527,-0.7669500112533569,-0.19995000958442688
1757088582240039700,6.421039794921875,-9.790050506591797,-0.6570000052452087,-0.16395001113414764
1757088582249592800,6.4305927734375,-9.747000694274902,-0.661050021648407,-0.15195000171661377
1757088582259146000,6.44014599609375,-9.723000526428223,-0.7720500230789185,-0.19005000591278076
1757088582268699100,6.44969921875,-9.679950714111328,-0.7980000376701355,-0.17400000989437103
1757088582278252000,6.459251953125,-9.63705062866211,-0.7810500264167786,-0.07500000298023224
1757088582287805200,6.46880517578125,-9.61500072479248,-0.7240500450134277,-0.05100000277161598
1757088582297358000,6.478358154296875,-9.598050117492676,-0.6930000185966492,-0.11100000888109207
1757088582306911200,6.4879111328125,-9.643950462341309,-0.5779500007629395,0.016950000077486038
1757088582316464000,6.497464111328125,-9.790050506591797,-0.5250000357627869,0.09405000507831573
1757088582326017300,6.507017333984375,-9.804000854492188,-0.6450000405311584,-0.030000001192092896
1757088582335570400,6.5165703125,-9.844950675964355,-0.8080500364303589,-0.0990000069141388
1757088582345123300,6.526123291015625,-9.823050498962402,-0.9799500703811646,-0.10200000554323196
1757088582354676500,6.535676513671875,-9.747000694274902,-1.0920000076293945,-0.06105000153183937
1757088582364229400,6.5452294921875,-9.748950004577637,-1.0399500131607056,-0.06795000284910202
1757088582373782500,6.554782470703125,-9.700950622558594,-0.9079500436782837,-0.07304999977350235
1757088582383335700,6.564335693359375,-9.663000106811523,-0.7810500264167786,-0.05100000277161598
1757088582392888600,6.573888671875,-9.730050086975098,-0.8220000267028809,-0.04005000367760658
1757088582402441500,6.58344140625,-9.739950180053711,-0.8940000534057617,0
1757088582411995000,6.592994873046875,-9.724950790405273,-1.045050024986267,0
1757088582421547800,6.6025478515625,-9.771000862121582,-1.152000069618225,0.1080000028014183
1757088582431101000,6.612100830078125,-9.807000160217285,-0.9820500612258911,0.12000000476837158
1757088582440653800,6.62165380859375,-9.661050796508789,-0.8869500160217285,0.40005001425743103
1757088582450207000,6.63120703125,-9.804000854492188,-0.8550000190734863,0.41895002126693726
1757088582459759900,6.640759765625,-9.739950180053711,-0.9199500679969788,0.41700002551078796
1757088582469313000,6.65031298828125,-9.733050346374512,-0.9540000557899475,0.5149500370025635
1757088582478866200,6.6598662109375,-9.610050201416016,-1.015950083732605,0.7159500122070312
1757088582488419000,6.669419189453125,-9.61305046081543,-1.0639500617980957,0.7279500365257263
1757088582497972200,6.67897216796875,-9.56505012512207,-1.045050024986267,0.9100500345230103
1757088582507525000,6.688525146484375,-9.60105037689209,-1.0900501012802124,0.999000072479248
1757088582517078300,6.698078369140625,-9.703950881958008,-1.0830000638961792,1.0990500450134277
1757088582526631400,6.70763134765625,-9.90195083618164,-1.0489500761032104,0.8839500546455383
1757088582536184300,6.717184326171875,-9.943050384521484,-1.0950000286102295,0.48600003123283386
1757088582545737500,6.726737548828125,-9.867000579833984,-0.9630000591278076,0.5080500245094299
1757088582555290400,6.736290283203125,-9.664950370788574,-1.0110000371932983,0.547950029373169
1757088582564843500,6.745843505859375,-9.748950004577637,-1.1640000343322754,0.4909500181674957
1757088582574396700,6.755396728515625,-9.373050689697266,-1.054050087928772,0.5869500041007996
1757088582583949800,6.76494970703125,-9.397050857543945,-0.9940500259399414,0.843000054359436
1757088582593502700,6.774502685546875,-9.486000061035156,-0.9030000567436218,1.0420500040054321
1757088582603055600,6.7840556640625,-9.567000389099121,-0.9130500555038452,0.9049500226974487
1757088582612608800,6.79360888671875,-9.78795051574707,-1.0350000858306885,0.7710000276565552
1757088582622162000,6.803161865234375,-9.856950759887695,-1.1020500659942627,0.6799500584602356
1757088582631715000,6.812715087890625,-9.867000579833984,-0.999000072479248,0.690000057220459
1757088582641268000,6.82226806640625,-9.931050300598145,-0.8389500379562378,0.7570500373840332
1757088582650821000,6.831821044921875,-9.715950012207031,-0.7500000596046448,0.7570500373840332
1757088582660374000,6.8413740234375,-9.60300064086914,-0.9079500436782837,0.675000011920929
1757088582669927200,6.85092724609375,-9.655950546264648,-1.0780500173568726,0.6250500082969666
1757088582679480300,6.860480224609375,-9.460050582885742,-1.26705002784729,0.7350000143051147
1757088582689033200,6.870033203125,-9.445050239562988,-1.363050103187561,0.7450500130653381
1757088582698586400,6.87958642578125,-9.643950462341309,-1.4250000715255737,0.9820500612258911
1757088582708139500,6.889139404296875,-9.523950576782227,-0.9580500721931458,0.8880000710487366
1757088582717692400,6.8986923828125,-9.744000434875488,-0.5389500260353088,0.8770500421524048
1757088582727245600,6.90824560546875,-9.81195068359375,-0.4440000355243683,0.9769500494003296
1757088582736798500,6.917798583984375,-9.634050369262695,-0.597000002861023,1.0920000076293945
1757088582746351600,6.9273515625,-9.744000434875488,-0.9580500721931458,1.1640000343322754
1757088582755904500,6.936904541015625,-9.727950096130371,-1.2000000476837158,1.2120000123977661
1757088582765457700,6.946457763671875,-9.5149507522583,-1.1239500045776367,1.1329500675201416
1757088582775010800,6.9560107421875,-9.598050117492676,-0.9390000700950623,1.237950086593628
1757088582784563700,6.965563720703125,-9.618000030517578,-0.8940000534057617,0.7710000276565552
1757088582794116900,6.975116943359375,-9.631950378417969,-0.9630000591278076,0.48405003547668457
1757088582803669800,6.984669677734375,-9.652950286865234,-1.396950125694275,0.4909500181674957
1757088582813223200,6.99422314453125,-9.61305046081543,-1.4280000925064087,0.4650000333786011
1757088582822776000,7.003776123046875,-9.646050453186035,-1.3680000305175781,0.7350000143051147
1757088582832329200,7.0133291015625,-9.631950378417969,-1.1590501070022583,1.276050090789795
1757088582841882000,7.022882080078125,-9.807000160217285,-0.9100500345230103,1.4389500617980957
1757088582851435000,7.03243505859375,-9.922050476074219,-0.7960500121116638,1.2430500984191895
1757088582860988200,7.04198828125,-9.991050720214844,-0.9270000457763672,0.8929500579833984
1757088582870541300,7.051541259765625,-9.895050048828125,-0.9460500478744507,0.4740000367164612
1757088582880094500,7.061094482421875,-9.699000358581543,-0.9370500445365906,0.29205000400543213
1757088582889647400,7.0706474609375,-9.562950134277344,-0.6810000538825989,0.1770000010728836
1757088582899200500,7.080200439453125,-9.472050666809082,-0.45795002579689026,0.4930500090122223
1757088582908753400,7.08975341796875,-9.546000480651855,-0.778950035572052,1.0230000019073486
1757088582918306600,7.099306640625,-9.460050582885742,-1.1040000915527344,1.2690000534057617
1757088582927859700,7.108859619140625,-9.481050491333008,-0.9850500226020813,1.1899501085281372
1757088582937412600,7.11841259765625,-9.5910005569458,-0.6880500316619873,0.8530500531196594
1757088582946965500,7.127965576171875,-9.687000274658203,-0.3550500273704529,0.7590000629425049
1757088582956518700,7.1375185546875,-9.687000274658203,-0.3330000042915344,0.6949500441551208
1757088582966071800,7.14707177734375,-9.802050590515137,-0.6300000548362732,0.7230000495910645
1757088582975625000,7.156625,-9.92400074005127,-0.6970500349998474,1.2139500379562378
1757088582985177900,7.166177734375,-9.985950469970703,-0.6160500049591064,1.6690500974655151
1757088582994731000,7.17573095703125,-9.838050842285156,-0.7309500575065613,1.828950047492981
1757088583004284000,7.185283935546875,-9.706050872802734,-0.9300000667572021,1.606950044631958
1757088583013837300,7.19483740234375,-9.64905071258545,-1.045050024986267,1.4029500484466553
1757088583023390200,7.20439013671875,-9.567000389099121,-1.0470000505447388,1.0420500040054321
1757088583032943000,7.213943115234375,-9.58395004272461,-1.0300500392913818,1.0420500040054321
1757088583042496300,7.223496337890625,-9.594000816345215,-1.1710500717163086,0.8839500546455383
1757088583052049700,7.233049560546875,-9.5910005569458,-1.1470500230789185,0.8910000324249268
1757088583061602300,7.242602294921875,-9.670050621032715,-1.1020500659942627,0.8650500178337097
1757088583071155500,7.252155517578125,-9.715950012207031,-1.1620500087738037,0.8089500665664673
1757088583080708400,7.261708251953125,-9.606000900268555,-1.1790000200271606,0.8650500178337097
1757088583090261500,7.271261474609375,-9.559950828552246,-0.8869500160217285,1.0030500888824463
1757088583099814700,7.280814697265625,-9.802050590515137,-0.9199500679969788,0.9559500217437744
1757088583109367800,7.290367919921875,-9.481050491333008,-0.25905001163482666,0.4740000367164612
1757088583118920700,7.299920654296875,-9.241950035095215,0.8629500269889832,0.4410000145435333
1757088583128473600,7.3094736328125,-9.58395004272461,0.6349500417709351,1.1850000619888306
1757088583138026800,7.31902685546875,-10.077000617980957,-0.44805002212524414,1.1089500188827515
1757088583147580000,7.328579833984375,-9.910050392150879,-1.2720000743865967,0.6990000605583191
1757088583157132800,7.3381328125,-10.081950187683105,-1.6930500268936157,1.2090001106262207
1757088583166685700,7.347685791015625,-9.742050170898438,-1.8750001192092896,1.0350000858306885
1757088583176238800,7.35723876953125,-9.910050392150879,-1.7100000381469727,1.339050054550171
1757088583185792000,7.3667919921875,-10.209000587463379,-1.3270500898361206,1.7260501384735107
1757088583195345000,7.376344970703125,-9.892950057983398,-0.859950065612793,1.746000051498413
1757088583204898000,7.38589794921875,-9.607950210571289,-0.4630500078201294,1.6330500841140747
1757088583214451200,7.395451171875,-9.273000717163086,-0.34095001220703125,1.360050082206726
1757088583224004000,7.405004150390625,-9.349050521850586,-0.6379500031471252,1.3980001211166382
1757088583233557200,7.41455712890625,-9.543000221252441,-0.843000054359436,1.2360000610351562
1757088583243110100,7.424110107421875,-9.630000114440918,-1.1239500045776367,0.5220000147819519
1757088583252663000,7.4336630859375,-9.493050575256348,-1.270050048828125,0.034050002694129944
1757088583262216400,7.443216552734375,-9.646050453186035,-1.224000096321106,-0.17400000989437103
1757088583271769600,7.45276953125,-9.850050926208496,-1.3609501123428345,0.18495000898838043
1757088583281322500,7.462322509765625,-9.868950843811035,-1.3819500207901,0.37095001339912415
1757088583290875400,7.47187548828125,-9.77595043182373,-1.4299501180648804,0.6679500341415405
1757088583300428500,7.481428466796875,-9.82800006866455,-1.339050054550171,0.7300500273704529
1757088583309981400,7.4909814453125,-9.819000244140625,-1.0249500274658203,0.5269500017166138
1757088583319534600,7.50053466796875,-9.796950340270996,-1.0110000371932983,-0.08295000344514847
1757088583329087700,7.510087646484375,-9.658050537109375,-1.1880000829696655,0.3829500079154968
1757088583338640600,7.519640625,-9.820950508117676,-1.423050045967102,0.8329500555992126
1757088583348193800,7.52919384765625,-9.94800090789795,-1.4010000228881836,0.7860000133514404
1757088583357746700,7.53874658203125,-9.91200065612793,-1.3489500284194946,0.4740000367164612
1757088583367299800,7.5482998046875,-9.795000076293945,-1.3099501132965088,0.22500000894069672
1757088583376852700,7.557852783203125,-9.754050254821777,-1.3579500913619995,0.33105000853538513
1757088583386406000,7.567406005859375,-9.706050872802734,-1.4730000495910645,0.690000057220459
1757088583395959000,7.576958984375,-9.675000190734863,-1.6810500621795654,0.6949500441551208
1757088583405512000,7.586511962890625,-9.742050170898438,-2.0719501972198486,0.4120500087738037
1757088583415065000,7.596065185546875,-9.867000579833984,-2.4190502166748047,0.42195001244544983
1757088583424618200,7.6056181640625,-9.61305046081543,-2.743950128555298,0.5800500512123108
1757088583434171100,7.615171142578125,-9.664950370788574,-2.9260501861572266,0.12000000476837158
1757088583443724300,7.624724365234375,-9.57705020904541,-2.9740500450134277,1.2739500999450684
1757088583453277400,7.63427734375,-9.223050117492676,-4.06095027923584,3.2950501441955566
1757088583462830300,7.643830322265625,-8.980950355529785,-4.534950256347656,3.5869500637054443
1757088583472383200,7.65338330078125,-9.985950469970703,-3.0919501781463623,2.493000030517578
1757088583481936400,7.662936279296875,-10.306950569152832,-1.9260001182556152,1.5730500221252441
1757088583491489500,7.672489501953125,-10.456050872802734,-1.4640001058578491,1.8769501447677612
1757088583501042400,7.68204248046875,-10.645050048828125,-1.3339500427246094,1.576050043106079
1757088583510595600,7.691595703125,-10.618050575256348,-2.425950050354004,1.6710001230239868
1757088583520148500,7.7011484375,-11.071050643920898,-3.352950096130371,3.747000217437744
1757088583529701600,7.71070166015625,-10.891050338745117,-3.8650500774383545,3.3520500659942627
1757088583539254800,7.7202548828125,-10.519950866699219,-4.258049964904785,1.0920000076293945
1757088583548807700,7.7298076171875,-10.444050788879395,-4.669050216674805,-0.7870500087738037
1757088583558360600,7.739360595703125,-9.27495002746582,-3.6280500888824463,-1.231950044631958
1757088583567914000,7.7489140625,-9.184050559997559,-0.3169500231742859,-0.7240500450134277
1757088583577467000,7.758466796875,-8.89905071258545,1.0090500116348267,1.3510500192642212
1757088583587020000,7.76802001953125,-7.903050422668457,1.2790501117706299,2.2240500450134277
1757088583596573000,7.777572998046875,-8.200050354003906,-1.5979501008987427,4.333950042724609
1757088583606125800,7.787125732421875,-9.75195026397705,-4.516050338745117,5.350950241088867
1757088583615679000,7.796678955078125,-8.204999923706055,-8.584050178527832,3.4069502353668213
1757088583625232100,7.806232177734375,-5.4559502601623535,-4.813050270080566,6.702000141143799
1757088583634785300,7.815785400390625,-5.881950378417969,-3.2350502014160156,8.026050567626953
1757088583644338200,7.825338134765625,-7.3909502029418945,0.7069500088691711,8.962050437927246
1757088583653891000,7.83489111328125,-8.671950340270996,1.054050087928772,5.682000160217285
1757088583663444200,7.8444443359375,-9.354000091552734,-0.00795000046491623,2.5000500679016113
1757088583672997400,7.853997314453125,-10.611000061035156,-1.2030000686645508,-1.5810000896453857
1757088583682550500,7.863550537109375,-9.814050674438477,-2.4310500621795654,-2.130000114440918
1757088583692103400,7.873103515625,-7.62600040435791,-6.810000419616699,1.0900501012802124
1757088583701656600,7.882656494140625,-11.44005012512207,-10.045050621032715,6.3760504722595215
1757088583711209500,7.89220947265625,-3.037950038909912,-11.404950141906738,12.718950271606445
1757088583720762400,7.901762451171875,3.406050205230713,-13.456950187683105,9.064949989318848
1757088583730315500,7.9113154296875,3.5020501613616943,-8.45205020904541,16.48995018005371
1757088583739868700,7.92086865234375,-3.178950071334839,-7.636050224304199,18.193950653076172
1757088583749421800,7.930421875,-8.193000793457031,-5.946000099182129,13.825050354003906
1757088583758974700,7.939974609375,-8.380050659179688,-3.4459502696990967,9.619950294494629
1757088583768527600,7.949527587890625,-9.418950080871582,-4.348950386047363,13.4010009765625
1757088583778080800,7.959080810546875,-12.247050285339355,-7.012950420379639,2.365950107574463
1757088583787634000,7.968634033203125,-11.44005012512207,-3.633000135421753,3.2440502643585205
1757088583797187000,7.97818701171875,-9.040950775146484,-4.507050037384033,4.489050388336182
1757088583806740000,7.987739990234375,-6.6060004234313965,-4.947000026702881,6.421950340270996
1757088583816293000,7.997293212890625,-4.876950263977051,-5.709000110626221,8.9239501953125
1757088583825846000,8.006845947265624,-3.2130000591278076,-6.717000484466553,9.48900032043457
1757088583835399000,8.01639892578125,-1.8030000925064087,-7.690950393676758,8.718000411987305
1757088583844952000,8.0259521484375,-3.7200002670288086,-9.27405071258545,8.830050468444824
1757088583854505200,8.035505126953124,-3.9190502166748047,-8.212950706481934,8.140950202941895
1757088583864058000,8.04505810546875,-1.5750000476837158,-7.380000114440918,8.758950233459473
1757088583873611300,8.054611328125,-4.73805046081543,-7.794000148773193,11.850000381469727
1757088583883164400,8.064164306640626,-6.618000507354736,-7.641000270843506,14.52405071258545
1757088583892717300,8.07371728515625,-5.562000274658203,-6.589950084686279,17.419050216674805
1757088583902270500,8.0832705078125,-5.088000297546387,-4.906949996948242,16.62405014038086
1757088583911823400,8.0928232421875,-5.503950119018555,-3.790950298309326,14.964000701904297
1757088583921376300,8.102376220703125,-6.313050270080566,-3.376950263977051,13.830000877380371
1757088583930929400,8.111929443359376,-6.95805025100708,-3.1060502529144287,13.236001014709473
1757088583940482600,8.121482666015625,-6.579000473022461,-2.9820001125335693,13.020000457763672
1757088583950035700,8.13103564453125,-5.032950401306152,-3.5869500637054443,12.256950378417969
1757088583959588600,8.140588623046876,-3.1030502319335938,-3.829050064086914,10.903950691223145
1757088583969141800,8.150141845703125,-1.759950041770935,-2.9410500526428223,10.276050567626953
1757088583978694700,8.159694580078124,0.6510000228881836,-3.0990002155303955,8.779950141906738
1757088583988247800,8.169247802734375,3.756000280380249,-2.7090001106262207,8.256000518798828
1757088583997801000,8.178801025390625,4.942950248718262,-2.1889500617980957,8.586000442504883
1757088584007353900,8.188353759765626,5.781000137329102,-1.071000099182129,9.108000755310059
1757088584016907000,8.197906982421875,6.129000186920166,-0.30000001192092896,9.634950637817383
1757088584026460000,8.2074599609375,6.327000141143799,-0.15900000929832458,9.925050735473633
1757088584036013000,8.217012939453125,6.552000522613525,-0.22995001077651978,10.192950248718262
1757088584045566200,8.226566162109375,6.445050239562988,-0.42900002002716064,10.099050521850586
1757088584055119000,8.236119140625,5.749950408935547,-1.377000093460083,8.907000541687012
1757088584064672000,8.245672119140625,4.8670501708984375,-2.644050121307373,8.260050773620605
1757088584074225200,8.25522509765625,4.528950214385986,-3.652050256729126,6.040950298309326
1757088584083778300,8.2647783203125,3.907050132751465,-3.120000123977661,4.011000156402588
1757088584093331500,8.27433154296875,3.6529502868652344,-2.803950071334839,2.7660000324249268
1757088584102884400,8.28388427734375,3.6889500617980957,-2.8620002269744873,1.7620500326156616
1757088584112437200,8.293437255859375,3.646050214767456,-2.6419501304626465,1.0750499963760376
1757088584121990400,8.302990478515625,3.4639501571655273,-2.059950113296509,0.45000001788139343
1757088584131543300,8.312543212890626,3.327000141143799,-1.0330500602722168,-0.018000001087784767
1757088584141096400,8.322096435546875,3.2100000381469727,0.22095000743865967,-0.07500000298023224
1757088584150649600,8.331649658203125,3.058950185775757,1.0330500602722168,0.32100000977516174
1757088584160202500,8.341202392578126,2.997000217437744,1.384950041770935,0.6010500192642212
1757088584169755600,8.350755615234375,3.507000207901001,2.533950090408325,0.6510000228881836
1757088584179308500,8.36030859375,4.122000217437744,1.1400001049041748,1.3980001211166382
1757088584188861400,8.369861328125,4.429050445556641,1.284000039100647,1.50600004196167
1757088584198414600,8.37941455078125,4.4239501953125,1.2169500589370728,1.4770500659942627
1757088584207968000,8.388968017578126,4.444950103759766,0.753000020980835,1.3720500469207764
1757088584217521000,8.39852099609375,4.278000354766846,0.34095001220703125,1.2190500497817993
1757088584227073800,8.40807373046875,3.7270500659942627,0.2160000056028366,1.1640000343322754
1757088584236626700,8.417626708984375,1.8790501356124878,1.3440001010894775,1.0489500761032104
1757088584246179800,8.427179931640625,-0.6150000095367432,3.6190502643585205,-0.38700002431869507
1757088584255733000,8.43673291015625,1.2300000190734863,5.0809502601623535,-2.1439499855041504
1757088584265286100,8.4462861328125,14.166000366210938,5.445000171661377,7.219050407409668
1757088584274839000,8.455839111328125,21.700950622558594,6.805050373077393,23.03805160522461
1757088584284392000,8.465391845703126,13.704000473022461,5.524050235748291,17.044950485229492
1757088584293945000,8.474945068359375,18.165000915527344,3.595050096511841,9.682950019836426
1757088584303498000,8.484498046875,15.313050270080566,1.6189501285552979,1.390950083732605
1757088584313051100,8.494051025390625,11.30505084991455,-0.1399500072002411,-1.828050136566162
1757088584322604300,8.503604248046875,9.772950172424316,-0.859950065612793,-3.198000192642212
1757088584332157200,8.5131572265625,8.86500072479248,-0.8910000324249268,-3.7480502128601074
1757088584341710300,8.52271044921875,8.908050537109375,0.20205001533031464,-2.8650002479553223
1757088584351263500,8.532263427734375,8.980050086975098,1.6549500226974487,-1.2649500370025635
1757088584360816400,8.54181640625,9.427950859069824,3.0079500675201416,0.4339500069618225
1757088584370369500,8.55136962890625,9.92805004119873,3.8650500774383545,1.4970000982284546
1757088584379922400,8.56092236328125,10.318950653076172,4.354050159454346,2.2200000286102295
1757088584389475300,8.570475341796875,10.4839506149292,4.600050449371338,2.634000062942505
1757088584399028500,8.580028564453125,10.42905044555664,4.389000415802002,1.9639500379562378
1757088584408581600,8.58958154296875,10.306950569152832,3.9559502601623535,0.5560500025749207
1757088584418134800,8.599134765625,10.029000282287598,3.652050256729126,-0.25005000829696655
1757088584427687700,8.608687744140624,9.529050827026367,3.5590500831604004,-0.22905001044273376
1757088584437240800,8.61824072265625,9.009000778198242,3.5710501670837402,0.22305001318454742
1757088584446793700,8.627793701171875,8.571000099182129,3.5779502391815186,0.6540000438690186
1757088584456347000,8.637346923828124,8.295000076293945,3.532050132751465,0.7879500389099121
1757088584465899800,8.646899658203125,8.245050430297852,3.4579501152038574,0.6630000472068787
1757088584475453000,8.656452880859375,8.494050025939941,3.421950101852417,0.3930000066757202
1757088584485005800,8.666005859375,8.908050537109375,3.5059502124786377,0.1870500147342682
1757088584494559000,8.67555908203125,9.258000373840332,3.6280500888824463,0.08400000631809235
1757088584504112000,8.685112060546874,9.433050155639648,3.658950090408325,0.010050000622868538
1757088584513665300,8.694665283203125,9.351000785827637,3.68595027923584,0.004950000438839197
1757088584523218200,8.70421826171875,9.13800048828125,3.690000057220459,0.13199999928474426
1757088584532771000,8.71377099609375,8.920050621032715,3.6949501037597656,0.25905001163482666
1757088584542324200,8.72332421875,9.045000076293945,3.5779502391815186,0.5410500168800354
1757088584551877400,8.73287744140625,9.483000755310059,3.5869500637054443,0.5080500245094299
1757088584561430300,8.74243017578125,8.797950744628906,3.9900002479553223,0.30705001950263977
1757088584570983400,8.7519833984375,8.808000564575195,4.042050361633301,-0.07500000298023224
1757088584580536600,8.76153662109375,8.559000015258789,3.8389501571655273,-0.3169500231742859
1757088584590089500,8.77108935546875,8.401050567626953,3.5869500637054443,-0.27900001406669617
1757088584599642600,8.780642578125,8.667000770568848,3.4170000553131104,-0.1469999998807907
1757088584609195500,8.790195556640626,8.884050369262695,3.3859500885009766,-0.15405000746250153
