time,seconds_elapsed,gyro_x,gyro_y,gyro_z,acc_x,acc_y,acc_z,grav_x,grav_y,grav_z
1757088575915897900,0.09689794921875,1.8654625415802,-5.309424877166748,1.3386999368667605,-0.694150984287262,0.7336969971656799,12.105461120605469,5.046742916107178,-5.334253787994385,-6.499731063842773
1757088575925450800,0.10645068359375,2.1000375747680664,-5.856812477111816,1.4889874458312988,-1.2705990076065063,0.0754230022430419,11.839343070983888,5.068381786346436,-5.324085235595703,-6.490256786346436
1757088575935004000,0.11600390625,2.354137420654297,-6.256249904632568,1.6588000059127808,-1.7731809616088867,-0.0473689995706081,11.314208984375,5.122453212738037,-5.316038131713867,-6.44746208190918
1757088575944557000,0.12555712890625,2.6229500770568848,-6.395537376403809,1.8603750467300413,-1.988265037536621,-0.150077998638153,11.08590030670166,5.206552982330322,-5.3074049949646,-6.368710994720459
1757088575954110200,0.135110107421875,2.9320499897003174,-6.317437648773193,2.0974249839782715,-2.060821056365967,-0.2178130000829696,10.983922958374023,5.317624092102051,-5.295265197753906,-6.252417087554932
1757088575963663400,0.144663330078125,3.1238625049591064,-6.005862236022949,2.3282876014709477,-2.802207946777344,-1.037598967552185,11.652924537658691,5.445772171020508,-5.268832206726074,-6.122167110443115
1757088575973216300,0.15421630859375,3.2349624633789062,-5.707762241363525,2.496999979019165,-3.6830339431762695,-1.7794699668884275,12.151384353637695,5.589710235595703,-5.227333068847656,-5.977932929992676
1757088575982769400,0.163769287109375,3.325437545776367,-5.530662536621094,2.6569125652313232,-4.27603006362915,-2.180821895599365,11.841422080993652,5.7483320236206055,-5.1700758934021,-5.819277763366699
1757088575992322800,0.17332275390625,3.4647250175476074,-5.457237243652344,2.865912437438965,-5.006612777709961,-2.8666861057281494,11.273090362548828,5.92073917388916,-5.096124172210693,-5.6454949378967285
1757088576001875700,0.182875732421875,3.623537540435791,-5.454899787902832,3.043012380599976,-5.90925407409668,-3.2523770332336426,10.984662055969238,6.105954170227051,-5.004683017730713,-5.455615043640137
1757088576011428900,0.192428955078125,3.69682502746582,-5.565999984741211,3.2348248958587646,-6.512557029724121,-3.287627935409546,11.367863655090332,6.303019046783447,-4.895078182220459,-5.248022079467773
1757088576020981800,0.201981689453125,3.6796374320983887,-5.668712615966797,3.398587465286255,-7.362054824829102,-3.3042359352111816,11.594646453857422,6.510714054107666,-4.766925811767578,-5.021001815795898
1757088576030535200,0.21153515625,3.639349937438965,-5.6662373542785645,3.5329248905181885,-8.068492889404297,-3.626106023788452,11.705865859985352,6.727513790130615,-4.620046138763428,-4.773324966430664
1757088576040088000,0.221088134765625,3.546537399291992,-5.39618730545044,3.6246373653411865,-9.090408325195312,-3.816946029663086,11.688366889953612,6.95159387588501,-4.454524993896484,-4.505021095275879
1757088576049641200,0.23064111328125,3.474487543106079,-5.1628499031066895,3.64045000076294,-9.765276908874512,-4.042153835296631,11.293603897094728,7.181163787841797,-4.270801067352295,-4.216139793395996
1757088576059194400,0.2401943359375,3.3767249584198,-4.699887275695801,3.647737503051758,-10.597282409667969,-4.415553092956543,11.148821830749512,7.4145050048828125,-4.06936502456665,-3.907928943634033
1757088576068747300,0.249747314453125,3.281437397003174,-4.299075126647949,3.5976874828338623,-10.750362396240234,-4.429358005523682,10.916253089904783,7.650113105773926,-3.850956916809082,-3.5815060138702397
1757088576078300400,0.259300537109375,3.1409125328063965,-3.805587530136109,3.6124000549316406,-11.132458686828612,-4.537990093231201,10.91791534423828,7.886750221252441,-3.6159839630126953,-3.238524913787842
1757088576087853800,0.268853759765625,3.0151000022888184,-3.3767249584198,3.5818750858306885,-11.589537620544434,-4.680729866027832,10.731049537658691,8.123374938964844,-3.365015983581543,-2.880455017089844
1757088576097407000,0.278406982421875,2.8708624839782715,-2.98333740234375,3.535399913787842,-12.29767608642578,-4.960084915161133,10.052360534667969,8.359132766723633,-3.0986430644989014,-2.5086829662323
1757088576106960000,0.2879599609375,2.7878124713897705,-2.734050035476685,3.451112508773804,-12.91171646118164,-4.704732894897461,9.061442375183104,8.593270301818848,-2.8176229000091557,-2.12399697303772
1757088576116513000,0.297512939453125,2.7157623767852783,-2.539900064468384,3.3643500804901123,-13.716065406799316,-4.661696910858154,8.55152416229248,8.803486824035645,-2.53288197517395,-1.7364579439163208
1757088576126066000,0.30706591796875,2.6204750537872314,-2.420137405395508,3.212825059890747,-14.537426948547363,-4.918965816497803,8.308568954467773,8.97840404510498,-2.2331559658050537,-1.3702110052108765
1757088576135619300,0.316619384765625,2.511712551116944,-2.431137561798096,3.002724885940552,-14.676956176757812,-4.928173065185547,8.343436241149902,9.119854927062988,-1.9224220514297483,-1.027657985687256
1757088576145172200,0.326172119140625,2.318662405014038,-2.1795125007629395,2.83291244506836,-14.79228973388672,-5.03773307800293,9.170618057250977,9.230643272399902,-1.6045700311660769,-0.71145099401474
1757088576154725400,0.335725341796875,2.0572750568389893,-1.7115999460220337,2.57509994506836,-15.220211029052734,-4.677845001220703,9.71726417541504,9.320849418640137,-1.2915899753570557,-0.4001399874687195
1757088576164278500,0.345278564453125,1.7701749801635742,-1.2399749755859375,2.259949922561645,-15.256807327270508,-4.423226833343506,9.702268600463867,9.392187118530272,-0.9855769872665404,-0.0959580019116401
1757088576173831400,0.35483154296875,1.498887538909912,-0.7195374965667725,1.9496124982833865,-14.853801727294922,-4.436472892761231,9.254883766174316,9.44640827178955,-0.6884340047836304,0.1982149928808212
1757088576183384800,0.364384765625,1.2533124685287476,-0.2943874895572662,1.727275013923645,-13.880430221557615,-4.209217071533203,8.673116683959961,9.4849853515625,-0.401870995759964,0.4796519875526428
1757088576192938000,0.37393798828125,1.0517375469207764,-0.0035749999806284,1.627037525177002,-13.297186851501465,-4.3099870681762695,7.985352039337158,9.50924587249756,-0.126920998096466,0.7459800243377686
1757088576202491100,0.3834912109375,0.896637499332428,0.075762502849102,1.5879875421524048,-12.998542785644531,-4.437199115753174,6.549458980560303,9.513189315795898,0.1298809945583343,1.0213780403137207
1757088576212044000,0.3930439453125,0.7928249835968018,-0.0353375002741813,1.586750030517578,-12.662991523742676,-4.536725997924805,5.378606796264648,9.49654769897461,0.3670069873332977,1.3040469884872437
1757088576221597200,0.40259716796875,0.686537504196167,-0.1941500008106231,1.5855125188827517,-12.74037742614746,-4.323888778686523,4.746519088745117,9.458869934082031,0.584460973739624,1.5928750038146973
1757088576231150300,0.412150390625,0.5288249850273132,-0.3089624941349029,1.4939374923706057,-13.71921730041504,-4.157121181488037,5.2137861251831055,9.411855697631836,0.7883440256118774,1.8628530502319336
1757088576240703500,0.421703369140625,0.3139125108718872,-0.2858625054359436,1.2531750202178955,-15.04475212097168,-4.538987159729004,5.67013692855835,9.357508659362791,0.9785109758377076,2.113739013671875
1757088576250256400,0.43125634765625,0.1000999957323074,-0.1563374996185302,0.9002124667167664,-15.177618026733398,-5.027300834655762,5.267428874969482,9.298133850097656,1.1544309854507446,2.346035957336426
1757088576269362700,0.45036279296875,-0.0306624993681907,0.9029625058174132,-0.5377625226974487,-25.52262115478516,-7.809287071228027,2.134298086166382,9.175647735595703,1.4578800201416016,2.7528860569000244
1757088576278915800,0.459915771484375,0.0818125009536743,1.389162540435791,-1.7546374797821045,-23.049522399902344,-7.137294769287109,1.3873929977416992,9.119668960571287,1.5768769979476929,2.9254519939422607
1757088576288469000,0.469468994140625,0.1036750003695488,1.2328250408172607,-2.0160250663757324,-12.56688117980957,-6.265014171600342,2.4869608879089355,9.060342788696287,1.6587640047073364,3.102123022079468
1757088576298022100,0.479022216796875,-0.0648999959230423,0.5413374900817871,-1.4040124416351318,-5.852686882019043,-6.865821838378906,3.990447998046875,8.998894691467285,1.7031300067901611,3.279772996902466
1757088576307575300,0.4885751953125,-0.3140499889850616,-0.3504875004291534,-0.5902875065803528,-4.95738410949707,-8.23763656616211,3.8481459617614746,8.93925952911377,1.7319250106811523,3.4463460445404053
1757088576317128400,0.49812841796875,-0.3910500109195709,-0.8294000029563904,-0.1248499974608421,-8.901026725769043,-8.514458656311035,0.7718549966812134,8.874601364135742,1.7253049612045288,3.6184699535369873
1757088576326681300,0.507681396484375,-0.1649999916553497,-0.8233500123023987,-0.1968999952077865,-12.28763198852539,-8.175433158874512,-2.1267189979553223,8.804338455200195,1.683794021606445,3.7944469451904297
1757088576336234500,0.517234375,0.1671999990940094,-0.6132500171661377,-0.344712495803833,-11.631353378295898,-7.218092918395996,-2.8786349296569824,8.736197471618652,1.6298810243606567,3.961627960205078
1757088576345787600,0.52678759765625,0.3957250118255615,-0.5277249813079834,-0.2714250087738037,-7.706085205078125,-6.759613990783691,-1.5817300081253052,8.67018985748291,1.5644539594650269,4.121823787689209
1757088576355340800,0.5363408203125,0.4604874849319458,-0.6657750010490417,0.1683000028133392,-4.879042148590088,-7.258277893066406,-0.1751590073108673,8.600709915161133,1.468572974205017,4.284206867218018
1757088576364894000,0.54589404296875,0.4079625010490417,-0.9431124925613404,0.3173500001430511,-8.161334991455078,-6.190564155578613,0.0301089994609355,8.52071762084961,1.3451019525527954,4.4576520919799805
1757088576374447000,0.555447021484375,0.420199990272522,-0.9235875010490416,0.1439625024795532,-10.92692756652832,-5.09702205657959,-0.8704400062561035,8.425596237182617,1.1957939863204956,4.646437168121338
1757088576384000000,0.565,0.4507249891757965,-0.6743000149726868,-0.0980374962091445,-9.885395050048828,-5.358965873718262,-0.67153000831604,8.315223693847656,1.0195889472961426,4.8484721183776855
1757088576393553200,0.57455322265625,0.5497249960899353,-0.2881999909877777,-0.2201374918222427,-7.811851024627685,-5.098481178283691,-1.1208419799804688,8.212236404418945,0.8408780097961426,5.024282932281494
1757088576403106300,0.584106201171875,0.6265875101089478,0.1405249983072281,-0.2689499855041504,-6.995031833648682,-5.540016174316406,-0.6868199706077576,8.107571601867676,0.6410790085792542,5.179347991943359
1757088576412659500,0.593659423828125,0.6193000078201294,0.4911499917507171,-0.3741374909877777,-7.701837062835693,-6.292142868041992,0.2382919937372207,8.016061782836914,0.4390079975128174,5.30539608001709
1757088576422212400,0.60321240234375,0.6743000149726868,0.6719624996185303,-0.5389999747276306,-8.648555755615234,-5.8856730461120605,-0.7657139897346497,7.913848876953125,0.2083130031824112,5.43413782119751
1757088576431765800,0.612765869140625,0.9394000172615052,0.2920500040054321,-0.7710999846458435,-7.680575847625732,-4.057939052581787,-1.3119319677352903,7.798715114593506,-0.0500200018286705,5.565720081329346
1757088576441319000,0.62231884765625,1.0762125253677368,0.3482874929904938,-0.724762499332428,-6.049258232116699,-3.279747009277344,-0.5859140157699585,7.671751022338867,-0.3315739929676056,5.698927879333496
1757088576450871800,0.631871826171875,1.1800249814987185,0.1612875014543533,-0.6843374967575073,-5.610042095184326,-2.7854340076446533,-0.9522259831428528,7.531739234924316,-0.6343410015106201,5.83397388458252
1757088576460425000,0.641425048828125,1.4830750226974487,-0.2063875049352646,-0.6758124828338623,-5.779611110687256,-1.3472559452056885,-2.924657106399536,7.38737678527832,-0.941760003566742,5.970559120178223
1757088576469978000,0.65097802734375,2.018087387084961,-0.8600624799728394,-0.8505749702453613,-6.101688861846924,-0.8898869752883911,-3.738537073135376,7.233970165252685,-1.2507779598236084,6.111211776733398
1757088576479531300,0.66053125,2.637525081634521,-1.501362442970276,-1.108387470245361,-7.578672885894775,-1.423450946807861,-4.963294982910156,7.077578067779541,-1.5497210025787354,6.232683181762695
1757088576489084400,0.67008447265625,3.24114990234375,-1.6198874711990356,-1.3172500133514404,-9.058355331420898,-2.737790107727051,-5.805230140686035,6.916787147521973,-1.8398029804229736,6.337465763092041
1757088576498637600,0.679637451171875,3.7701125144958496,-1.7554625272750854,-1.2256749868392944,-9.20753288269043,-3.614703893661499,-6.040481090545654,6.731363773345947,-2.1648058891296387,6.432650089263916
1757088576508190500,0.6891904296875,4.0572123527526855,-1.544124960899353,-0.6440500020980835,-8.259806632995605,-4.886013984680176,-5.48018217086792,6.547266006469727,-2.4815049171447754,6.503069877624512
1757088576517743600,0.69874365234375,3.910637378692627,-0.3909125030040741,0.3638249933719635,-5.954987049102783,-3.3619940280914307,-2.732192039489746,6.358250141143799,-2.8005900382995605,6.543519020080566
1757088576527297000,0.708297119140625,3.249675035476685,1.616449952125549,0.8170250058174133,-5.549938201904297,-0.5991910099983215,-1.1722580194473269,6.177962779998779,-3.125669002532959,6.568457126617432
1757088576536850000,0.717849853515625,2.6754748821258545,2.129462480545044,0.9147874712944032,-5.732082843780518,0.3436810076236725,-1.931015968322754,6.00779390335083,-3.454137086868286,6.578498840332031
1757088576546403000,0.727403076171875,2.2428998947143555,1.425874948501587,0.892787516117096,-6.017199993133545,1.522825002670288,-3.489919900894165,5.850771903991699,-3.764260053634644,6.569334030151367
1757088576555956200,0.736956298828125,1.9448000192642207,0.1174250021576881,0.6887375116348267,-5.618626117706299,1.7816989421844482,-3.511444091796875,5.709150791168213,-4.05716609954834,6.538348197937012
1757088576565509400,0.74650927734375,1.6761250495910645,-1.1251624822616575,0.3075875043869018,-5.620936870574951,1.6189299821853638,-3.2638258934021,5.582600116729736,-4.333943843841553,6.486946105957031
1757088576575062300,0.756062255859375,1.5783624649047852,-1.7653625011444092,0.113437496125698,-5.121476173400879,1.5721830129623413,-3.942991971969605,5.468667984008789,-4.593469142913818,6.4203081130981445
1757088576584615400,0.765615478515625,1.6528874635696411,-1.722599983215332,0.3821125030517578,-3.751344919204712,1.090633988380432,-4.529321193695068,5.352674961090088,-4.853841781616211,6.351663112640381
1757088576594168600,0.77516845703125,1.8532249927520752,-1.1141624450683594,0.9257875084877014,-3.0971100330352783,0.8383499979972839,-5.121818065643311,5.248523235321045,-5.094587802886963,6.273528099060059
1757088576603721700,0.7847216796875,2.205087423324585,-0.1771000027656555,1.4022250175476074,-3.4652199745178223,1.178233027458191,-5.816088199615479,5.1473069190979,-5.334384918212891,6.190767765045166
1757088576613275000,0.79427490234375,2.654712438583374,0.7574874758720398,1.6539875268936155,-3.5793941020965576,1.4269399642944336,-6.194764137268066,5.066119194030762,-5.553125858306885,6.093020915985107
1757088576622827800,0.803827880859375,3.071199893951416,1.4234000444412231,1.7540874481201172,-3.861208915710449,1.1423410177230835,-5.7691168785095215,5.00875186920166,-5.751486778259277,5.977327823638916
1757088576632381000,0.813380859375,3.271674871444702,2.030600070953369,1.6710374355316162,-5.125095844268799,-0.2620080113410949,-3.775271892547608,4.974394798278809,-5.932900905609131,5.843255996704102
1757088576641933800,0.822933837890625,3.304674863815308,1.6787375211715698,1.6307499408721924,-5.852283000946045,-1.4339940547943115,-4.071436882019043,4.96220588684082,-6.097561836242676,5.692389011383057
1757088576651487200,0.8324873046875,3.3082499504089355,0.1149500012397766,1.2849375009536743,-9.130735397338867,-4.468163967132568,-1.8985689878463743,4.956535816192627,-6.25816011428833,5.532144069671631
1757088576661040400,0.842040283203125,2.86852502822876,-1.3400750160217283,0.735212504863739,-8.468306541442871,-14.380773544311523,2.522196054458618,4.955511093139648,-6.412878036499023,5.367194175720215
1757088576670593300,0.85159326171875,2.653475046157837,-2.525187492370605,0.1903000026941299,-6.960422039031982,-27.178401947021484,-1.5864009857177734,4.957999229431152,-6.560026168823242,5.201103210449219
1757088576680146400,0.861146484375,3.035862445831299,-3.018812417984009,-0.3521375060081482,-5.377633094787598,-33.99106979370117,-5.308082103729248,4.9622721672058105,-6.699221134185791,5.034983158111572
1757088576689699600,0.870699462890625,3.300962448120117,-2.967525005340576,-0.4437125027179718,-3.149955034255981,-30.31537437438965,-3.043853044509888,4.985136985778809,-6.808422088623047,4.872941017150879
1757088576699252700,0.880252685546875,2.960099935531616,-3.5220625400543213,-0.1835625022649765,-3.352163076400757,-23.850521087646484,-0.34791100025177,5.008153915405273,-6.908655166625977,4.7160491943359375
1757088576708806000,0.889805908203125,2.191612482070923,-4.322312355041504,0.1512500047683715,-4.543776035308838,-15.339204788208008,1.2134970426559448,5.038631916046143,-6.986420154571533,4.575389862060547
1757088576718359000,0.899359130859375,1.352312445640564,-4.735225200653076,0.2795374989509582,-7.133049964904785,-7.702814102172852,0.6146590113639832,5.055057048797607,-7.058021068572998,4.453959941864014
1757088576727912000,0.908911865234375,0.6583499908447266,-4.435887336730957,-0.0050874999724328,-10.646441459655762,-2.5606980323791504,-0.4938569962978363,5.05500078201294,-7.125296115875244,4.353011131286621
1757088576737465300,0.91846533203125,0.1721500009298324,-3.5844874382019043,-0.3948999941349029,-9.865697860717772,0.4511710107326507,-2.1806960105896,5.017814159393311,-7.20208215713501,4.269352912902832
1757088576747018200,0.928018310546875,-0.0979000031948089,-2.4591875076293945,-0.5097125172615051,-7.021911144256592,1.819828987121582,-4.121306896209717,4.971615791320801,-7.276175022125244,4.197131156921387
1757088576756571400,0.9375712890625,-0.1759999990463256,-1.1384999752044678,-0.3264249861240387,-4.305305004119873,2.723177909851074,-5.570895195007324,4.923912048339844,-7.346951007843018,4.130399227142334
1757088576766124300,0.947124267578125,-0.1344749927520752,0.2480500042438507,0.0119624994695186,-2.965373039245605,3.340085029602051,-6.175404071807861,4.880871772766113,-7.413678169250488,4.064723014831543
1757088576775677400,0.956677490234375,-0.0746624991297721,1.3219250440597534,0.2855874896049499,-3.3945629596710205,3.5587680339813232,-5.906503200531006,4.844596862792969,-7.476390838623047,3.998305082321167
1757088576785230800,0.96623095703125,-0.0428999997675418,1.9523625373840328,0.4078249931335449,-4.093113899230957,3.091392040252685,-5.516485214233398,4.813351154327393,-7.535648822784424,3.9318439960479736
1757088576794783700,0.97578369140625,-0.0269499998539686,2.2419373989105225,0.4005374908447265,-4.706864833831787,1.1520110368728638,-5.451794147491455,4.78361177444458,-7.591798782348633,3.867898941040039
1757088576804337000,0.9853369140625,0.0585750006139278,2.2149875164031982,0.3357749879360199,-4.906182765960693,-0.7268829941749573,-5.333281993865967,4.740891933441162,-7.656377792358398,3.7965729236602783
1757088576813890000,0.99489013671875,0.1538625061511993,1.8533624410629272,0.2428250014781952,-5.1102681159973145,-2.512737989425659,-5.135974884033203,4.693088054656982,-7.717960834503174,3.7346279621124263
1757088576823443200,1.004443115234375,0.2111999988555908,1.219349980354309,0.1427250057458877,-5.1723737716674805,-3.838112115859986,-4.814617156982422,4.637869834899902,-7.77678918838501,3.685435056686402
1757088576832996400,1.013996337890625,0.202674999833107,0.4948624968528747,0.0351999998092651,-5.087747097015381,-4.455667018890381,-4.2879838943481445,4.574741840362549,-7.833528995513916,3.649934053421021
1757088576842549200,1.02354931640625,0.1183874979615211,-0.1073874980211258,-0.0625625029206276,-4.674837112426758,-3.886796951293945,-3.610198974609375,4.506618022918701,-7.887857913970947,3.625736951828003
1757088576852102400,1.033102294921875,0.0768624991178512,-0.4666749835014343,-0.0820875018835067,-3.9378879070281982,-2.5905818939208984,-3.653975963592529,4.437281131744385,-7.939371109008789,3.608443975448608
1757088576861655600,1.042655517578125,0.1013374999165535,-0.5875374674797058,-0.0393249988555908,-3.441256046295166,-1.58808696269989,-3.593696117401123,4.361884117126465,-7.994927883148193,3.585024118423462
1757088576871208700,1.052208740234375,0.1244374960660934,-0.5900124907493591,0.0156750008463859,-3.3576500415802,-0.9576619863510132,-3.245904922485352,4.283390998840332,-8.051643371582031,3.55637788772583
1757088576880761900,1.061761962890625,0.1123374998569488,-0.5655375123023987,0.0657249987125396,-3.467466115951538,-0.6458340287208557,-2.810412883758545,4.201698780059815,-8.108244895935059,3.5250720977783203
1757088576890314800,1.071314697265625,0.0719124972820282,-0.5302000045776367,0.0950125008821487,-3.72194504737854,-0.6946229934692383,-2.524467945098877,4.11603593826294,-8.16562557220459,3.4897639751434326
1757088576899868000,1.080867919921875,0.0426249988377094,-0.481249988079071,0.0987249985337257,-3.980715036392212,-0.9376639723777772,-2.435080051422119,4.025870800018311,-8.225597381591797,3.446291923522949
1757088576909421000,1.090421142578125,0.0365750007331371,-0.4054875075817108,0.0864875018596649,-4.139584064483643,-1.114084005355835,-2.4449539184570312,3.931266069412232,-8.289507865905762,3.3907299041748047
1757088576918974200,1.09997412109375,0.0291499998420476,-0.3102000057697296,0.0706750005483627,-4.125289916992188,-1.162098050117493,-2.436754941940308,3.833144903182984,-8.357403755187988,3.321352005004883
1757088576928527400,1.10952734375,0.015812499448657,-0.2039124965667724,0.0657249987125396,-3.9006409645080566,-1.0481829643249512,-2.4452390670776367,3.754928112030029,-8.41639518737793,3.2384490966796875
1757088576938080500,1.11908056640625,0.0035749999806284,-0.0756250023841857,0.0706750005483627,-3.64283299446106,-0.8369380235671997,-2.423887014389038,3.6733651161193848,-8.478691101074219,3.14388108253479
1757088576947633700,1.128633544921875,-0.0013749999925494,0.0574750006198883,0.0706750005483627,-3.3328800201416016,-0.6478210091590881,-2.3761610984802246,3.586195945739746,-8.544301986694336,3.0398108959198
1757088576957186600,1.1381865234375,-0.0013749999925494,0.147949993610382,0.0669625028967857,-2.9934239387512207,-0.5402969717979431,-2.3022890090942383,3.4903900623321533,-8.613295555114746,2.9289979934692383
1757088576966739700,1.14773974609375,0.0010999999940395,0.1845249980688095,0.0657249987125396,-2.6303110122680664,-0.4732039868831634,-2.204991102218628,3.3838210105896,-8.685603141784668,2.8138349056243896
1757088576976292900,1.15729296875,0.0072874999605119,0.1809500008821487,0.0669625028967857,-2.2856719493865967,-0.4069289863109588,-2.120304107666016,3.2657949924468994,-8.76101016998291,2.695863008499145
1757088576985846000,1.166845947265625,0.0193875003606081,0.1502874940633773,0.073012501001358,-2.0156350135803223,-0.4074639976024627,-1.9823399782180784,3.136620044708252,-8.839143753051758,2.5761420726776123
1757088576995399200,1.176399169921875,0.0280499998480081,0.0954250022768974,0.081675000488758,-1.8343290090560915,-0.4139859974384308,-1.7791370153427124,3.008167028427124,-8.907941818237305,2.4688260555267334
1757088577004952000,1.1859521484375,0.0328624993562698,0.0354750007390975,0.0877249985933303,-1.7640399932861328,-0.432449996471405,-1.5239360332489014,2.870904922485352,-8.978316307067871,2.361011028289795
1757088577014505500,1.19550537109375,0.031624998897314,-0.031624998897314,0.0889625027775764,-1.7395689487457275,-0.408840000629425,-1.3333699703216553,2.7263200283050537,-9.04981803894043,2.2523128986358643
1757088577024058400,1.205058349609375,0.024337500333786,-0.0963874980807304,0.0926750004291534,-1.740826964378357,-0.3877840042114258,-1.2157200574874878,2.5759730339050293,-9.122125625610352,2.141676902770996
1757088577033611500,1.214611572265625,0.0181499999016523,-0.1428624987602234,0.0974875018000602,-1.7668509483337402,-0.3638080060482025,-1.1552679538726809,2.42111611366272,-9.19508171081543,2.0277891159057617
1757088577043164700,1.22416455078125,0.0096249999478459,-0.1563374996185302,0.0974875018000602,-1.7663949728012085,-0.329582005739212,-1.1328020095825195,2.2623820304870605,-9.26862621307373,1.909870982170105
1757088577052717600,1.233717529296875,0.0048124999739229,-0.1331000030040741,0.0852499976754188,-1.7267400026321411,-0.3375509977340698,-1.163648009300232,2.1085379123687744,-9.334863662719728,1.7971080541610718
1757088577062270700,1.243270751953125,0.0010999999940395,-0.0842875018715858,0.073012501001358,-1.5913100242614746,-0.3476490080356598,-1.151764988899231,1.9596459865570068,-9.394575119018556,1.6889289617538452
1757088577071824000,1.252823974609375,-0.0037124999798834,-0.0268124993890523,0.0706750005483627,-1.3684849739074707,-0.3456810116767883,-1.1561529636383057,1.816627025604248,-9.448369979858398,1.5841890573501587
1757088577081376800,1.262376708984375,-0.0061874999664723,0.0184249989688396,0.0754875019192695,-1.1812679767608645,-0.3264890015125274,-1.1510000228881836,1.6807349920272827,-9.496586799621582,1.4819949865341189
1757088577090930200,1.27193017578125,-0.0098999999463558,0.0464750006794929,0.080437496304512,-1.0614720582962036,-0.289557009935379,-1.152948021888733,1.552968978881836,-9.539406776428224,1.3820940256118774
1757088577100483000,1.281483154296875,-0.0123749999329447,0.0697124972939491,0.0840125009417533,-0.9599930047988892,-0.2586570084095001,-1.1434780359268188,1.433974027633667,-9.57702922821045,1.2846970558166504
1757088577110036200,1.2910361328125,-0.0086624994874,0.0734250023961067,0.0840125009417533,-0.9319080114364624,-0.2237620055675506,-1.156708002090454,1.3237470388412476,-9.609819412231444,1.1899290084838867
1757088577119589600,1.300589599609375,-0.0001374999992549,0.0611874982714653,0.076724998652935,-0.9113309979438782,-0.2016440033912658,-1.1299810409545898,1.221688985824585,-9.638260841369627,1.0980679988861084
1757088577129142500,1.310142578125,0.0083875004202127,0.0439999997615814,0.0657249987125396,-0.8569309711456299,-0.240336000919342,-1.0567229986190796,1.127166986465454,-9.662823677062988,1.009477972984314
1757088577138695700,1.31969580078125,0.0170499999076128,0.0269499998539686,0.0584375001490116,-0.7641140222549438,-0.2680970132350921,-0.9168140292167664,1.039551019668579,-9.683963775634766,0.924659013748169
1757088577148248600,1.32924853515625,0.0206249989569187,0.0219999998807907,0.0547249987721443,-0.685155987739563,-0.294308990240097,-0.7708799839019775,0.958136022090912,-9.702128410339355,0.8440179824829102
1757088577157801700,1.3388017578125,0.0193875003606081,0.0281875003129243,0.0522499978542327,-0.6149010062217712,-0.3139519989490509,-0.6716669797897339,0.8821470141410828,-9.71775245666504,0.7677109837532043
1757088577167355100,1.348355224609375,0.0181499999016523,0.0342375002801418,0.048675000667572,-0.5822349786758423,-0.3770999908447265,-0.6167160272598267,0.8107420206069946,-9.73121452331543,0.6957640051841736
1757088577176908000,1.357907958984375,0.0120999999344348,0.0367125011980533,0.0499125011265277,-0.5560370087623596,-0.3855220079421997,-0.5563889741897583,0.7432690262794495,-9.742847442626951,0.6280580163002014
1757088577186461200,1.367461181640625,0.0060499999672174,0.0464750006794929,0.0559624992311,-0.5250309705734253,-0.3487479984760284,-0.5338280200958252,0.6793609857559204,-9.75293254852295,0.5641160011291504
1757088577196014000,1.37701416015625,0.0010999999940395,0.075762502849102,0.0609125010669231,-0.5345849990844727,-0.3002069890499115,-0.5490220189094543,0.6188459992408752,-9.761698722839355,0.5031599998474121
1757088577205567200,1.386567138671875,-0.0026124999858438,0.1149500012397766,0.0559624992311,-0.5498219728469849,-0.2542369961738586,-0.5251209735870361,0.5616329908370972,-9.769309997558594,0.4446699917316437
1757088577215120400,1.396120361328125,-0.0026124999858438,0.1502874940633773,0.0499125011265277,-0.5567520260810852,-0.2228340059518814,-0.543159008026123,0.5076959729194641,-9.77588176727295,0.3881770074367523
1757088577224673500,1.405673583984375,-0.0013749999925494,0.1722874939441681,0.0424874983727932,-0.5105869770050049,-0.2371419966220855,-0.5059040188789368,0.4572139978408813,-9.78149700164795,0.3335619866847992
1757088577234226400,1.415226318359375,0.002337499987334,0.1784749925136566,0.0389125011861324,-0.4440610110759735,-0.2683970034122467,-0.4592370092868805,0.4103710055351257,-9.786232948303224,0.2808490097522735
1757088577243779600,1.424779541015625,0.0035749999806284,0.1735250055789947,0.0314874984323978,-0.4054090082645416,-0.2781949937343597,-0.3789669871330261,0.3671700060367584,-9.790159225463867,0.2303619980812072
1757088577253333000,1.4343330078125,0.0035749999806284,0.1722874939441681,0.0204875003546476,-0.367834985256195,-0.2689160108566284,-0.3348509967327118,0.3273049890995025,-9.793376922607422,0.1822129935026168
1757088577262886000,1.443885986328125,0.0048124999739229,0.1747625023126602,0.0094875004142522,-0.2838029861450195,-0.25729501247406,-0.2840510010719299,0.2903099954128265,-9.79599952697754,0.1365730017423629
1757088577272439000,1.45343896484375,0.0048124999739229,0.1784749925136566,0.0009624999947845,-0.2036069929599762,-0.2384839951992035,-0.2247759997844696,0.2557930052280426,-9.798126220703123,0.0936139971017837
1757088577281992000,1.462991943359375,0.002337499987334,0.1784749925136566,-0.0015124999918043,-0.1547719985246658,-0.2316389977931976,-0.1916649937629699,0.2235070019960403,-9.79982566833496,0.0534510016441345
1757088577291545300,1.47254541015625,-0.0001374999992549,0.1747625023126602,-0.0038499999791383,-0.1626929938793182,-0.241564005613327,-0.1765120029449463,0.1930990070104599,-9.801158905029297,0.0161160007119178
1757088577301098500,1.482098388671875,0.0010999999940395,0.1699499934911728,-0.0087999999523162,-0.1832969933748245,-0.2610909938812256,-0.1644279956817627,0.1644079983234405,-9.802165031433104,-0.0182930007576942
1757088577310651400,1.4916513671875,0.002337499987334,0.1687124967575073,-0.0185624994337558,-0.2244729995727539,-0.278218001127243,-0.1190679967403411,0.1372479945421219,-9.802885055541992,-0.0496839992702007
1757088577320204500,1.50120458984375,0.0010999999940395,0.1699499934911728,-0.0295624993741512,-0.2193910032510757,-0.2929590046405792,-0.0967679992318153,0.1114759966731071,-9.803366661071776,-0.0781690031290054
1757088577329757700,1.5107578125,0.0010999999940395,0.1735250055789947,-0.0393249988555908,-0.1729589998722076,-0.2837550044059753,-0.082515001296997,0.086946003139019,-9.803661346435549,-0.1040809974074363
1757088577339310800,1.520310791015625,-0.0013749999925494,0.1759999990463256,-0.0430375002324581,-0.0948449969291687,-0.2696560025215149,-0.0308580007404088,0.0636560022830963,-9.803815841674805,-0.1276739984750747
1757088577348864000,1.529864013671875,-0.0037124999798834,0.1674750000238418,-0.0417999997735023,-0.0528770014643669,-0.2603299915790558,-0.036566000431776,0.0415400005877018,-9.803862571716309,-0.1492539942264557
1757088577358417000,1.5394169921875,-0.0086624994874,0.151525005698204,-0.038087498396635,-0.0543109998106956,-0.2342520058155059,-0.0423649996519088,0.0205310005694627,-9.803823471069336,-0.1689929962158203
1757088577367970300,1.54897021484375,-0.0098999999463558,0.1417624950408935,-0.0356125012040138,-0.0717369988560676,-0.2274239957332611,-0.0841090008616447,0.000506000011228,-9.803707122802734,-0.1872200071811676
1757088577377523200,1.558523193359375,-0.0111375004053115,0.1392875015735626,-0.038087498396635,-0.1105950027704238,-0.2446590065956115,-0.1214319989085197,-0.0187780000269413,-9.803524017333984,-0.2041279971599578
1757088577387076400,1.568076416015625,-0.0098999999463558,0.1319999992847442,-0.0393249988555908,-0.1201310008764267,-0.2835249900817871,-0.1453640013933181,-0.037346001714468,-9.803281784057615,-0.2197619974613189
1757088577396629200,1.577629150390625,-0.0061874999664723,0.116187497973442,-0.0320375002920627,-0.1343919932842254,-0.2769649922847748,-0.1540379971265792,-0.0551239997148513,-9.802984237670898,-0.2342460006475448
1757088577406182400,1.587182373046875,-0.0026124999858438,0.1137124970555305,-0.0235124994069337,-0.1350519955158233,-0.2512469887733459,-0.1392270028591156,-0.0720190033316612,-9.802640914916992,-0.2474990040063858
1757088577415735600,1.596735595703125,0.002337499987334,0.1197625026106834,-0.0197999998927116,-0.1494960039854049,-0.2183919996023178,-0.131518006324768,-0.0881579965353012,-9.802261352539062,-0.2596339881420135
1757088577425288700,1.606288818359375,0.0096249999478459,0.1197625026106834,-0.0125124994665384,-0.1343899965286255,-0.1974689960479736,-0.1031799986958503,-0.103642001748085,-9.80185890197754,-0.2707329988479614
1757088577434841900,1.615841796875,0.015812499448657,0.1174250021576881,-0.0063249999657273,-0.1071520000696182,-0.1980379968881607,-0.0803930014371872,-0.1184350028634071,-9.801435470581056,-0.2809930145740509
1757088577444394800,1.625394775390625,0.0218624994158744,0.1099999994039535,0.0034374999813735,-0.1004749983549118,-0.2080679982900619,-0.0289559997618198,-0.1325210034847259,-9.801007270812988,-0.2904210090637207
1757088577453948000,1.634947998046875,0.0268124993890523,0.1002374961972236,0.0071499999612569,-0.1239570006728172,-0.2228250056505203,0.0245510004460811,-0.146139994263649,-9.80057430267334,-0.2990280091762543
1757088577463501000,1.6445009765625,0.0291499998420476,0.0917124971747398,0.0059124999679625,-0.0805720016360282,-0.2589620053768158,0.0752400010824203,-0.1593549996614456,-9.800148963928224,-0.3068459928035736
1757088577473054200,1.65405419921875,0.0303875003010034,0.084425002336502,0.0082499999552965,-0.0127959996461868,-0.2949349880218506,0.0960439965128898,-0.1720799952745437,-9.799737930297852,-0.3139289915561676
1757088577482607400,1.663607421875,0.0268124993890523,0.0721874982118606,0.0169124994426965,0.0277730002999305,-0.2732889950275421,0.1199259981513023,-0.1841180026531219,-9.79934787750244,-0.3202509880065918
1757088577492160300,1.67316015625,0.0206249989569187,0.062424998730421,0.0290124993771314,-0.007422000169754,-0.2612600028514862,0.1035109981894493,-0.1954260021448135,-9.798982620239258,-0.3258669972419739
1757088577501713400,1.68271337890625,0.0206249989569187,0.0501874983310699,0.0339624993503093,-0.0818149968981742,-0.2446179986000061,0.0767609998583793,-0.2060299962759018,-9.798625946044922,-0.3309890031814575
1757088577511266600,1.6922666015625,0.0193875003606081,0.032999999821186,0.0339624993503093,-0.165690004825592,-0.2497089952230453,0.0582000017166137,-0.2161380052566528,-9.798274040222168,-0.3357450067996979
1757088577520819700,1.70181982421875,0.0181499999016523,0.0159499999135732,0.0279124993830919,-0.2149699926376342,-0.2430099993944168,0.0270479992032051,-0.2260079979896545,-9.797918319702148,-0.3402650058269501
1757088577530372600,1.71137255859375,0.0181499999016523,0.0061874999664723,0.0204875003546476,-0.245070993900299,-0.2556119859218597,0.004412000067532,-0.2359749972820282,-9.797542572021484,-0.3447819948196411
1757088577539925800,1.72092578125,0.015812499448657,0.0111375004053115,0.0119624994695186,-0.2207220047712326,-0.2658570110797882,-0.0149720003828406,-0.2461390048265457,-9.79714584350586,-0.3493340015411377
1757088577549479200,1.730479248046875,0.015812499448657,0.0208999998867511,0.0107249999418854,-0.1704339981079101,-0.2568730115890503,-0.0152070000767707,-0.2563750147819519,-9.79673194885254,-0.3539240062236786
1757088577559032000,1.740031982421875,0.015812499448657,0.0244750007987022,0.0156750008463859,-0.1392379999160766,-0.259782999753952,-0.0109320003539323,-0.266526997089386,-9.79631233215332,-0.3584209978580475
1757088577568585200,1.749585205078125,0.015812499448657,0.017187500372529,0.0217249989509582,-0.1533450037240982,-0.2627100050449371,-0.0114089995622634,-0.2764810025691986,-9.795888900756836,-0.3627249896526336
1757088577578138000,1.75913818359375,0.0181499999016523,0.0061874999664723,0.0217249989509582,-0.2028629928827285,-0.2537809908390045,-0.0025410000234842,-0.2863509953022003,-9.79546070098877,-0.3667530119419098
1757088577587691300,1.768691162109375,0.0206249989569187,-0.0072874999605119,0.0144375003874301,-0.228643998503685,-0.2522079944610595,-0.0255469996482133,-0.2962430119514465,-9.79502296447754,-0.3705439865589142
1757088577597244700,1.77824462890625,0.0218624994158744,-0.015812499448657,0.0059124999679625,-0.1933979988098144,-0.2362670004367828,-0.0312619991600513,-0.3061360120773315,-9.794574737548828,-0.3741469979286194
1757088577606797600,1.787797607421875,0.0255750007927417,-0.0195249989628791,0.004674999974668,-0.1261059939861297,-0.2298060059547424,-0.0430650003254413,-0.3158049881458282,-9.794122695922852,-0.3776119947433471
1757088577616350700,1.797350830078125,0.0268124993890523,-0.024337500333786,0.0094875004142522,-0.1037169992923736,-0.2208359986543655,-0.020151000469923,-0.3252399861812591,-9.79367446899414,-0.3809249997138977
1757088577625903900,1.80690380859375,0.0280499998480081,-0.0255750007927417,0.0094875004142522,-0.123269997537136,-0.2190220057964325,0.017417000606656,-0.3346090018749237,-9.793222427368164,-0.3840200006961822
1757088577645010000,1.826010009765625,0.0268124993890523,-0.0280499998480081,0.0119624994695186,-0.0580749996006488,-0.2437559962272644,0.0466389991343021,-0.3529430031776428,-9.79232406616211,-0.3898740112781524
1757088577654563000,1.83556298828125,0.0230999998748302,-0.0206249989569187,0.0169124994426965,-0.0334779992699623,-0.253396987915039,0.1047820001840591,-0.36176198720932,-9.79188346862793,-0.3926680088043213
1757088577664116200,1.8451162109375,0.015812499448657,-0.0060499999672174,0.0192499998956918,-0.0375589989125728,-0.2557919919490814,0.1182300001382827,-0.3705799877643585,-9.791447639465332,-0.3953340053558349
1757088577673669000,1.854669189453125,0.0108624994754791,0.0049499999731779,0.0181499999016523,-0.0344749987125396,-0.2557899951934814,0.1100760027766227,-0.3795590102672577,-9.79100513458252,-0.397953987121582
1757088577683222500,1.864222412109375,0.0083875004202127,0.0037124999798834,0.0156750008463859,-0.0426359996199607,-0.2510850131511688,0.086336001753807,-0.3886919915676117,-9.790555953979492,-0.4005669951438904
1757088577692775400,1.873775390625,0.0048124999739229,-0.0048124999739229,0.0119624994695186,-0.0206460002809762,-0.2488220036029815,0.0455380007624626,-0.3977360129356384,-9.790105819702148,-0.4031960070133209
1757088577702328600,1.88332861328125,0.0048124999739229,-0.0108624994754791,0.0082499999552965,0.002767999889329,-0.2178130000829696,0.0342379994690418,-0.4063990116119385,-9.789667129516602,-0.4058290123939514
1757088577711881500,1.892881591796875,0.0035749999806284,-0.0120999999344348,0.004674999974668,0.0365439988672733,-0.2011750042438507,0.000901999999769,-0.4144249856472015,-9.789243698120115,-0.4084720015525818
1757088577721434600,1.9024345703125,0.0035749999806284,-0.0120999999344348,0.0034374999813735,0.0934659987688064,-0.1653070002794265,-0.0259479992091655,-0.4215359985828399,-9.788850784301758,-0.4111439883708954
1757088577730987800,1.91198779296875,0.0010999999940395,-0.0133375003933906,0.0059124999679625,0.1288940012454986,-0.1485989987850189,-0.0717960000038147,-0.4276430010795593,-9.788488388061523,-0.4139289855957031
1757088577740541000,1.921541015625,0.0010999999940395,-0.0195249989628791,0.0107249999418854,0.1549949944019317,-0.1845279932022094,-0.0925469994544982,-0.4327819943428039,-9.78815460205078,-0.4168860018253326
1757088577750093800,1.93109375,-0.0001374999992549,-0.0340999998152256,0.0156750008463859,0.1179929971694946,-0.2421620041131973,-0.1259389966726303,-0.4371429979801178,-9.787837982177734,-0.4201140105724334
1757088577759647200,1.940647216796875,-0.0001374999992549,-0.0548624992370605,0.0169124994426965,0.0442259982228279,-0.3287799954414367,-0.1509079933166504,-0.4409169852733612,-9.78752613067627,-0.4236739873886108
1757088577769200400,1.950200439453125,0.0060499999672174,-0.0646250024437904,0.0094875004142522,-0.0317699983716011,-0.3918060064315796,-0.1854449957609176,-0.4442040026187897,-9.78721046447754,-0.4276970028877258
1757088577778753300,1.959753173828125,0.0083875004202127,-0.0548624992370605,-0.0015124999918043,-0.0686499997973442,-0.4142229855060577,-0.159168004989624,-0.4470559954643249,-9.786890029907228,-0.4320299923419952
1757088577788306400,1.969306396484375,0.0096249999478459,-0.0195249989628791,-0.0148499999195337,-0.0160939991474151,-0.40556201338768,-0.1931879967451095,-0.4494560062885284,-9.786566734313965,-0.4367429912090301
1757088577797859600,1.978859619140625,0.0133375003933906,0.0208999998867511,-0.0148499999195337,0.1334560066461563,-0.320042997598648,-0.2248290032148361,-0.4511809945106506,-9.78624439239502,-0.4419009983539581
1757088577807412700,1.988412841796875,0.015812499448657,0.0489500015974044,-0.0050874999724328,0.2243330031633377,-0.205715999007225,-0.2676810026168823,-0.4520210027694702,-9.785923957824709,-0.447721004486084
1757088577816966000,1.9979658203125,0.0218624994158744,0.0549999997019767,0.0071499999612569,0.2887040078639984,-0.1607829928398132,-0.2915529906749725,-0.4516699910163879,-9.785603523254396,-0.4544200003147125
1757088577826518800,2.007518798828125,0.0291499998420476,0.0367125011980533,0.0192499998956918,0.2646349966526031,-0.1374080032110214,-0.2567220032215118,-0.4502170085906982,-9.7852783203125,-0.4619849920272827
1757088577836072000,2.017072021484375,0.0353375002741813,0.0122375003993511,0.0254375003278255,0.1982789933681488,-0.1546950042247772,-0.1825989931821823,-0.4479509890079498,-9.784942626953123,-0.4702759981155395
1757088577845625000,2.026625,0.0413874983787536,-0.0035749999806284,0.0241999998688697,0.1491869986057281,-0.2006130069494247,-0.1054290011525154,-0.4451130032539367,-9.784588813781738,-0.4792779982089996
1757088577855178200,2.03617822265625,0.0463375002145767,-0.0120999999344348,0.0192499998956918,0.1009059995412826,-0.2630780041217804,-0.0029420000500977,-0.4418599903583526,-9.784223556518556,-0.4887830018997192
1757088577864731100,2.045731201171875,0.0450999997556209,-0.0120999999344348,0.0192499998956918,0.0914229974150657,-0.31318399310112,0.1026090011000633,-0.4382190108299255,-9.783868789672852,-0.4984650015830993
1757088577874284300,2.0552841796875,0.0390499979257583,0.0001374999992549,0.0204875003546476,0.0597519986331462,-0.3511790037155151,0.1473069936037063,-0.4342400133609772,-9.783533096313477,-0.5080980062484741
1757088577883837200,2.064837158203125,0.0303875003010034,0.0196624994277954,0.0254375003278255,0.0294989999383687,-0.3483720123767853,0.1750919967889785,-0.4300430119037628,-9.78322410583496,-0.5174490213394165
1757088577893390600,2.074390625,0.024337500333786,0.0391874983906745,0.0314874984323978,-0.0334019996225833,-0.3218609988689422,0.1329050064086914,-0.4258410036563873,-9.782930374145508,-0.5265719890594482
1757088577902943700,2.08394384765625,0.015812499448657,0.0514249987900257,0.0364375002682209,-0.0840810015797615,-0.2906759977340698,0.1171640008687973,-0.4218440055847168,-9.782644271850586,-0.5353779792785645
1757088577912496600,2.09349658203125,0.0108624994754791,0.0647625029087066,0.0351999998092651,-0.1067849993705749,-0.2524940073490143,0.0770199969410896,-0.4182960093021393,-9.782355308532717,-0.543878972530365
1757088577922049800,2.1030498046875,0.0108624994754791,0.0819500014185905,0.0266750007867813,-0.0933680012822151,-0.2311840057373047,0.0504139997065067,-0.4153240025043487,-9.78205680847168,-0.5520250201225281
1757088577931603000,2.11260302734375,0.0108624994754791,0.0929500013589859,0.0181499999016523,-0.0572439990937709,-0.2337860018014907,0.0433260016143322,-0.4129720032215118,-9.78174877166748,-0.5597760081291199
1757088577941156000,2.122156005859375,0.0096249999478459,0.0965249985456466,0.0094875004142522,-0.0087810000404715,-0.241126999258995,0.0319599993526935,-0.4110629856586456,-9.781441688537598,-0.5670729875564575
1757088577950709000,2.131708984375,0.0108624994754791,0.0892374962568283,0.0059124999679625,0.0349799990653991,-0.2531369924545288,0.0416800007224082,-0.4092839956283569,-9.781153678894045,-0.5738289952278137
1757088577960262100,2.14126220703125,0.0096249999478459,0.075762502849102,0.002199999988079,0.0155050000175833,-0.2651230096817016,0.062058001756668,-0.4074569940567016,-9.78090476989746,-0.5798590183258057
1757088577969815300,2.150815185546875,0.0096249999478459,0.0611874982714653,-0.0027499999850988,-0.0092799998819828,-0.2580330073833465,0.0632840022444725,-0.4055179953575134,-9.78069305419922,-0.5852349996566772
1757088577979368200,2.1603681640625,0.0096249999478459,0.0464750006794929,-0.0063249999657273,-0.0233720000833272,-0.2532989978790283,0.0893739983439445,-0.4035969972610473,-9.780525207519531,-0.5897859930992126
1757088577988921600,2.169921630859375,0.0096249999478459,0.0404249988496303,-0.0125124994665384,-0.020270999521017,-0.2318010032176971,0.0982630029320716,-0.4021359980106354,-9.780387878417969,-0.5933709740638733
1757088577998474500,2.179474609375,0.0096249999478459,0.0416624993085861,-0.0210375003516674,-0.0120059996843338,-0.2246440052986145,0.111185997724533,-0.4014529883861542,-9.780279159545898,-0.5957940220832825
1757088578008027600,2.189027587890625,0.0083875004202127,0.0514249987900257,-0.0270875003188848,0.0462020002305507,-0.1934770047664642,0.0961970016360282,-0.4016579985618591,-9.780200958251951,-0.5969849824905396
1757088578017580500,2.19858056640625,0.0060499999672174,0.062424998730421,-0.025849999859929,0.0874890014529228,-0.2077829986810684,0.0636549964547157,-0.4026170074939728,-9.780153274536133,-0.5970820188522339
1757088578027133700,2.2081337890625,0.0048124999739229,0.0697124972939491,-0.0246124994009733,0.0969230011105537,-0.2461349964141845,0.0213719997555017,-0.4041340053081512,-9.780131340026855,-0.5963860154151917
1757088578036686800,2.217686767578125,0.0035749999806284,0.0684750005602836,-0.0222750008106231,0.1054589971899986,-0.3157379925251007,-0.0324620008468627,-0.4060179889202118,-9.780120849609377,-0.5952460169792175
1757088578046240000,2.227239990234375,0.0035749999806284,0.062424998730421,-0.0173249989748001,0.1084090024232864,-0.3686800003051758,-0.0721760019659996,-0.4080690145492553,-9.780106544494627,-0.5940589904785156
1757088578055793200,2.236793212890625,0.0048124999739229,0.0599500015377998,-0.0148499999195337,0.1086530014872551,-0.3881640136241913,-0.0915609970688819,-0.4102469980716705,-9.780070304870604,-0.5932090282440186
1757088578065346300,2.24634619140625,0.0096249999478459,0.0599500015377998,-0.0160875003784894,0.1023110002279281,-0.3358550071716308,-0.0820880010724067,-0.4124949872493744,-9.779998779296877,-0.5928729772567749
1757088578074899500,2.2558994140625,0.0170499999076128,0.0611874982714653,-0.0160875003784894,0.1077779978513717,-0.2548089921474457,-0.063118003308773,-0.4147329926490783,-9.779888153076172,-0.5931730270385742
1757088578084452400,2.265452392578125,0.0230999998748302,0.062424998730421,-0.0112749999389052,0.1600479930639267,-0.1951369941234588,-0.0398960001766681,-0.4166240096092224,-9.779759407043455,-0.5939909815788269
1757088578094005500,2.275005615234375,0.0280499998480081,0.0647625029087066,0.002199999988079,0.2059140056371688,-0.1663359999656677,-0.0061209998093545,-0.4178360104560852,-9.77963161468506,-0.5952489972114563
1757088578113111800,2.29411181640625,0.0303875003010034,0.075762502849102,0.0279124993830919,0.1675329953432083,-0.2305600047111511,0.0116020003333687,-0.4178949892520904,-9.779436111450195,-0.5983399748802185
1757088578122664700,2.303664794921875,0.0303875003010034,0.0856624990701675,0.0339624993503093,0.133201003074646,-0.2519420087337494,0.0378200002014637,-0.4168820083141327,-9.77936553955078,-0.6000990271568298
1757088578132217900,2.3132177734375,0.0328624993562698,0.084425002336502,0.0376750007271766,0.0800660029053688,-0.2756989896297455,0.0740310028195381,-0.415459007024765,-9.779314041137695,-0.6018440127372742
1757088578141770800,2.322770751953125,0.0328624993562698,0.0769999995827674,0.0364375002682209,0.0118329999968409,-0.3018569946289062,0.1126890033483505,-0.4139420092105865,-9.779272079467772,-0.6034790277481079
1757088578151324200,2.33232421875,0.0291499998420476,0.062424998730421,0.0302499998360872,-0.0679820030927658,-0.3161219954490661,0.1398150026798248,-0.4125210046768188,-9.77923583984375,-0.6049720048904419
1757088578160877300,2.341877197265625,0.0255750007927417,0.0477125011384487,0.0241999998688697,-0.1134739965200424,-0.3089540004730224,0.1380189955234527,-0.4112620055675506,-9.779203414916992,-0.606315016746521
1757088578170430200,2.35143017578125,0.0218624994158744,0.0391874983906745,0.0181499999016523,-0.1468269973993301,-0.2898649871349334,0.1496219933032989,-0.4102370142936706,-9.77917194366455,-0.6075320243835449
1757088578179983400,2.3609833984375,0.0193875003606081,0.0416624993085861,0.0156750008463859,-0.1283479928970337,-0.2922419905662536,0.1603329926729202,-0.4093819856643677,-9.779142379760742,-0.6086000204086304
1757088578189536500,2.37053662109375,0.015812499448657,0.0514249987900257,0.0131999999284744,-0.1151309981942176,-0.2851020097732544,0.1361660063266754,-0.4086549878120422,-9.779112815856934,-0.6096100211143494
1757088578199089700,2.380089599609375,0.0133375003933906,0.0636624991893768,0.0082499999552965,-0.0929900035262107,-0.2492370009422302,0.1267230063676834,-0.408160001039505,-9.77907943725586,-0.6105369925498962
1757088578208642600,2.389642578125,0.0083875004202127,0.075762502849102,0.0059124999679625,-0.05146000161767,-0.251693993806839,0.0879039987921714,-0.4079169929027557,-9.779037475585938,-0.611391007900238
1757088578218195700,2.39919580078125,0.0096249999478459,0.075762502849102,0.002199999988079,-0.0322909988462924,-0.261355996131897,0.0762019976973533,-0.4079209864139557,-9.7789945602417,-0.6120970249176025
1757088578227748600,2.40874853515625,0.0108624994754791,0.0684750005602836,-0.0038499999791383,-0.047580000013113,-0.2638559937477112,0.0901520028710365,-0.4082899987697601,-9.778955459594728,-0.6124809980392456
1757088578237302300,2.41830224609375,0.0108624994754791,0.0562375001609325,-0.0148499999195337,-0.0452219992876052,-0.256767988204956,0.1079099997878074,-0.4091080129146576,-9.778924942016602,-0.6123870015144348
1757088578246855200,2.427855224609375,0.0096249999478459,0.0391874983906745,-0.0222750008106231,-0.0063060000538825,-0.2807280123233795,0.1064869984984397,-0.410302996635437,-9.77890968322754,-0.6117550134658813
1757088578256408000,2.437407958984375,0.0096249999478459,0.0244750007987022,-0.025849999859929,0.0284230001270771,-0.2830010056495666,0.1255529969930648,-0.4117560088634491,-9.778918266296388,-0.6105250120162964
1757088578265961200,2.446961181640625,0.0083875004202127,0.0147124994546175,-0.025849999859929,0.0634069964289665,-0.2899509966373443,0.1276440024375915,-0.4133689999580383,-9.77895736694336,-0.6086900234222412
1757088578275514000,2.45651416015625,0.0048124999739229,0.0159499999135732,-0.0246124994009733,0.0737129971385002,-0.292044997215271,0.1315290033817291,-0.4152770042419433,-9.779020309448242,-0.6062480211257935
1757088578285067300,2.4660673828125,0.0010999999940395,0.0184249989688396,-0.0235124994069337,0.0923649966716766,-0.2989189922809601,0.1122189983725547,-0.4176200032234192,-9.779095649719238,-0.603305995464325
1757088578294620700,2.47562060546875,-0.0013749999925494,0.0147124994546175,-0.0197999998927116,0.0847259983420372,-0.3012180030345917,0.0462770015001297,-0.420428991317749,-9.779159545898438,-0.6002089977264404
1757088578304173600,2.485173583984375,-0.0013749999925494,0.0049499999731779,-0.0160875003784894,0.0704009979963302,-0.2631109952926636,-0.0316670015454292,-0.4237129986286163,-9.779208183288574,-0.5970879793167114
1757088578313726700,2.494726806640625,0.002337499987334,-0.0072874999605119,-0.0160875003784894,0.045533001422882,-0.2468290030956268,-0.084476001560688,-0.4274699985980987,-9.779224395751951,-0.5942050218582153
1757088578323280000,2.50427978515625,0.0072874999605119,-0.0218624994158744,-0.0148499999195337,0.0466980002820491,-0.2522389888763428,-0.1180220022797584,-0.431547999382019,-9.779200553894045,-0.5917850136756897
1757088578332833000,2.5138330078125,0.0120999999344348,-0.0268124993890523,-0.010037500411272,0.065430998802185,-0.2360399961471557,-0.1107280030846595,-0.4356650114059448,-9.779138565063477,-0.5899519920349121
1757088578342386000,2.523385986328125,0.0145749999210238,-0.0182875003665685,-0.0038499999791383,0.057728998363018,-0.2387399971485138,-0.0358490012586116,-0.4395560026168823,-9.779058456420898,-0.5885909795761108
1757088578351939000,2.53293896484375,0.0133375003933906,0.0049499999731779,0.002199999988079,0.063580997288227,-0.2411530017852783,0.0300990007817745,-0.4430220127105713,-9.778976440429688,-0.5875049829483032
1757088578361492000,2.542491943359375,0.0120999999344348,0.032999999821186,0.0082499999552965,0.0619289986789226,-0.2362090051174163,0.069533996284008,-0.445917010307312,-9.778905868530272,-0.5866129994392395
1757088578371045000,2.552045166015625,0.0083875004202127,0.0501874983310699,0.0119624994695186,0.030706999823451,-0.2503780126571655,0.092738002538681,-0.4483630061149597,-9.778843879699709,-0.5858669877052307
1757088578380598300,2.561598388671875,0.0060499999672174,0.0514249987900257,0.0082499999552965,-0.0007179999956861,-0.2599900066852569,0.0533399991691112,-0.4504930078983307,-9.778782844543455,-0.5853170156478882
1757088578390151400,2.5711513671875,0.0048124999739229,0.0318999998271465,0.004674999974668,-0.0052820001728832,-0.2554129958152771,0.0093369996175169,-0.4523639976978302,-9.77871322631836,-0.5850740075111389
1757088578399704300,2.580704345703125,0.0048124999739229,0.0111375004053115,0.002199999988079,0.0108080003410577,-0.2724550068378448,-0.0208769999444484,-0.4540410041809082,-9.778632164001465,-0.5851420164108276
1757088578409257500,2.590257568359375,0.0060499999672174,-0.0010999999940395,0.0034374999813735,0.037126000970602,-0.270236998796463,-0.0107979997992515,-0.4554769992828369,-9.778547286987305,-0.5854610204696655
1757088578418810400,2.599810302734375,0.0072874999605119,-0.0072874999605119,0.004674999974668,0.0188580006361007,-0.2775309979915619,0.0214399993419647,-0.4566439986228943,-9.77846336364746,-0.5859760046005249
1757088578428363800,2.60936376953125,0.0048124999739229,-0.0060499999672174,0.004674999974668,-0.0209800004959106,-0.270577996969223,0.0154870003461837,-0.4576160013675689,-9.778369903564451,-0.5867419838905334
1757088578437917000,2.6189169921875,0.0035749999806284,-0.0035749999806284,0.0009624999947845,-0.0446689985692501,-0.2660959959030151,0.0165309999138116,-0.4585720002651214,-9.778263092041016,-0.5877509713172913
1757088578447469800,2.6284697265625,0.0048124999739229,0.0024749999865889,-0.0027499999850988,-0.044039998203516,-0.2592599987983703,0.0131010003387928,-0.4596169888973236,-9.778132438659668,-0.5890719890594482
1757088578457023000,2.63802294921875,0.0072874999605119,0.0061874999664723,-0.0050874999724328,-0.0296490006148815,-0.2643330097198486,0.0258809998631477,-0.4608300030231476,-9.77797794342041,-0.5906879901885986
1757088578466576100,2.647576171875,0.0083875004202127,0.0001374999992549,-0.0050874999724328,-0.007054999936372,-0.2622309923171997,0.0087069999426603,-0.4621790051460266,-9.777792930603027,-0.5926870107650757
1757088578476129300,2.65712939453125,0.0072874999605119,-0.0035749999806284,-0.0015124999918043,0.0275330003350973,-0.2407100051641464,0.0489830002188682,-0.4636059999465942,-9.777589797973633,-0.5949119925498962
1757088578485682200,2.66668212890625,0.0048124999739229,0.0024749999865889,-0.0002749999985098,0.0737050026655197,-0.2261549979448318,0.0664559975266456,-0.4649710059165954,-9.777393341064451,-0.5971189737319946
1757088578495235300,2.6762353515625,0.0048124999739229,0.0111375004053115,0.0009624999947845,0.0945940017700195,-0.2402070015668869,0.0806119963526725,-0.4661799967288971,-9.7772216796875,-0.5990210175514221
1757088578504788200,2.685788330078125,0.0035749999806284,0.0086624994874,0.002199999988079,0.0757479965686798,-0.2424319982528686,0.0531740002334117,-0.4672119915485382,-9.777082443237305,-0.6005169749259949
1757088578514341600,2.695341552734375,0.0035749999806284,-0.0097624994814395,0.002199999988079,0.0623130016028881,-0.2662729918956756,0.0430970005691051,-0.4681130051612854,-9.776979446411133,-0.6015099883079529
1757088578523894800,2.704894775390625,0.0048124999739229,-0.031624998897314,0.002199999988079,0.0472079999744892,-0.2782390117645263,0.0292310006916522,-0.4689970016479492,-9.776905059814451,-0.6020429730415344
1757088578533447700,2.71444775390625,0.0048124999739229,-0.0426249988377094,0.0034374999813735,0.0191719997674226,-0.2879129946231842,0.0206700004637241,-0.4699420034885406,-9.776841163635254,-0.6023550033569336
1757088578543000800,2.724000732421875,0.0060499999672174,-0.0365750007331371,0.002199999988079,0.0041669998317956,-0.2808580100536346,0.0285170003771781,-0.4710420072078705,-9.77677059173584,-0.6026350259780884
1757088578552554200,2.73355419921875,0.0048124999739229,-0.0206249989569187,-0.0002749999985098,0.0061240000650286,-0.2881210148334503,0.0402369983494281,-0.4723219871520996,-9.776689529418944,-0.6029660105705261
1757088578562107100,2.743107177734375,0.002337499987334,0.0001374999992549,-0.0015124999918043,0.0444269999861717,-0.2689419984817505,0.0374789983034133,-0.4736070036888122,-9.776598930358888,-0.6034349799156189
1757088578571660000,2.752659912109375,-0.0001374999992549,0.0147124994546175,0.0009624999947845,0.0963210016489029,-0.2425259947776794,0.0075400001369416,-0.4746280014514923,-9.776515007019045,-0.6040189862251282
1757088578581213200,2.762213134765625,-0.0037124999798834,0.0184249989688396,0.0082499999552965,0.1039730012416839,-0.2353290021419525,-0.0323639996349811,-0.4753020107746124,-9.77644157409668,-0.604686975479126
1757088578590766300,2.771766357421875,-0.0061874999664723,0.017187500372529,0.0119624994695186,0.1063679978251457,-0.213805004954338,-0.0498410016298294,-0.4756509959697723,-9.77638053894043,-0.6053940057754517
1757088578600319500,2.781319580078125,-0.0026124999858438,0.0086624994874,0.0144375003874301,0.1015549972653389,-0.2187480032444,-0.077284000813961,-0.4757589995861053,-9.776322364807127,-0.6062589883804321
1757088578609872400,2.790872314453125,-0.0013749999925494,-0.0048124999739229,0.0144375003874301,0.0743089988827705,-0.2308830022811889,-0.0578659996390342,-0.4756590127944946,-9.776259422302246,-0.6073219776153564
1757088578619425500,2.800425537109375,0.0035749999806284,-0.0206249989569187,0.0119624994695186,0.0373909994959831,-0.245398998260498,-0.0164620000869035,-0.4753449857234955,-9.776201248168944,-0.6084780097007751
1757088578628978400,2.809978515625,0.0083875004202127,-0.0280499998480081,0.0059124999679625,0.0030420001130551,-0.2550800144672394,0.0366429984569549,-0.4748579859733581,-9.776152610778809,-0.6096029877662659
1757088578638531600,2.819531494140625,0.0072874999605119,-0.0218624994158744,-0.0015124999918043,-0.001585999969393,-0.2742629945278168,0.0639759972691536,-0.4742270112037658,-9.776121139526367,-0.6105909943580627
1757088578648085000,2.8290849609375,0.0048124999739229,-0.0010999999940395,-0.0050874999724328,0.0171019993722438,-0.2789959907531738,0.0736270025372505,-0.4734520018100738,-9.776105880737305,-0.6114220023155212
1757088578657638000,2.838637939453125,0.0010999999940395,0.0208999998867511,-0.0027499999850988,0.0369150005280971,-0.2765159904956817,0.0574380010366439,-0.4725379943847656,-9.77610969543457,-0.6120629906654358
1757088578667191000,2.84819091796875,-0.0026124999858438,0.0318999998271465,0.002199999988079,0.0416620001196861,-0.2740800082683563,0.0304610002785921,-0.4715679883956909,-9.776117324829102,-0.6126930117607117
1757088578676744200,2.857744140625,-0.0037124999798834,0.0367125011980533,0.0082499999552965,0.0433200001716613,-0.281262993812561,0.0070839999243617,-0.4706479907035827,-9.776116371154783,-0.6134349703788757
1757088578686297300,2.86729736328125,-0.0026124999858438,0.0379500016570091,0.0094875004142522,0.0425169989466667,-0.2812660038471222,0.0077249999158084,-0.4698399901390075,-9.776098251342772,-0.6143400073051453
1757088578695850200,2.876850341796875,-0.0001374999992549,0.0342375002801418,0.0034374999813735,0.0378159992396831,-0.2692449986934662,0.0380069985985755,-0.4691399931907654,-9.77607536315918,-0.615257978439331
1757088578705403400,2.8864033203125,0.0010999999940395,0.0196624994277954,-0.0002749999985098,0.0539759993553161,-0.2714189887046814,0.0780799984931945,-0.4684840142726898,-9.776057243347168,-0.6160489916801453
1757088578714956300,2.895956298828125,0.0010999999940395,0.0024749999865889,-0.0015124999918043,0.0737819969654083,-0.2662479877471924,0.1092299968004226,-0.4677770137786865,-9.776057243347168,-0.6165770292282104
1757088578724509700,2.905509765625,-0.0001374999992549,-0.002337499987334,-0.0027499999850988,0.0745079964399337,-0.2562150061130523,0.1295350044965744,-0.4669530093669891,-9.776086807250977,-0.6167529821395874
1757088578734062800,2.915062744140625,-0.0013749999925494,0.0074249999597668,-0.0027499999850988,0.0933270007371902,-0.2557420134544372,0.1191650032997131,-0.4659039974212646,-9.77614402770996,-0.6166170239448547
1757088578743615700,2.92461572265625,-0.0037124999798834,0.0159499999135732,0.0009624999947845,0.0972340032458305,-0.257658988237381,0.1091030016541481,-0.4645929932594299,-9.776230812072754,-0.6162289977073669
1757088578753169000,2.9341689453125,-0.0049499999731779,0.0086624994874,0.004674999974668,0.0597999989986419,-0.2742570042610168,0.0429480001330375,-0.4632070064544678,-9.776323318481444,-0.6157839894294739
1757088578762721800,2.9437216796875,-0.0037124999798834,-0.0060499999672174,0.004674999974668,0.0289030000567436,-0.2670829892158508,0.0213670004159212,-0.461991012096405,-9.776412010192873,-0.6152780055999756
1757088578781828000,2.962828125,-0.0001374999992549,-0.0145749999210238,0.0009624999947845,0.0479619987308979,-0.2813819944858551,0.0442800000309944,-0.4602519869804382,-9.776593208312988,-0.6136919856071472
1757088578791381200,2.97238134765625,-0.0013749999925494,-0.0133375003933906,0.0009624999947845,0.072282001376152,-0.2668099999427795,0.0568000003695488,-0.4596259891986847,-9.776703834533691,-0.6123759746551514
1757088578800934100,2.98193408203125,-0.0013749999925494,-0.015812499448657,0.002199999988079,0.05214099958539,-0.2762059867382049,0.064079999923706,-0.4591160118579864,-9.77683162689209,-0.610692024230957
1757088578810487600,2.991487548828125,-0.0037124999798834,-0.015812499448657,-0.0015124999918043,0.0222190003842115,-0.2521679997444153,0.0640079975128173,-0.4587169885635376,-9.776971817016602,-0.6087290048599243
1757088578820040400,3.00104052734375,-0.0026124999858438,-0.015812499448657,-0.0038499999791383,0.0303499996662139,-0.2568660080432892,0.061779998242855,-0.4582870006561279,-9.777121543884276,-0.6066340208053589
1757088578829593600,3.010593505859375,-0.0049499999731779,-0.0120999999344348,-0.0075624999590218,0.0745050013065338,-0.2806279957294464,0.0525849983096122,-0.4576619863510132,-9.77728271484375,-0.6045089960098267
1757088578839146500,3.020146484375,-0.0086624994874,-0.0120999999344348,-0.0075624999590218,0.0890600010752677,-0.2805590033531189,0.0028619999065995,-0.4568299949169159,-9.77744483947754,-0.6025270223617554
1757088578848699600,3.02969970703125,-0.0086624994874,-0.0206249989569187,-0.0087999999523162,0.0712419971823692,-0.2640199959278106,-0.0620950013399124,-0.4559130072593689,-9.777589797973633,-0.6008599996566772
1757088578858252800,3.039252685546875,-0.0026124999858438,-0.0340999998152256,-0.0087999999523162,0.0724579989910125,-0.2475749999284744,-0.0775310024619102,-0.4549390077590942,-9.777718544006348,-0.5995299816131592
1757088578867806000,3.048805908203125,0.0010999999940395,-0.0402874983847141,-0.0075624999590218,0.1028830036520958,-0.2215130031108856,-0.0803370028734207,-0.4538469910621643,-9.777833938598633,-0.5985109806060791
1757088578877359000,3.058359130859375,0.0048124999739229,-0.0390499979257583,-0.0050874999724328,0.1110529974102974,-0.216836005449295,-0.0374270007014274,-0.4526050090789795,-9.77794361114502,-0.5976899862289429
1757088578886912000,3.067912109375,0.0072874999605119,-0.0292875003069639,-0.0027499999850988,0.0914729982614517,-0.2191590070724487,0.0281150005757808,-0.4512169957160949,-9.778053283691406,-0.5969560146331787
1757088578896465000,3.07746484375,0.0060499999672174,-0.0145749999210238,-0.0027499999850988,0.0933390036225318,-0.2619439959526062,0.0874280035495758,-0.4497140049934387,-9.778167724609377,-0.5962259769439697
1757088578906018000,3.08701806640625,0.0035749999806284,-0.0085249999538064,-0.0038499999791383,0.0906959995627403,-0.2784540057182312,0.068521998822689,-0.4481649994850158,-9.778274536132812,-0.5956270098686218
1757088578915571200,3.0965712890625,0.002337499987334,-0.0182875003665685,-0.0027499999850988,0.0970750004053115,-0.273512989282608,0.0347819998860359,-0.4465399980545044,-9.77836799621582,-0.5953189730644226
1757088578925124400,3.106124267578125,0.0048124999739229,-0.0390499979257583,-0.0002749999985098,0.0756699964404106,-0.2471790015697479,0.0100959995761513,-0.444938987493515,-9.778436660766602,-0.5953729748725891
1757088578934677500,3.115677490234375,0.0048124999739229,-0.0548624992370605,-0.0015124999918043,0.0622849985957145,-0.2352810055017471,0.0027109999209642,-0.4434309899806976,-9.778478622436523,-0.5957990288734436
1757088578944230700,3.125230712890625,0.0060499999672174,-0.0598125010728836,-0.0015124999918043,0.027030000463128,-0.2282319962978363,0.0139709999784827,-0.4420320093631744,-9.778505325317385,-0.5963860154151917
1757088578953783800,3.13478369140625,0.0083875004202127,-0.0500499978661537,-0.0050874999724328,0.0325380004942417,-0.2427289932966232,0.0179590005427598,-0.4406569898128509,-9.778525352478027,-0.5970529913902283
1757088578972889900,3.153889892578125,0.0060499999672174,-0.0365750007331371,0.0082499999552965,0.0725909993052482,-0.280921995639801,0.0175059996545314,-0.4374920129776001,-9.778573989868164,-0.5985749959945679
1757088578982442800,3.16344287109375,0.0035749999806284,-0.0340999998152256,0.0107249999418854,0.0311169996857643,-0.2856639921665191,0.0364510007202625,-0.435912013053894,-9.778589248657228,-0.5994729995727539
1757088578991996000,3.172995849609375,0.002337499987334,-0.0255750007927417,0.0071499999612569,0.005917000118643,-0.2809619903564453,0.0202859994024038,-0.4344390034675598,-9.778589248657228,-0.6005150079727173
1757088579001549000,3.182549072265625,-0.0001374999992549,-0.015812499448657,0.0009624999947845,0.0143860001116991,-0.2858889997005462,0.0024719999637454,-0.4329699873924255,-9.778578758239746,-0.601747989654541
1757088579011102200,3.192102294921875,-0.0026124999858438,-0.0108624994754791,-0.0027499999850988,0.0272400006651878,-0.300379991531372,-0.0033430000767111,-0.4314979910850525,-9.778558731079102,-0.6031609773635864
1757088579020655000,3.201655029296875,-0.0074249999597668,-0.0085249999538064,-0.0027499999850988,0.0574869997799396,-0.2956309914588928,-0.0092850001528859,-0.4300479888916015,-9.77852725982666,-0.6047359704971313
1757088579030208300,3.211208251953125,-0.0123749999329447,-0.0060499999672174,-0.0038499999791383,0.0658420026302337,-0.2884669899940491,-0.0153400003910064,-0.4286479949951172,-9.77849006652832,-0.6063399910926819
1757088579039761700,3.22076171875,-0.0147124994546175,0.0001374999992549,-0.0087999999523162,0.0900859981775283,-0.2669599950313568,-0.034800998866558,-0.4271959960460663,-9.77846336364746,-0.607824981212616
1757088579049314600,3.230314453125,-0.0159499999135732,0.0086624994874,-0.0125124994665384,0.0908010005950927,-0.2432010024785995,-0.0690660029649734,-0.4257189929485321,-9.7784423828125,-0.6092060208320618
1757088579058867700,3.23986767578125,-0.017187500372529,0.0098999999463558,-0.0185624994337558,0.0965529978275299,-0.25067800283432,-0.0970500037074089,-0.4243249893188476,-9.778420448303224,-0.6105250120162964
1757088579068420600,3.249420654296875,-0.0196624994277954,0.0074249999597668,-0.0235124994069337,0.1227250024676323,-0.2773079872131347,-0.1147599965333938,-0.422993004322052,-9.778389930725098,-0.6119260191917419
1757088579077973500,3.258973388671875,-0.0257124993950128,0.0074249999597668,-0.0235124994069337,0.1406159996986389,-0.2990899980068207,-0.1208439990878105,-0.4216189980506897,-9.778345108032228,-0.6135759949684143
1757088579087527000,3.26852685546875,-0.0306624993681907,0.0134749999269843,-0.025849999859929,0.1510220021009445,-0.2802560031414032,-0.1541309952735901,-0.420194000005722,-9.77826690673828,-0.6157439947128296
1757088579097079800,3.278079833984375,-0.0331375002861022,0.0281875003129243,-0.0307999998331069,0.1659689992666244,-0.2351869940757751,-0.1811279952526092,-0.4186899960041046,-9.778155326843262,-0.618465006351471
1757088579106633000,3.287633056640625,-0.034375000745058,0.0452375002205371,-0.0430375002324581,0.1610410064458847,-0.1949930042028427,-0.1840039938688278,-0.4172190129756927,-9.778013229370115,-0.6216520071029663
1757088579116186000,3.29718603515625,-0.0306624993681907,0.053762499243021,-0.0600874982774257,0.2055539935827255,-0.1358429938554763,-0.2267909944057464,-0.4156930148601532,-9.777832984924316,-0.625370979309082
1757088579125739300,3.3067392578125,-0.0208999998867511,0.058712501078844,-0.0760374963283538,0.2648980021476745,-0.1102819964289665,-0.2390149980783462,-0.4139719903469085,-9.777617454528809,-0.6296849846839905
1757088579135292400,3.31629248046875,-0.0098999999463558,0.0549999997019767,-0.0870374962687492,0.3060790002346039,-0.0920339971780777,-0.2561779916286468,-0.4118820130825043,-9.77736473083496,-0.6347330212593079
1757088579144845300,3.32584521484375,0.0035749999806284,0.0464750006794929,-0.0943249985575676,0.3365029990673065,-0.1289529949426651,-0.2622469961643219,-0.4093630015850067,-9.777066230773926,-0.6405959725379944
1757088579154398500,3.3353984375,0.0170499999076128,0.0318999998271465,-0.1016125008463859,0.3251039981842041,-0.189860001206398,-0.2353679984807968,-0.4066359996795654,-9.776713371276855,-0.647284984588623
1757088579163951400,3.344951416015625,0.0291499998420476,0.0049499999731779,-0.1090374961495399,0.3238579928874969,-0.2338059991598129,-0.1615149974822998,-0.4037559926509857,-9.776315689086914,-0.6546149849891663
1757088579173504500,3.35450439453125,0.0390499979257583,-0.0365750007331371,-0.1077999994158744,0.3109450042247772,-0.2606930136680603,-0.0727680027484893,-0.400628000497818,-9.775888442993164,-0.6624420285224915
1757088579183057700,3.3640576171875,0.0426249988377094,-0.0805749967694282,-0.1003749966621398,0.3248650133609772,-0.2392510026693344,0.0206579994410276,-0.3970620036125183,-9.775461196899414,-0.6704819798469543
1757088579192610800,3.37361083984375,0.0390499979257583,-0.1061500012874603,-0.0943249985575676,0.2604449987411499,-0.1454720050096511,0.1541299968957901,-0.3932029902935028,-9.775060653686523,-0.6783040165901184
1757088579202163700,3.383163818359375,0.0390499979257583,-0.1123374998569488,-0.0955625027418136,0.1658069938421249,-0.1719180047512054,0.0879290029406547,-0.3893580138683319,-9.774660110473633,-0.6861000061035156
1757088579211716900,3.392716796875,0.0413874983787536,-0.1245749965310096,-0.1016125008463859,0.0273589994758367,-0.1360290050506591,0.1794819980859756,-0.3860549926757812,-9.774259567260742,-0.6936230063438416
1757088579221270000,3.40227001953125,0.0328624993562698,-0.128150001168251,-0.1163249984383583,-0.0996659994125366,-0.1454830020666122,0.2740910053253174,-0.3837659955024719,-9.773866653442385,-0.7005529999732971
1757088579230823200,3.4118232421875,0.0230999998748302,-0.0963874980807304,-0.1468500047922134,-0.2434269934892654,-0.1145929992198944,0.2969070076942444,-0.3831320106983185,-9.77346420288086,-0.7067229747772217
1757088579240376000,3.4213759765625,0.0145749999210238,-0.0340999998152256,-0.1944250017404556,-0.3378080129623413,-0.0627619996666908,0.2836430072784424,-0.3846859931945801,-9.773029327392578,-0.7120280265808105
1757088579249929200,3.43092919921875,0.0120999999344348,0.0611874982714653,-0.2604250013828277,-0.3273830115795135,-0.0523409992456436,0.2321089953184127,-0.3887490034103393,-9.772530555725098,-0.716513991355896
1757088579259482000,3.440482177734375,0.0133375003933906,0.1772374957799911,-0.333712488412857,-0.2131520062685012,-0.0181540008634328,0.183010995388031,-0.3953000009059906,-9.771960258483888,-0.7201499938964844
1757088579269035300,3.45003515625,0.0145749999210238,0.2860000133514404,-0.4046624898910522,-0.0574290007352829,-0.0010839999886229,0.124949000775814,-0.4043120145797729,-9.7712984085083,-0.7231019735336304
1757088579278588700,3.459588623046875,0.0218624994158744,0.3727625012397766,-0.4742375016212463,0.0534910000860691,-0.0134800001978874,0.0160450004041194,-0.4158369898796081,-9.77051067352295,-0.7256249785423279
1757088579288141600,3.4691416015625,0.0303875003010034,0.4190999865531921,-0.5414749979972839,0.1194349974393844,-0.0265500005334615,-0.0366819985210895,-0.4300299882888794,-9.769570350646973,-0.72781902551651
1757088579297694700,3.47869482421875,0.0291499998420476,0.4300999939441681,-0.6012874841690063,0.1872179955244064,-0.0442700013518333,0.0779879987239837,-0.4469020068645477,-9.768487930297852,-0.7293069958686829
1757088579307247600,3.48824755859375,0.0181499999016523,0.4142875075340271,-0.6635749936103821,0.1257939934730529,-0.0533370003104209,0.0878539979457855,-0.4669770002365112,-9.767224311828612,-0.7298349738121033
1757088579316800500,3.497800537109375,0.0010999999940395,0.3910500109195709,-0.7357624769210815,-0.0230420008301734,-0.1092239990830421,0.1585060060024261,-0.491127997636795,-9.76572036743164,-0.729000985622406
1757088579326354000,3.50735400390625,-0.029424998909235,0.3800500035285949,-0.8163374662399292,-0.0817190036177635,-0.1254519969224929,0.2695060074329376,-0.5199829936027527,-9.76392936706543,-0.7261940240859985
1757088579335907000,3.516906982421875,-0.0599500015377998,0.4190999865531921,-0.8908625245094299,-0.0372419990599155,-0.0877600014209747,0.2668780088424682,-0.553849995136261,-9.761799812316896,-0.7211660146713257
1757088579345460000,3.5264599609375,-0.083187498152256,0.5046250224113464,-0.9568625092506408,0.0771209970116615,-0.0104270000010728,0.1979569941759109,-0.5926889777183533,-9.759279251098633,-0.7139809727668762
1757088579355013000,3.53601318359375,-0.0989999994635582,0.607200026512146,-1.0032000541687012,0.2172809988260269,0.0757260024547576,0.1031010001897811,-0.6363229751586914,-9.756319046020508,-0.7049450278282166
1757088579364566300,3.545566162109375,-0.0904750004410743,0.6719624996185303,-1.03496253490448,0.2923769950866699,0.2078090012073516,-0.2094980031251907,-0.6847169995307922,-9.752808570861816,-0.695235013961792
1757088579374119400,3.555119384765625,-0.0538999997079372,0.6561499834060669,-1.052150011062622,0.2836669981479645,0.2512860000133514,-0.4825510084629059,-0.7380849719047546,-9.748604774475098,-0.6861159801483154
1757088579383672300,3.56467236328125,0.002337499987334,0.5511000156402588,-1.0594375133514404,0.2103489935398101,0.2729049921035766,-0.6388199925422668,-0.7965139746665955,-9.743545532226562,-0.6787919998168945
1757088579393225500,3.5742255859375,0.0708125010132789,0.4008125066757202,-1.0631500482559204,0.2063889950513839,0.296858012676239,-0.8161140084266663,-0.8597170114517212,-9.737533569335938,-0.6740530133247375
1757088579402778600,3.583778564453125,0.1354375034570694,0.3091000020503998,-1.0766249895095823,0.2259829938411712,0.2951569855213165,-0.7978379726409912,-0.9272310137748718,-9.73048210144043,-0.6724740266799927
1757088579412331800,3.593331787109375,0.1978625059127807,0.3152875006198883,-1.092437505722046,0.4244840145111084,0.3121939897537231,-0.8852949738502502,-0.998091995716095,-9.722360610961914,-0.6749600172042847
1757088579421884700,3.602884765625,0.2734875082969665,0.3287625014781952,-1.1131999492645264,0.4950830042362213,0.4340940117835998,-1.054494023323059,-1.0716509819030762,-9.713043212890623,-0.6825709939002991
1757088579431437800,3.612437744140625,0.381012499332428,0.294524997472763,-1.152250051498413,0.4729970097541809,0.5022090077400208,-1.3542139530181885,-1.1476260423660278,-9.702264785766602,-0.6968089938163757
1757088579440990700,3.62199072265625,0.4959625005722046,0.2908124923706054,-1.2280124425888062,0.5446839928627014,0.4642579853534698,-1.1865580081939695,-1.2258269786834717,-9.689905166625977,-0.7175769805908203
1757088579450544000,3.631544189453125,0.5497249960899353,0.3482874929904938,-1.3209625482559204,0.7220190167427063,0.3085860013961792,-0.6382480263710022,-1.3062260150909424,-9.676074028015137,-0.7433140277862549
1757088579460097000,3.641096923828125,0.5497249960899353,0.441100001335144,-1.4565374851226809,0.4620830118656158,0.2406180053949356,-0.3191820085048675,-1.3903820514678955,-9.660505294799805,-0.772704005241394
1757088579469650200,3.650650146484375,0.5105375051498413,0.441100001335144,-1.6458749771118164,0.2537519931793213,0.3675110042095184,-0.1731739938259124,-1.4798860549926758,-9.642802238464355,-0.8047839999198914
1757088579479203000,3.660203125,0.4470124840736389,0.2237125039100647,-1.8646374940872192,0.5771679878234863,0.3248820006847381,-0.1334709972143173,-1.5744810104370115,-9.622902870178224,-0.8392109870910645
1757088579488756200,3.669756103515625,0.3529624938964844,-0.1183874979615211,-1.996500015258789,2.0439600944519043,0.14130400121212,0.2548669874668121,-1.6699520349502563,-9.60201358795166,-0.8752300143241882
1757088579498309400,3.679309326171875,0.1868624985218048,-0.4727250039577484,-2.0417375564575195,2.994849920272827,-0.1259620040655136,1.0683850049972534,-1.763005018234253,-9.58138370513916,-0.9101309776306152
1757088579507862500,3.688862548828125,-0.017187500372529,-0.669487476348877,-2.140737533569336,2.22155499458313,-0.3570150136947632,1.490676999092102,-1.85548198223114,-9.560613632202148,-0.9421420097351074
1757088579517415700,3.698415771484375,-0.2029500007629394,-0.7195374965667725,-2.4058375358581543,0.5921149849891663,-0.2334789931774139,1.0934319496154783,-1.9527419805526731,-9.537854194641112,-0.9720849990844728
1757088579526968600,3.707968505859375,-0.3299999833106994,-0.6485875248908997,-2.804037570953369,-0.4454019963741302,-0.1416130065917968,0.541333019733429,-2.059231996536255,-9.511218070983888,-1.0011310577392578
1757088579536521500,3.717521484375,-0.4057624936103821,-0.7512999773025513,-3.177900075912476,-0.2160059958696365,0.0252369996160268,-0.2783989906311035,-2.1759018898010254,-9.47960090637207,-1.03166401386261
1757088579546075000,3.727074951171875,-0.4215750098228454,-1.1471624374389648,-3.396662473678589,0.5849699974060059,0.0906519964337349,-0.907226026058197,-2.301311016082764,-9.442756652832031,-1.066383957862854
1757088579555628000,3.7366279296875,-0.3898124992847442,-1.5613124370574951,-3.413712501525879,1.475808024406433,-0.0391630008816719,-0.8645129799842834,-2.4325509071350098,-9.401437759399414,-1.1054619550704956
1757088579565181000,3.746180908203125,-0.3812874853610992,-1.795887470245361,-3.292712450027466,1.7331780195236206,-0.1639080047607422,-0.2581410109996795,-2.567876100540161,-9.356374740600586,-1.1467299461364746
1757088579574733800,3.75573388671875,-0.4105750024318695,-1.8532249927520752,-3.071612596511841,2.0294349193573,-0.3375400006771087,0.3314400017261505,-2.705039978027344,-9.308733940124512,-1.187701940536499
1757088579584287000,3.765286865234375,-0.4485250115394592,-1.6676000356674194,-2.905512571334839,0.4745529890060425,-0.2375710010528564,0.7651870250701904,-2.847620010375977,-9.25699234008789,-1.2254650592803955
1757088579593840000,3.774840087890625,-0.4998124837875366,-1.3217874765396118,-2.794275045394897,-0.7168340086936951,-0.7875069975852966,0.594452977180481,-2.997288942337036,-9.200105667114258,-1.2591650485992432
1757088579603393300,3.784393310546875,-0.4485250115394592,-0.92716246843338,-2.731987476348877,-1.5052920579910278,-1.58440101146698,0.0597629994153976,-3.15303897857666,-9.13831615447998,-1.2896579504013062
1757088579612946400,3.793946533203125,-0.3653374910354614,-0.4910124838352203,-2.571937561035156,-0.6635919809341431,-2.020901918411255,0.0470429994165897,-3.3144218921661377,-9.071832656860352,-1.315405011177063
1757088579622499600,3.80349951171875,-0.2762374877929687,-0.1783374994993209,-2.277549982070923,-0.0039429999887943,-1.799765944480896,-0.3799600005149841,-3.4800820350646973,-9.001386642456055,-1.3345489501953125
1757088579632052500,3.813052490234375,-0.1967625021934509,-0.1306249946355819,-2.0417375564575195,-0.5325779914855957,-1.0133830308914185,-0.0389229990541935,-3.648888111114502,-8.927504539489746,-1.347277045249939
1757088579641605600,3.822605712890625,-0.2029500007629394,-0.2186249941587448,-1.962262511253357,-0.8281580209732056,-0.4994899928569793,0.4407199919223785,-3.821940898895264,-8.84939193725586,-1.3538190126419067
1757088579651158500,3.832158447265625,-0.201712504029274,-0.2613874971866607,-1.94397497177124,-0.1333329975605011,-0.205372005701065,0.0697270035743713,-3.996522903442383,-8.76771354675293,-1.3567440509796145
1757088579660711700,3.841711669921875,-0.1284250020980835,-0.2686749994754791,-1.8999749422073364,0.6665589809417725,0.0676689967513084,-0.159621000289917,-4.169439792633057,-8.683647155761719,-1.3580199480056765
1757088579670264600,3.8512646484375,-0.0477125011384487,-0.3053874969482422,-1.9244500398635864,0.4785340130329132,0.437606006860733,0.0897950008511543,-4.3418049812316895,-8.596384048461914,-1.357571005821228
1757088579679817700,3.860817626953125,0.0108624994754791,-0.46543750166893,-2.0552124977111816,0.2296600043773651,0.4315879940986633,0.5127869844436646,-4.518651962280273,-8.503873825073242,-1.355862021446228
1757088579689371000,3.870370849609375,0.0268124993890523,-0.6437749862670898,-2.1956000328063965,0.2850820124149322,0.1973499953746795,0.762561023235321,-4.702681064605713,-8.404754638671875,-1.3555350303649902
1757088579698924000,3.879924072265625,0.024337500333786,-0.7280625104904175,-2.304362535476685,0.2558650076389313,0.09026999771595,0.6763989925384521,-4.89135217666626,-8.299023628234863,-1.3592350482940674
1757088579708477000,3.889476806640625,0.0145749999210238,-0.8025875091552734,-2.361837387084961,0.4291119873523712,0.3281959891319275,0.6446419954299927,-5.07881498336792,-8.188119888305664,-1.367082953453064
1757088579718030300,3.8990302734375,-0.0184249989688396,-0.8551124930381775,-2.3288373947143555,0.2179149985313415,0.725799024105072,0.5146859884262085,-5.261025905609131,-8.072870254516602,-1.3786799907684326
1757088579727583500,3.90858349609375,-0.0526624992489814,-0.7378249764442444,-2.242074966430664,-0.1158849969506263,1.2793749570846558,0.234824001789093,-5.437941074371338,-7.952890872955322,-1.3921300172805786
1757088579737136400,3.918136474609375,-0.0428999997675418,-0.6230124831199646,-2.088074922561645,-0.3831340074539184,2.108957052230835,0.075483001768589,-5.612205028533936,-7.826589107513428,-1.4049919843673706
1757088579746689500,3.927689453125,0.0096249999478459,-0.3774375021457672,-1.918262481689453,-0.5973629951477051,2.8372669219970703,0.0041709998622536,-5.781734943389893,-7.698658943176269,-1.4150259494781494
1757088579756242400,3.937242431640625,0.0963874980807304,-0.1050499975681305,-1.7606874704360962,-0.5153149962425232,2.994025945663452,0.0724110007286071,-5.947765827178955,-7.568881988525391,-1.4226950407028198
1757088579765795600,3.946795654296875,0.2234375029802322,0.1027124971151351,-1.6543999910354614,-0.4145239889621734,3.159562110900879,0.4229190051555633,-6.112043857574463,-7.436430931091309,-1.4293040037155151
1757088579775348500,3.956348388671875,0.27114999294281,0.1809500008821487,-1.6068249940872192,-0.0011599999852478,2.9839189052581787,1.3208249807357788,-6.270823001861572,-7.303007125854492,-1.436614990234375
1757088579784902000,3.96590185546875,0.282150000333786,0.0965249985456466,-1.6654000282287598,0.0795449987053871,3.048943042755127,1.6384539604187012,-6.422454833984375,-7.16944694519043,-1.4454779624938965
1757088579794454800,3.975454833984375,0.2881999909877777,-0.1513874977827072,-1.7521624565124512,-0.1233619973063469,2.8879969120025635,1.8283569812774656,-6.568408012390137,-7.035120964050293,-1.4553749561309814
1757088579804008000,3.985008056640625,0.2503874897956848,-0.3139125108718872,-1.7729250192642212,-0.1283289939165115,1.955428957939148,1.805521011352539,-6.713210105895996,-6.895266056060791,-1.4621330499649048
1757088579813560800,3.994560791015625,0.1806749999523162,-0.3089624941349029,-1.735112547874451,-0.6331999897956848,0.9458280205726624,1.7869999408721924,-6.856290817260742,-6.751216888427734,-1.4659700393676758
1757088579823114000,4.004114013671875,0.0743874981999397,-0.1648624986410141,-1.6838250160217283,-0.9470319747924804,0.2774969935417175,1.851256012916565,-6.997660160064697,-6.603866100311279,-1.465664982795715
1757088579832667100,4.013667236328125,-0.0246124994009733,0.0892374962568283,-1.6458749771118164,-0.8079649806022644,0.0304160006344318,1.440471053123474,-7.135622978210449,-6.454620838165283,-1.462380051612854
1757088579842220300,4.02322021484375,-0.0892374962568283,0.2272875010967254,-1.6190625429153442,-0.3778699934482574,0.3426209986209869,0.7170640230178833,-7.271122932434082,-6.302807807922363,-1.4560790061950684
1757088579851773400,4.0327734375,-0.0771375000476837,0.1539999991655349,-1.6238750219345093,-0.1206979975104332,0.7817559838294983,-0.2995100021362304,-7.405585765838623,-6.146609783172607,-1.4489649534225464
1757088579861326300,4.042326416015625,-0.0221375003457069,0.1209999993443489,-1.6311625242233276,-0.0430550016462802,1.0210410356521606,-0.7929930090904236,-7.537889957427978,-5.986154079437256,-1.4431339502334597
1757088579870879500,4.05187939453125,0.057337500154972,0.1174250021576881,-1.638587474822998,-0.1668719947338104,1.3355350494384766,-0.8328030109405518,-7.667346954345703,-5.821133136749268,-1.4395430088043213
1757088579880432400,4.061432373046875,0.1293874979019165,0.0697124972939491,-1.647112488746643,-0.1769929975271225,0.9208980202674866,-0.5745909810066223,-7.793406009674072,-5.652598857879639,-1.437809944152832
1757088579889985500,4.070985595703125,0.1856250017881393,0.1381874978542328,-1.625112533569336,-0.2891770005226135,0.4319620132446289,-0.1932020038366317,-7.915438175201416,-5.482211112976074,-1.4358700513839722
1757088579899538700,4.08053857421875,0.2039124965667724,0.2860000133514404,-1.5884000062942505,-0.6234260201454163,0.0981829985976219,0.1720580011606216,-8.033164978027344,-5.311131000518799,-1.4313960075378418
1757088579909091600,4.090091552734375,0.2466749995946884,0.3727625012397766,-1.549350023269653,-0.5044260025024414,0.5148159861564636,-0.227739006280899,-8.14597225189209,-5.139565944671631,-1.4246820211410522
1757088579918645000,4.09964501953125,0.3394874930381775,0.1894749999046325,-1.477300047874451,0.3624770045280456,0.0010460000485181,-0.5919399857521057,-8.251535415649414,-4.971378803253174,-1.4175820350646973
1757088579928198000,4.109197998046875,0.3651999831199646,0.1149500012397766,-1.467537522315979,-0.599498987197876,-0.1887120008468628,-0.0173969995230436,-8.349058151245117,-4.808129787445068,-1.4079099893569946
1757088579937751000,4.1187509765625,0.3884375095367431,-0.0365750007331371,-1.5175875425338743,-0.9522650241851808,-0.4372299909591675,0.2248300015926361,-8.443245887756348,-4.6446452140808105,-1.3976329565048218
1757088579947304200,4.12830419921875,0.3932499885559082,-0.0671000033617019,-1.52611243724823,-0.6042010188102722,-0.3712809979915619,0.4880569875240326,-8.534573554992676,-4.480569839477539,-1.3859729766845703
1757088579956857000,4.137857177734375,0.3871999979019165,-0.0206249989569187,-1.5005375146865845,-0.2311529964208603,-0.1997109949588775,0.8491389751434326,-8.62335205078125,-4.315719127655029,-1.3720879554748535
1757088579966410200,4.14741015625,0.3859624862670898,0.1392875015735626,-1.455299973487854,-0.1491200029850006,-0.2300170063972473,0.6532400250434875,-8.709569931030273,-4.150352954864502,-1.355947971343994
1757088579975963100,4.156963134765625,0.3712500035762787,0.1687124967575073,-1.4052499532699585,-0.098642997443676,-0.194703996181488,0.6322579979896545,-8.79308032989502,-3.984937906265259,-1.3371230363845823
1757088579985516300,4.166516357421875,0.3517250120639801,0.1430000066757202,-1.4052499532699585,-0.2509399950504303,-0.724888026714325,0.2893289923667907,-8.873374938964844,-3.821173906326294,-1.3157190084457395
1757088579995069400,4.1760693359375,0.3334375023841858,0.1649999916553497,-1.3782999515533447,-0.6652430295944214,-0.075264997780323,-0.073303997516632,-8.94672966003418,-3.6618170738220215,-1.2973170280456543
1757088580004622600,4.18562255859375,0.3052499890327453,0.222474992275238,-1.3319624662399292,-0.7946159839630127,-0.2283799946308136,-0.2155089974403381,-9.014558792114258,-3.5056591033935547,-1.282068967819214
1757088580014175700,4.19517578125,0.23938749730587,0.3250499963760376,-1.2830125093460083,-1.49338698387146,0.124048002064228,0.2625069916248321,-9.077743530273438,-3.3519349098205566,-1.2701510190963743
1757088580023728600,4.204728759765625,0.1771000027656555,0.3836250007152557,-1.2342000007629397,-1.382290959358215,-0.1196409985423088,0.2212789952754974,-9.1368989944458,-3.2001760005950928,-1.2613869905471802
1757088580033281500,4.214281494140625,0.1220999956130981,0.45210000872612,-1.1621500253677368,-1.3833370208740234,-0.2965629994869232,0.2922550141811371,-9.19221305847168,-3.0510170459747314,-1.2540329694747925
1757088580042834700,4.223834716796875,0.0829124972224235,0.5608624815940857,-1.096150040626526,-1.3522340059280396,-0.347557008266449,0.3547790050506592,-9.243766784667969,-2.9058430194854736,-1.2440099716186523
1757088580052387800,4.233387939453125,0.0426249988377094,0.6182000041007996,-1.01791250705719,-0.568382978439331,-0.5347229838371277,0.5548340082168579,-9.291604042053224,-2.7667601108551025,-1.2272419929504397
1757088580061941000,4.24294091796875,-0.0074249999597668,0.634149968624115,-0.9421499967575072,-0.2385160028934478,-0.3744859993457794,0.6291519999504089,-9.33542823791504,-2.635050058364868,-1.2031309604644775
1757088580071494000,4.252493896484375,-0.0966624990105629,0.5229125022888184,-0.9201499819755554,-0.673209011554718,-0.1129020005464553,0.9825339913368224,-9.375982284545898,-2.509016990661621,-1.1716890335083008
1757088580081047300,4.26204736328125,-0.1564749926328659,0.4765749871730804,-0.9018625020980836,-0.7638790011405945,-0.324537992477417,0.6137189865112305,-9.413540840148926,-2.3881099224090576,-1.1356569528579712
1757088580090600200,4.27160009765625,-0.2102375030517578,0.4483875036239624,-0.8823375105857849,-0.6647329926490784,-0.5245190262794495,0.3960300087928772,-9.448107719421388,-2.272336959838867,-1.097653031349182
1757088580100153300,4.2811533203125,-0.2615250051021576,0.4570499956607818,-0.8322874903678894,-0.3729659914970398,-0.6360899806022644,0.0670540034770965,-9.479461669921877,-2.1633141040802,-1.057682991027832
1757088580109706200,4.290706298828125,-0.2847625017166137,0.5181000232696533,-0.7467625141143799,-0.2481459975242614,-0.5015810132026672,-0.3803670108318329,-9.508907318115234,-2.058811902999878,-1.014389991760254
1757088580119259400,4.30025927734375,-0.2872374951839447,0.5913875102996826,-0.658762514591217,-0.4873549938201904,-0.2844569981098175,-0.7138530015945435,-9.53618335723877,-1.9588520526885984,-0.97010999917984
1757088580128812500,4.3098125,-0.294524997472763,0.6084374785423279,-0.5952374935150146,-0.6726239919662476,-0.3281610012054443,-0.7443150281906128,-9.56153678894043,-1.8636260032653809,-0.9239270091056824
1757088580138365700,4.31936572265625,-0.3117125034332275,0.5571500062942505,-0.5487625002861023,-0.8327630162239075,-0.484248012304306,-0.4834499955177307,-9.584826469421388,-1.7736990451812744,-0.8767880201339722
1757088580147918800,4.3289189453125,-0.3250499963760376,0.4545750021934509,-0.5157625079154968,-0.9982020258903505,-0.2772980034351349,-0.3279939889907837,-9.60609245300293,-1.6882940530776978,-0.8293049931526184
1757088580157471700,4.3384716796875,-0.353237509727478,0.3420999944210052,-0.4839999973773956,-1.2173819541931152,-0.1057669967412948,-0.0257639996707439,-9.625465393066406,-1.607234001159668,-0.782185971736908
1757088580167024600,4.348024658203125,-0.3752374947071075,0.2040500044822693,-0.4571875035762787,-1.2387789487838743,-0.0802389979362487,-0.0866610035300254,-9.643040657043455,-1.5304739475250244,-0.7361840009689331
1757088580176577800,4.357577880859375,-0.3715249896049499,0.1601874977350235,-0.3984749913215637,-1.110193967819214,-0.051741998642683,-0.186391994357109,-9.659337043762209,-1.4569870233535769,-0.6904900074005127
1757088580186131000,4.367130859375,-0.3470500111579895,0.1649999916553497,-0.3251875042915344,-1.0302929878234863,-0.0165509991347789,-0.4442740082740783,-9.674006462097168,-1.3890520334243774,-0.6442869901657104
1757088580195684000,4.37668408203125,-0.3299999833106994,0.1454750001430511,-0.2470874935388565,-0.9034540057182312,-0.055987000465393,-0.316098004579544,-9.68723964691162,-1.3263219594955444,-0.5984349846839905
1757088580205237000,4.386237060546875,-0.3030500113964081,0.1710499972105026,-0.1736624985933303,-0.9423009753227234,-0.1720529943704605,-0.6338880062103271,-9.699110984802246,-1.2687790393829346,-0.5528969764709473
1757088580214790100,4.3957900390625,-0.2750000059604645,0.2322375029325485,-0.1199000030755996,-0.9360349774360656,-0.3167470097541809,-0.7966939806938171,-9.709691047668455,-1.2164249420166016,-0.5077450275421143
1757088580224343300,4.40534326171875,-0.2677125036716461,0.2542375028133392,-0.088137499988079,-0.8583739995956421,-0.4459140002727508,-0.743395984172821,-9.718939781188965,-1.170050024986267,-0.4651800096035003
1757088580233896400,4.414896484375,-0.2480500042438507,0.2810499966144562,-0.0870374962687492,-0.835623025894165,-0.409294992685318,-0.7700790166854858,-9.726932525634766,-1.1292539834976196,-0.42569699883461
1757088580243449600,4.42444970703125,-0.2249500006437301,0.2725250124931335,-0.1040875017642974,-0.6658279895782471,-0.2458889931440353,-0.6347740292549133,-9.733792304992676,-1.092218041419983,-0.3912369906902313
1757088580253002500,4.43400244140625,-0.1857624948024749,0.2554749846458435,-0.1175625026226043,-0.3109180033206939,-0.0748279988765716,-0.6118699908256531,-9.739629745483398,-1.0583579540252686,-0.3622269928455353
1757088580262555400,4.443555419921875,-0.147949993610382,0.2248124927282333,-0.1077999994158744,0.1319350004196167,0.2655920088291168,-0.3637050092220306,-9.744452476501465,-1.0276010036468506,-0.3387309908866882
1757088580272108500,4.453108642578125,-0.1369500011205673,0.1369500011205673,-0.0576125010848045,0.4429729878902435,0.7421069741249084,-0.0015770000172778,-9.748648643493652,-0.9980909824371338,-0.3188599944114685
1757088580281661700,4.46266162109375,-0.1174250021576881,0.0599500015377998,0.004674999974668,0.3852930068969726,0.9391319751739502,-0.0320009998977184,-9.752427101135254,-0.9687979817390442,-0.3023670017719269
1757088580291214600,4.472214599609375,-0.0979000031948089,-0.0097624994814395,0.0192499998956918,0.0591420009732246,1.0271879434585571,-0.0838200002908706,-9.755953788757324,-0.9388319849967957,-0.2888369858264923
1757088580300767700,4.481767822265625,-0.0746624991297721,-0.057337500154972,-0.0050874999724328,-0.0479650013148784,0.8754870295524597,-0.2749919891357422,-9.759259223937988,-0.9084420204162598,-0.2780640125274658
1757088580310321000,4.49132080078125,-0.0428999997675418,-0.1073874980211258,-0.0307999998331069,-0.1078839972615242,0.8384169936180115,-0.4099799990653991,-9.762310981750488,-0.8779119849205017,-0.2701529860496521
1757088580319873800,4.500873779296875,0.0035749999806284,-0.1440999954938888,-0.0125124994665384,-0.1163310036063194,0.6943249702453613,-0.4546419978141784,-9.76510524749756,-0.8473920226097107,-0.2654820084571838
1757088580329427000,4.510427001953125,0.0378125011920928,-0.1331000030040741,0.0254375003278255,-0.1323080062866211,0.6046770215034485,-0.2627669870853424,-9.767685890197754,-0.8167210221290588,-0.263945996761322
1757088580338980000,4.51997998046875,0.0488125011324882,-0.061049997806549,0.0620125010609626,0.0023080001119524,0.4444040060043335,-0.1196969971060752,-9.76994514465332,-0.7873219847679138,-0.2653830051422119
1757088580348533200,4.529533203125,0.0438624992966651,0.032999999821186,0.0864875018596649,0.2136040031909942,0.329611986875534,-0.02475400082767,-9.771940231323242,-0.7595300078392029,-0.2685459852218628
1757088580358086100,4.539086181640625,0.0303875003010034,0.0989999994635582,0.0937749966979026,0.3958609998226166,0.2090049982070922,-0.0786039978265762,-9.773704528808594,-0.7336480021476746,-0.2726599872112274
1757088580367639300,4.548639404296875,0.0328624993562698,0.1282874941825866,0.081675000488758,0.4176639914512634,0.2070270031690597,-0.1589210033416748,-9.775276184082031,-0.7093560099601746,-0.2776249945163727
1757088580377192400,4.5581923828125,0.0340999998152256,0.116187497973442,0.0547249987721443,0.3103370070457458,0.2880620062351227,-0.2291830033063888,-9.77670192718506,-0.6859189867973328,-0.2837109863758087
1757088580386745600,4.56774560546875,0.0475750006735324,0.0807124972343444,0.0400125011801719,0.3562250137329101,0.3425930142402649,-0.2579280138015747,-9.778033256530762,-0.6628699898719788,-0.2903299927711487
1757088580396298500,4.577298583984375,0.052387498319149,0.0611874982714653,0.0302499998360872,0.3878209888935089,0.3591170012950897,-0.2131540030241012,-9.779294967651367,-0.639627993106842,-0.2983179986476898
1757088580405851400,4.586851318359375,0.0426249988377094,0.032999999821186,0.0449624992907047,0.3904739916324615,0.2769280076026916,-0.1324039995670318,-9.780495643615724,-0.6162779927253723,-0.3078289926052093
1757088580415404500,4.596404541015625,0.031624998897314,0.017187500372529,0.073012501001358,0.2118880003690719,0.4116860032081604,0.0910049974918365,-9.781813621520996,-0.5914000272750854,-0.3163880109786987
1757088580424957400,4.60595751953125,0.0083875004202127,-0.0230999998748302,0.0742499977350235,0.0964379981160163,0.0470939986407756,-0.1011099964380264,-9.783163070678713,-0.5662140250205994,-0.3248159885406494
1757088580434510600,4.615510498046875,0.002337499987334,0.0098999999463558,0.0717749968171119,0.2252950072288513,-0.6232020258903503,-0.3728030025959015,-9.784383773803713,-0.5432779788970947,-0.334084004163742
1757088580444063700,4.625063720703125,-0.017187500372529,0.0941874980926513,0.0632499977946281,0.1085970029234886,-0.5747550129890442,-0.1070429980754852,-9.785487174987791,-0.5228300094604492,-0.3428049981594085
1757088580453617000,4.634616943359375,-0.0441375002264976,0.112475000321865,0.0241999998688697,-0.0621250011026859,-0.4635269939899444,0.1029039993882179,-9.786439895629885,-0.5051699876785278,-0.3506920039653778
1757088580463169800,4.644169677734375,-0.0672374963760376,0.112475000321865,-0.0087999999523162,-0.0649050027132034,-0.3864420056343078,0.1201400011777877,-9.78714370727539,-0.4911209940910339,-0.3583340048789978
1757088580472723000,4.653722900390625,-0.0819500014185905,0.1185249984264373,-0.0197999998927116,-0.0650760009884834,-0.3643850088119507,0.1831620037555694,-9.78761100769043,-0.48089399933815,-0.3650220036506653
1757088580482276000,4.663276123046875,-0.0954250022768974,0.1307625025510788,-0.0235124994069337,-0.0915469974279403,-0.3824250102043152,0.2436199933290481,-9.787857055664062,-0.474700003862381,-0.3700209856033325
1757088580491829200,4.672829345703125,-0.1137124970555305,0.1442375034093856,-0.025849999859929,-0.0344199985265731,-0.4422399997711181,0.2970260083675384,-9.787936210632324,-0.4723820090293884,-0.3722850084304809
1757088580501382100,4.682382080078125,-0.1369500011205673,0.1430000066757202,-0.0356125012040138,-0.0423679985105991,-0.5447959899902344,0.3292919993400574,-9.787858963012695,-0.4742119908332824,-0.3710600137710571
1757088580510935300,4.691935302734375,-0.1491875052452087,0.1307625025510788,-0.0515624992549419,-0.0145230004563927,-0.5389509797096252,0.329120010137558,-9.78768253326416,-0.4795880019664764,-0.3660730123519897
1757088580520488400,4.701488525390625,-0.1649999916553497,0.1064250022172927,-0.0662750005722045,0.0658330023288726,-0.570393979549408,0.4506590068340301,-9.78741455078125,-0.4881139993667602,-0.3576900064945221
1757088580530041600,4.71104150390625,-0.1834249943494796,0.1002374961972236,-0.0808499976992607,0.1439699977636337,-0.5060439705848694,0.527055025100708,-9.787075996398926,-0.4988920092582702,-0.346451997756958
1757088580539594500,4.720594482421875,-0.1979999989271164,0.1027124971151351,-0.0955625027418136,0.2435050010681152,-0.5024970173835754,0.5599989891052246,-9.786654472351074,-0.5113980174064636,-0.332951009273529
1757088580549147600,4.730147705078125,-0.1992374956607818,0.1137124970555305,-0.0930875018239021,0.2687680125236511,-0.4491710066795349,0.558201014995575,-9.786165237426758,-0.5250579714775085,-0.3172650039196014
1757088580558700500,4.739700439453125,-0.201712504029274,0.1247124969959259,-0.0686125010251998,0.1503240019083023,-0.3794789910316467,0.5692359805107117,-9.785608291625977,-0.5397869944572449,-0.2992030084133148
1757088580568253700,4.749253662109375,-0.2054249942302703,0.1319999992847442,-0.0295624993741512,-0.1448549926280975,-0.2012639939785003,0.4193859994411468,-9.784995079040527,-0.5555449724197388,-0.2789570093154907
1757088580577806800,4.758806884765625,-0.2114749997854232,0.1467124968767166,0.0059124999679625,-0.3941250145435333,-0.0557760000228881,0.184250995516777,-9.78434944152832,-0.5722590088844299,-0.2568910121917724
1757088580587360000,4.768360107421875,-0.1955250054597854,0.1491875052452087,0.0217249989509582,-0.5690649747848511,-0.0397399999201297,-0.216851994395256,-9.783672332763672,-0.5900260210037231,-0.2342000007629394
1757088580596913000,4.777912841796875,-0.1674750000238418,0.1369500011205673,0.0204875003546476,-0.4789040088653564,-0.196381002664566,-0.3501760065555572,-9.782941818237305,-0.6089789867401123,-0.211459994316101
1757088580606466000,4.787466064453125,-0.1564749926328659,0.108762502670288,-0.0002749999985098,-0.3695470094680786,-0.200982004404068,-0.1927630007266998,-9.782122611999512,-0.6293439865112305,-0.1890109926462173
1757088580616019000,4.79701904296875,-0.1516624987125396,0.0954250022768974,-0.025849999859929,-0.1186759993433952,-0.1521299928426742,-0.0111549999564886,-9.78130340576172,-0.6497899889945984,-0.1656150072813034
1757088580625572000,4.806572021484375,-0.1516624987125396,0.1247124969959259,-0.0405624993145465,0.1328340023756027,-0.0023250000085681,0.1232339963316917,-9.780630111694336,-0.6677849888801575,-0.1400180011987686
1757088580635125200,4.816125244140625,-0.1527625024318695,0.1687124967575073,-0.0393249988555908,0.3845190107822418,0.0678099989891052,0.0717450007796287,-9.78006076812744,-0.6833930015563965,-0.1134020015597343
1757088580644678100,4.82567822265625,-0.1552374958992004,0.1857624948024749,-0.0368499979376792,0.4922879934310913,0.0151329999789595,-0.0976710021495819,-9.779529571533203,-0.6973890066146851,-0.0869719982147216
1757088580654231300,4.835231201171875,-0.1516624987125396,0.1699499934911728,-0.0466125011444091,0.4850429892539978,-0.0420919992029666,-0.2351430058479309,-9.779013633728027,-0.7102969884872437,-0.0613070018589496
1757088580663784400,4.844784423828125,-0.1381874978542328,0.116187497973442,-0.0600874982774257,0.5020920038223267,-0.0160000007599592,-0.3006829917430877,-9.778520584106444,-0.7220900058746338,-0.0371150001883506
1757088580673337600,4.854337646484375,-0.1234750002622604,0.0391874983906745,-0.0735625028610229,0.3910729885101318,0.1801490038633346,-0.3348169922828674,-9.778111457824709,-0.7320219874382019,-0.0151359997689723
1757088580682890500,4.863890380859375,-0.1039500012993812,-0.0182875003665685,-0.0808499976992607,0.2637819945812225,0.2599680125713348,-0.3863289952278137,-9.777816772460938,-0.7395979762077332,0.0039470000192523
1757088580692443600,4.873443603515625,-0.079475000500679,-0.0500499978661537,-0.0845625028014183,0.1109019964933395,0.4336510002613067,-0.4702660143375397,-9.77769947052002,-0.7439870238304138,0.0196230001747608
1757088580701996500,4.88299658203125,-0.0477125011384487,-0.0743874981999397,-0.0833249986171722,0.0132130002602934,0.5183420181274414,-0.4838899970054626,-9.777769088745115,-0.745015025138855,0.0317809991538524
1757088580711549700,4.8925498046875,-0.0136124994605779,-0.0903374999761581,-0.0735625028610229,-0.0626579970121383,0.6803330183029175,-0.3732919991016388,-9.778047561645508,-0.7421879768371582,0.0404170006513595
1757088580721102800,4.902102783203125,0.0170499999076128,-0.0818125009536743,-0.0563750006258487,-0.0124310003593564,0.5727159976959229,-0.3214290142059326,-9.778488159179688,-0.73614901304245,0.0454900003969669
1757088580730656000,4.911656005859375,0.0378125011920928,-0.0475750006735324,-0.038087498396635,0.135001003742218,0.3624500036239624,-0.1648219972848892,-9.77904987335205,-0.7276790142059326,0.0474929995834827
1757088580740209000,4.921208984375,0.0475750006735324,-0.0305249989032745,-0.025849999859929,0.2557249963283539,0.2829309999942779,-0.084146000444889,-9.77971363067627,-0.7172369956970215,0.046688999980688
1757088580749762000,4.930761962890625,0.0633874982595443,-0.0475750006735324,-0.0246124994009733,0.3209030032157898,0.1564549952745437,-0.076323002576828,-9.780461311340332,-0.7053660154342651,0.0429329983890056
1757088580759315200,4.940315185546875,0.0780999958515167,-0.0732875019311904,-0.0332750007510185,0.268462985754013,0.0612500011920928,-0.0597710013389587,-9.781254768371582,-0.6927530169487,0.0366030000150203
1757088580768868400,4.949868408203125,0.0903374999761581,-0.0951500013470649,-0.0478499978780746,0.2374060004949569,-0.0185880009084939,0.0164989996701478,-9.782065391540527,-0.6798880100250244,0.0284700002521276
1757088580778421200,4.959421142578125,0.1000999957323074,-0.1111000031232833,-0.0613249987363815,0.2037629932165146,-0.1131799966096878,0.0898270010948181,-9.782876968383787,-0.666998028755188,0.0198400001972913
1757088580787974100,4.96897412109375,0.1036750003695488,-0.1160499975085258,-0.0710875019431114,0.1409749984741211,-0.2643460035324096,0.1232839971780777,-9.78370189666748,-0.6540219783782959,0.0112509997561573
1757088580797527300,4.97852734375,0.1086250022053718,-0.1111000031232833,-0.0820875018835067,0.0349089987576007,-0.3451730012893677,0.1273159980773925,-9.784531593322754,-0.641185998916626,0.002430000109598
1757088580807080700,4.988080810546875,0.1073874980211258,-0.103812500834465,-0.088137499988079,-0.0615070015192031,-0.3456740081310272,0.148498997092247,-9.785357475280762,-0.6286360025405884,-0.0069889998994767
1757088580816633600,4.997633544921875,0.1111000031232833,-0.0891000032424926,-0.0833249986171722,-0.1699459999799728,-0.3507579863071441,0.090329997241497,-9.786138534545898,-0.6168410181999207,-0.0176739990711212
1757088580826186800,5.007186767578125,0.1159124970436096,-0.0732875019311904,-0.0650374963879585,-0.2043280005455017,-0.3630709946155548,0.0497779995203018,-9.786863327026367,-0.6060709953308105,-0.0297439992427825
1757088580835739600,5.01673974609375,0.1171500012278556,-0.0536249987781047,-0.0332750007510185,-0.2365490049123764,-0.3786889910697937,0.0390500016510486,-9.7875337600708,-0.5963159799575806,-0.0426860004663467
1757088580845292800,5.026292724609375,0.1135749965906143,-0.0292875003069639,-0.0063249999657273,-0.2642779946327209,-0.4227510094642639,0.0514819994568824,-9.788135528564451,-0.5876979827880859,-0.0558199994266033
1757088580854846000,5.035845947265625,0.1061500012874603,-0.0010999999940395,0.0094875004142522,-0.2205269932746887,-0.4716910123825073,0.0199030004441738,-9.7886381149292,-0.5805960297584534,-0.0686170011758804
1757088580864398800,5.04539892578125,0.0963874980807304,0.017187500372529,0.0192499998956918,-0.1266340017318725,-0.4621489942073822,0.001973999897018,-9.788969039916992,-0.5757759809494019,-0.0805480033159256
1757088580873952000,5.054951904296875,0.0805749967694282,0.0232375003397464,0.0217249989509582,-0.0284599997103214,-0.551675021648407,0.0138450004160404,-9.789082527160645,-0.5738620162010193,-0.0910999998450279
1757088580883505200,5.064505126953125,0.0609125010669231,0.032999999821186,0.0131999999284744,0.0955350026488304,-0.6382240056991577,0.0105539998039603,-9.788912773132324,-0.5756959915161133,-0.0998170003294944
1757088580893058300,5.074058349609375,0.0353375002741813,0.0439999997615814,0.0034374999813735,0.2243040055036544,-0.6089919805526733,0.0424269996583461,-9.788454055786133,-0.5814610123634338,-0.1063800007104873
1757088580902611200,5.083611083984375,0.0170499999076128,0.0439999997615814,-0.0136124994605779,0.2491759955883026,-0.3120500147342682,0.0317419990897178,-9.787766456604004,-0.5906209945678711,-0.1110690012574195
1757088580912164400,5.093164306640625,0.0096249999478459,0.0379500016570091,-0.0332750007510185,0.282487004995346,-0.0768460035324096,-0.0115759996697306,-9.786948204040527,-0.6019579768180847,-0.1142309978604316
1757088580921717200,5.10271728515625,0.0060499999672174,0.0354750007390975,-0.0490874983370304,0.225722000002861,0.0729679986834526,-0.004860000219196,-9.786097526550291,-0.6141809821128845,-0.1164830029010772
1757088580931270100,5.112270263671875,0.002337499987334,0.0244750007987022,-0.0576125010848045,0.205252006649971,0.1364900022745132,0.0159680005162954,-9.785249710083008,-0.6267309784889221,-0.1181370019912719
1757088580940823600,5.121823486328125,0.0035749999806284,0.0049499999731779,-0.0576125010848045,0.1202189996838569,0.1508740037679672,0.0463909991085529,-9.784433364868164,-0.6391419768333435,-0.1191250011324882
1757088580950376700,5.131376708984375,0.002337499987334,-0.0048124999739229,-0.0552750006318092,0.0157539993524551,0.1010710000991821,0.0104870004579424,-9.783649444580078,-0.6513090133666992,-0.1195250004529953
1757088580959929600,5.1409296875,-0.0001374999992549,-0.0060499999672174,-0.0466125011444091,-0.034205000847578,-0.006256999913603,-0.012012000195682,-9.782876968383787,-0.6634179949760437,-0.1195359975099563
1757088580969482800,5.150482666015625,-0.0037124999798834,0.0024749999865889,-0.0356125012040138,-0.0577699989080429,0.0266789998859167,-0.0521290004253387,-9.78213119506836,-0.6751989722251892,-0.1193820014595985
1757088580979035600,5.16003564453125,-0.0037124999798834,0.0147124994546175,-0.025849999859929,-0.0383200012147426,0.0316350013017654,-0.0933320000767707,-9.781427383422852,-0.686286985874176,-0.1192059963941574
1757088580988588800,5.1695888671875,-0.0013749999925494,0.0269499998539686,-0.0173249989748001,0.012330999597907,0.0643979981541633,-0.1061419993638992,-9.780776023864746,-0.6964709758758545,-0.1190249994397163
1757088580998142000,5.179141845703125,0.0048124999739229,0.0354750007390975,-0.0087999999523162,0.0702089965343475,0.0962859988212585,-0.1324169933795929,-9.780179023742676,-0.7057589888572693,-0.118986003100872
1757088581007694800,5.18869482421875,0.0108624994754791,0.0416624993085861,-0.0027499999850988,0.1017370000481605,0.1021889969706535,-0.1238079965114593,-9.779638290405272,-0.7141609787940979,-0.1189329996705055
1757088581017248000,5.198248046875,0.0193875003606081,0.0367125011980533,-0.0027499999850988,0.1378840059041977,0.071771003305912,-0.1286540031433105,-9.77915096282959,-0.7216569781303406,-0.1188710033893585
1757088581026801000,5.20780078125,0.0291499998420476,0.0244750007987022,-0.0050874999724328,0.1716990023851394,0.0835940018296241,-0.1116549968719482,-9.77873420715332,-0.7280110120773315,-0.118877001106739
1757088581036354000,5.21735400390625,0.0365750007331371,0.0122375003993511,-0.0087999999523162,0.186489000916481,0.1034429967403411,-0.0561020001769065,-9.778406143188477,-0.7328919768333435,-0.1190050020813942
1757088581045907200,5.2269072265625,0.0450999997556209,0.0001374999992549,-0.0112749999389052,0.1870730072259903,0.1354130059480667,-0.0273899994790554,-9.778196334838867,-0.7359520196914673,-0.1192739978432655
1757088581055460400,5.23646044921875,0.052387498319149,-0.0085249999538064,-0.0136124994605779,0.1925660073757171,0.151755005121231,0.0207809992134571,-9.77811336517334,-0.7370780110359192,-0.1196160018444061
1757088581065013200,5.24601318359375,0.0598125010728836,-0.0133375003933906,-0.0136124994605779,0.1502490043640136,0.1647289991378784,0.0621020011603832,-9.778189659118652,-0.7359060049057007,-0.1199939996004104
1757088581074566100,5.255566162109375,0.0671000033617019,-0.0195249989628791,-0.010037500411272,0.1246140003204345,0.1478700041770935,0.0971039980649948,-9.778446197509766,-0.732234001159668,-0.1203700006008148
1757088581084119300,5.265119384765625,0.0756250023841857,-0.0195249989628791,-0.0063249999657273,0.0750660002231597,0.1614809930324554,0.0872510001063346,-9.778884887695312,-0.7261040210723877,-0.1209359988570213
1757088581093672700,5.274672607421875,0.0829124972224235,-0.0218624994158744,0.0009624999947845,0.0612460002303123,0.1275489926338195,0.1052960008382797,-9.779424667358398,-0.7186340093612671,-0.1216209977865219
1757088581103225600,5.2842255859375,0.0878624990582466,-0.0206249989569187,0.0071499999612569,0.0520379990339279,0.084817998111248,0.1379940062761306,-9.779993057250977,-0.7107959985733032,-0.1221560016274452
1757088581112778800,5.29377880859375,0.0891000032424926,-0.015812499448657,0.0119624994695186,0.0450569987297058,0.0562550015747547,0.1209649965167045,-9.780537605285645,-0.7032560110092163,-0.1225809976458549
1757088581122332000,5.303331787109375,0.0915749967098236,-0.0085249999538064,0.0156750008463859,0.0402840003371238,0.0138579998165369,0.1042369976639747,-9.78102684020996,-0.6964060068130493,-0.1229240000247955
1757088581131884800,5.312884765625,0.0926750004291534,-0.0035749999806284,0.0156750008463859,0.0569490008056163,-0.0102409999817609,0.0970449969172477,-9.781455993652344,-0.6903849840164185,-0.1231819987297058
1757088581141438000,5.32243798828125,0.0903374999761581,0.0001374999992549,0.0131999999284744,0.0615679994225502,-0.0354139991104602,0.1056979969143867,-9.781830787658691,-0.6851170063018799,-0.1231539994478225
1757088581150990800,5.331990966796875,0.0866250023245811,0.0012374999932944,0.0082499999552965,0.090048998594284,-0.0617219991981983,0.1249869987368583,-9.78217887878418,-0.680308997631073,-0.1227020025253295
1757088581160544000,5.3415439453125,0.0780999958515167,0.0012374999932944,0.0034374999813735,0.0776910036802291,-0.1005470007658004,0.1002419963479042,-9.78248691558838,-0.6761019825935364,-0.1218210011720657
1757088581170097000,5.351096923828125,0.0708125010132789,0.0001374999992549,0.002199999988079,0.07481499761343,-0.1191970035433769,0.0837609991431236,-9.782756805419922,-0.6725109815597534,-0.1204999983310699
1757088581179650000,5.360650146484375,0.0646250024437904,0.0001374999992549,0.0009624999947845,0.0408810004591941,-0.1054340004920959,0.0636750012636184,-9.782987594604492,-0.6695259809494019,-0.1188149973750114
1757088581189203200,5.370203125,0.052387498319149,-0.0072874999605119,0.0009624999947845,0.0307180006057024,-0.1466619968414306,0.1017659977078437,-9.783167839050291,-0.6673150062561035,-0.116636998951435
1757088581198756400,5.37975634765625,0.0426249988377094,-0.0085249999538064,0.0034374999813735,0.0038230000063776,-0.1357520073652267,0.0925849974155426,-9.783300399780272,-0.6658329963684082,-0.1140490025281906
1757088581208309200,5.389309326171875,0.0328624993562698,-0.0035749999806284,0.004674999974668,-0.0038189999759197,-0.1095660030841827,0.0992079973220825,-9.783397674560549,-0.6649069786071777,-0.110955998301506
1757088581217862100,5.398862060546875,0.0218624994158744,0.0024749999865889,0.0082499999552965,0.0147759998217225,-0.1228109970688819,0.0822310000658035,-9.783452987670898,-0.6646429896354675,-0.1073630005121231
1757088581227415600,5.40841552734375,0.0083875004202127,0.0037124999798834,0.0107249999418854,0.0188469998538494,-0.1598680019378662,0.1743499934673309,-9.783452033996582,-0.6652439832687378,-0.103082999587059
1757088581236968400,5.417968505859375,-0.0111375004053115,0.0086624994874,0.0131999999284744,0.0801699981093406,-0.1897229999303817,0.1612389981746673,-9.78337287902832,-0.6669440269470215,-0.0981490015983581
1757088581246521600,5.427521484375,-0.0184249989688396,0.0244750007987022,0.0181499999016523,0.0506739988923072,-0.1385509967803955,0.0232500005513429,-9.783222198486328,-0.6696680188179016,-0.0930050015449523
1757088581256074800,5.43707470703125,-0.0221375003457069,0.0184249989688396,0.0119624994695186,0.0286200009286403,-0.0887209996581077,-0.025025000795722,-9.78300666809082,-0.6732770204544067,-0.0879300013184547
1757088581265627600,5.446627685546875,-0.0257124993950128,0.0111375004053115,0.004674999974668,0.035300999879837,-0.0965619981288909,-0.0247319992631673,-9.78273105621338,-0.6776949763298035,-0.0830349996685981
1757088581275181000,5.45618115234375,-0.029424998909235,0.0098999999463558,-0.0002749999985098,0.0254040006548166,-0.0660760030150413,-0.0266280006617307,-9.782402992248535,-0.6828380227088928,-0.0782990008592605
1757088581284734000,5.46573388671875,-0.0318999998271465,0.0111375004053115,-0.0038499999791383,0.0253849998116493,-0.0083229998126626,-0.0172600001096725,-9.7820463180542,-0.6883749961853027,-0.0737269967794418
1757088581294286800,5.475286865234375,-0.0318999998271465,0.0098999999463558,-0.0038499999791383,0.0276650004088878,-0.0260979998856782,-0.0511909984052181,-9.781664848327637,-0.6942020058631897,-0.0695360004901886
1757088581303840000,5.484840087890625,-0.0306624993681907,0.0098999999463558,-0.0038499999791383,0.0179719999432563,-0.02483999915421,-0.0696260035037994,-9.781269073486328,-0.700203001499176,-0.0657519996166229
1757088581313393000,5.494392822265625,-0.0257124993950128,0.0086624994874,-0.0050874999724328,0.0226830001920461,-0.0192319992929697,-0.0778179988265037,-9.780866622924805,-0.7062100172042847,-0.0623960010707378
1757088581322946000,5.503946044921875,-0.0257124993950128,0.0098999999463558,-0.0063249999657273,0.0346999987959861,0.0063129998743534,-0.0743540003895759,-9.780473709106444,-0.7120659947395325,-0.0594520010054111
1757088581332499200,5.513499267578125,-0.0208999998867511,0.0074249999597668,-0.0063249999657273,0.05876300111413,0.0259819999337196,-0.0820830017328262,-9.780095100402832,-0.7176499962806702,-0.0570069998502731
1757088581342052000,5.523052001953125,-0.017187500372529,0.0074249999597668,-0.0063249999657273,0.0613880008459091,0.0490440018475055,-0.0780489966273307,-9.779738426208496,-0.7228289842605591,-0.0551149994134902
1757088581351605200,5.532605224609375,-0.0136124994605779,0.0037124999798834,-0.0063249999657273,0.0712459981441497,0.0595309995114803,-0.0603279992938041,-9.77941608428955,-0.7274810075759888,-0.0536709986627101
1757088581370711300,5.551711181640625,-0.0061874999664723,-0.0010999999940395,-0.0063249999657273,0.0812499970197677,0.0364940017461776,-0.0578100010752677,-9.778875350952148,-0.735181987285614,-0.0519419983029365
1757088581380264400,5.561264404296875,-0.0026124999858438,-0.0035749999806284,-0.0038499999791383,0.0885860025882721,0.0412149988114833,-0.0697939991950988,-9.778656005859377,-0.7382310032844543,-0.0517439991235733
1757088581389817600,5.570817626953125,-0.0001374999992549,-0.0085249999538064,-0.0015124999918043,0.0840419977903366,0.0661759972572326,-0.0580490007996559,-9.77847671508789,-0.7406659722328186,-0.0519939996302127
1757088581399370500,5.58037060546875,0.0060499999672174,-0.0085249999538064,0.0009624999947845,0.0818890035152435,0.0673450008034706,-0.0491920001804828,-9.778332710266112,-0.7425680160522461,-0.0527140013873577
