time,seconds_elapsed,z,y,x
1757088575915897900,0.09689794921875,1.8654625415802002,-5.309424877166748,1.3386999368667603
1757088575925450800,0.10645068359375,2.1000375747680664,-5.856812477111816,1.4889874458312988
1757088575935004000,0.11600390625,2.354137420654297,-6.256249904632568,1.6588000059127808
1757088575944557000,0.12555712890625,2.6229500770568848,-6.395537376403809,1.8603750467300415
1757088575954110200,0.135110107421875,2.9320499897003174,-6.317437648773193,2.0974249839782715
1757088575963663400,0.144663330078125,3.1238625049591064,-6.005862236022949,2.3282876014709473
1757088575973216300,0.15421630859375,3.2349624633789062,-5.707762241363525,2.496999979019165
1757088575982769400,0.163769287109375,3.325437545776367,-5.530662536621094,2.6569125652313232
1757088575992322800,0.17332275390625,3.4647250175476074,-5.457237243652344,2.865912437438965
1757088576001875700,0.182875732421875,3.623537540435791,-5.454899787902832,3.0430123805999756
1757088576011428900,0.192428955078125,3.6968250274658203,-5.565999984741211,3.2348248958587646
1757088576020981800,0.201981689453125,3.6796374320983887,-5.668712615966797,3.398587465286255
1757088576030535200,0.21153515625,3.639349937438965,-5.6662373542785645,3.5329248905181885
1757088576040088000,0.221088134765625,3.546537399291992,-5.3961873054504395,3.6246373653411865
1757088576049641200,0.23064111328125,3.474487543106079,-5.1628499031066895,3.6404500007629395
1757088576059194400,0.2401943359375,3.3767249584198,-4.699887275695801,3.647737503051758
1757088576068747300,0.249747314453125,3.281437397003174,-4.299075126647949,3.5976874828338623
1757088576078300400,0.259300537109375,3.1409125328063965,-3.8055875301361084,3.6124000549316406
1757088576087853800,0.268853759765625,3.0151000022888184,-3.3767249584198,3.5818750858306885
1757088576097407000,0.278406982421875,2.8708624839782715,-2.98333740234375,3.535399913787842
1757088576106960000,0.2879599609375,2.7878124713897705,-2.7340500354766846,3.4511125087738037
1757088576116513000,0.297512939453125,2.7157623767852783,-2.539900064468384,3.3643500804901123
1757088576126066000,0.30706591796875,2.6204750537872314,-2.420137405395508,3.212825059890747
1757088576135619300,0.316619384765625,2.5117125511169434,-2.4311375617980957,3.0027248859405518
1757088576145172200,0.326172119140625,2.318662405014038,-2.1795125007629395,2.8329124450683594
1757088576154725400,0.335725341796875,2.0572750568389893,-1.7115999460220337,2.5750999450683594
1757088576164278500,0.345278564453125,1.7701749801635742,-1.2399749755859375,2.2599499225616455
1757088576173831400,0.35483154296875,1.498887538909912,-0.7195374965667725,1.9496124982833862
1757088576183384800,0.364384765625,1.2533124685287476,-0.29438748955726624,1.727275013923645
1757088576192938000,0.37393798828125,1.0517375469207764,-0.0035749999806284904,1.627037525177002
1757088576202491100,0.3834912109375,0.896637499332428,0.07576250284910202,1.5879875421524048
1757088576212044000,0.3930439453125,0.7928249835968018,-0.035337500274181366,1.5867500305175781
1757088576221597200,0.40259716796875,0.686537504196167,-0.19415000081062317,1.5855125188827515
1757088576231150300,0.412150390625,0.5288249850273132,-0.30896249413490295,1.4939374923706055
1757088576240703500,0.421703369140625,0.3139125108718872,-0.2858625054359436,1.2531750202178955
1757088576250256400,0.43125634765625,0.10009999573230743,-0.15633749961853027,0.9002124667167664
1757088576259809500,0.4408095703125,-0.03189999982714653,0.11976250261068344,0.5055875182151794
1757088576269362700,0.45036279296875,-0.030662499368190765,0.9029625058174133,-0.5377625226974487
1757088576278915800,0.459915771484375,0.08181250095367432,1.389162540435791,-1.7546374797821045
1757088576288469000,0.469468994140625,0.1036750003695488,1.2328250408172607,-2.0160250663757324
1757088576298022100,0.479022216796875,-0.0648999959230423,0.5413374900817871,-1.4040124416351318
1757088576307575300,0.4885751953125,-0.31404998898506165,-0.35048750042915344,-0.5902875065803528
1757088576317128400,0.49812841796875,-0.3910500109195709,-0.8294000029563904,-0.12484999746084213
1757088576326681300,0.507681396484375,-0.16499999165534973,-0.8233500123023987,-0.19689999520778656
1757088576336234500,0.517234375,0.1671999990940094,-0.6132500171661377,-0.344712495803833
1757088576345787600,0.52678759765625,0.3957250118255615,-0.5277249813079834,-0.2714250087738037
1757088576355340800,0.5363408203125,0.4604874849319458,-0.6657750010490417,0.16830000281333923
1757088576364894000,0.54589404296875,0.40796250104904175,-0.9431124925613403,0.31735000014305115
1757088576374447000,0.555447021484375,0.420199990272522,-0.9235875010490417,0.14396250247955322
1757088576384000000,0.565,0.4507249891757965,-0.6743000149726868,-0.09803749620914459
1757088576393553200,0.57455322265625,0.5497249960899353,-0.2881999909877777,-0.22013749182224274
1757088576403106300,0.584106201171875,0.6265875101089478,0.1405249983072281,-0.2689499855041504
1757088576412659500,0.593659423828125,0.6193000078201294,0.49114999175071716,-0.3741374909877777
1757088576422212400,0.60321240234375,0.6743000149726868,0.6719624996185303,-0.5389999747276306
1757088576431765800,0.612765869140625,0.9394000172615051,0.29205000400543213,-0.7710999846458435
1757088576441319000,0.62231884765625,1.0762125253677368,0.3482874929904938,-0.724762499332428
1757088576450871800,0.631871826171875,1.1800249814987183,0.16128750145435333,-0.6843374967575073
1757088576460425000,0.641425048828125,1.4830750226974487,-0.2063875049352646,-0.6758124828338623
1757088576469978000,0.65097802734375,2.018087387084961,-0.8600624799728394,-0.8505749702453613
1757088576479531300,0.66053125,2.6375250816345215,-1.5013624429702759,-1.1083874702453613
1757088576489084400,0.67008447265625,3.24114990234375,-1.6198874711990356,-1.3172500133514404
1757088576498637600,0.679637451171875,3.7701125144958496,-1.7554625272750854,-1.2256749868392944
1757088576508190500,0.6891904296875,4.0572123527526855,-1.544124960899353,-0.6440500020980835
1757088576517743600,0.69874365234375,3.910637378692627,-0.3909125030040741,0.3638249933719635
1757088576527297000,0.708297119140625,3.2496750354766846,1.6164499521255493,0.8170250058174133
1757088576536850000,0.717849853515625,2.6754748821258545,2.129462480545044,0.9147874712944031
1757088576546403000,0.727403076171875,2.2428998947143555,1.425874948501587,0.892787516117096
1757088576555956200,0.736956298828125,1.9448000192642212,0.11742500215768814,0.6887375116348267
1757088576565509400,0.74650927734375,1.6761250495910645,-1.1251624822616577,0.30758750438690186
1757088576575062300,0.756062255859375,1.5783624649047852,-1.7653625011444092,0.11343749612569809
1757088576584615400,0.765615478515625,1.6528874635696411,-1.722599983215332,0.3821125030517578
1757088576594168600,0.77516845703125,1.8532249927520752,-1.1141624450683594,0.9257875084877014
1757088576603721700,0.7847216796875,2.205087423324585,-0.17710000276565552,1.4022250175476074
1757088576613275000,0.79427490234375,2.654712438583374,0.7574874758720398,1.6539875268936157
1757088576622827800,0.803827880859375,3.071199893951416,1.4234000444412231,1.7540874481201172
1757088576632381000,0.813380859375,3.271674871444702,2.030600070953369,1.6710374355316162
1757088576641933800,0.822933837890625,3.3046748638153076,1.6787375211715698,1.6307499408721924
1757088576651487200,0.8324873046875,3.3082499504089355,0.11495000123977661,1.2849375009536743
1757088576661040400,0.842040283203125,2.8685250282287598,-1.3400750160217285,0.735212504863739
1757088576670593300,0.85159326171875,2.653475046157837,-2.5251874923706055,0.19030000269412994
1757088576680146400,0.861146484375,3.035862445831299,-3.018812417984009,-0.3521375060081482
1757088576689699600,0.870699462890625,3.300962448120117,-2.967525005340576,-0.4437125027179718
1757088576699252700,0.880252685546875,2.960099935531616,-3.5220625400543213,-0.1835625022649765
1757088576708806000,0.889805908203125,2.191612482070923,-4.322312355041504,0.15125000476837158
1757088576718359000,0.899359130859375,1.352312445640564,-4.735225200653076,0.27953749895095825
1757088576727912000,0.908911865234375,0.6583499908447266,-4.435887336730957,-0.005087499972432852
1757088576737465300,0.91846533203125,0.17215000092983246,-3.5844874382019043,-0.39489999413490295
1757088576747018200,0.928018310546875,-0.09790000319480896,-2.4591875076293945,-0.5097125172615051
1757088576756571400,0.9375712890625,-0.17599999904632568,-1.1384999752044678,-0.3264249861240387
1757088576766124300,0.947124267578125,-0.1344749927520752,0.2480500042438507,0.011962499469518661
1757088576775677400,0.956677490234375,-0.07466249912977219,1.3219250440597534,0.28558748960494995
1757088576785230800,0.96623095703125,-0.042899999767541885,1.9523625373840332,0.4078249931335449
1757088576794783700,0.97578369140625,-0.02694999985396862,2.2419373989105225,0.40053749084472656
1757088576804337000,0.9853369140625,0.05857500061392784,2.2149875164031982,0.3357749879360199
1757088576813890000,0.99489013671875,0.15386250615119934,1.8533624410629272,0.2428250014781952
1757088576823443200,1.004443115234375,0.21119999885559082,1.219349980354309,0.14272500574588776
1757088576832996400,1.013996337890625,0.202674999833107,0.49486249685287476,0.03519999980926514
1757088576842549200,1.02354931640625,0.11838749796152115,-0.1073874980211258,-0.0625625029206276
1757088576852102400,1.033102294921875,0.07686249911785126,-0.4666749835014343,-0.08208750188350677
1757088576861655600,1.042655517578125,0.1013374999165535,-0.5875374674797058,-0.03932499885559082
1757088576871208700,1.052208740234375,0.12443749606609344,-0.5900124907493591,0.015675000846385956
1757088576880761900,1.061761962890625,0.11233749985694885,-0.5655375123023987,0.06572499871253967
1757088576890314800,1.071314697265625,0.0719124972820282,-0.5302000045776367,0.09501250088214874
1757088576899868000,1.080867919921875,0.04262499883770943,-0.48124998807907104,0.09872499853372574
1757088576909421000,1.090421142578125,0.03657500073313713,-0.4054875075817108,0.08648750185966492
1757088576918974200,1.09997412109375,0.02914999984204769,-0.3102000057697296,0.07067500054836273
1757088576928527400,1.10952734375,0.015812499448657036,-0.20391249656677246,0.06572499871253967
1757088576938080500,1.11908056640625,0.0035749999806284904,-0.07562500238418579,0.07067500054836273
1757088576947633700,1.128633544921875,-0.0013749999925494194,0.057475000619888306,0.07067500054836273
1757088576957186600,1.1381865234375,-0.0013749999925494194,0.14794999361038208,0.06696250289678574
1757088576966739700,1.14773974609375,0.0010999999940395355,0.1845249980688095,0.06572499871253967
1757088576976292900,1.15729296875,0.007287499960511923,0.18095000088214874,0.06696250289678574
1757088576985846000,1.166845947265625,0.0193875003606081,0.15028749406337738,0.07301250100135803
1757088576995399200,1.176399169921875,0.028049999848008156,0.09542500227689743,0.08167500048875809
1757088577004952000,1.1859521484375,0.032862499356269836,0.035475000739097595,0.08772499859333038
1757088577014505500,1.19550537109375,0.03162499889731407,-0.03162499889731407,0.08896250277757645
1757088577024058400,1.205058349609375,0.02433750033378601,-0.09638749808073044,0.09267500042915344
1757088577033611500,1.214611572265625,0.018149999901652336,-0.1428624987602234,0.09748750180006027
1757088577043164700,1.22416455078125,0.009624999947845936,-0.15633749961853027,0.09748750180006027
1757088577052717600,1.233717529296875,0.004812499973922968,-0.1331000030040741,0.08524999767541885
1757088577062270700,1.243270751953125,0.0010999999940395355,-0.08428750187158585,0.07301250100135803
1757088577071824000,1.252823974609375,-0.0037124999798834324,-0.02681249938905239,0.07067500054836273
1757088577081376800,1.262376708984375,-0.006187499966472387,0.018424998968839645,0.07548750191926956
1757088577090930200,1.27193017578125,-0.00989999994635582,0.04647500067949295,0.08043749630451202
1757088577100483000,1.281483154296875,-0.012374999932944775,0.06971249729394913,0.08401250094175339
1757088577110036200,1.2910361328125,-0.008662499487400055,0.07342500239610672,0.08401250094175339
1757088577119589600,1.300589599609375,-0.00013749999925494194,0.0611874982714653,0.07672499865293503
1757088577129142500,1.310142578125,0.008387500420212746,0.04399999976158142,0.06572499871253967
1757088577138695700,1.31969580078125,0.0170499999076128,0.02694999985396862,0.05843750014901161
1757088577148248600,1.32924853515625,0.020624998956918716,0.02199999988079071,0.05472499877214432
1757088577157801700,1.3388017578125,0.0193875003606081,0.028187500312924385,0.05224999785423279
1757088577167355100,1.348355224609375,0.018149999901652336,0.03423750028014183,0.04867500066757202
1757088577176908000,1.357907958984375,0.01209999993443489,0.03671250119805336,0.049912501126527786
1757088577186461200,1.367461181640625,0.006049999967217445,0.04647500067949295,0.05596249923110008
1757088577196014000,1.37701416015625,0.0010999999940395355,0.07576250284910202,0.06091250106692314
1757088577205567200,1.386567138671875,-0.002612499985843897,0.11495000123977661,0.05596249923110008
1757088577215120400,1.396120361328125,-0.002612499985843897,0.15028749406337738,0.049912501126527786
1757088577224673500,1.405673583984375,-0.0013749999925494194,0.1722874939441681,0.0424874983727932
1757088577234226400,1.415226318359375,0.002337499987334013,0.17847499251365662,0.03891250118613243
1757088577243779600,1.424779541015625,0.0035749999806284904,0.17352500557899475,0.03148749843239784
1757088577253333000,1.4343330078125,0.0035749999806284904,0.1722874939441681,0.020487500354647636
1757088577262886000,1.443885986328125,0.004812499973922968,0.17476250231266022,0.009487500414252281
1757088577272439000,1.45343896484375,0.004812499973922968,0.17847499251365662,0.0009624999947845936
1757088577281992000,1.462991943359375,0.002337499987334013,0.17847499251365662,-0.0015124999918043613
1757088577291545300,1.47254541015625,-0.00013749999925494194,0.17476250231266022,-0.0038499999791383743
1757088577301098500,1.482098388671875,0.0010999999940395355,0.1699499934911728,-0.008799999952316284
1757088577310651400,1.4916513671875,0.002337499987334013,0.16871249675750732,-0.018562499433755875
1757088577320204500,1.50120458984375,0.0010999999940395355,0.1699499934911728,-0.02956249937415123
1757088577329757700,1.5107578125,0.0010999999940395355,0.17352500557899475,-0.03932499885559082
1757088577339310800,1.520310791015625,-0.0013749999925494194,0.17599999904632568,-0.043037500232458115
1757088577348864000,1.529864013671875,-0.0037124999798834324,0.16747500002384186,-0.04179999977350235
1757088577358417000,1.5394169921875,-0.008662499487400055,0.15152500569820404,-0.038087498396635056
1757088577367970300,1.54897021484375,-0.00989999994635582,0.14176249504089355,-0.035612501204013824
1757088577377523200,1.558523193359375,-0.011137500405311584,0.13928750157356262,-0.038087498396635056
1757088577387076400,1.568076416015625,-0.00989999994635582,0.13199999928474426,-0.03932499885559082
1757088577396629200,1.577629150390625,-0.006187499966472387,0.11618749797344208,-0.03203750029206276
1757088577406182400,1.587182373046875,-0.002612499985843897,0.11371249705553055,-0.023512499406933784
1757088577415735600,1.596735595703125,0.002337499987334013,0.11976250261068344,-0.01979999989271164
1757088577425288700,1.606288818359375,0.009624999947845936,0.11976250261068344,-0.01251249946653843
1757088577434841900,1.615841796875,0.015812499448657036,0.11742500215768814,-0.006324999965727329
1757088577444394800,1.625394775390625,0.02186249941587448,0.10999999940395355,0.0034374999813735485
1757088577453948000,1.634947998046875,0.02681249938905239,0.10023749619722366,0.007149999961256981
1757088577463501000,1.6445009765625,0.02914999984204769,0.09171249717473984,0.005912499967962503
1757088577473054200,1.65405419921875,0.030387500301003456,0.08442500233650208,0.008249999955296516
1757088577482607400,1.663607421875,0.02681249938905239,0.07218749821186066,0.01691249944269657
1757088577492160300,1.67316015625,0.020624998956918716,0.062424998730421066,0.029012499377131462
1757088577501713400,1.68271337890625,0.020624998956918716,0.050187498331069946,0.03396249935030937
1757088577511266600,1.6922666015625,0.0193875003606081,0.032999999821186066,0.03396249935030937
1757088577520819700,1.70181982421875,0.018149999901652336,0.015949999913573265,0.027912499383091927
1757088577530372600,1.71137255859375,0.018149999901652336,0.006187499966472387,0.020487500354647636
1757088577539925800,1.72092578125,0.015812499448657036,0.011137500405311584,0.011962499469518661
1757088577549479200,1.730479248046875,0.015812499448657036,0.020899999886751175,0.010724999941885471
1757088577559032000,1.740031982421875,0.015812499448657036,0.02447500079870224,0.015675000846385956
1757088577568585200,1.749585205078125,0.015812499448657036,0.01718750037252903,0.021724998950958252
1757088577578138000,1.75913818359375,0.018149999901652336,0.006187499966472387,0.021724998950958252
1757088577587691300,1.768691162109375,0.020624998956918716,-0.007287499960511923,0.014437500387430191
1757088577597244700,1.77824462890625,0.02186249941587448,-0.015812499448657036,0.005912499967962503
1757088577606797600,1.787797607421875,0.025575000792741776,-0.01952499896287918,0.004674999974668026
1757088577616350700,1.797350830078125,0.02681249938905239,-0.02433750033378601,0.009487500414252281
1757088577625903900,1.80690380859375,0.028049999848008156,-0.025575000792741776,0.009487500414252281
1757088577635457000,1.81645703125,0.028049999848008156,-0.02681249938905239,0.008249999955296516
1757088577645010000,1.826010009765625,0.02681249938905239,-0.028049999848008156,0.011962499469518661
1757088577654563000,1.83556298828125,0.023099999874830246,-0.020624998956918716,0.01691249944269657
1757088577664116200,1.8451162109375,0.015812499448657036,-0.006049999967217445,0.01924999989569187
1757088577673669000,1.854669189453125,0.010862499475479126,0.00494999997317791,0.018149999901652336
1757088577683222500,1.864222412109375,0.008387500420212746,0.0037124999798834324,0.015675000846385956
1757088577692775400,1.873775390625,0.004812499973922968,-0.004812499973922968,0.011962499469518661
1757088577702328600,1.88332861328125,0.004812499973922968,-0.010862499475479126,0.008249999955296516
1757088577711881500,1.892881591796875,0.0035749999806284904,-0.01209999993443489,0.004674999974668026
1757088577721434600,1.9024345703125,0.0035749999806284904,-0.01209999993443489,0.0034374999813735485
1757088577730987800,1.91198779296875,0.0010999999940395355,-0.013337500393390656,0.005912499967962503
1757088577740541000,1.921541015625,0.0010999999940395355,-0.01952499896287918,0.010724999941885471
1757088577750093800,1.93109375,-0.00013749999925494194,-0.0340999998152256,0.015675000846385956
1757088577759647200,1.940647216796875,-0.00013749999925494194,-0.05486249923706055,0.01691249944269657
1757088577769200400,1.950200439453125,0.006049999967217445,-0.06462500244379044,0.009487500414252281
1757088577778753300,1.959753173828125,0.008387500420212746,-0.05486249923706055,-0.0015124999918043613
1757088577788306400,1.969306396484375,0.009624999947845936,-0.01952499896287918,-0.01484999991953373
1757088577797859600,1.978859619140625,0.013337500393390656,0.020899999886751175,-0.01484999991953373
1757088577807412700,1.988412841796875,0.015812499448657036,0.04895000159740448,-0.005087499972432852
1757088577816966000,1.9979658203125,0.02186249941587448,0.054999999701976776,0.007149999961256981
1757088577826518800,2.007518798828125,0.02914999984204769,0.03671250119805336,0.01924999989569187
1757088577836072000,2.017072021484375,0.035337500274181366,0.01223750039935112,0.025437500327825546
1757088577845625000,2.026625,0.04138749837875366,-0.0035749999806284904,0.02419999986886978
1757088577855178200,2.03617822265625,0.04633750021457672,-0.01209999993443489,0.01924999989569187
1757088577864731100,2.045731201171875,0.045099999755620956,-0.01209999993443489,0.01924999989569187
1757088577874284300,2.0552841796875,0.03904999792575836,0.00013749999925494194,0.020487500354647636
1757088577883837200,2.064837158203125,0.030387500301003456,0.01966249942779541,0.025437500327825546
1757088577893390600,2.074390625,0.02433750033378601,0.03918749839067459,0.03148749843239784
1757088577902943700,2.08394384765625,0.015812499448657036,0.05142499879002571,0.0364375002682209
1757088577912496600,2.09349658203125,0.010862499475479126,0.06476250290870667,0.03519999980926514
1757088577922049800,2.1030498046875,0.010862499475479126,0.08195000141859055,0.02667500078678131
1757088577931603000,2.11260302734375,0.010862499475479126,0.0929500013589859,0.018149999901652336
1757088577941156000,2.122156005859375,0.009624999947845936,0.09652499854564667,0.009487500414252281
1757088577950709000,2.131708984375,0.010862499475479126,0.08923749625682831,0.005912499967962503
1757088577960262100,2.14126220703125,0.009624999947845936,0.07576250284910202,0.002199999988079071
1757088577969815300,2.150815185546875,0.009624999947845936,0.0611874982714653,-0.002749999985098839
1757088577979368200,2.1603681640625,0.009624999947845936,0.04647500067949295,-0.006324999965727329
1757088577988921600,2.169921630859375,0.009624999947845936,0.040424998849630356,-0.01251249946653843
1757088577998474500,2.179474609375,0.009624999947845936,0.04166249930858612,-0.021037500351667404
1757088578008027600,2.189027587890625,0.008387500420212746,0.05142499879002571,-0.02708750031888485
1757088578017580500,2.19858056640625,0.006049999967217445,0.062424998730421066,-0.025849999859929085
1757088578027133700,2.2081337890625,0.004812499973922968,0.06971249729394913,-0.02461249940097332
1757088578036686800,2.217686767578125,0.0035749999806284904,0.06847500056028366,-0.02227500081062317
1757088578046240000,2.227239990234375,0.0035749999806284904,0.062424998730421066,-0.01732499897480011
1757088578055793200,2.236793212890625,0.004812499973922968,0.059950001537799835,-0.01484999991953373
1757088578065346300,2.24634619140625,0.009624999947845936,0.059950001537799835,-0.016087500378489494
1757088578074899500,2.2558994140625,0.0170499999076128,0.0611874982714653,-0.016087500378489494
1757088578084452400,2.265452392578125,0.023099999874830246,0.062424998730421066,-0.011274999938905239
1757088578094005500,2.275005615234375,0.028049999848008156,0.06476250290870667,0.002199999988079071
1757088578103558400,2.284558349609375,0.028049999848008156,0.06599999964237213,0.01691249944269657
1757088578113111800,2.29411181640625,0.030387500301003456,0.07576250284910202,0.027912499383091927
1757088578122664700,2.303664794921875,0.030387500301003456,0.08566249907016754,0.03396249935030937
1757088578132217900,2.3132177734375,0.032862499356269836,0.08442500233650208,0.037675000727176666
1757088578141770800,2.322770751953125,0.032862499356269836,0.07699999958276749,0.0364375002682209
1757088578151324200,2.33232421875,0.02914999984204769,0.062424998730421066,0.030249999836087227
1757088578160877300,2.341877197265625,0.025575000792741776,0.047712501138448715,0.02419999986886978
1757088578170430200,2.35143017578125,0.02186249941587448,0.03918749839067459,0.018149999901652336
1757088578179983400,2.3609833984375,0.0193875003606081,0.04166249930858612,0.015675000846385956
1757088578189536500,2.37053662109375,0.015812499448657036,0.05142499879002571,0.013199999928474426
1757088578199089700,2.380089599609375,0.013337500393390656,0.06366249918937683,0.008249999955296516
1757088578208642600,2.389642578125,0.008387500420212746,0.07576250284910202,0.005912499967962503
1757088578218195700,2.39919580078125,0.009624999947845936,0.07576250284910202,0.002199999988079071
1757088578227748600,2.40874853515625,0.010862499475479126,0.06847500056028366,-0.0038499999791383743
1757088578237302300,2.41830224609375,0.010862499475479126,0.05623750016093254,-0.01484999991953373
1757088578246855200,2.427855224609375,0.009624999947845936,0.03918749839067459,-0.02227500081062317
1757088578256408000,2.437407958984375,0.009624999947845936,0.02447500079870224,-0.025849999859929085
1757088578265961200,2.446961181640625,0.008387500420212746,0.0147124994546175,-0.025849999859929085
1757088578275514000,2.45651416015625,0.004812499973922968,0.015949999913573265,-0.02461249940097332
1757088578285067300,2.4660673828125,0.0010999999940395355,0.018424998968839645,-0.023512499406933784
1757088578294620700,2.47562060546875,-0.0013749999925494194,0.0147124994546175,-0.01979999989271164
1757088578304173600,2.485173583984375,-0.0013749999925494194,0.00494999997317791,-0.016087500378489494
1757088578313726700,2.494726806640625,0.002337499987334013,-0.007287499960511923,-0.016087500378489494
1757088578323280000,2.50427978515625,0.007287499960511923,-0.02186249941587448,-0.01484999991953373
1757088578332833000,2.5138330078125,0.01209999993443489,-0.02681249938905239,-0.010037500411272049
1757088578342386000,2.523385986328125,0.014574999921023846,-0.018287500366568565,-0.0038499999791383743
1757088578351939000,2.53293896484375,0.013337500393390656,0.00494999997317791,0.002199999988079071
1757088578361492000,2.542491943359375,0.01209999993443489,0.032999999821186066,0.008249999955296516
1757088578371045000,2.552045166015625,0.008387500420212746,0.050187498331069946,0.011962499469518661
1757088578380598300,2.561598388671875,0.006049999967217445,0.05142499879002571,0.008249999955296516
1757088578390151400,2.5711513671875,0.004812499973922968,0.03189999982714653,0.004674999974668026
1757088578399704300,2.580704345703125,0.004812499973922968,0.011137500405311584,0.002199999988079071
1757088578409257500,2.590257568359375,0.006049999967217445,-0.0010999999940395355,0.0034374999813735485
1757088578418810400,2.599810302734375,0.007287499960511923,-0.007287499960511923,0.004674999974668026
1757088578428363800,2.60936376953125,0.004812499973922968,-0.006049999967217445,0.004674999974668026
1757088578437917000,2.6189169921875,0.0035749999806284904,-0.0035749999806284904,0.0009624999947845936
1757088578447469800,2.6284697265625,0.004812499973922968,0.002474999986588955,-0.002749999985098839
1757088578457023000,2.63802294921875,0.007287499960511923,0.006187499966472387,-0.005087499972432852
1757088578466576100,2.647576171875,0.008387500420212746,0.00013749999925494194,-0.005087499972432852
1757088578476129300,2.65712939453125,0.007287499960511923,-0.0035749999806284904,-0.0015124999918043613
1757088578485682200,2.66668212890625,0.004812499973922968,0.002474999986588955,-0.0002749999985098839
1757088578495235300,2.6762353515625,0.004812499973922968,0.011137500405311584,0.0009624999947845936
1757088578504788200,2.685788330078125,0.0035749999806284904,0.008662499487400055,0.002199999988079071
1757088578514341600,2.695341552734375,0.0035749999806284904,-0.00976249948143959,0.002199999988079071
1757088578523894800,2.704894775390625,0.004812499973922968,-0.03162499889731407,0.002199999988079071
1757088578533447700,2.71444775390625,0.004812499973922968,-0.04262499883770943,0.0034374999813735485
1757088578543000800,2.724000732421875,0.006049999967217445,-0.03657500073313713,0.002199999988079071
1757088578552554200,2.73355419921875,0.004812499973922968,-0.020624998956918716,-0.0002749999985098839
1757088578562107100,2.743107177734375,0.002337499987334013,0.00013749999925494194,-0.0015124999918043613
1757088578571660000,2.752659912109375,-0.00013749999925494194,0.0147124994546175,0.0009624999947845936
1757088578581213200,2.762213134765625,-0.0037124999798834324,0.018424998968839645,0.008249999955296516
1757088578590766300,2.771766357421875,-0.006187499966472387,0.01718750037252903,0.011962499469518661
1757088578600319500,2.781319580078125,-0.002612499985843897,0.008662499487400055,0.014437500387430191
1757088578609872400,2.790872314453125,-0.0013749999925494194,-0.004812499973922968,0.014437500387430191
1757088578619425500,2.800425537109375,0.0035749999806284904,-0.020624998956918716,0.011962499469518661
1757088578628978400,2.809978515625,0.008387500420212746,-0.028049999848008156,0.005912499967962503
1757088578638531600,2.819531494140625,0.007287499960511923,-0.02186249941587448,-0.0015124999918043613
1757088578648085000,2.8290849609375,0.004812499973922968,-0.0010999999940395355,-0.005087499972432852
1757088578657638000,2.838637939453125,0.0010999999940395355,0.020899999886751175,-0.002749999985098839
1757088578667191000,2.84819091796875,-0.002612499985843897,0.03189999982714653,0.002199999988079071
1757088578676744200,2.857744140625,-0.0037124999798834324,0.03671250119805336,0.008249999955296516
1757088578686297300,2.86729736328125,-0.002612499985843897,0.037950001657009125,0.009487500414252281
1757088578695850200,2.876850341796875,-0.00013749999925494194,0.03423750028014183,0.0034374999813735485
1757088578705403400,2.8864033203125,0.0010999999940395355,0.01966249942779541,-0.0002749999985098839
1757088578714956300,2.895956298828125,0.0010999999940395355,0.002474999986588955,-0.0015124999918043613
1757088578724509700,2.905509765625,-0.00013749999925494194,-0.002337499987334013,-0.002749999985098839
1757088578734062800,2.915062744140625,-0.0013749999925494194,0.007424999959766865,-0.002749999985098839
1757088578743615700,2.92461572265625,-0.0037124999798834324,0.015949999913573265,0.0009624999947845936
1757088578753169000,2.9341689453125,-0.00494999997317791,0.008662499487400055,0.004674999974668026
1757088578762721800,2.9437216796875,-0.0037124999798834324,-0.006049999967217445,0.004674999974668026
1757088578772275000,2.95327490234375,-0.002612499985843897,-0.015812499448657036,0.002199999988079071
1757088578781828000,2.962828125,-0.00013749999925494194,-0.014574999921023846,0.0009624999947845936
1757088578791381200,2.97238134765625,-0.0013749999925494194,-0.013337500393390656,0.0009624999947845936
1757088578800934100,2.98193408203125,-0.0013749999925494194,-0.015812499448657036,0.002199999988079071
1757088578810487600,2.991487548828125,-0.0037124999798834324,-0.015812499448657036,-0.0015124999918043613
1757088578820040400,3.00104052734375,-0.002612499985843897,-0.015812499448657036,-0.0038499999791383743
1757088578829593600,3.010593505859375,-0.00494999997317791,-0.01209999993443489,-0.007562499959021807
1757088578839146500,3.020146484375,-0.008662499487400055,-0.01209999993443489,-0.007562499959021807
1757088578848699600,3.02969970703125,-0.008662499487400055,-0.020624998956918716,-0.008799999952316284
1757088578858252800,3.039252685546875,-0.002612499985843897,-0.0340999998152256,-0.008799999952316284
1757088578867806000,3.048805908203125,0.0010999999940395355,-0.04028749838471413,-0.007562499959021807
1757088578877359000,3.058359130859375,0.004812499973922968,-0.03904999792575836,-0.005087499972432852
1757088578886912000,3.067912109375,0.007287499960511923,-0.02928750030696392,-0.002749999985098839
1757088578896465000,3.07746484375,0.006049999967217445,-0.014574999921023846,-0.002749999985098839
1757088578906018000,3.08701806640625,0.0035749999806284904,-0.0085249999538064,-0.0038499999791383743
1757088578915571200,3.0965712890625,0.002337499987334013,-0.018287500366568565,-0.002749999985098839
1757088578925124400,3.106124267578125,0.004812499973922968,-0.03904999792575836,-0.0002749999985098839
1757088578934677500,3.115677490234375,0.004812499973922968,-0.05486249923706055,-0.0015124999918043613
1757088578944230700,3.125230712890625,0.006049999967217445,-0.059812501072883606,-0.0015124999918043613
1757088578953783800,3.13478369140625,0.008387500420212746,-0.05004999786615372,-0.005087499972432852
1757088578972889900,3.153889892578125,0.006049999967217445,-0.03657500073313713,0.008249999955296516
1757088578982442800,3.16344287109375,0.0035749999806284904,-0.0340999998152256,0.010724999941885471
1757088578991996000,3.172995849609375,0.002337499987334013,-0.025575000792741776,0.007149999961256981
1757088579001549000,3.182549072265625,-0.00013749999925494194,-0.015812499448657036,0.0009624999947845936
1757088579011102200,3.192102294921875,-0.002612499985843897,-0.010862499475479126,-0.002749999985098839
1757088579020655000,3.201655029296875,-0.007424999959766865,-0.0085249999538064,-0.002749999985098839
1757088579030208300,3.211208251953125,-0.012374999932944775,-0.006049999967217445,-0.0038499999791383743
1757088579039761700,3.22076171875,-0.0147124994546175,0.00013749999925494194,-0.008799999952316284
1757088579049314600,3.230314453125,-0.015949999913573265,0.008662499487400055,-0.01251249946653843
1757088579058867700,3.23986767578125,-0.01718750037252903,0.00989999994635582,-0.018562499433755875
1757088579068420600,3.249420654296875,-0.01966249942779541,0.007424999959766865,-0.023512499406933784
1757088579077973500,3.258973388671875,-0.025712499395012856,0.007424999959766865,-0.023512499406933784
1757088579087527000,3.26852685546875,-0.030662499368190765,0.01347499992698431,-0.025849999859929085
1757088579097079800,3.278079833984375,-0.033137500286102295,0.028187500312924385,-0.030799999833106995
1757088579106633000,3.287633056640625,-0.03437500074505806,0.045237500220537186,-0.043037500232458115
1757088579116186000,3.29718603515625,-0.030662499368190765,0.05376249924302101,-0.060087498277425766
1757088579125739300,3.3067392578125,-0.020899999886751175,0.05871250107884407,-0.07603749632835388
1757088579135292400,3.31629248046875,-0.00989999994635582,0.054999999701976776,-0.08703749626874924
1757088579144845300,3.32584521484375,0.0035749999806284904,0.04647500067949295,-0.0943249985575676
1757088579154398500,3.3353984375,0.0170499999076128,0.03189999982714653,-0.10161250084638596
1757088579163951400,3.344951416015625,0.02914999984204769,0.00494999997317791,-0.10903749614953995
1757088579173504500,3.35450439453125,0.03904999792575836,-0.03657500073313713,-0.10779999941587448
1757088579183057700,3.3640576171875,0.04262499883770943,-0.08057499676942825,-0.10037499666213989
1757088579192610800,3.37361083984375,0.03904999792575836,-0.10615000128746033,-0.0943249985575676
1757088579202163700,3.383163818359375,0.03904999792575836,-0.11233749985694885,-0.09556250274181366
1757088579211716900,3.392716796875,0.04138749837875366,-0.12457499653100967,-0.10161250084638596
1757088579221270000,3.40227001953125,0.032862499356269836,-0.12815000116825104,-0.1163249984383583
1757088579230823200,3.4118232421875,0.023099999874830246,-0.09638749808073044,-0.14685000479221344
1757088579240376000,3.4213759765625,0.014574999921023846,-0.0340999998152256,-0.19442500174045563
1757088579249929200,3.43092919921875,0.01209999993443489,0.0611874982714653,-0.26042500138282776
1757088579259482000,3.440482177734375,0.013337500393390656,0.17723749577999115,-0.33371248841285706
1757088579269035300,3.45003515625,0.014574999921023846,0.28600001335144043,-0.40466248989105225
1757088579278588700,3.459588623046875,0.02186249941587448,0.3727625012397766,-0.47423750162124634
1757088579288141600,3.4691416015625,0.030387500301003456,0.41909998655319214,-0.5414749979972839
1757088579297694700,3.47869482421875,0.02914999984204769,0.4300999939441681,-0.6012874841690063
1757088579307247600,3.48824755859375,0.018149999901652336,0.4142875075340271,-0.6635749936103821
1757088579316800500,3.497800537109375,0.0010999999940395355,0.3910500109195709,-0.7357624769210815
1757088579326354000,3.50735400390625,-0.029424998909235,0.38005000352859497,-0.8163374662399292
1757088579335907000,3.516906982421875,-0.059950001537799835,0.41909998655319214,-0.8908625245094299
1757088579345460000,3.5264599609375,-0.08318749815225601,0.5046250224113464,-0.9568625092506409
1757088579355013000,3.53601318359375,-0.0989999994635582,0.607200026512146,-1.0032000541687012
1757088579364566300,3.545566162109375,-0.09047500044107437,0.6719624996185303,-1.03496253490448
1757088579374119400,3.555119384765625,-0.05389999970793724,0.6561499834060669,-1.052150011062622
1757088579383672300,3.56467236328125,0.002337499987334013,0.5511000156402588,-1.0594375133514404
1757088579393225500,3.5742255859375,0.07081250101327896,0.4008125066757202,-1.0631500482559204
1757088579402778600,3.583778564453125,0.1354375034570694,0.3091000020503998,-1.0766249895095825
1757088579412331800,3.593331787109375,0.19786250591278076,0.3152875006198883,-1.092437505722046
1757088579421884700,3.602884765625,0.27348750829696655,0.3287625014781952,-1.1131999492645264
1757088579431437800,3.612437744140625,0.381012499332428,0.29452499747276306,-1.152250051498413
1757088579440990700,3.62199072265625,0.4959625005722046,0.29081249237060547,-1.2280124425888062
1757088579450544000,3.631544189453125,0.5497249960899353,0.3482874929904938,-1.3209625482559204
1757088579460097000,3.641096923828125,0.5497249960899353,0.44110000133514404,-1.4565374851226807
1757088579469650200,3.650650146484375,0.5105375051498413,0.44110000133514404,-1.6458749771118164
1757088579479203000,3.660203125,0.4470124840736389,0.2237125039100647,-1.8646374940872192
1757088579488756200,3.669756103515625,0.3529624938964844,-0.11838749796152115,-1.996500015258789
1757088579498309400,3.679309326171875,0.1868624985218048,-0.4727250039577484,-2.0417375564575195
1757088579507862500,3.688862548828125,-0.01718750037252903,-0.669487476348877,-2.140737533569336
1757088579517415700,3.698415771484375,-0.20295000076293945,-0.7195374965667725,-2.4058375358581543
1757088579526968600,3.707968505859375,-0.32999998331069946,-0.6485875248908997,-2.804037570953369
1757088579536521500,3.717521484375,-0.4057624936103821,-0.7512999773025513,-3.1779000759124756
1757088579546075000,3.727074951171875,-0.42157500982284546,-1.1471624374389648,-3.396662473678589
1757088579555628000,3.7366279296875,-0.38981249928474426,-1.5613124370574951,-3.413712501525879
1757088579565181000,3.746180908203125,-0.38128748536109924,-1.7958874702453613,-3.292712450027466
1757088579574733800,3.75573388671875,-0.4105750024318695,-1.8532249927520752,-3.071612596511841
1757088579584287000,3.765286865234375,-0.44852501153945923,-1.6676000356674194,-2.905512571334839
1757088579593840000,3.774840087890625,-0.4998124837875366,-1.3217874765396118,-2.7942750453948975
1757088579603393300,3.784393310546875,-0.44852501153945923,-0.9271624684333801,-2.731987476348877
1757088579612946400,3.793946533203125,-0.3653374910354614,-0.49101248383522034,-2.5719375610351562
1757088579622499600,3.80349951171875,-0.27623748779296875,-0.17833749949932098,-2.277549982070923
1757088579632052500,3.813052490234375,-0.19676250219345093,-0.13062499463558197,-2.0417375564575195
1757088579641605600,3.822605712890625,-0.20295000076293945,-0.2186249941587448,-1.962262511253357
1757088579651158500,3.832158447265625,-0.201712504029274,-0.26138749718666077,-1.9439749717712402
1757088579660711700,3.841711669921875,-0.1284250020980835,-0.2686749994754791,-1.8999749422073364
1757088579670264600,3.8512646484375,-0.047712501138448715,-0.3053874969482422,-1.9244500398635864
1757088579679817700,3.860817626953125,0.010862499475479126,-0.46543750166893005,-2.0552124977111816
1757088579689371000,3.870370849609375,0.02681249938905239,-0.6437749862670898,-2.1956000328063965
1757088579698924000,3.879924072265625,0.02433750033378601,-0.7280625104904175,-2.3043625354766846
1757088579708477000,3.889476806640625,0.014574999921023846,-0.8025875091552734,-2.361837387084961
1757088579718030300,3.8990302734375,-0.018424998968839645,-0.8551124930381775,-2.3288373947143555
1757088579727583500,3.90858349609375,-0.052662499248981476,-0.7378249764442444,-2.242074966430664
1757088579737136400,3.918136474609375,-0.042899999767541885,-0.6230124831199646,-2.0880749225616455
1757088579746689500,3.927689453125,0.009624999947845936,-0.3774375021457672,-1.9182624816894531
1757088579756242400,3.937242431640625,0.09638749808073044,-0.1050499975681305,-1.7606874704360962
1757088579765795600,3.946795654296875,0.22343750298023224,0.10271249711513519,-1.6543999910354614
1757088579775348500,3.956348388671875,0.27114999294281006,0.18095000088214874,-1.6068249940872192
1757088579784902000,3.96590185546875,0.282150000333786,0.09652499854564667,-1.6654000282287598
1757088579794454800,3.975454833984375,0.2881999909877777,-0.15138749778270721,-1.7521624565124512
1757088579804008000,3.985008056640625,0.2503874897956848,-0.3139125108718872,-1.7729250192642212
1757088579813560800,3.994560791015625,0.18067499995231628,-0.30896249413490295,-1.7351125478744507
1757088579823114000,4.004114013671875,0.07438749819993973,-0.1648624986410141,-1.6838250160217285
1757088579832667100,4.013667236328125,-0.02461249940097332,0.08923749625682831,-1.6458749771118164
1757088579842220300,4.02322021484375,-0.08923749625682831,0.22728750109672546,-1.6190625429153442
1757088579851773400,4.0327734375,-0.07713750004768372,0.15399999916553497,-1.6238750219345093
1757088579861326300,4.042326416015625,-0.02213750034570694,0.12099999934434891,-1.6311625242233276
1757088579870879500,4.05187939453125,0.057337500154972076,0.11742500215768814,-1.638587474822998
1757088579880432400,4.061432373046875,0.1293874979019165,0.06971249729394913,-1.647112488746643
1757088579889985500,4.070985595703125,0.18562500178813934,0.1381874978542328,-1.625112533569336
1757088579899538700,4.08053857421875,0.20391249656677246,0.28600001335144043,-1.5884000062942505
1757088579909091600,4.090091552734375,0.24667499959468842,0.3727625012397766,-1.5493500232696533
1757088579918645000,4.09964501953125,0.3394874930381775,0.18947499990463257,-1.4773000478744507
1757088579928198000,4.109197998046875,0.3651999831199646,0.11495000123977661,-1.467537522315979
1757088579937751000,4.1187509765625,0.38843750953674316,-0.03657500073313713,-1.5175875425338745
1757088579947304200,4.12830419921875,0.3932499885559082,-0.06710000336170197,-1.52611243724823
1757088579956857000,4.137857177734375,0.3871999979019165,-0.020624998956918716,-1.5005375146865845
1757088579966410200,4.14741015625,0.38596248626708984,0.13928750157356262,-1.455299973487854
1757088579975963100,4.156963134765625,0.3712500035762787,0.16871249675750732,-1.4052499532699585
1757088579985516300,4.166516357421875,0.3517250120639801,0.14300000667572021,-1.4052499532699585
1757088579995069400,4.1760693359375,0.3334375023841858,0.16499999165534973,-1.3782999515533447
1757088580004622600,4.18562255859375,0.30524998903274536,0.22247499227523804,-1.3319624662399292
1757088580014175700,4.19517578125,0.23938749730587006,0.3250499963760376,-1.2830125093460083
1757088580023728600,4.204728759765625,0.17710000276565552,0.38362500071525574,-1.2342000007629395
1757088580033281500,4.214281494140625,0.12209999561309814,0.45210000872612,-1.1621500253677368
1757088580042834700,4.223834716796875,0.08291249722242355,0.5608624815940857,-1.0961500406265259
1757088580052387800,4.233387939453125,0.04262499883770943,0.6182000041007996,-1.01791250705719
1757088580061941000,4.24294091796875,-0.007424999959766865,0.634149968624115,-0.9421499967575073
1757088580071494000,4.252493896484375,-0.0966624990105629,0.5229125022888184,-0.9201499819755554
1757088580081047300,4.26204736328125,-0.1564749926328659,0.47657498717308044,-0.9018625020980835
1757088580090600200,4.27160009765625,-0.2102375030517578,0.4483875036239624,-0.8823375105857849
1757088580100153300,4.2811533203125,-0.2615250051021576,0.45704999566078186,-0.8322874903678894
1757088580109706200,4.290706298828125,-0.28476250171661377,0.5181000232696533,-0.7467625141143799
1757088580119259400,4.30025927734375,-0.2872374951839447,0.5913875102996826,-0.658762514591217
1757088580128812500,4.3098125,-0.29452499747276306,0.6084374785423279,-0.5952374935150146
1757088580138365700,4.31936572265625,-0.31171250343322754,0.5571500062942505,-0.5487625002861023
1757088580147918800,4.3289189453125,-0.3250499963760376,0.4545750021934509,-0.5157625079154968
1757088580157471700,4.3384716796875,-0.353237509727478,0.34209999442100525,-0.48399999737739563
1757088580167024600,4.348024658203125,-0.37523749470710754,0.2040500044822693,-0.4571875035762787
1757088580176577800,4.357577880859375,-0.37152498960494995,0.1601874977350235,-0.3984749913215637
1757088580186131000,4.367130859375,-0.3470500111579895,0.16499999165534973,-0.3251875042915344
1757088580195684000,4.37668408203125,-0.32999998331069946,0.14547500014305115,-0.2470874935388565
1757088580205237000,4.386237060546875,-0.3030500113964081,0.17104999721050262,-0.17366249859333038
1757088580214790100,4.3957900390625,-0.2750000059604645,0.23223750293254852,-0.11990000307559967
1757088580224343300,4.40534326171875,-0.2677125036716461,0.25423750281333923,-0.08813749998807907
1757088580233896400,4.414896484375,-0.2480500042438507,0.2810499966144562,-0.08703749626874924
1757088580243449600,4.42444970703125,-0.22495000064373016,0.27252501249313354,-0.10408750176429749
1757088580253002500,4.43400244140625,-0.18576249480247498,0.2554749846458435,-0.11756250262260437
1757088580262555400,4.443555419921875,-0.14794999361038208,0.22481249272823334,-0.10779999941587448
1757088580272108500,4.453108642578125,-0.13695000112056732,0.13695000112056732,-0.057612501084804535
1757088580281661700,4.46266162109375,-0.11742500215768814,0.059950001537799835,0.004674999974668026
1757088580291214600,4.472214599609375,-0.09790000319480896,-0.00976249948143959,0.01924999989569187
1757088580300767700,4.481767822265625,-0.07466249912977219,-0.057337500154972076,-0.005087499972432852
1757088580310321000,4.49132080078125,-0.042899999767541885,-0.1073874980211258,-0.030799999833106995
1757088580319873800,4.500873779296875,0.0035749999806284904,-0.14409999549388885,-0.01251249946653843
1757088580329427000,4.510427001953125,0.037812501192092896,-0.1331000030040741,0.025437500327825546
1757088580338980000,4.51997998046875,0.04881250113248825,-0.06104999780654907,0.06201250106096268
1757088580348533200,4.529533203125,0.04386249929666519,0.032999999821186066,0.08648750185966492
1757088580358086100,4.539086181640625,0.030387500301003456,0.0989999994635582,0.09377499669790268
1757088580367639300,4.548639404296875,0.032862499356269836,0.12828749418258667,0.08167500048875809
1757088580377192400,4.5581923828125,0.0340999998152256,0.11618749797344208,0.05472499877214432
1757088580386745600,4.56774560546875,0.047575000673532486,0.08071249723434448,0.04001250118017197
1757088580396298500,4.577298583984375,0.05238749831914902,0.0611874982714653,0.030249999836087227
1757088580405851400,4.586851318359375,0.04262499883770943,0.032999999821186066,0.04496249929070473
1757088580415404500,4.596404541015625,0.03162499889731407,0.01718750037252903,0.07301250100135803
1757088580424957400,4.60595751953125,0.008387500420212746,-0.023099999874830246,0.0742499977350235
1757088580434510600,4.615510498046875,0.002337499987334013,0.00989999994635582,0.07177499681711197
1757088580444063700,4.625063720703125,-0.01718750037252903,0.09418749809265137,0.06324999779462814
1757088580453617000,4.634616943359375,-0.04413750022649765,0.11247500032186508,0.02419999986886978
1757088580463169800,4.644169677734375,-0.0672374963760376,0.11247500032186508,-0.008799999952316284
1757088580472723000,4.653722900390625,-0.08195000141859055,0.11852499842643738,-0.01979999989271164
1757088580482276000,4.663276123046875,-0.09542500227689743,0.1307625025510788,-0.023512499406933784
1757088580491829200,4.672829345703125,-0.11371249705553055,0.14423750340938568,-0.025849999859929085
1757088580501382100,4.682382080078125,-0.13695000112056732,0.14300000667572021,-0.035612501204013824
1757088580510935300,4.691935302734375,-0.14918750524520874,0.1307625025510788,-0.05156249925494194
1757088580520488400,4.701488525390625,-0.16499999165534973,0.10642500221729279,-0.06627500057220459
1757088580530041600,4.71104150390625,-0.18342499434947968,0.10023749619722366,-0.08084999769926071
1757088580539594500,4.720594482421875,-0.1979999989271164,0.10271249711513519,-0.09556250274181366
1757088580549147600,4.730147705078125,-0.19923749566078186,0.11371249705553055,-0.09308750182390213
1757088580558700500,4.739700439453125,-0.201712504029274,0.1247124969959259,-0.06861250102519989
1757088580568253700,4.749253662109375,-0.20542499423027039,0.13199999928474426,-0.02956249937415123
1757088580577806800,4.758806884765625,-0.21147499978542328,0.1467124968767166,0.005912499967962503
1757088580587360000,4.768360107421875,-0.19552500545978546,0.14918750524520874,0.021724998950958252
1757088580596913000,4.777912841796875,-0.16747500002384186,0.13695000112056732,0.020487500354647636
1757088580606466000,4.787466064453125,-0.1564749926328659,0.10876250267028809,-0.0002749999985098839
1757088580616019000,4.79701904296875,-0.15166249871253967,0.09542500227689743,-0.025849999859929085
1757088580625572000,4.806572021484375,-0.15166249871253967,0.1247124969959259,-0.040562499314546585
1757088580635125200,4.816125244140625,-0.1527625024318695,0.16871249675750732,-0.03932499885559082
1757088580644678100,4.82567822265625,-0.15523749589920044,0.18576249480247498,-0.03684999793767929
1757088580654231300,4.835231201171875,-0.15166249871253967,0.1699499934911728,-0.04661250114440918
1757088580663784400,4.844784423828125,-0.1381874978542328,0.11618749797344208,-0.060087498277425766
1757088580673337600,4.854337646484375,-0.12347500026226044,0.03918749839067459,-0.07356250286102295
1757088580682890500,4.863890380859375,-0.10395000129938126,-0.018287500366568565,-0.08084999769926071
1757088580692443600,4.873443603515625,-0.07947500050067902,-0.05004999786615372,-0.0845625028014183
1757088580701996500,4.88299658203125,-0.047712501138448715,-0.07438749819993973,-0.08332499861717224
1757088580711549700,4.8925498046875,-0.013612499460577965,-0.09033749997615814,-0.07356250286102295
1757088580721102800,4.902102783203125,0.0170499999076128,-0.08181250095367432,-0.05637500062584877
1757088580730656000,4.911656005859375,0.037812501192092896,-0.047575000673532486,-0.038087498396635056
1757088580740209000,4.921208984375,0.047575000673532486,-0.030524998903274536,-0.025849999859929085
1757088580749762000,4.930761962890625,0.06338749825954437,-0.047575000673532486,-0.02461249940097332
1757088580759315200,4.940315185546875,0.07809999585151672,-0.07328750193119049,-0.033275000751018524
1757088580768868400,4.949868408203125,0.09033749997615814,-0.09515000134706497,-0.047849997878074646
1757088580778421200,4.959421142578125,0.10009999573230743,-0.11110000312328339,-0.06132499873638153
1757088580787974100,4.96897412109375,0.1036750003695488,-0.11604999750852585,-0.07108750194311142
1757088580797527300,4.97852734375,0.10862500220537186,-0.11110000312328339,-0.08208750188350677
1757088580807080700,4.988080810546875,0.1073874980211258,-0.10381250083446503,-0.08813749998807907
1757088580816633600,4.997633544921875,0.11110000312328339,-0.08910000324249268,-0.08332499861717224
1757088580826186800,5.007186767578125,0.11591249704360962,-0.07328750193119049,-0.06503749638795853
1757088580835739600,5.01673974609375,0.11715000122785568,-0.05362499877810478,-0.033275000751018524
1757088580845292800,5.026292724609375,0.11357499659061432,-0.02928750030696392,-0.006324999965727329
1757088580854846000,5.035845947265625,0.10615000128746033,-0.0010999999940395355,0.009487500414252281
1757088580864398800,5.04539892578125,0.09638749808073044,0.01718750037252903,0.01924999989569187
1757088580873952000,5.054951904296875,0.08057499676942825,0.023237500339746475,0.021724998950958252
1757088580883505200,5.064505126953125,0.06091250106692314,0.032999999821186066,0.013199999928474426
1757088580893058300,5.074058349609375,0.035337500274181366,0.04399999976158142,0.0034374999813735485
1757088580902611200,5.083611083984375,0.0170499999076128,0.04399999976158142,-0.013612499460577965
1757088580912164400,5.093164306640625,0.009624999947845936,0.037950001657009125,-0.033275000751018524
1757088580921717200,5.10271728515625,0.006049999967217445,0.035475000739097595,-0.04908749833703041
1757088580931270100,5.112270263671875,0.002337499987334013,0.02447500079870224,-0.057612501084804535
1757088580940823600,5.121823486328125,0.0035749999806284904,0.00494999997317791,-0.057612501084804535
1757088580950376700,5.131376708984375,0.002337499987334013,-0.004812499973922968,-0.055275000631809235
1757088580959929600,5.1409296875,-0.00013749999925494194,-0.006049999967217445,-0.04661250114440918
1757088580969482800,5.150482666015625,-0.0037124999798834324,0.002474999986588955,-0.035612501204013824
1757088580979035600,5.16003564453125,-0.0037124999798834324,0.0147124994546175,-0.025849999859929085
1757088580988588800,5.1695888671875,-0.0013749999925494194,0.02694999985396862,-0.01732499897480011
1757088580998142000,5.179141845703125,0.004812499973922968,0.035475000739097595,-0.008799999952316284
1757088581007694800,5.18869482421875,0.010862499475479126,0.04166249930858612,-0.002749999985098839
1757088581017248000,5.198248046875,0.0193875003606081,0.03671250119805336,-0.002749999985098839
1757088581026801000,5.20780078125,0.02914999984204769,0.02447500079870224,-0.005087499972432852
1757088581036354000,5.21735400390625,0.03657500073313713,0.01223750039935112,-0.008799999952316284
1757088581045907200,5.2269072265625,0.045099999755620956,0.00013749999925494194,-0.011274999938905239
1757088581055460400,5.23646044921875,0.05238749831914902,-0.0085249999538064,-0.013612499460577965
1757088581065013200,5.24601318359375,0.059812501072883606,-0.013337500393390656,-0.013612499460577965
1757088581074566100,5.255566162109375,0.06710000336170197,-0.01952499896287918,-0.010037500411272049
1757088581084119300,5.265119384765625,0.07562500238418579,-0.01952499896287918,-0.006324999965727329
1757088581093672700,5.274672607421875,0.08291249722242355,-0.02186249941587448,0.0009624999947845936
1757088581103225600,5.2842255859375,0.08786249905824661,-0.020624998956918716,0.007149999961256981
1757088581112778800,5.29377880859375,0.08910000324249268,-0.015812499448657036,0.011962499469518661
1757088581122332000,5.303331787109375,0.09157499670982361,-0.0085249999538064,0.015675000846385956
1757088581131884800,5.312884765625,0.09267500042915344,-0.0035749999806284904,0.015675000846385956
1757088581141438000,5.32243798828125,0.09033749997615814,0.00013749999925494194,0.013199999928474426
1757088581150990800,5.331990966796875,0.08662500232458115,0.0012374999932944775,0.008249999955296516
1757088581160544000,5.3415439453125,0.07809999585151672,0.0012374999932944775,0.0034374999813735485
1757088581170097000,5.351096923828125,0.07081250101327896,0.00013749999925494194,0.002199999988079071
1757088581179650000,5.360650146484375,0.06462500244379044,0.00013749999925494194,0.0009624999947845936
1757088581189203200,5.370203125,0.05238749831914902,-0.007287499960511923,0.0009624999947845936
1757088581198756400,5.37975634765625,0.04262499883770943,-0.0085249999538064,0.0034374999813735485
1757088581208309200,5.389309326171875,0.032862499356269836,-0.0035749999806284904,0.004674999974668026
1757088581217862100,5.398862060546875,0.02186249941587448,0.002474999986588955,0.008249999955296516
1757088581227415600,5.40841552734375,0.008387500420212746,0.0037124999798834324,0.010724999941885471
1757088581236968400,5.417968505859375,-0.011137500405311584,0.008662499487400055,0.013199999928474426
1757088581246521600,5.427521484375,-0.018424998968839645,0.02447500079870224,0.018149999901652336
1757088581256074800,5.43707470703125,-0.02213750034570694,0.018424998968839645,0.011962499469518661
1757088581265627600,5.446627685546875,-0.025712499395012856,0.011137500405311584,0.004674999974668026
1757088581275181000,5.45618115234375,-0.029424998909235,0.00989999994635582,-0.0002749999985098839
1757088581284734000,5.46573388671875,-0.03189999982714653,0.011137500405311584,-0.0038499999791383743
1757088581294286800,5.475286865234375,-0.03189999982714653,0.00989999994635582,-0.0038499999791383743
1757088581303840000,5.484840087890625,-0.030662499368190765,0.00989999994635582,-0.0038499999791383743
1757088581313393000,5.494392822265625,-0.025712499395012856,0.008662499487400055,-0.005087499972432852
1757088581322946000,5.503946044921875,-0.025712499395012856,0.00989999994635582,-0.006324999965727329
1757088581332499200,5.513499267578125,-0.020899999886751175,0.007424999959766865,-0.006324999965727329
1757088581342052000,5.523052001953125,-0.01718750037252903,0.007424999959766865,-0.006324999965727329
1757088581351605200,5.532605224609375,-0.013612499460577965,0.0037124999798834324,-0.006324999965727329
1757088581361158400,5.542158447265625,-0.00989999994635582,0.00013749999925494194,-0.007562499959021807
1757088581370711300,5.551711181640625,-0.006187499966472387,-0.0010999999940395355,-0.006324999965727329
1757088581380264400,5.561264404296875,-0.002612499985843897,-0.0035749999806284904,-0.0038499999791383743
1757088581389817600,5.570817626953125,-0.00013749999925494194,-0.0085249999538064,-0.0015124999918043613
1757088581399370500,5.58037060546875,0.006049999967217445,-0.0085249999538064,0.0009624999947845936
1757088581408923600,5.589923583984375,0.007287499960511923,-0.01209999993443489,0.0034374999813735485
1757088581418476800,5.599476806640625,0.010862499475479126,-0.015812499448657036,0.004674999974668026
1757088581428030000,5.609030029296875,0.01209999993443489,-0.01952499896287918,0.008249999955296516
1757088581437582800,5.618582763671875,0.010862499475479126,-0.018287500366568565,0.008249999955296516
1757088581447135700,5.6281357421875,0.010862499475479126,-0.0170499999076128,0.010724999941885471
1757088581456689000,5.63768896484375,0.01209999993443489,-0.018287500366568565,0.008249999955296516
1757088581466242300,5.6472421875,0.01209999993443489,-0.015812499448657036,0.007149999961256981
1757088581475795200,5.656795166015625,0.009624999947845936,-0.007287499960511923,0.008249999955296516
1757088581485348000,5.66634814453125,0.008387500420212746,0.0012374999932944775,0.009487500414252281
1757088581494901200,5.6759013671875,0.007287499960511923,0.00494999997317791,0.009487500414252281
1757088581504454100,5.6854541015625,0.0035749999806284904,-0.0010999999940395355,0.008249999955296516
1757088581514007600,5.695007568359375,-0.00013749999925494194,-0.004812499973922968,0.008249999955296516
1757088581523560400,5.704560546875,-0.0037124999798834324,-0.006049999967217445,0.005912499967962503
1757088581533113600,5.714113525390625,-0.00494999997317791,-0.004812499973922968,0.004674999974668026
1757088581542666500,5.72366650390625,-0.011137500405311584,-0.0035749999806284904,0.0034374999813735485
1757088581552219600,5.7332197265625,-0.013612499460577965,-0.0010999999940395355,0.0009624999947845936
1757088581561772500,5.7427724609375,-0.018424998968839645,0.00013749999925494194,0.0009624999947845936
1757088581571325700,5.75232568359375,-0.020899999886751175,0.0012374999932944775,-0.0002749999985098839
1757088581580878800,5.76187890625,-0.023375000804662704,0.0012374999932944775,0.0009624999947845936
1757088581590431700,5.771431640625,-0.02461249940097332,0.002474999986588955,0.0009624999947845936
1757088581599985000,5.78098486328125,-0.02694999985396862,0.00013749999925494194,0.002199999988079071
1757088581609537800,5.790537841796875,-0.02694999985396862,-0.0010999999940395355,0.004674999974668026
1757088581619090700,5.800090576171875,-0.028187500312924385,0.00013749999925494194,0.008249999955296516
1757088581628644000,5.80964404296875,-0.028187500312924385,0.006187499966472387,0.009487500414252281
1757088581638197000,5.819197021484375,-0.028187500312924385,0.011137500405311584,0.009487500414252281
1757088581647750100,5.828750244140625,-0.029424998909235,0.01347499992698431,0.009487500414252281
1757088581657303300,5.83830322265625,-0.029424998909235,0.01223750039935112,0.008249999955296516
1757088581666856200,5.847856201171875,-0.025712499395012856,0.00989999994635582,0.007149999961256981
1757088581676409300,5.857409423828125,-0.02213750034570694,0.006187499966472387,0.005912499967962503
1757088581685962500,5.86696240234375,-0.013612499460577965,0.0012374999932944775,0.007149999961256981
1757088581695515400,5.876515380859375,-0.007424999959766865,-0.0010999999940395355,0.011962499469518661
1757088581705068300,5.886068359375,0.0010999999940395355,-0.0035749999806284904,0.01691249944269657
1757088581714621400,5.895621337890625,0.006049999967217445,-0.002337499987334013,0.01924999989569187
1757088581724174600,5.905174560546875,0.010862499475479126,0.00013749999925494194,0.018149999901652336
1757088581733727500,5.9147275390625,0.015812499448657036,0.0037124999798834324,0.014437500387430191
1757088581743280600,5.92428076171875,0.0170499999076128,0.006187499966472387,0.009487500414252281
1757088581752833800,5.933833740234375,0.0170499999076128,0.006187499966472387,0.0034374999813735485
1757088581762386700,5.94338671875,0.018149999901652336,0.00013749999925494194,0.0009624999947845936
1757088581771939800,5.95293994140625,0.018149999901652336,-0.007287499960511923,-0.0002749999985098839
1757088581781493000,5.962492919921875,0.015812499448657036,-0.01209999993443489,-0.0002749999985098839
1757088581791046100,5.972046142578125,0.013337500393390656,-0.01209999993443489,0.0009624999947845936
1757088581800599000,5.98159912109375,0.009624999947845936,-0.010862499475479126,0.0034374999813735485
1757088581810152000,5.99115185546875,0.006049999967217445,-0.004812499973922968,0.004674999974668026
1757088581819705300,6.000705322265625,0.0035749999806284904,0.0012374999932944775,0.005912499967962503
1757088581829258200,6.01025830078125,0.002337499987334013,0.007424999959766865,0.007149999961256981
1757088581838811400,6.019811279296875,-0.00013749999925494194,0.011137500405311584,0.009487500414252281
1757088581848364300,6.0293642578125,-0.0037124999798834324,0.01347499992698431,0.008249999955296516
1757088581857917400,6.03891748046875,-0.006187499966472387,0.0147124994546175,0.005912499967962503
1757088581867470600,6.048470703125,-0.006187499966472387,0.01347499992698431,0.004674999974668026
1757088581877023500,6.0580234375,-0.006187499966472387,0.01223750039935112,0.0034374999813735485
1757088581886576600,6.06757666015625,-0.00494999997317791,0.015949999913573265,0.0034374999813735485
1757088581896129800,6.0771298828125,-0.0037124999798834324,0.011137500405311584,0.0034374999813735485
1757088581905682700,6.0866826171875,-0.0037124999798834324,0.01223750039935112,0.007149999961256981
1757088581915235600,6.096235595703125,-0.0013749999925494194,0.011137500405311584,0.005912499967962503
1757088581924788700,6.105788818359375,-0.00013749999925494194,0.0037124999798834324,0.007149999961256981
1757088581934342000,6.115341796875,0.002337499987334013,0.00013749999925494194,0.010724999941885471
1757088581943895000,6.12489501953125,0.0035749999806284904,-0.0035749999806284904,0.011962499469518661
1757088581953448000,6.134447998046875,0.007287499960511923,-0.007287499960511923,0.013199999928474426
1757088581963001000,6.1440009765625,0.01209999993443489,-0.006049999967217445,0.011962499469518661
1757088581972554200,6.15355419921875,0.015812499448657036,-0.0035749999806284904,0.009487500414252281
1757088581982107100,6.163107177734375,0.018149999901652336,-0.0035749999806284904,0.009487500414252281
1757088581991660300,6.172660400390625,0.0193875003606081,-0.0010999999940395355,0.008249999955296516
1757088582001213200,6.182213134765625,0.018149999901652336,0.006187499966472387,0.009487500414252281
1757088582010766300,6.191766357421875,0.0170499999076128,0.00494999997317791,0.007149999961256981
1757088582020319500,6.201319580078125,0.018149999901652336,0.0012374999932944775,0.0034374999813735485
1757088582029872600,6.21087255859375,0.0193875003606081,0.0012374999932944775,0.0009624999947845936
1757088582039425500,6.220425537109375,0.0193875003606081,0.002474999986588955,-0.0002749999985098839
1757088582048978400,6.229978515625,0.02186249941587448,0.00494999997317791,-0.002749999985098839
1757088582058531800,6.23953173828125,0.023099999874830246,0.008662499487400055,-0.005087499972432852
1757088582068084700,6.249084716796875,0.02433750033378601,0.008662499487400055,-0.005087499972432852
1757088582077638000,6.258637939453125,0.02681249938905239,0.006187499966472387,-0.006324999965727329
1757088582087190800,6.268190673828125,0.028049999848008156,0.0037124999798834324,-0.006324999965727329
1757088582096744000,6.277743896484375,0.03162499889731407,0.0012374999932944775,-0.007562499959021807
1757088582106296800,6.287296875,0.035337500274181366,0.00013749999925494194,-0.006324999965727329
1757088582115850200,6.296850341796875,0.04262499883770943,0.0037124999798834324,-0.010037500411272049
1757088582125403100,6.306403076171875,0.047575000673532486,-0.0035749999806284904,-0.013612499460577965
1757088582134956300,6.315956298828125,0.04881250113248825,-0.002337499987334013,-0.013612499460577965
1757088582144509200,6.32550927734375,0.05362499877810478,0.0012374999932944775,-0.008799999952316284
1757088582154062300,6.335062255859375,0.0658624991774559,-0.014574999921023846,-0.013612499460577965
1757088582163615500,6.344615478515625,0.07315000146627426,-0.02433750033378601,-0.01732499897480011
1757088582173168400,6.35416845703125,0.07933750003576279,-0.023099999874830246,-0.016087500378489494
1757088582182721500,6.363721435546875,0.08910000324249268,-0.01952499896287918,-0.01484999991953373
1757088582192274400,6.3732744140625,0.11110000312328339,-0.035337500274181366,-0.02227500081062317
1757088582201827600,6.38282763671875,0.10862500220537186,-0.03162499889731407,-0.016087500378489494
1757088582211380500,6.39238037109375,0.10009999573230743,-0.02433750033378601,-0.0015124999918043613
1757088582220933600,6.40193359375,0.09267500042915344,-0.0170499999076128,0.01691249944269657
1757088582230486800,6.41148681640625,0.08786249905824661,-0.002337499987334013,0.03519999980926514
1757088582240039700,6.421039794921875,0.08538749814033508,0.01347499992698431,0.04372499883174896
1757088582249592800,6.4305927734375,0.07933750003576279,0.03671250119805336,0.04743750020861626
1757088582259146000,6.44014599609375,0.07686249911785126,0.03189999982714653,0.04372499883174896
1757088582268699100,6.44969921875,0.07562500238418579,0.028187500312924385,0.04001250118017197
1757088582278252000,6.459251953125,0.08291249722242355,0.03189999982714653,0.03272499889135361
1757088582287805200,6.46880517578125,0.08415000140666962,0.04166249930858612,0.030249999836087227
1757088582297358000,6.478358154296875,0.08057499676942825,0.059950001537799835,0.04372499883174896
1757088582306911200,6.4879111328125,0.08662500232458115,0.05142499879002571,0.0742499977350235
1757088582316464000,6.497464111328125,0.07562500238418579,0.06476250290870667,0.09748750180006027
1757088582326017300,6.507017333984375,0.05115000158548355,0.08799999952316284,0.10848750174045563
1757088582335570400,6.5165703125,0.035337500274181366,0.08676250278949738,0.11219999939203262
1757088582345123300,6.526123291015625,0.018149999901652336,0.07576250284910202,0.10353749990463257
1757088582354676500,6.535676513671875,-0.00494999997317791,0.09047500044107437,0.09267500042915344
1757088582364229400,6.5452294921875,-0.04647500067949295,0.11976250261068344,0.09019999951124191
1757088582373782500,6.554782470703125,-0.10271249711513519,0.15028749406337738,0.09377499669790268
1757088582383335700,6.564335693359375,-0.1821874976158142,0.1979999989271164,0.11219999939203262
1757088582392888600,6.573888671875,-0.2712875008583069,0.26881250739097595,0.14272500574588776
1757088582402441500,6.58344140625,-0.36781248450279236,0.32381248474121094,0.15619999170303345
1757088582411995000,6.592994873046875,-0.46309998631477356,0.38128748536109924,0.17448750138282776
1757088582421547800,6.6025478515625,-0.5535749793052673,0.41909998655319214,0.18548749387264252
1757088582431101000,6.612100830078125,-0.6096749901771545,0.3910500109195709,0.15729999542236328
1757088582440653800,6.62165380859375,-0.6524375081062317,0.33605000376701355,0.12196250259876251
1757088582450207000,6.63120703125,-0.7282000184059143,0.3750999867916107,0.10119999945163727
1757088582459759900,6.640759765625,-0.7954375147819519,0.4740999937057495,0.08648750185966492
1757088582469313000,6.65031298828125,-0.7966749668121338,0.4973374903202057,0.05719999969005585
1757088582478866200,6.6598662109375,-0.7636749744415283,0.41552498936653137,0.02667500078678131
1757088582488419000,6.669419189453125,-0.6964374780654907,0.32381248474121094,0.018149999901652336
1757088582497972200,6.67897216796875,-0.590149998664856,0.24076250195503235,0.01924999989569187
1757088582507525000,6.688525146484375,-0.4998124837875366,0.20899999141693115,0.0644875019788742
1757088582517078300,6.698078369140625,-0.4815250039100647,0.3115749955177307,0.16472500562667847
1757088582526631400,6.70763134765625,-0.5486249923706055,0.5425750017166138,0.27101248502731323
1757088582536184300,6.717184326171875,-0.5950999855995178,0.7123875021934509,0.3405874967575073
1757088582545737500,6.726737548828125,-0.5926250219345093,0.6499624848365784,0.31735000014305115
1757088582555290400,6.736290283203125,-0.590149998664856,0.49486249685287476,0.25382500886917114
1757088582564843500,6.745843505859375,-0.5816249847412109,0.26028749346733093,0.15125000476837158
1757088582574396700,6.755396728515625,-0.5230500102043152,0.05623750016093254,0.01691249944269657
1757088582583949800,6.76494970703125,-0.4716250002384186,0.062424998730421066,-0.06132499873638153
1757088582593502700,6.774502685546875,-0.41676250100135803,0.11618749797344208,-0.11990000307559967
1757088582603055600,6.7840556640625,-0.3445749878883362,0.1882375031709671,-0.12361250072717667
1757088582612608800,6.79360888671875,-0.2689499855041504,0.1979999989271164,-0.09913749992847443
1757088582622162000,6.803161865234375,-0.20899999141693115,0.15152500569820404,-0.06132499873638153
1757088582631715000,6.812715087890625,-0.17847499251365662,0.1527625024318695,0.004674999974668026
1757088582641268000,6.82226806640625,-0.16871249675750732,0.15771250426769257,0.06091250106692314
1757088582650821000,6.831821044921875,-0.1504250019788742,0.08566249907016754,0.05101250112056732
1757088582660374000,6.8413740234375,-0.14547500014305115,0.11247500032186508,0.05224999785423279
1757088582669927200,6.85092724609375,-0.10999999940395355,0.02447500079870224,0.01924999989569187
1757088582679480300,6.860480224609375,-0.0966624990105629,-0.04262499883770943,-0.055275000631809235
1757088582689033200,6.870033203125,-0.11371249705553055,0.023237500339746475,-0.07961250096559525
1757088582698586400,6.87958642578125,-0.1699499934911728,0.035475000739097595,-0.09803749620914459
1757088582708139500,6.889139404296875,-0.20899999141693115,0.0037124999798834324,-0.08703749626874924
1757088582717692400,6.8986923828125,-0.20899999141693115,0.020899999886751175,-0.05403750017285347
1757088582727245600,6.90824560546875,-0.17352500557899475,0.0147124994546175,-0.01484999991953373
1757088582736798500,6.917798583984375,-0.12099999934434891,-0.06462500244379044,0.009487500414252281
1757088582746351600,6.9273515625,-0.07095000147819519,-0.05857500061392784,0.02667500078678131
1757088582755904500,6.936904541015625,-0.03189999982714653,-0.035337500274181366,-0.002749999985098839
1757088582765457700,6.946457763671875,0.0010999999940395355,-0.09638749808073044,-0.06132499873638153
1757088582775010800,6.9560107421875,-0.029424998909235,0.05142499879002571,-0.0625625029206276
1757088582784563700,6.965563720703125,-0.0672374963760376,-0.03657500073313713,-0.10284999758005142
1757088582794116900,6.975116943359375,-0.1344749927520752,-0.07562500238418579,-0.12113749980926514
1757088582803669800,6.984669677734375,-0.24076250195503235,-0.08538749814033508,-0.14079999923706055
1757088582813223200,6.99422314453125,-0.3128125071525574,-0.08181250095367432,-0.16637499630451202
1757088582822776000,7.003776123046875,-0.305525004863739,-0.10986249893903732,-0.18232500553131104
1757088582832329200,7.0133291015625,-0.27252501249313354,-0.10862500220537186,-0.17366249859333038
1757088582841882000,7.022882080078125,-0.2529999911785126,-0.07438749819993973,-0.1223749965429306
1757088582851435000,7.03243505859375,-0.2554749846458435,0.011137500405311584,-0.03203750029206276
1757088582860988200,7.04198828125,-0.3018124997615814,0.1344749927520752,0.04867500066757202
1757088582870541300,7.051541259765625,-0.3763374984264374,0.22123749554157257,0.08167500048875809
1757088582880094500,7.061094482421875,-0.4423374831676483,0.22852499783039093,0.06696250289678574
1757088582889647400,7.0706474609375,-0.4300999939441681,0.1564749926328659,0.020487500354647636
1757088582899200500,7.080200439453125,-0.27623748779296875,-0.02681249938905239,-0.06503749638795853
1757088582908753400,7.08975341796875,-0.12718750536441803,-0.0976250022649765,-0.12113749980926514
1757088582918306600,7.099306640625,-0.07095000147819519,-0.045099999755620956,-0.11384999752044678
1757088582927859700,7.108859619140625,-0.12966249883174896,0.11371249705553055,-0.047849997878074646
1757088582937412600,7.11841259765625,-0.20899999141693115,0.19071249663829803,-0.010037500411272049
1757088582946965500,7.127965576171875,-0.2457125037908554,0.11247500032186508,-0.033275000751018524
1757088582956518700,7.1375185546875,-0.24199999868869781,-0.0340999998152256,-0.05884999781847
1757088582966071800,7.14707177734375,-0.21518750488758087,-0.07562500238418579,-0.040562499314546585
1757088582975625000,7.156625,-0.17971250414848328,-0.032862499356269836,-0.02227500081062317
1757088582985177900,7.166177734375,-0.1247124969959259,-0.047575000673532486,-0.013612499460577965
1757088582994731000,7.17573095703125,-0.047712501138448715,-0.06228749826550484,0.005912499967962503
1757088583004284000,7.185283935546875,0.0010999999940395355,0.01347499992698431,0.05224999785423279
1757088583013837300,7.19483740234375,0.006049999967217445,0.08442500233650208,0.0999625027179718
1757088583023390200,7.20439013671875,0.002337499987334013,0.11247500032186508,0.12677499651908875
1757088583032943000,7.213943115234375,-0.02694999985396862,0.13323749601840973,0.12319999933242798
1757088583042496300,7.223496337890625,-0.07095000147819519,0.11495000123977661,0.09267500042915344
1757088583052049700,7.233049560546875,-0.11742500215768814,0.13695000112056732,0.05472499877214432
1757088583061602300,7.242602294921875,-0.1344749927520752,0.1564749926328659,0.018149999901652336
1757088583071155500,7.252155517578125,-0.10518749803304672,0.09047500044107437,-0.016087500378489494
1757088583080708400,7.261708251953125,-0.018424998968839645,0.01347499992698431,-0.03451250120997429
1757088583090261500,7.271261474609375,0.057337500154972076,-0.018287500366568565,-0.023512499406933784
1757088583099814700,7.280814697265625,0.08057499676942825,-0.11357499659061432,-0.04179999977350235
1757088583109367800,7.290367919921875,0.15619999170303345,-0.6584874987602234,-0.1896124929189682
1757088583118920700,7.299920654296875,0.2246749997138977,-0.8538749814033508,-0.23842500150203705
1757088583128473600,7.3094736328125,0.19786250591278076,-0.5704874992370605,-0.17008750140666962
1757088583138026800,7.31902685546875,0.08181250095367432,-0.35791251063346863,-0.13956250250339508
1757088583147580000,7.328579833984375,0.028049999848008156,-0.3591499924659729,-0.0906125009059906
1757088583157132800,7.3381328125,-0.04895000159740448,-0.4164874851703644,-0.03932499885559082
1757088583166685700,7.347685791015625,-0.1344749927520752,-0.09157499670982361,0.08167500048875809
1757088583176238800,7.35723876953125,-0.1527625024318695,0.34952500462532043,0.20006249845027924
1757088583185792000,7.3667919921875,-0.08442500233650208,0.5511000156402588,0.2648249864578247
1757088583195345000,7.376344970703125,0.07686249911785126,0.5218124985694885,0.29906249046325684
1757088583204898000,7.38589794921875,0.24172499775886536,0.4105750024318695,0.30277499556541443
1757088583214451200,7.395451171875,0.3786749839782715,0.24557499587535858,0.23801249265670776
1757088583224004000,7.405004150390625,0.4115374982357025,0.15523749589920044,0.15372499823570251
1757088583233557200,7.41455712890625,0.3517250120639801,0.15399999916553497,0.08401250094175339
1757088583243110100,7.424110107421875,0.2381500005722046,0.045237500220537186,0.0034374999813735485
1757088583252663000,7.4336630859375,0.12086249887943268,-0.08428750187158585,-0.060087498277425766
1757088583262216400,7.443216552734375,0.0193875003606081,-0.18438750505447388,-0.11013749986886978
1757088583271769600,7.45276953125,-0.059950001537799835,-0.3431999981403351,-0.18108749389648438
1757088583281322500,7.462322509765625,-0.09418749809265137,-0.4629625082015991,-0.2433750033378601
1757088583290875400,7.47187548828125,-0.17476250231266022,-0.6254875063896179,-0.28984999656677246
1757088583300428500,7.481428466796875,-0.3190000057220459,-0.8098750114440918,-0.33137500286102295
1757088583309981400,7.4909814453125,-0.4815250039100647,-0.9418749809265137,-0.34113749861717224
1757088583319534600,7.50053466796875,-0.6280999779701233,-0.9931625127792358,-0.3166624903678894
1757088583329087700,7.510087646484375,-0.7050999999046326,-0.6608250141143799,-0.20542499423027039
1757088583338640600,7.519640625,-0.7844374775886536,-0.4141499996185303,-0.14561249315738678
1757088583348193800,7.52919384765625,-0.8601999878883362,-0.002337499987334013,-0.043037500232458115
1757088583357746700,7.53874658203125,-0.9164375066757202,0.2040500044822693,-0.002749999985098839
1757088583367299800,7.5482998046875,-0.9187750220298767,0.2750000059604645,0.02419999986886978
1757088583376852700,7.557852783203125,-0.8859124779701233,0.3568125069141388,0.04743750020861626
1757088583386406000,7.567406005859375,-0.8760125041007996,0.43505001068115234,0.05348749831318855
1757088583395959000,7.576958984375,-0.891962468624115,0.5046250224113464,0.06324999779462814
1757088583405512000,7.586511962890625,-0.9139624834060669,0.5693874955177307,0.07796250283718109
1757088583415065000,7.596065185546875,-0.9714375138282776,0.6609625220298767,0.09624999761581421
1757088583424618200,7.6056181640625,-1.1008249521255493,0.6891499757766724,0.10353749990463257
1757088583434171100,7.615171142578125,-1.114300012588501,0.8735374808311462,0.15372499823570251
1757088583443724300,7.624724365234375,-0.9176750183105469,0.983537495136261,0.22082500159740448
1757088583453277400,7.63427734375,-0.9604374766349792,1.0580625534057617,0.36629998683929443
1757088583462830300,7.643830322265625,-1.2926374673843384,1.251112461090088,0.4786374866962433
1757088583472383200,7.65338330078125,-1.5138750076293945,1.3671624660491943,0.4408249855041504
1757088583481936400,7.662936279296875,-1.508924961090088,1.4049749374389648,0.38830000162124634
1757088583491489500,7.672489501953125,-1.4221625328063965,1.3121625185012817,0.405349999666214
1757088583501042400,7.68204248046875,-1.1913000345230103,1.3781625032424927,0.4212999939918518
1757088583510595600,7.691595703125,-0.6951999664306641,2.0941250324249268,0.49939998984336853
1757088583520148500,7.7011484375,-0.5755749940872192,2.5753750801086426,0.6924499869346619
1757088583529701600,7.71070166015625,-0.8552500009536743,2.6816625595092773,0.7864999771118164
1757088583539254800,7.7202548828125,-0.9261999726295471,2.850374937057495,0.8904500007629395
1757088583548807700,7.7298076171875,-0.6610999703407288,3.375624895095825,0.9575499892234802
1757088583558360600,7.739360595703125,-0.38981249928474426,3.110524892807007,1.2251249551773071
1757088583567914000,7.7489140625,-0.25052499771118164,2.453274965286255,1.4816999435424805
1757088583577467000,7.758466796875,-0.3348124921321869,2.173462390899658,1.5061750411987305
1757088583587020000,7.76802001953125,-0.22618749737739563,2.2186999320983887,1.5024625062942505
1757088583596573000,7.777572998046875,-0.050187498331069946,2.6560873985290527,1.893375039100647
1757088583606125800,7.787125732421875,0.26496249437332153,2.8344249725341797,2.024137496948242
1757088583615679000,7.796678955078125,0.8098750114440918,3.553962469100952,1.789562463760376
1757088583625232100,7.806232177734375,1.0762125253677368,3.661487579345703,2.009424924850464
1757088583634785300,7.815785400390625,0.8563500046730042,3.6114375591278076,2.5605249404907227
1757088583644338200,7.825338134765625,0.2784374952316284,3.010425090789795,3.253112554550171
1757088583653891000,7.83489111328125,-0.40933749079704285,1.9023125171661377,3.433924913406372
1757088583663444200,7.8444443359375,-0.8247249722480774,1.0080125331878662,3.5609750747680664
1757088583672997400,7.853997314453125,-0.717199981212616,0.9139624834060669,3.29229998588562
1757088583682550500,7.863550537109375,-0.11495000123977661,1.7666000127792358,3.061300039291382
1757088583692103400,7.873103515625,0.739062488079071,3.1704750061035156,3.2275373935699463
1757088583701656600,7.882656494140625,2.36995005607605,5.646850109100342,2.5213375091552734
1757088583711209500,7.89220947265625,2.383424997329712,7.289975166320801,2.80115008354187
1757088583720762400,7.901762451171875,2.2368500232696533,6.415337562561035,2.75962495803833
1757088583730315500,7.9113154296875,2.0072250366210938,3.0006625652313232,3.028437376022339
1757088583739868700,7.92086865234375,0.6510624885559082,1.5785000324249268,3.5586373805999756
1757088583749421800,7.930421875,-0.43133750557899475,0.22605000436306,3.3961124420166016
1757088583758974700,7.939974609375,-0.5878124833106995,-0.3932499885559082,3.074774980545044
1757088583768527600,7.949527587890625,-0.6219124794006348,1.446637511253357,2.7314374446868896
1757088583778080800,7.959080810546875,-0.3971000015735626,2.244412422180176,2.3454749584198
1757088583787634000,7.968634033203125,0.24296249449253082,2.219937562942505,1.578225016593933
1757088583797187000,7.97818701171875,0.5264874696731567,2.798949956893921,1.273937463760376
1757088583806740000,7.987739990234375,0.6767749786376953,2.753849983215332,1.0797874927520752
1757088583816293000,7.997293212890625,0.5277249813079834,2.317699909210205,0.9587875008583069
1757088583835399000,8.01639892578125,-0.01718750037252903,1.6615500450134277,1.0210750102996826
1757088583844952000,8.0259521484375,-0.1564749926328659,1.783787488937378,1.0077375173568726
1757088583854505200,8.035505126953124,-0.17242500185966492,2.2016499042510986,0.8109750151634216
1757088583864058000,8.04505810546875,-0.06971249729394913,2.726900100708008,0.9222124814987183
1757088583873611300,8.054611328125,-0.25423750281333923,3.4293875694274902,0.9857375025749207
1757088583883164400,8.064164306640626,-0.5975750088691711,3.75677490234375,0.779212474822998
1757088583892717300,8.07371728515625,-1.1913000345230103,3.7347750663757324,0.6069250106811523
1757088583902270500,8.0832705078125,-1.7997374534606934,3.5393874645233154,0.4908750057220459
1757088583911823400,8.0928232421875,-2.2114124298095703,3.5149123668670654,0.322299987077713
1757088583921376300,8.102376220703125,-2.492462396621704,3.6921498775482178,0.0364375002682209
1757088583930929400,8.111929443359376,-2.6365625858306885,3.901012420654297,-0.455949991941452
1757088583940482600,8.121482666015625,-2.7636125087738037,4.0598249435424805,-1.0668624639511108
1757088583950035700,8.13103564453125,-2.889425039291382,4.207637310028076,-1.634874939918518
1757088583959588600,8.140588623046876,-2.9639499187469482,4.4849748611450195,-2.0539751052856445
1757088583969141800,8.150141845703125,-3.0629498958587646,4.90283727645874,-2.3971750736236572
1757088583978694700,8.159694580078124,-3.0910000801086426,5.1789374351501465,-2.5804624557495117
1757088583988247800,8.169247802734375,-3.042187452316284,5.260749816894531,-2.4949374198913574
1757088583997801000,8.178801025390625,-3.0446624755859375,5.056699752807617,-2.229837417602539
1757088584007353900,8.188353759765626,-3.13747501373291,4.94064998626709,-1.8889750242233276
1757088584016907000,8.197906982421875,-3.287762403488159,4.7965497970581055,-1.5615874528884888
1757088584026460000,8.2074599609375,-3.5149123668670654,4.723262310028076,-1.2194875478744507
1757088584036013000,8.217012939453125,-3.806962490081787,4.681737422943115,-0.785812497138977
1757088584045566200,8.226566162109375,-4.1515374183654785,4.676787376403809,-0.35571250319480896
1757088584055119000,8.236119140625,-4.476449966430664,4.513024806976318,0.04124999791383743
1757088584064672000,8.245672119140625,-4.836837291717529,4.036587715148926,0.35887500643730164
1757088584074225200,8.25522509765625,-5.082412242889404,3.0604748725891113,0.6056874990463257
1757088584083778300,8.2647783203125,-5.043362617492676,2.5705626010894775,0.678974986076355
1757088584093331500,8.27433154296875,-4.84660005569458,2.466749906539917,0.7119749784469604
1757088584102884400,8.28388427734375,-4.602262496948242,2.333512544631958,0.7559750080108643
1757088584112437200,8.293437255859375,-4.3726372718811035,2.3152248859405518,0.7254499793052673
1757088584121990400,8.302990478515625,-4.079349994659424,2.1466500759124756,0.6973999738693237
1757088584131543300,8.312543212890626,-3.721437454223633,1.980412483215332,0.6802124977111816
1757088584141096400,8.322096435546875,-3.3548624515533447,1.9071249961853027,0.6643999814987183
1757088584150649600,8.331649658203125,-3.077662467956543,2.0928874015808105,0.6399250030517578
1757088584160202500,8.341202392578126,-2.9224250316619873,2.549799919128418,0.5946875214576721
1757088584169755600,8.350755615234375,-2.7391374111175537,3.070237398147583,0.6313999891281128
1757088584179308500,8.36030859375,-2.5570874214172363,3.799537420272827,0.7816874980926514
1757088584188861400,8.369861328125,-2.334749937057495,4.47397518157959,1.0748374462127686
1757088584198414600,8.37941455078125,-2.124650001525879,5.039649963378906,1.3424124717712402
1757088584207968000,8.388968017578126,-1.9353125095367432,5.519800186157227,1.5622749328613281
1757088584217521000,8.39852099609375,-1.7507874965667725,5.9192376136779785,1.7175124883651733
1757088584227073800,8.40807373046875,-1.5664000511169434,6.23562479019165,1.7638499736785889
1757088584236626700,8.417626708984375,-1.3696374893188477,6.494675159454346,1.5367000102996826
1757088584246179800,8.427179931640625,-0.9762499928474426,6.63643741607666,0.6351125240325928
1757088584255733000,8.43673291015625,-0.12966249883174896,5.858187675476074,-0.5524749755859375
1757088584265286100,8.4462861328125,0.6595875024795532,4.377449989318848,-1.1829124689102173
1757088584274839000,8.455839111328125,-0.37523749470710754,6.773250102996826,0.0364375002682209
1757088584284392000,8.465391845703126,-1.197350025177002,5.012700080871582,-0.10037499666213989
1757088584293945000,8.474945068359375,-1.6909749507904053,3.220525026321411,0.005912499967962503
1757088584303498000,8.484498046875,-1.717787504196167,1.9120750427246094,0.3100624978542328
1757088584313051100,8.494051025390625,-1.6286875009536743,1.271875023841858,0.2942500114440918
1757088584322604300,8.503604248046875,-1.451449990272522,1.0555875301361084,0.13653749227523804
1757088584332157200,8.5131572265625,-1.1533499956130981,1.131350040435791,-0.02461249940097332
1757088584341710300,8.52271044921875,-0.8003875017166138,1.2034000158309937,-0.19085000455379486
1757088584351263500,8.532263427734375,-0.510812520980835,1.0947749614715576,-0.2116124927997589
1757088584360816400,8.54181640625,-0.3665750026702881,0.9065374732017517,-0.15908749401569366
1757088584370369500,8.55136962890625,-0.34347498416900635,0.7526749968528748,-0.06737499684095383
1757088584379922400,8.56092236328125,-0.3922874927520752,0.5253875255584717,0.018149999901652336
1757088584389475300,8.570475341796875,-0.4936249852180481,0.3030500113964081,0.09748750180006027
1757088584399028500,8.580028564453125,-0.5620999932289124,0.15399999916553497,0.16101250052452087
1757088584408581600,8.58958154296875,-0.510812520980835,0.06366249918937683,0.2110625058412552
1757088584418134800,8.599134765625,-0.36176249384880066,0.040424998849630356,0.24172499775886536
1757088584427687700,8.608687744140624,-0.1919499933719635,0.11852499842643738,0.24529999494552612
1757088584437240800,8.61824072265625,-0.035475000739097595,0.21504999697208405,0.2110625058412552
1757088584446793700,8.627793701171875,0.06462500244379044,0.3543374836444855,0.14272500574588776
1757088584456347000,8.637346923828124,0.12443749606609344,0.4838624894618988,0.06091250106692314
1757088584465899800,8.646899658203125,0.16362500190734863,0.5644375085830688,-0.01732499897480011
1757088584475453000,8.656452880859375,0.18562500178813934,0.5388625264167786,-0.07108750194311142
1757088584485005800,8.666005859375,0.19043749570846558,0.4166249930858612,-0.10161250084638596
1757088584494559000,8.67555908203125,0.19043749570846558,0.2895750105381012,-0.11261250078678131
1757088584504112000,8.685112060546874,0.1966249942779541,0.20528750121593475,-0.09556250274181366
1757088584513665300,8.694665283203125,0.20762500166893005,0.11371249705553055,-0.07727500051259995
1757088584523218200,8.70421826171875,0.22343750298023224,0.04399999976158142,-0.07603749632835388
1757088584532771000,8.71377099609375,0.23938749730587006,0.05376249924302101,-0.0845625028014183
1757088584542324200,8.72332421875,0.24543750286102295,0.10023749619722366,-0.07479999959468842
1757088584551877400,8.73287744140625,0.16362500190734863,0.2578125,0.17806249856948853
1757088584561430300,8.74243017578125,0.06338749825954437,0.00013749999925494194,0.2172500044107437
1757088584570983400,8.7519833984375,-0.01718750037252903,-0.14533749222755432,0.18301250040531158
1757088584580536600,8.76153662109375,-0.013612499460577965,-0.10615000128746033,0.05596249923110008
1757088584590089500,8.77108935546875,-0.0013749999925494194,-0.02186249941587448,-0.1541374921798706
1757088584599642600,8.780642578125,-0.025712499395012856,0.13323749601840973,-0.3166624903678894
1757088584609195500,8.790195556640626,-0.0989999994635582,0.23704999685287476,-0.3667125105857849
