time,seconds_elapsed,z,y,x
1757088825540407800,0.01240771484375,-0.911529541015625,-0.022186279296875,-0.2122802734375
1757088825550454000,0.0224541015625,-0.897979736328125,-0.0318145751953125,-0.1909027099609375
1757088825560500000,0.0325,-0.9012298583984375,-0.0503997802734375,-0.18377685546875
1757088825570546000,0.0425458984375,-0.915985107421875,-0.0640411376953125,-0.1931915283203125
1757088825580591900,0.052591796875,-0.925567626953125,-0.05792236328125,-0.203277587890625
1757088825590637800,0.062637939453125,-0.935455322265625,-0.0456085205078125,-0.20965576171875
1757088825600684800,0.072684814453125,-0.9602813720703125,-0.052001953125,-0.2106781005859375
1757088825610731000,0.08273095703125,-0.9658660888671875,-0.06317138671875,-0.22454833984375
1757088825620777000,0.09277685546875,-0.9487152099609375,-0.06903076171875,-0.2337646484375
1757088825630824000,0.102823974609375,-0.92266845703125,-0.070098876953125,-0.2598876953125
1757088825640870000,0.112869873046875,-0.9069366455078125,-0.0832061767578125,-0.2392578125
1757088825650917000,0.122917236328125,-0.89788818359375,-0.0989837646484375,-0.202301025390625
1757088825660963000,0.132963134765625,-0.873260498046875,-0.1052703857421875,-0.186981201171875
1757088825671009000,0.143009033203125,-0.862274169921875,-0.12548828125,-0.180145263671875
1757088825681056000,0.153055908203125,-0.868988037109375,-0.1542510986328125,-0.17742919921875
1757088825691102000,0.16310205078125,-0.8714141845703125,-0.1591339111328125,-0.1741180419921875
1757088825701148200,0.173148193359375,-0.919891357421875,-0.160797119140625,-0.1699066162109375
1757088825711195000,0.18319482421875,-1.0200958251953125,-0.1749420166015625,-0.1450347900390625
1757088825721241000,0.193240966796875,-1.08990478515625,-0.152374267578125,-0.1441192626953125
1757088825731287000,0.203287109375,-1.10516357421875,-0.0991973876953125,-0.168731689453125
1757088825741334000,0.213333984375,-1.097686767578125,-0.052825927734375,-0.1969451904296875
1757088825751380000,0.2233798828125,-1.0739593505859375,-0.0267181396484375,-0.227874755859375
1757088825761426000,0.233426025390625,-1.0054779052734375,-0.0107269287109375,-0.280548095703125
1757088825771473000,0.243472900390625,-0.9801025390625,-0.08026123046875,-0.27154541015625
1757088825781518800,0.253518798828125,-0.9659423828125,-0.14300537109375,-0.22015380859375
1757088825791565800,0.26356591796875,-0.913726806640625,-0.1695709228515625,-0.1966094970703125
1757088825801611800,0.27361181640625,-0.8556976318359375,-0.16619873046875,-0.18853759765625
1757088825811658000,0.283657958984375,-0.7878570556640625,-0.149871826171875,-0.1849517822265625
1757088825821705000,0.293705078125,-0.7549896240234375,-0.1591644287109375,-0.1746673583984375
1757088825831751000,0.3037509765625,-0.753265380859375,-0.2015380859375,-0.1693572998046875
1757088825841796900,0.313796875,-0.8390045166015625,-0.2422027587890625,-0.1644134521484375
1757088825851844000,0.323843994140625,-0.9159088134765625,-0.2747650146484375,-0.1964111328125
1757088825861890000,0.33389013671875,-0.881500244140625,-0.274658203125,-0.2687225341796875
1757088825871936000,0.34393603515625,-0.882598876953125,-0.2555999755859375,-0.3451690673828125
1757088825881983000,0.35398291015625,-0.908843994140625,-0.2352752685546875,-0.405548095703125
1757088825892029000,0.36402880859375,-0.9591522216796875,-0.2082672119140625,-0.4853363037109375
1757088825902075100,0.3740751953125,-0.9641265869140625,-0.17706298828125,-0.5667266845703125
1757088825912122000,0.3841220703125,-0.9201202392578125,-0.1756134033203125,-0.5748443603515625
1757088825922168000,0.39416796875,-0.90460205078125,-0.2182769775390625,-0.46319580078125
1757088825932215000,0.404215087890625,-0.863433837890625,-0.288909912109375,-0.06915283203125
1757088825942261000,0.414260986328125,-0.8701324462890625,-0.3802642822265625,0.05364990234375
1757088825952307000,0.424306884765625,-0.8005523681640625,-0.247283935546875,-0.2181549072265625
1757088825962354000,0.43435400390625,-0.8454742431640625,-0.169189453125,-0.4127655029296875
1757088825972399900,0.44439990234375,-0.9250335693359375,-0.22601318359375,-0.47369384765625
1757088825982446000,0.454446044921875,-0.9552459716796875,-0.2781524658203125,-0.4742431640625
1757088825992492800,0.464492919921875,-0.9698028564453125,-0.27740478515625,-0.49609375
1757088826002539000,0.4745390625,-0.9545135498046875,-0.25811767578125,-0.493560791015625
1757088826012585000,0.4845849609375,-0.9109039306640625,-0.278106689453125,-0.490264892578125
1757088826022632000,0.4946318359375,-0.8772125244140625,-0.296417236328125,-0.506866455078125
1757088826032678000,0.504677978515625,-0.870452880859375,-0.283599853515625,-0.4962005615234375
1757088826042725000,0.51472509765625,-0.87322998046875,-0.2574462890625,-0.472991943359375
1757088826052770800,0.524770751953125,-0.8897705078125,-0.2080230712890625,-0.450714111328125
1757088826062816800,0.534816650390625,-0.92822265625,-0.1562042236328125,-0.4013671875
1757088826072864000,0.544864013671875,-0.9316253662109375,-0.1419525146484375,-0.368682861328125
1757088826082910000,0.554909912109375,-0.9140777587890625,-0.1468658447265625,-0.37127685546875
1757088826092956200,0.5649560546875,-0.9015350341796875,-0.1862335205078125,-0.4182281494140625
1757088826103003100,0.575003173828125,-0.8645477294921875,-0.2323760986328125,-0.455810546875
1757088826113049000,0.585049072265625,-0.831329345703125,-0.2528533935546875,-0.4836883544921875
1757088826123095000,0.595094970703125,-0.8150482177734375,-0.2492523193359375,-0.4852447509765625
1757088826133142000,0.60514208984375,-0.8025665283203125,-0.206298828125,-0.463134765625
1757088826143188000,0.61518798828125,-0.849609375,-0.105743408203125,-0.4375152587890625
1757088826153235000,0.62523486328125,-0.9293365478515625,0.002288818359375,-0.3813323974609375
1757088826163281000,0.635281005859375,-0.9576416015625,-0.012908935546875,-0.2957000732421875
1757088826173326800,0.645326904296875,-0.935699462890625,-0.0658416748046875,-0.261016845703125
1757088826183373800,0.655373779296875,-0.8259735107421875,-0.1571197509765625,-0.3207244873046875
1757088826193420000,0.665419921875,-0.6449127197265625,-0.247467041015625,-0.365875244140625
1757088826203466000,0.675466064453125,-0.5501861572265625,-0.232574462890625,-0.3762054443359375
1757088826213513000,0.685512939453125,-0.5985260009765625,-0.21142578125,-0.394195556640625
1757088826223559000,0.695558837890625,-0.6988677978515625,-0.2505340576171875,-0.488494873046875
1757088826233606000,0.70560595703125,-0.775146484375,-0.267852783203125,-0.6323699951171875
1757088826243651800,0.71565185546875,-0.817169189453125,-0.2567901611328125,-0.748931884765625
1757088826253697800,0.72569775390625,-0.8334503173828125,-0.224884033203125,-0.7579803466796875
1757088826263745000,0.7357451171875,-0.817352294921875,-0.208343505859375,-0.730712890625
1757088826273791000,0.745791015625,-0.8013916015625,-0.1801605224609375,-0.665069580078125
1757088826283837200,0.755837158203125,-0.74322509765625,-0.14306640625,-0.582061767578125
1757088826293884200,0.76588427734375,-0.64532470703125,-0.150360107421875,-0.529815673828125
1757088826303930000,0.77593017578125,-0.548431396484375,-0.1445159912109375,-0.5072174072265625
1757088826313976000,0.78597607421875,-0.51031494140625,-0.1029510498046875,-0.541290283203125
1757088826324023000,0.79602294921875,-0.62213134765625,0.0336761474609375,-0.646331787109375
1757088826334069000,0.806069091796875,-0.77154541015625,0.0463714599609375,-0.6350250244140625
1757088826344115000,0.816114990234375,-0.7016448974609375,-0.0528564453125,-0.5782318115234375
1757088826354162000,0.826161865234375,-0.5319671630859375,-0.0938720703125,-0.6570892333984375
1757088826364207900,0.836207763671875,-0.385498046875,-0.0883636474609375,-0.7062530517578125
1757088826374254800,0.8462548828125,-0.2748565673828125,-0.0740203857421875,-0.7174530029296875
1757088826384301000,0.856301025390625,-0.2172698974609375,-0.06878662109375,-0.7171173095703125
1757088826394347000,0.866346923828125,-0.276092529296875,-0.0509796142578125,-0.7451629638671875
1757088826404394000,0.87639404296875,-0.4025115966796875,0.0420074462890625,-0.80596923828125
1757088826414440000,0.88643994140625,-0.49591064453125,0.1615142822265625,-0.786376953125
1757088826424486000,0.89648583984375,-0.4254302978515625,0.133514404296875,-0.7646331787109375
1757088826434532900,0.906532958984375,-0.25555419921875,0.0216827392578125,-0.805206298828125
1757088826444578800,0.916578857421875,-0.1403961181640625,-0.056121826171875,-0.8808135986328125
1757088826454626000,0.9266259765625,-0.10467529296875,-0.143585205078125,-0.9640045166015625
1757088826464671700,0.936671630859375,-0.0908355712890625,-0.189056396484375,-1.040740966796875
1757088826474718000,0.946718017578125,-0.10205078125,-0.1904296875,-1.097412109375
1757088826484765000,0.956764892578125,-0.119720458984375,-0.146575927734375,-1.10015869140625
1757088826494811100,0.96681103515625,-0.08795166015625,-0.0634613037109375,-1.0638580322265625
1757088826504857000,0.976857177734375,-0.034454345703125,-0.0487518310546875,-0.9847564697265625
1757088826514904000,0.986904052734375,-0.0036773681640625,-0.0877685546875,-0.907989501953125
1757088826524950000,0.996949951171875,-0.0012969970703125,-0.0855560302734375,-0.871185302734375
1757088826534996000,1.006995849609375,0.0223846435546875,-0.0649566650390625,-0.856201171875
1757088826545043000,1.01704296875,0.0574493408203125,-0.03924560546875,-0.86199951171875
1757088826555089000,1.0270888671875,0.0566558837890625,-0.0066070556640625,-0.9430694580078125
1757088826565136000,1.037135986328125,0.2276458740234375,0.234954833984375,-1.100006103515625
1757088826575182300,1.047182373046875,0.30316162109375,0.087371826171875,-1.19696044921875
1757088826585228500,1.057228515625,0.216064453125,-0.1860504150390625,-1.3234100341796875
1757088826595275500,1.067275634765625,0.1094512939453125,-0.269134521484375,-1.453338623046875
1757088826605321500,1.077321533203125,0.1361846923828125,-0.2138671875,-1.4597930908203125
1757088826615367400,1.087367431640625,0.209747314453125,-0.1242523193359375,-1.34295654296875
1757088826625414400,1.097414306640625,0.24273681640625,-0.0858612060546875,-1.1805572509765625
1757088826635460400,1.10746044921875,0.250213623046875,-0.0950469970703125,-1.053741455078125
1757088826645507300,1.11750732421875,0.2721099853515625,-0.101654052734375,-0.9542388916015625
1757088826655553300,1.12755322265625,0.79541015625,-0.0572662353515625,-1.056854248046875
1757088826665599200,1.13759912109375,3.042755126953125,0.1875457763671875,-1.5771026611328125
1757088826675646200,1.147646240234375,1.5250396728515625,0.17791748046875,-1.0000762939453125
1757088826685692400,1.1576923828125,0.7970428466796875,-0.0989837646484375,-0.8035125732421875
1757088826695738400,1.16773828125,0.7014617919921875,0.03472900390625,-0.8351898193359375
1757088826705785300,1.177785400390625,0.3873291015625,0.08514404296875,-0.873687744140625
1757088826715831300,1.187831298828125,0.414276123046875,0.1431427001953125,-0.9604339599609375
1757088826725877200,1.197877197265625,0.3241729736328125,0.2060699462890625,-0.984954833984375
1757088826735924500,1.207924560546875,0.3024749755859375,0.3096771240234375,-0.985595703125
1757088826745970400,1.217970458984375,0.311614990234375,0.2918701171875,-0.940826416015625
1757088826756017400,1.228017333984375,0.3473968505859375,0.2628326416015625,-0.8742218017578125
1757088826766063400,1.2380634765625,0.37188720703125,0.2744293212890625,-0.8371124267578125
1757088826776109600,1.248109619140625,0.427215576171875,0.245880126953125,-0.8717193603515625
1757088826786156300,1.25815625,0.5058746337890625,0.2108917236328125,-0.8601226806640625
1757088826796202500,1.268202392578125,0.564178466796875,0.202667236328125,-0.849029541015625
1757088826806248400,1.27824853515625,0.5721588134765625,0.218414306640625,-0.842681884765625
1757088826816295400,1.28829541015625,0.5439910888671875,0.227325439453125,-0.851837158203125
1757088826826341400,1.29834130859375,0.5111236572265625,0.2071990966796875,-0.8903350830078125
1757088826836387300,1.30838720703125,0.4869384765625,0.1902923583984375,-0.9288330078125
1757088826846434300,1.318434326171875,0.494720458984375,0.1718902587890625,-0.93084716796875
1757088826856480300,1.328480224609375,0.505035400390625,0.14752197265625,-0.90875244140625
1757088826866527200,1.33852734375,0.4851837158203125,0.145416259765625,-0.892486572265625
1757088826876573400,1.348573486328125,0.4670257568359375,0.15386962890625,-0.8672637939453125
1757088826886619400,1.358619384765625,0.474212646484375,0.1352081298828125,-0.8309326171875
1757088826896666400,1.368666259765625,0.474945068359375,0.1156463623046875,-0.8306884765625
1757088826906712300,1.37871240234375,0.471282958984375,0.1074066162109375,-0.8401336669921875
1757088826916758300,1.38875830078125,0.4689483642578125,0.1186676025390625,-0.8519439697265625
1757088826926805500,1.398805419921875,0.4536285400390625,0.1280975341796875,-0.835693359375
1757088826936851500,1.4088515625,0.4461517333984375,0.14349365234375,-0.8428955078125
1757088826946897200,1.418897216796875,0.4553680419921875,0.1532745361328125,-0.8424224853515625
1757088826956944400,1.4289443359375,0.4737396240234375,0.142425537109375,-0.8531036376953125
1757088826966990600,1.438990478515625,0.4771881103515625,0.144866943359375,-0.865203857421875
1757088826977037300,1.449037353515625,0.4771575927734375,0.139892578125,-0.8725433349609375
1757088826987083500,1.45908349609375,0.482269287109375,0.1360626220703125,-0.88873291015625
1757088826997129500,1.46912939453125,0.477386474609375,0.1356048583984375,-0.9040985107421875
1757088827007176400,1.479176513671875,0.4605865478515625,0.1299896240234375,-0.913787841796875
1757088827017222400,1.489222412109375,0.45013427734375,0.1248779296875,-0.919281005859375
1757088827027268400,1.499268310546875,0.4557037353515625,0.12347412109375,-0.912445068359375
1757088827037315300,1.5093154296875,0.4620513916015625,0.1133270263671875,-0.9044189453125
1757088827047361300,1.519361328125,0.4679412841796875,0.124267578125,-0.884033203125
1757088827057408300,1.529408203125,0.4739227294921875,0.1258392333984375,-0.87689208984375
1757088827067454500,1.539454345703125,0.4758453369140625,0.119384765625,-0.8878021240234375
1757088827077500400,1.54950048828125,0.4700469970703125,0.142974853515625,-0.8763885498046875
1757088827087547400,1.55954736328125,0.453125,0.1570587158203125,-0.8780517578125
1757088827097593300,1.56959326171875,0.4425811767578125,0.1780853271484375,-0.8787994384765625
1757088827107639300,1.579639404296875,0.4458160400390625,0.1953277587890625,-0.87176513671875
1757088827117686300,1.589686279296875,0.456024169921875,0.189605712890625,-0.8774566650390625
1757088827127732200,1.599732177734375,0.4735870361328125,0.168121337890625,-0.88525390625
1757088827137779500,1.609779541015625,0.4888458251953125,0.151641845703125,-0.8889312744140625
1757088827147825400,1.619825439453125,0.4860687255859375,0.13909912109375,-0.8968353271484375
1757088827157871400,1.629871337890625,0.47613525390625,0.1253814697265625,-0.8934326171875
1757088827167918300,1.63991845703125,0.467987060546875,0.11810302734375,-0.881927490234375
1757088827177964500,1.649964599609375,0.4538726806640625,0.1179962158203125,-0.8746795654296875
1757088827188010500,1.660010498046875,0.4459991455078125,0.1190185546875,-0.8720245361328125
1757088827198057500,1.670057373046875,0.4437255859375,0.1214141845703125,-0.8673095703125
1757088827208103400,1.680103515625,0.442901611328125,0.1293792724609375,-0.868072509765625
1757088827218149400,1.6901494140625,0.452056884765625,0.13470458984375,-0.86187744140625
1757088827228196400,1.7001962890625,0.460174560546875,0.136016845703125,-0.858154296875
1757088827238242300,1.7102421875,0.4597625732421875,0.139129638671875,-0.8743133544921875
1757088827248289300,1.720289306640625,0.4541473388671875,0.146881103515625,-0.8867950439453125
1757088827258335200,1.730335205078125,0.44921875,0.141998291015625,-0.898193359375
1757088827268381400,1.74038134765625,0.4420623779296875,0.1396942138671875,-0.907958984375
1757088827278428400,1.750428466796875,0.4408416748046875,0.1390228271484375,-0.9127960205078125
1757088827288474400,1.760474365234375,0.446044921875,0.141082763671875,-0.90521240234375
1757088827298520300,1.770520263671875,0.4530792236328125,0.1419677734375,-0.89654541015625
1757088827308567300,1.7805673828125,0.4582061767578125,0.1406402587890625,-0.891082763671875
1757088827318613200,1.79061328125,0.4619903564453125,0.1424713134765625,-0.8831024169921875
1757088827328660500,1.800660400390625,0.472900390625,0.1379547119140625,-0.8747406005859375
1757088827338706400,1.81070654296875,0.4758148193359375,0.12615966796875,-0.8849029541015625
1757088827348752400,1.82075244140625,0.4858245849609375,0.12347412109375,-0.886627197265625
1757088827358799400,1.83079931640625,0.503326416015625,0.135284423828125,-0.8725738525390625
1757088827368845600,1.840845458984375,0.503936767578125,0.1491851806640625,-0.865142822265625
1757088827378892500,1.850892578125,0.49444580078125,0.1526336669921875,-0.858489990234375
1757088827388938500,1.8609384765625,0.488677978515625,0.1571044921875,-0.839996337890625
1757088827398984400,1.870984375,0.492034912109375,0.1596527099609375,-0.83074951171875
1757088827409031400,1.881031494140625,0.4962921142578125,0.1570281982421875,-0.84124755859375
1757088827419077400,1.891077392578125,0.49432373046875,0.1510162353515625,-0.856903076171875
1757088827429123300,1.901123291015625,0.4905242919921875,0.143157958984375,-0.870025634765625
1757088827439170300,1.91117041015625,0.488922119140625,0.1358489990234375,-0.8746795654296875
1757088827449216300,1.92121630859375,0.490692138671875,0.13055419921875,-0.8691253662109375
1757088827459263200,1.93126318359375,0.4911651611328125,0.1298065185546875,-0.8650970458984375
1757088827469309400,1.941309326171875,0.4899139404296875,0.1357421875,-0.863037109375
1757088827479356400,1.9513564453125,0.486297607421875,0.1395416259765625,-0.867340087890625
1757088827489402400,1.96140234375,0.4849700927734375,0.1380157470703125,-0.8680419921875
1757088827499448300,1.9714482421875,0.4823760986328125,0.13787841796875,-0.8615264892578125
1757088827509495600,1.98149560546875,0.4762115478515625,0.1351165771484375,-0.8625030517578125
1757088827519541500,1.99154150390625,0.4786834716796875,0.13238525390625,-0.86480712890625
1757088827529587200,2.001587158203125,0.4819793701171875,0.13287353515625,-0.86895751953125
1757088827539634400,2.011634521484375,0.4860382080078125,0.135528564453125,-0.877716064453125
1757088827549680400,2.021680419921875,0.490966796875,0.13507080078125,-0.8814544677734375
1757088827559727400,2.031727294921875,0.4881134033203125,0.1347198486328125,-0.884124755859375
1757088827569773300,2.041773193359375,0.4839324951171875,0.131927490234375,-0.8860321044921875
1757088827579820300,2.0518203125,0.4782867431640625,0.131011962890625,-0.88116455078125
1757088827589866500,2.061866455078125,0.4752655029296875,0.1266632080078125,-0.87652587890625
1757088827599912400,2.071912353515625,0.4714813232421875,0.1255950927734375,-0.8761444091796875
1757088827609959400,2.08195947265625,0.4710235595703125,0.1295013427734375,-0.874176025390625
1757088827620005400,2.09200537109375,0.4707794189453125,0.13232421875,-0.8723297119140625
1757088827630052400,2.10205224609375,0.463287353515625,0.1345977783203125,-0.8778228759765625
1757088827640098300,2.112098388671875,0.45977783203125,0.1343994140625,-0.8759307861328125
1757088827650144300,2.122144287109375,0.456939697265625,0.136138916015625,-0.87353515625
1757088827660191200,2.132191162109375,0.455169677734375,0.13958740234375,-0.86962890625
1757088827670237200,2.1422373046875,0.45660400390625,0.1443634033203125,-0.864532470703125
1757088827680284400,2.152284423828125,0.4599456787109375,0.1506805419921875,-0.86309814453125
1757088827690330400,2.162330322265625,0.46063232421875,0.1539306640625,-0.8692474365234375
1757088827700376300,2.172376220703125,0.46136474609375,0.15460205078125,-0.8763885498046875
1757088827710423600,2.182423583984375,0.4694671630859375,0.1579132080078125,-0.877593994140625
1757088827720469500,2.192469482421875,0.4799957275390625,0.15985107421875,-0.874725341796875
1757088827730516500,2.2025166015625,0.4841156005859375,0.1564788818359375,-0.873687744140625
1757088827740562400,2.2125625,0.4856414794921875,0.157806396484375,-0.872589111328125
1757088827750608400,2.2226083984375,0.4916839599609375,0.1546478271484375,-0.8664398193359375
1757088827760655400,2.2326552734375,0.4990997314453125,0.1535797119140625,-0.863494873046875
1757088827770701300,2.242701416015625,0.5027923583984375,0.1488494873046875,-0.8625030517578125
1757088827780748300,2.252748291015625,0.498199462890625,0.14678955078125,-0.8632965087890625
1757088827790794500,2.26279443359375,0.4925994873046875,0.146575927734375,-0.859161376953125
1757088827800840400,2.27284033203125,0.49139404296875,0.1433563232421875,-0.85540771484375
1757088827810887400,2.282887451171875,0.49298095703125,0.1404571533203125,-0.852996826171875
1757088827820933400,2.292933349609375,0.492645263671875,0.13970947265625,-0.8527984619140625
1757088827830980400,2.30298046875,0.490753173828125,0.1407318115234375,-0.8588104248046875
1757088827841026300,2.3130263671875,0.488677978515625,0.141998291015625,-0.872344970703125
1757088827851072300,2.323072265625,0.48779296875,0.1464080810546875,-0.8870086669921875
1757088827861119200,2.333119140625,0.484161376953125,0.1478729248046875,-0.900604248046875
1757088827871165200,2.343165283203125,0.4762725830078125,0.1499176025390625,-0.9018096923828125
1757088827881212400,2.35321240234375,0.4742584228515625,0.151519775390625,-0.89654541015625
1757088827891258400,2.36325830078125,0.4739990234375,0.1504364013671875,-0.8894805908203125
1757088827901304600,2.3733046875,0.47381591796875,0.1439971923828125,-0.8822174072265625
1757088827911351600,2.3833515625,0.479217529296875,0.1356353759765625,-0.8684844970703125
1757088827921397500,2.3933974609375,0.481689453125,0.1312103271484375,-0.8650665283203125
1757088827931444500,2.403444580078125,0.4813232421875,0.1259002685546875,-0.867279052734375
1757088827941490400,2.413490478515625,0.481353759765625,0.12469482421875,-0.8625640869140625
1757088827951536400,2.423536376953125,0.47894287109375,0.123046875,-0.8528594970703125
1757088827961583400,2.433583251953125,0.4747314453125,0.127838134765625,-0.8460845947265625
1757088827971629300,2.44362939453125,0.473968505859375,0.1323089599609375,-0.83746337890625
1757088827981676300,2.45367626953125,0.4790191650390625,0.1381072998046875,-0.8348541259765625
1757088827991722200,2.46372216796875,0.48577880859375,0.141693115234375,-0.837982177734375
1757088828001768400,2.4737685546875,0.4915313720703125,0.1405792236328125,-0.8500518798828125
1757088828011815400,2.4838154296875,0.4934844970703125,0.1393585205078125,-0.8636322021484375
1757088828021861400,2.493861328125,0.4935302734375,0.136749267578125,-0.871124267578125
1757088828031908400,2.503908447265625,0.497100830078125,0.13812255859375,-0.875823974609375
1757088828041954300,2.513954345703125,0.4962310791015625,0.1383514404296875,-0.8781890869140625
1757088828052000300,2.524000244140625,0.494659423828125,0.137298583984375,-0.875701904296875
1757088828062047500,2.534047607421875,0.496795654296875,0.1411590576171875,-0.868255615234375
1757088828072093400,2.544093505859375,0.503326416015625,0.1461944580078125,-0.858123779296875
1757088828082140400,2.554140380859375,0.509857177734375,0.148773193359375,-0.84942626953125
1757088828092186400,2.564186279296875,0.5121307373046875,0.1495513916015625,-0.8460845947265625
1757088828102232600,2.574232666015625,0.510406494140625,0.146514892578125,-0.8524169921875
1757088828112279300,2.584279296875,0.5025634765625,0.1452484130859375,-0.8676605224609375
1757088828122325500,2.594325439453125,0.4927978515625,0.1439666748046875,-0.876068115234375
1757088828132372500,2.60437255859375,0.4887847900390625,0.1425018310546875,-0.87042236328125
1757088828142418400,2.61441845703125,0.491607666015625,0.143646240234375,-0.86199951171875
1757088828152464400,2.62446435546875,0.4991302490234375,0.1478729248046875,-0.8548126220703125
1757088828162511400,2.634511474609375,0.50445556640625,0.14532470703125,-0.8490753173828125
1757088828172557300,2.644557373046875,0.50067138671875,0.1432037353515625,-0.849945068359375
1757088828182604300,2.654604248046875,0.49737548828125,0.143890380859375,-0.85498046875
1757088828192650200,2.664650146484375,0.4949951171875,0.1438446044921875,-0.8582763671875
1757088828202696400,2.674696533203125,0.4942474365234375,0.144378662109375,-0.8604736328125
1757088828212743200,2.6847431640625,0.48846435546875,0.144378662109375,-0.86846923828125
1757088828222789400,2.694789306640625,0.484161376953125,0.1422882080078125,-0.8766021728515625
1757088828232835300,2.70483544921875,0.4853515625,0.142364501953125,-0.8761444091796875
1757088828242882600,2.714882568359375,0.4871063232421875,0.142120361328125,-0.8722686767578125
1757088828252928500,2.724928466796875,0.48406982421875,0.1427764892578125,-0.870269775390625
1757088828262975500,2.7349755859375,0.48626708984375,0.1409149169921875,-0.8676300048828125
1757088828273021400,2.745021484375,0.4877471923828125,0.1387176513671875,-0.86297607421875
1757088828283067400,2.7550673828125,0.4876251220703125,0.1400146484375,-0.8605194091796875
1757088828293114400,2.7651142578125,0.4813995361328125,0.1368255615234375,-0.8654022216796875
1757088828303160300,2.775160400390625,0.481964111328125,0.131195068359375,-0.8672943115234375
1757088828313207300,2.785207275390625,0.4898223876953125,0.13519287109375,-0.86553955078125
1757088828323253500,2.79525341796875,0.493804931640625,0.13543701171875,-0.86279296875
1757088828333299500,2.805299560546875,0.4954681396484375,0.13677978515625,-0.8666839599609375
1757088828343346400,2.815346435546875,0.4897918701171875,0.141357421875,-0.871734619140625
1757088828353392400,2.825392333984375,0.486358642578125,0.142791748046875,-0.8763580322265625
1757088828363439400,2.835439453125,0.490997314453125,0.1424102783203125,-0.87371826171875
1757088828373485300,2.8454853515625,0.4922637939453125,0.1399688720703125,-0.86932373046875
1757088828383531300,2.85553125,0.4947967529296875,0.1381378173828125,-0.864959716796875
1757088828393578200,2.865578125,0.4969635009765625,0.1343536376953125,-0.8602142333984375
1757088828403624200,2.875624267578125,0.497711181640625,0.135162353515625,-0.853179931640625
1757088828413671400,2.88567138671875,0.4978790283203125,0.1403045654296875,-0.8516387939453125
1757088828423717400,2.89571728515625,0.4929656982421875,0.1419525146484375,-0.854949951171875
1757088828433763600,2.905763671875,0.49542236328125,0.1405487060546875,-0.8607025146484375
1757088828443810600,2.915810546875,0.501068115234375,0.1395416259765625,-0.864654541015625
1757088828453856500,2.9258564453125,0.5041961669921875,0.1407928466796875,-0.86651611328125
1757088828463903500,2.935903564453125,0.5031890869140625,0.142791748046875,-0.8655853271484375
1757088828473949400,2.945949462890625,0.5015716552734375,0.143890380859375,-0.862762451171875
1757088828483995400,2.955995361328125,0.4989471435546875,0.1460418701171875,-0.8576202392578125
1757088828494042400,2.96604248046875,0.498992919921875,0.1442718505859375,-0.855377197265625
1757088828504088300,2.97608837890625,0.4977874755859375,0.1440887451171875,-0.8542633056640625
1757088828514135300,2.98613525390625,0.495697021484375,0.141204833984375,-0.85369873046875
1757088828524181200,2.99618115234375,0.4949951171875,0.138427734375,-0.8557586669921875
1757088828534227500,3.0062275390625,0.494293212890625,0.1403961181640625,-0.8606109619140625
1757088828544274400,3.0162744140625,0.4913177490234375,0.1396942138671875,-0.8690338134765625
1757088828554320400,3.0263203125,0.491729736328125,0.1429290771484375,-0.8726806640625
1757088828564366300,3.036366455078125,0.4943389892578125,0.143096923828125,-0.8715972900390625
1757088828574413000,3.0464130859375,0.497589111328125,0.142791748046875,-0.86712646484375
1757088828584459000,3.056458984375,0.499847412109375,0.1405487060546875,-0.8632354736328125
1757088828594506000,3.066506103515625,0.4975433349609375,0.1390228271484375,-0.8594818115234375
1757088828604552000,3.076552001953125,0.49310302734375,0.136871337890625,-0.860260009765625
1757088828614598100,3.08659814453125,0.49188232421875,0.1394500732421875,-0.8602447509765625
1757088828624645000,3.09664501953125,0.4925079345703125,0.1394805908203125,-0.8616180419921875
1757088828634691000,3.106691162109375,0.4922943115234375,0.139617919921875,-0.861297607421875
1757088828644738000,3.116738037109375,0.4956817626953125,0.1390380859375,-0.8621826171875
1757088828654784000,3.126783935546875,0.495758056640625,0.1416015625,-0.8614654541015625
1757088828664830000,3.136829833984375,0.4953460693359375,0.143096923828125,-0.85858154296875
1757088828674877000,3.146876953125,0.4931793212890625,0.142242431640625,-0.85858154296875
1757088828684923000,3.1569228515625,0.49163818359375,0.1398468017578125,-0.86083984375
1757088828694969900,3.166969970703125,0.493743896484375,0.1394500732421875,-0.861175537109375
1757088828705015800,3.177015869140625,0.493408203125,0.1372528076171875,-0.8665771484375
1757088828715062000,3.18706201171875,0.492279052734375,0.1385498046875,-0.870574951171875
1757088828725108700,3.197108642578125,0.49188232421875,0.1398162841796875,-0.873748779296875
1757088828735155000,3.207155029296875,0.4880218505859375,0.138671875,-0.8721466064453125
1757088828745202200,3.2172021484375,0.4898834228515625,0.14093017578125,-0.86944580078125
1757088828755248000,3.227248046875,0.4937744140625,0.142242431640625,-0.86322021484375
1757088828765294000,3.237294189453125,0.498077392578125,0.142852783203125,-0.8559417724609375
1757088828775341000,3.247341064453125,0.4999847412109375,0.142547607421875,-0.8531951904296875
1757088828785387000,3.257386962890625,0.4986419677734375,0.140594482421875,-0.8557281494140625
1757088828795434000,3.26743408203125,0.494903564453125,0.140167236328125,-0.8570098876953125
1757088828805480000,3.27747998046875,0.4918975830078125,0.137420654296875,-0.86053466796875
1757088828815526000,3.28752587890625,0.4952392578125,0.1362762451171875,-0.861785888671875
1757088828825572900,3.29757275390625,0.4975738525390625,0.1384124755859375,-0.858367919921875
1757088828835619000,3.307619140625,0.497711181640625,0.1393890380859375,-0.8609466552734375
1757088828845665000,3.3176650390625,0.4938507080078125,0.137359619140625,-0.86572265625
1757088828855712000,3.3277119140625,0.49688720703125,0.1358489990234375,-0.864105224609375
1757088828865758000,3.337758056640625,0.4981842041015625,0.1392974853515625,-0.8586883544921875
1757088828875805000,3.347804931640625,0.4978179931640625,0.138336181640625,-0.855987548828125
1757088828885851000,3.357850830078125,0.4984893798828125,0.1393280029296875,-0.856475830078125
1757088828895896800,3.367896728515625,0.49725341796875,0.1420745849609375,-0.8585968017578125
1757088828905943800,3.37794384765625,0.497161865234375,0.1420745849609375,-0.8659515380859375
1757088828915989800,3.38798974609375,0.4967041015625,0.1435546875,-0.8695526123046875
1757088828926037000,3.398037109375,0.496795654296875,0.1409759521484375,-0.8687744140625
1757088828936083200,3.408083251953125,0.49786376953125,0.1407470703125,-0.86724853515625
1757088828946129200,3.418129150390625,0.494842529296875,0.141754150390625,-0.8638458251953125
1757088828956176100,3.428176025390625,0.4907684326171875,0.139404296875,-0.863861083984375
1757088828966222000,3.43822216796875,0.4930419921875,0.1403656005859375,-0.8576507568359375
1757088828976269000,3.44826904296875,0.4973602294921875,0.14019775390625,-0.8521575927734375
1757088828986315000,3.45831494140625,0.4969024658203125,0.1396331787109375,-0.8535003662109375
1757088828996361000,3.46836083984375,0.4939727783203125,0.138702392578125,-0.855224609375
1757088829006408000,3.478407958984375,0.490814208984375,0.140228271484375,-0.8610382080078125
1757088829016454000,3.488453857421875,0.488616943359375,0.1402587890625,-0.8665008544921875
1757088829026500000,3.4985,0.48736572265625,0.140380859375,-0.8694000244140625
1757088829036547000,3.508547119140625,0.4897918701171875,0.139678955078125,-0.869537353515625
1757088829046593000,3.518593017578125,0.4962921142578125,0.139373779296875,-0.8664703369140625
1757088829056640000,3.528639892578125,0.497161865234375,0.1386566162109375,-0.86346435546875
1757088829066686000,3.53868603515625,0.4984588623046875,0.1369781494140625,-0.861114501953125
1757088829076732000,3.54873193359375,0.499420166015625,0.138916015625,-0.8598785400390625
1757088829086779000,3.55877880859375,0.49786376953125,0.140228271484375,-0.858245849609375
1757088829096824800,3.568824951171875,0.4950103759765625,0.1380462646484375,-0.8595733642578125
1757088829106872000,3.5788720703125,0.4927825927734375,0.13623046875,-0.864654541015625
1757088829116918000,3.58891796875,0.491180419921875,0.1369171142578125,-0.8682861328125
1757088829126964000,3.5989638671875,0.4908905029296875,0.1352081298828125,-0.8707122802734375
1757088829137011000,3.609010986328125,0.4905242919921875,0.1336822509765625,-0.869232177734375
1757088829147057200,3.61905712890625,0.493316650390625,0.1356201171875,-0.8668060302734375
1757088829157104000,3.629104248046875,0.4938812255859375,0.1379547119140625,-0.8644256591796875
1757088829167150000,3.639150146484375,0.49249267578125,0.1410980224609375,-0.8610076904296875
1757088829177196000,3.649196044921875,0.4921875,0.1407012939453125,-0.863983154296875
1757088829187243000,3.659242919921875,0.4869842529296875,0.139312744140625,-0.8687744140625
1757088829197289000,3.6692890625,0.4858551025390625,0.139373779296875,-0.869903564453125
1757088829207335000,3.6793349609375,0.4894866943359375,0.1388702392578125,-0.868927001953125
1757088829217382000,3.6893818359375,0.492645263671875,0.1395111083984375,-0.8659820556640625
1757088829227427800,3.699427734375,0.4952850341796875,0.138671875,-0.8624420166015625
1757088829237474800,3.709474853515625,0.493194580078125,0.1400299072265625,-0.8613739013671875
1757088829247521000,3.71952099609375,0.4871063232421875,0.1407470703125,-0.8646087646484375
1757088829257567000,3.72956689453125,0.4832916259765625,0.1392364501953125,-0.863800048828125
1757088829267614000,3.739614013671875,0.48577880859375,0.140228271484375,-0.8624725341796875
1757088829277660000,3.749659912109375,0.4890289306640625,0.138763427734375,-0.862823486328125
1757088829287707000,3.759706787109375,0.491180419921875,0.1385345458984375,-0.8643798828125
1757088829297752800,3.7697529296875,0.4923248291015625,0.1390228271484375,-0.86737060546875
1757088829307798800,3.779798828125,0.4952850341796875,0.1399688720703125,-0.8650970458984375
1757088829317846000,3.789845947265625,0.49578857421875,0.1415863037109375,-0.8628082275390625
1757088829327892000,3.79989208984375,0.4967193603515625,0.14019775390625,-0.8622894287109375
1757088829337938200,3.809938232421875,0.4943695068359375,0.140411376953125,-0.860595703125
1757088829347985200,3.819985107421875,0.49029541015625,0.138580322265625,-0.862823486328125
1757088829358031000,3.830031005859375,0.4896392822265625,0.1372222900390625,-0.8658447265625
1757088829368078000,3.840078125,0.485992431640625,0.1341400146484375,-0.8668212890625
1757088829378124000,3.8501240234375,0.4863433837890625,0.1357879638671875,-0.8661651611328125
1757088829388170000,3.860169921875,0.4889984130859375,0.13775634765625,-0.8638916015625
1757088829398217000,3.870217041015625,0.490509033203125,0.140838623046875,-0.8616943359375
1757088829408263000,3.880262939453125,0.4935455322265625,0.142974853515625,-0.861328125
1757088829418310000,3.890309814453125,0.4936676025390625,0.142486572265625,-0.864532470703125
1757088829428355800,3.90035595703125,0.4936065673828125,0.1411895751953125,-0.868316650390625
1757088829438402000,3.910402099609375,0.48699951171875,0.1410064697265625,-0.8759613037109375
1757088829448449000,3.920448974609375,0.48565673828125,0.140289306640625,-0.8761444091796875
1757088829458495000,3.930494873046875,0.48834228515625,0.1404571533203125,-0.8666839599609375
1757088829468541000,3.940541015625,0.49114990234375,0.1392822265625,-0.85943603515625
1757088829478588000,3.950587890625,0.4903717041015625,0.140838623046875,-0.8570709228515625
1757088829488633900,3.9606337890625,0.4909515380859375,0.140777587890625,-0.8591156005859375
1757088829498681000,3.97068115234375,0.4892425537109375,0.1384124755859375,-0.86077880859375
1757088829508727000,3.98072705078125,0.486114501953125,0.1365203857421875,-0.8650360107421875
1757088829518773000,3.99077294921875,0.4880523681640625,0.137115478515625,-0.8676605224609375
1757088829528820000,4.000820068359375,0.4906768798828125,0.137115478515625,-0.865203857421875
1757088829538866000,4.010865966796875,0.490936279296875,0.1387481689453125,-0.8621673583984375
1757088829548913000,4.020912841796875,0.4898834228515625,0.140167236328125,-0.864410400390625
1757088829558959000,4.030958984375,0.487091064453125,0.140716552734375,-0.8676605224609375
1757088829569005000,4.041005126953125,0.487823486328125,0.1404266357421875,-0.8716278076171875
1757088829579052500,4.051052490234375,0.4892120361328125,0.1380767822265625,-0.8766326904296875
1757088829589098500,4.061098388671875,0.488861083984375,0.1396636962890625,-0.87939453125
1757088829599145500,4.0711455078125,0.4887237548828125,0.140380859375,-0.8767242431640625
1757088829609191400,4.08119140625,0.4882965087890625,0.139892578125,-0.87078857421875
1757088829619237400,4.0912373046875,0.487274169921875,0.1396942138671875,-0.864776611328125
1757088829629284400,4.101284423828125,0.4841156005859375,0.13800048828125,-0.8636016845703125
1757088829639330300,4.111330322265625,0.4807891845703125,0.1367645263671875,-0.861358642578125
1757088829649376500,4.12137646484375,0.4849700927734375,0.136322021484375,-0.86029052734375
1757088829659423200,4.13142333984375,0.486724853515625,0.1377716064453125,-0.862640380859375
1757088829669469400,4.141469482421875,0.4876251220703125,0.138275146484375,-0.8657379150390625
1757088829679516700,4.1515166015625,0.48358154296875,0.137908935546875,-0.8695068359375
1757088829689562600,4.161562744140625,0.4825592041015625,0.13836669921875,-0.866851806640625
1757088829699608600,4.171608642578125,0.485626220703125,0.1375885009765625,-0.8651123046875
1757088829709655600,4.181655517578125,0.486602783203125,0.1388092041015625,-0.867095947265625
1757088829719701500,4.191701416015625,0.4844970703125,0.13800048828125,-0.8681488037109375
1757088829729748500,4.20174853515625,0.4850921630859375,0.1384429931640625,-0.8694610595703125
1757088829739794400,4.21179443359375,0.486907958984375,0.1424560546875,-0.8680877685546875
1757088829749840400,4.22184033203125,0.489501953125,0.143798828125,-0.86834716796875
1757088829759887400,4.231887451171875,0.488800048828125,0.1442413330078125,-0.869171142578125
1757088829769933600,4.24193359375,0.4860076904296875,0.1416168212890625,-0.868804931640625
1757088829779979500,4.2519794921875,0.489471435546875,0.1390838623046875,-0.86566162109375
1757088829790026500,4.262026611328125,0.490447998046875,0.13726806640625,-0.86383056640625
1757088829800072400,4.272072509765625,0.4881439208984375,0.1355743408203125,-0.865203857421875
1757088829810119400,4.282119384765625,0.4866180419921875,0.133026123046875,-0.8678436279296875
1757088829820165400,4.292165283203125,0.488922119140625,0.1349945068359375,-0.8686370849609375
1757088829830211300,4.30221142578125,0.4910430908203125,0.1387939453125,-0.8680877685546875
1757088829840258300,4.31225830078125,0.492584228515625,0.14031982421875,-0.8665618896484375
1757088829850304300,4.32230419921875,0.489349365234375,0.142120361328125,-0.8666229248046875
1757088829860351500,4.3323515625,0.4892425537109375,0.1425018310546875,-0.8657684326171875
1757088829870397400,4.3423974609375,0.4892730712890625,0.143157958984375,-0.86822509765625
1757088829880443600,4.352443603515625,0.4877471923828125,0.1404876708984375,-0.866943359375
1757088829890490600,4.36249072265625,0.487518310546875,0.1375274658203125,-0.8689727783203125
1757088829900536600,4.37253662109375,0.484649658203125,0.1351165771484375,-0.87127685546875
1757088829910582500,4.38258251953125,0.486602783203125,0.1332550048828125,-0.8657379150390625
1757088829920629500,4.39262939453125,0.4874725341796875,0.1366119384765625,-0.8631439208984375
1757088829930675500,4.402675537109375,0.489532470703125,0.13616943359375,-0.8612060546875
1757088829940722400,4.412722412109375,0.490936279296875,0.135986328125,-0.856842041015625
1757088829950768400,4.422768310546875,0.487457275390625,0.138702392578125,-0.85638427734375
1757088829960814600,4.432814697265625,0.4797515869140625,0.1401214599609375,-0.85772705078125
1757088829970861300,4.442861328125,0.477752685546875,0.13665771484375,-0.8541259765625
1757088829980907500,4.452907470703125,0.4838104248046875,0.1378631591796875,-0.8493804931640625
1757088829990954500,4.46295458984375,0.494842529296875,0.1382904052734375,-0.8479156494140625
1757088830001000400,4.47300048828125,0.5097198486328125,0.1361846923828125,-0.8501739501953125
1757088830011046400,4.48304638671875,0.517913818359375,0.133636474609375,-0.859375
1757088830021093400,4.49309326171875,0.5177154541015625,0.13287353515625,-0.871551513671875
1757088830031139300,4.503139404296875,0.5093841552734375,0.1338958740234375,-0.8781585693359375
1757088830041185300,4.513185302734375,0.5019683837890625,0.1372528076171875,-0.8808441162109375
1757088830051232500,4.523232421875,0.4937744140625,0.1423492431640625,-0.87469482421875
1757088830061278500,4.533278564453125,0.4888916015625,0.1473236083984375,-0.8660430908203125
1757088830071325400,4.543325439453125,0.4881591796875,0.1472015380859375,-0.860748291015625
1757088830081371600,4.55337158203125,0.489532470703125,0.14947509765625,-0.854766845703125
1757088830091417600,4.56341748046875,0.48486328125,0.1520843505859375,-0.8495025634765625
1757088830101464600,4.573464599609375,0.481689453125,0.1568145751953125,-0.8577423095703125
1757088830111510500,4.583510498046875,0.477630615234375,0.156158447265625,-0.8778076171875
1757088830121557500,4.5935576171875,0.4766082763671875,0.1494903564453125,-0.896484375
1757088830131603500,4.603603515625,0.4781646728515625,0.147308349609375,-0.9025421142578125
1757088830141649400,4.6136494140625,0.477569580078125,0.14007568359375,-0.9104766845703125
1757088830151696400,4.6236962890625,0.47344970703125,0.136962890625,-0.9092864990234375
1757088830161742300,4.633742431640625,0.4720458984375,0.1336517333984375,-0.9062652587890625
1757088830171788500,4.64378857421875,0.4741668701171875,0.1325836181640625,-0.8975830078125
1757088830181835500,4.65383544921875,0.4813079833984375,0.1343994140625,-0.8848419189453125
1757088830191881500,4.663881591796875,0.483612060546875,0.132904052734375,-0.8793182373046875
1757088830201928400,4.673928466796875,0.484893798828125,0.129364013671875,-0.878448486328125
1757088830211974400,4.683974365234375,0.4792938232421875,0.12103271484375,-0.88043212890625
1757088830222020400,4.694020263671875,0.4790191650390625,0.1162872314453125,-0.8873443603515625
1757088830232067600,4.704067626953125,0.48052978515625,0.1110076904296875,-0.893310546875
1757088830242113300,4.71411328125,0.4841766357421875,0.10992431640625,-0.898345947265625
1757088830252159200,4.7241591796875,0.48773193359375,0.112396240234375,-0.8941497802734375
1757088830262206500,4.73420654296875,0.4912567138671875,0.1150970458984375,-0.883331298828125
1757088830272252700,4.744252685546875,0.4996185302734375,0.124237060546875,-0.8830718994140625
1757088830282299400,4.75429931640625,0.50054931640625,0.1280670166015625,-0.8817596435546875
1757088830292345600,4.764345703125,0.4979095458984375,0.130615234375,-0.8909759521484375
1757088830302391600,4.7743916015625,0.4949188232421875,0.1300811767578125,-0.902679443359375
1757088830312438500,4.7844384765625,0.4882049560546875,0.12646484375,-0.9064483642578125
1757088830322484500,4.794484375,0.4852447509765625,0.1244354248046875,-0.9002532958984375
1757088830332531500,4.804531494140625,0.4810333251953125,0.1221160888671875,-0.894195556640625
1757088830342577400,4.814577392578125,0.4818115234375,0.116455078125,-0.90252685546875
1757088830352623400,4.824623291015625,0.4884490966796875,0.1148223876953125,-0.901947021484375
1757088830362670300,4.83467041015625,0.4921112060546875,0.11297607421875,-0.90008544921875
1757088830372716500,4.844716552734375,0.48748779296875,0.1131134033203125,-0.904266357421875
1757088830382762500,4.854762451171875,0.4800872802734375,0.113250732421875,-0.90081787109375
1757088830392809500,4.8648095703125,0.477264404296875,0.1093902587890625,-0.8932342529296875
1757088830402855400,4.87485546875,0.4797515869140625,0.105194091796875,-0.888397216796875
1757088830412902400,4.88490234375,0.4772796630859375,0.109100341796875,-0.8892669677734375
1757088830422948400,4.8949482421875,0.4805755615234375,0.104248046875,-0.8912353515625
1757088830432994300,4.904994384765625,0.47418212890625,0.0885162353515625,-0.8854827880859375
1757088830443041500,4.91504150390625,0.464080810546875,0.0858306884765625,-0.8821868896484375
1757088830453087500,4.92508740234375,0.4566497802734375,0.0929107666015625,-0.89837646484375
1757088830463133700,4.9351337890625,0.4490966796875,0.089080810546875,-0.922393798828125
1757088830473180400,4.945180419921875,0.448150634765625,0.080810546875,-0.9328155517578125
1757088830483226600,4.9552265625,0.4571075439453125,0.0809173583984375,-0.9389495849609375
1757088830493273600,4.965273681640625,0.4653472900390625,0.0818328857421875,-0.93780517578125
1757088830503319600,4.975319580078125,0.4697113037109375,0.079437255859375,-0.940032958984375
1757088830513365500,4.985365478515625,0.466796875,0.074920654296875,-0.934661865234375
1757088830523412500,4.99541259765625,0.452301025390625,0.0731353759765625,-0.9172821044921875
1757088830533458400,5.00545849609375,0.435394287109375,0.0581207275390625,-0.8988037109375
1757088830543505400,5.01550537109375,0.426971435546875,0.0597381591796875,-0.9086761474609375
1757088830553551400,5.02555126953125,0.41900634765625,0.048675537109375,-0.8903350830078125
1757088830563597600,5.03559765625,0.4149627685546875,0.036285400390625,-0.8731536865234375
1757088830573643800,5.045643798828125,0.4087677001953125,0.0355224609375,-0.8546905517578125
1757088830583689700,5.055689697265625,0.41156005859375,0.028228759765625,-0.84356689453125
1757088830593735700,5.065735595703125,0.4161529541015625,0.0149383544921875,-0.84600830078125
1757088830603782700,5.07578271484375,0.4180908203125,0.0005645751953125,-0.8529052734375
1757088830613828600,5.08582861328125,0.4135589599609375,-0.014404296875,-0.8753509521484375
1757088830623875600,5.09587548828125,0.400634765625,-0.0170440673828125,-0.885406494140625
1757088830633921500,5.105921630859375,0.3815765380859375,-0.0128326416015625,-0.88067626953125
1757088830643967700,5.1159677734375,0.3762359619140625,-0.011322021484375,-0.87591552734375
1757088830654014700,5.1260146484375,0.38232421875,-0.0104522705078125,-0.8753814697265625
1757088830664061000,5.13606103515625,0.387664794921875,-0.013092041015625,-0.8754425048828125
1757088830674107000,5.14610693359375,0.384490966796875,-0.015380859375,-0.88330078125
1757088830684153900,5.15615380859375,0.388519287109375,-0.0165252685546875,-0.8910369873046875
1757088830694199800,5.16619970703125,0.3927764892578125,-0.02423095703125,-0.8937225341796875
1757088830704246800,5.176246826171875,0.395782470703125,-0.0304718017578125,-0.89678955078125
1757088830714292700,5.186292724609375,0.3993682861328125,-0.0364532470703125,-0.8943939208984375
1757088830724338700,5.196338623046875,0.4025421142578125,-0.041259765625,-0.9013671875
1757088830734385700,5.2063857421875,0.4087371826171875,-0.041107177734375,-0.909027099609375
1757088830744431600,5.216431640625,0.4020233154296875,-0.0412139892578125,-0.908966064453125
1757088830754478600,5.226478515625,0.3925628662109375,-0.0452117919921875,-0.9007568359375
1757088830764524800,5.23652490234375,0.39129638671875,-0.0488433837890625,-0.89776611328125
1757088830774570800,5.24657080078125,0.4029388427734375,-0.0409393310546875,-0.9071197509765625
1757088830784617700,5.25661767578125,0.400543212890625,-0.0464019775390625,-0.9085693359375
1757088830794663700,5.26666357421875,0.3983154296875,-0.05242919921875,-0.907501220703125
1757088830804709600,5.276709716796875,0.4089508056640625,-0.048675537109375,-0.906158447265625
1757088830814756600,5.286756591796875,0.4144744873046875,-0.0419921875,-0.907958984375
1757088830824802600,5.296802490234375,0.4086151123046875,-0.0316162109375,-0.9110870361328125
1757088830834849800,5.306849853515625,0.4086456298828125,-0.0249786376953125,-0.9126739501953125
1757088830844895500,5.3168955078125,0.407440185546875,-0.0152130126953125,-0.91357421875
1757088830854941700,5.326941650390625,0.4126739501953125,-0.0058746337890625,-0.917236328125
1757088830864989000,5.336989013671875,0.41668701171875,-0.0023651123046875,-0.9131622314453125
1757088830875035000,5.347034912109375,0.4195404052734375,-0.005615234375,-0.9049530029296875
1757088830885080800,5.357080810546875,0.4224853515625,-0.008819580078125,-0.9009552001953125
1757088830895127800,5.3671279296875,0.4245758056640625,-0.0136871337890625,-0.9053955078125
1757088830905173800,5.377173828125,0.42327880859375,-0.01837158203125,-0.913787841796875
1757088830915220700,5.387220703125,0.41619873046875,-0.0203094482421875,-0.91741943359375
1757088830925266700,5.3972666015625,0.4074554443359375,-0.0172119140625,-0.909881591796875
1757088830935312600,5.407312744140625,0.4068450927734375,-0.0200042724609375,-0.8974456787109375
1757088830945359600,5.417359619140625,0.40911865234375,-0.0238800048828125,-0.886932373046875
1757088830955405800,5.42740576171875,0.4144744873046875,-0.02557373046875,-0.8846282958984375
1757088830965452500,5.43745263671875,0.4229736328125,-0.0309906005859375,-0.882965087890625
1757088830975498800,5.447498779296875,0.4281005859375,-0.0346527099609375,-0.8823699951171875
1757088830985544700,5.457544677734375,0.4284210205078125,-0.0293121337890625,-0.8837738037109375
1757088830995591700,5.467591796875,0.4266510009765625,-0.027862548828125,-0.88946533203125
1757088831005637600,5.4776376953125,0.4221038818359375,-0.0259857177734375,-0.9029541015625
1757088831015683600,5.48768359375,0.4096221923828125,-0.02496337890625,-0.913543701171875
1757088831025730600,5.49773046875,0.398681640625,-0.024261474609375,-0.91497802734375
1757088831035776500,5.507776611328125,0.3859710693359375,-0.0240631103515625,-0.913909912109375
1757088831045823700,5.51782373046875,0.381988525390625,-0.024078369140625,-0.91253662109375
1757088831055869700,5.52786962890625,0.3891754150390625,-0.022705078125,-0.90631103515625
1757088831065916000,5.537916015625,0.401580810546875,-0.0228271484375,-0.9048919677734375
1757088831075963000,5.547962890625,0.4126739501953125,-0.022186279296875,-0.910736083984375
1757088831086008800,5.5580087890625,0.417266845703125,-0.019744873046875,-0.9124603271484375
1757088831096054800,5.5680546875,0.418182373046875,-0.0167388916015625,-0.9146270751953125
1757088831106101800,5.578101806640625,0.4155731201171875,-0.0098876953125,-0.9174652099609375
1757088831116147700,5.588147705078125,0.4151153564453125,-0.005462646484375,-0.9196624755859375
1757088831126194700,5.598194580078125,0.4187469482421875,-0.0014495849609375,-0.9148712158203125
1757088831136240600,5.60824072265625,0.42242431640625,0.0020751953125,-0.904205322265625
1757088831146286800,5.618286865234375,0.4229278564453125,0.0076141357421875,-0.89654541015625
1757088831156333600,5.62833349609375,0.4132080078125,0.0107421875,-0.89007568359375
1757088831166379800,5.6383798828125,0.401641845703125,0.00994873046875,-0.8885955810546875
1757088831176425700,5.64842578125,0.406097412109375,0.0076446533203125,-0.8899383544921875
1757088831186472700,5.65847265625,0.4221038818359375,0.0107421875,-0.895965576171875
1757088831196518700,5.6685185546875,0.432281494140625,0.0132293701171875,-0.898284912109375
1757088831206565600,5.678565673828125,0.43450927734375,0.0078582763671875,-0.905914306640625
1757088831216611600,5.688611572265625,0.4381256103515625,0.0058135986328125,-0.9074859619140625
1757088831226657500,5.698657470703125,0.442718505859375,0.010162353515625,-0.8928985595703125
1757088831236704800,5.708704833984375,0.450653076171875,0.0146636962890625,-0.8750457763671875
1757088831246750700,5.718750732421875,0.41571044921875,0.021148681640625,-0.87286376953125
1757088831256797700,5.728797607421875,0.356597900390625,0.03369140625,-0.91241455078125
1757088831266844000,5.738843994140625,0.3324127197265625,0.02978515625,-0.9431304931640625
1757088831276889900,5.748889892578125,0.33148193359375,0.0229644775390625,-0.943450927734375
1757088831286936800,5.758936767578125,0.35931396484375,0.02972412109375,-0.945220947265625
1757088831296982800,5.768982666015625,0.37432861328125,0.0255279541015625,-0.9400787353515625
1757088831307028700,5.77902880859375,0.3848114013671875,0.02008056640625,-0.9321441650390625
1757088831317075700,5.78907568359375,0.400360107421875,0.0182647705078125,-0.92987060546875
1757088831327121700,5.79912158203125,0.423187255859375,0.0098114013671875,-0.9303131103515625
1757088831337168600,5.809168701171875,0.4441680908203125,0.0010528564453125,-0.9391937255859375
1757088831347214600,5.819214599609375,0.4539337158203125,0.003662109375,-0.9669647216796875
1757088831357260800,5.8292607421875,0.4452667236328125,0.01226806640625,-0.9919586181640625
1757088831367307800,5.839307861328125,0.4306640625,0.0257568359375,-1.0047607421875
1757088831377353700,5.849353759765625,0.4252777099609375,0.0445556640625,-1.0091400146484375
1757088831387400700,5.859400634765625,0.39666748046875,0.0623321533203125,-1.0106201171875
1757088831397446700,5.86944677734375,0.36767578125,0.06097412109375,-0.9821624755859375
1757088831407492600,5.87949267578125,0.3658447265625,0.0541839599609375,-0.938751220703125
1757088831417539800,5.889539794921875,0.385223388671875,0.0458221435546875,-0.9069976806640625
1757088831427585500,5.89958544921875,0.3829193115234375,0.039581298828125,-0.8892669677734375
1757088831437631500,5.909631591796875,0.384674072265625,0.03643798828125,-0.863311767578125
1757088831447678700,5.9196787109375,0.3986968994140625,0.03314208984375,-0.84600830078125
1757088831457725000,5.929724853515625,0.4112091064453125,0.032318115234375,-0.842254638671875
1757088831467771600,5.939771728515625,0.4183197021484375,0.030609130859375,-0.8568115234375
1757088831477817900,5.94981787109375,0.4177398681640625,0.0328216552734375,-0.8817291259765625
1757088831487863800,5.95986376953125,0.4119873046875,0.036834716796875,-0.90655517578125
1757088831497910800,5.969910888671875,0.3918914794921875,0.049285888671875,-0.9296417236328125
1757088831507956700,5.979956787109375,0.3603515625,0.06353759765625,-0.948974609375
1757088831518002700,5.990002685546875,0.4195556640625,0.019500732421875,-0.96600341796875
1757088831528049700,6.000049560546875,0.4323883056640625,0.07037353515625,-0.9494476318359375
1757088831538095600,6.010095703125,0.407989501953125,0.077117919921875,-0.9459075927734375
1757088831548142600,6.020142578125,0.40325927734375,0.0619659423828125,-0.97039794921875
1757088831558188800,6.030188720703125,0.35760498046875,0.1195526123046875,-0.95098876953125
1757088831568234800,6.04023486328125,0.4068756103515625,0.026123046875,-0.9792633056640625
1757088831578282200,6.0502822265625,0.4910430908203125,0.0063934326171875,-0.944305419921875
1757088831588328200,6.060328125,0.40045166015625,0.085906982421875,-0.9276580810546875
1757088831598374100,6.0703740234375,0.3645782470703125,0.036712646484375,-0.9300537109375
1757088831608421000,6.080421142578125,0.3584442138671875,0.0476226806640625,-0.9340972900390625
1757088831618467000,6.090467041015625,0.386749267578125,0.035430908203125,-0.9344635009765625
1757088831628514000,6.10051416015625,0.429656982421875,0.033905029296875,-0.918853759765625
1757088831638560000,6.11056005859375,0.4550323486328125,0.03533935546875,-0.91448974609375
1757088831648606000,6.12060595703125,0.4507598876953125,0.0397796630859375,-0.9113311767578125
1757088831658653000,6.13065283203125,0.4409637451171875,0.0483856201171875,-0.903472900390625
1757088831668699100,6.14069921875,0.433929443359375,0.052886962890625,-0.893768310546875
1757088831678745000,6.1507451171875,0.4332122802734375,0.056182861328125,-0.9000396728515625
1757088831688792000,6.1607919921875,0.4316558837890625,0.0553436279296875,-0.9060821533203125
1757088831698838000,6.170838134765625,0.4266357421875,0.0500640869140625,-0.909454345703125
1757088831708885000,6.180885009765625,0.4370574951171875,0.0564422607421875,-0.91876220703125
1757088831718931000,6.190930908203125,0.459228515625,0.0589447021484375,-0.933074951171875
1757088831728977000,6.200976806640625,0.4671478271484375,0.04705810546875,-0.947021484375
1757088831739024000,6.21102392578125,0.4752960205078125,0.0465240478515625,-0.9450225830078125
1757088831749069800,6.22106982421875,0.4678802490234375,0.03680419921875,-0.9300689697265625
1757088831759117000,6.231116943359375,0.4395599365234375,0.0843048095703125,-0.877777099609375
1757088831769163000,6.2411630859375,0.315338134765625,0.195220947265625,-0.765838623046875
1757088831779209000,6.251208984375,0.389007568359375,-0.176971435546875,-1.1038665771484375
1757088831789256200,6.261256103515625,0.3596343994140625,0.1019439697265625,-0.883758544921875
1757088831799302100,6.27130224609375,0.368804931640625,-0.0001220703125,-0.88592529296875
1757088831809348000,6.28134814453125,0.47869873046875,-0.0478057861328125,-0.9673309326171875
1757088831819395000,6.29139501953125,0.47320556640625,0.05828857421875,-0.91021728515625
1757088831829441000,6.30144091796875,0.441253662109375,0.05450439453125,-0.869171142578125
1757088831839488000,6.311488037109375,0.398101806640625,0.054473876953125,-0.840118408203125
1757088831849534000,6.321533935546875,0.393310546875,0.037841796875,-0.8397369384765625
1757088831859580200,6.331580078125,0.413604736328125,0.0389251708984375,-0.8603668212890625
1757088831869627000,6.341626953125,0.43304443359375,0.0391082763671875,-0.885711669921875
1757088831879673000,6.351673095703125,0.431854248046875,0.0332794189453125,-0.9095001220703125
1757088831889719000,6.361718994140625,0.4300384521484375,0.0317535400390625,-0.9250640869140625
1757088831899766000,6.37176611328125,0.4376983642578125,0.0349273681640625,-0.943817138671875
1757088831909812000,6.38181201171875,0.4203643798828125,0.0363311767578125,-0.9697113037109375
1757088831919859000,6.39185888671875,0.2897796630859375,0.0422515869140625,-0.9833984375
1757088831929905000,6.40190478515625,0.467254638671875,0.1037750244140625,-1.017364501953125
1757088831939950800,6.411950927734375,0.4785003662109375,0.0192718505859375,-1.0008697509765625
1757088831949997800,6.421997802734375,0.2551422119140625,-0.0818328857421875,-0.7728729248046875
1757088831960044000,6.4320439453125,0.42864990234375,0.06280517578125,-0.8362884521484375
1757088831970090000,6.442090087890625,0.455047607421875,0.0511932373046875,-0.875335693359375
1757088831980137200,6.45213720703125,0.4210357666015625,0.0380096435546875,-0.8736419677734375
1757088831990183200,6.46218310546875,0.4255523681640625,0.053131103515625,-0.8985137939453125
1757088832000230100,6.472230224609375,0.421051025390625,0.0532684326171875,-0.901611328125
1757088832010276000,6.482276123046875,0.413055419921875,0.048248291015625,-0.915863037109375
1757088832020322000,6.492322021484375,0.404449462890625,0.042572021484375,-0.9331207275390625
1757088832030369000,6.502369140625,0.40875244140625,0.0386199951171875,-0.946319580078125
1757088832040415000,6.5124150390625,0.438507080078125,0.0340118408203125,-0.9555511474609375
1757088832050462000,6.5224619140625,0.4246368408203125,0.045074462890625,-0.94329833984375
1757088832060508000,6.5325078125,0.42315673828125,0.05169677734375,-0.9427032470703125
1757088832070554000,6.54255419921875,0.439971923828125,0.0497283935546875,-0.941925048828125
1757088832080601000,6.55260107421875,0.42303466796875,0.0521697998046875,-0.936737060546875
1757088832090647000,6.56264697265625,0.4184722900390625,0.0489654541015625,-0.94085693359375
1757088832100693000,6.57269287109375,0.4321746826171875,0.043670654296875,-0.92779541015625
1757088832110740000,6.582739990234375,0.4202728271484375,0.0443572998046875,-0.9133758544921875
1757088832120786000,6.592785888671875,0.4185028076171875,0.0458984375,-0.9003753662109375
1757088832130833000,6.6028330078125,0.4275970458984375,0.045074462890625,-0.8852386474609375
1757088832140878800,6.61287890625,0.4285125732421875,0.0433807373046875,-0.8816680908203125
1757088832150924800,6.6229248046875,0.429229736328125,0.0405120849609375,-0.885040283203125
1757088832160972000,6.632971923828125,0.4127197265625,0.0351409912109375,-0.894012451171875
1757088832171018200,6.643018310546875,0.3999786376953125,0.0352020263671875,-0.90496826171875
1757088832181064200,6.653064208984375,0.3983154296875,0.0382232666015625,-0.9138641357421875
1757088832191111200,6.663111083984375,0.401763916015625,0.0429229736328125,-0.9196624755859375
1757088832201157000,6.6731572265625,0.404022216796875,0.04144287109375,-0.9157257080078125
1757088832211204000,6.6832041015625,0.4018096923828125,0.041717529296875,-0.90777587890625
1757088832221250000,6.69325,0.403564453125,0.043182373046875,-0.9053497314453125
1757088832231296000,6.7032958984375,0.4110565185546875,0.042510986328125,-0.904205322265625
1757088832241343000,6.713343017578125,0.4217681884765625,0.042022705078125,-0.905609130859375
1757088832251389000,6.723388916015625,0.4251251220703125,0.040740966796875,-0.90985107421875
1757088832261436000,6.733435791015625,0.425262451171875,0.0407562255859375,-0.918609619140625
1757088832271482000,6.743482177734375,0.4241790771484375,0.0396728515625,-0.926605224609375
1757088832281528000,6.753528076171875,0.4125213623046875,0.0462188720703125,-0.91790771484375
1757088832291575000,6.763574951171875,0.42120361328125,0.043487548828125,-0.9291229248046875
1757088832301621000,6.77362109375,0.41851806640625,0.041656494140625,-0.920989990234375
1757088832311667000,6.7836669921875,0.417633056640625,0.0472869873046875,-0.91436767578125
1757088832321714000,6.7937138671875,0.4061431884765625,0.0493621826171875,-0.9105377197265625
1757088832331759900,6.803759765625,0.4029998779296875,0.0519256591796875,-0.9064483642578125
1757088832341805800,6.813805908203125,0.4128875732421875,0.0547943115234375,-0.9033966064453125
1757088832351852800,6.823852783203125,0.4147491455078125,0.0540008544921875,-0.9021453857421875
1757088832361899000,6.83389892578125,0.41009521484375,0.0537872314453125,-0.9060516357421875
1757088832371946000,6.843946044921875,0.403533935546875,0.0524139404296875,-0.9160308837890625
1757088832381992200,6.8539921875,0.3974609375,0.0491790771484375,-0.9270172119140625
1757088832392038100,6.8640380859375,0.393768310546875,0.046112060546875,-0.9359588623046875
1757088832402085000,6.874085205078125,0.3994140625,0.0446319580078125,-0.9338226318359375
1757088832412131000,6.884131103515625,0.405120849609375,0.045654296875,-0.921844482421875
1757088832422178000,6.894177978515625,0.408721923828125,0.0489654541015625,-0.9137420654296875
1757088832432224000,6.90422412109375,0.4094085693359375,0.048187255859375,-0.910888671875
1757088832442270000,6.91427001953125,0.4076080322265625,0.0464324951171875,-0.9154815673828125
1757088832452317000,6.92431689453125,0.4026947021484375,0.0475921630859375,-0.920745849609375
1757088832462363000,6.93436279296875,0.3953857421875,0.048370361328125,-0.9169158935546875
1757088832472409000,6.9444091796875,0.3982391357421875,0.048828125,-0.9150390625
1757088832482456000,6.9544560546875,0.4054412841796875,0.0487823486328125,-0.915802001953125
1757088832492502000,6.964501953125,0.40740966796875,0.0464019775390625,-0.918548583984375
1757088832502549000,6.974549072265625,0.4061126708984375,0.0443267822265625,-0.9263458251953125
1757088832512595000,6.984594970703125,0.4090118408203125,0.0489044189453125,-0.9216156005859375
1757088832522641000,6.994640869140625,0.4106903076171875,0.052886962890625,-0.91436767578125
1757088832532688000,7.00468798828125,0.412689208984375,0.056121826171875,-0.9141082763671875
1757088832542733800,7.01473388671875,0.4073944091796875,0.0589141845703125,-0.909210205078125
1757088832552780000,7.024780029296875,0.4007415771484375,0.063446044921875,-0.9040374755859375
1757088832562827000,7.034826904296875,0.395416259765625,0.062225341796875,-0.901641845703125
1757088832572873200,7.044873291015625,0.39691162109375,0.059112548828125,-0.9078826904296875
1757088832582920400,7.05492041015625,0.4068756103515625,0.058868408203125,-0.915496826171875
1757088832592966700,7.064966552734375,0.41741943359375,0.0573272705078125,-0.9154205322265625
1757088832603012600,7.0750126953125,0.4231414794921875,0.056243896484375,-0.91229248046875
1757088832613059600,7.0850595703125,0.420379638671875,0.0591888427734375,-0.915252685546875
1757088832623105500,7.09510546875,0.4096527099609375,0.061248779296875,-0.923919677734375
1757088832633152500,7.105152587890625,0.403076171875,0.061553955078125,-0.93072509765625
1757088832643198500,7.115198486328125,0.4036407470703125,0.064666748046875,-0.928955078125
1757088832653244400,7.125244384765625,0.405914306640625,0.065093994140625,-0.929901123046875
1757088832663291400,7.13529150390625,0.4056243896484375,0.063262939453125,-0.9334869384765625
1757088832673337300,7.14533740234375,0.4073028564453125,0.0615692138671875,-0.921875
1757088832683383600,7.155383544921875,0.4148406982421875,0.062255859375,-0.901641845703125
1757088832693430500,7.165430419921875,0.417236328125,0.0608062744140625,-0.89459228515625
1757088832703476500,7.1754765625,0.4136810302734375,0.05645751953125,-0.8969573974609375
1757088832713523700,7.185523681640625,0.410491943359375,0.054168701171875,-0.904510498046875
1757088832723569400,7.1955693359375,0.4047088623046875,0.052764892578125,-0.910491943359375
1757088832733615400,7.205615478515625,0.3974761962890625,0.0567169189453125,-0.9171905517578125
1757088832743662600,7.21566259765625,0.3985443115234375,0.061737060546875,-0.9179229736328125
1757088832753708500,7.22570849609375,0.407684326171875,0.065093994140625,-0.91552734375
1757088832763754500,7.23575439453125,0.4138946533203125,0.0631866455078125,-0.917816162109375
1757088832773801500,7.245801513671875,0.4131317138671875,0.06280517578125,-0.922882080078125
1757088832783847700,7.25584765625,0.4091949462890625,0.0622100830078125,-0.9324798583984375
1757088832793894700,7.265894775390625,0.40509033203125,0.0588531494140625,-0.9387664794921875
1757088832803940600,7.275940673828125,0.399993896484375,0.0598297119140625,-0.9404754638671875
1757088832813986600,7.285986572265625,0.3959197998046875,0.06353759765625,-0.9347381591796875
1757088832824033500,7.296033447265625,0.393463134765625,0.0648345947265625,-0.9289703369140625
1757088832834079500,7.30607958984375,0.3915863037109375,0.06396484375,-0.923675537109375
1757088832844125400,7.31612548828125,0.3958282470703125,0.0643768310546875,-0.9180450439453125
1757088832854172400,7.32617236328125,0.39556884765625,0.0626373291015625,-0.914764404296875
1757088832864218400,7.33621826171875,0.395172119140625,0.06219482421875,-0.9180450439453125
1757088832874265300,7.346265380859375,0.395355224609375,0.063232421875,-0.9209747314453125
1757088832884311600,7.3563115234375,0.3957061767578125,0.0615386962890625,-0.91632080078125
1757088832894357500,7.366357421875,0.3978118896484375,0.06268310546875,-0.9122467041015625
1757088832904404500,7.376404541015625,0.4024200439453125,0.0628509521484375,-0.9088897705078125
1757088832914450400,7.386450439453125,0.40509033203125,0.06207275390625,-0.9086761474609375
1757088832924497700,7.39649755859375,0.407867431640625,0.0627593994140625,-0.912078857421875
1757088832934543600,7.406543701171875,0.4123992919921875,0.0639801025390625,-0.9149322509765625
1757088832944589600,7.416589599609375,0.41278076171875,0.06689453125,-0.916534423828125
1757088832954636500,7.426636474609375,0.409027099609375,0.0648193359375,-0.9189453125
1757088832964682500,7.4366826171875,0.404296875,0.063995361328125,-0.9175262451171875
1757088832974728700,7.446728759765625,0.4025421142578125,0.063018798828125,-0.9131927490234375
1757088832984775400,7.456775390625,0.40606689453125,0.0589447021484375,-0.9095611572265625
1757088832994821600,7.466821533203125,0.411712646484375,0.0607147216796875,-0.9089202880859375
1757088833004867600,7.47686767578125,0.408782958984375,0.06365966796875,-0.9085693359375
1757088833014914600,7.48691455078125,0.410400390625,0.0661468505859375,-0.91204833984375
1757088833024960500,7.49696044921875,0.4125518798828125,0.064910888671875,-0.9161224365234375
1757088833035007500,7.507007568359375,0.4151611328125,0.064544677734375,-0.918243408203125
1757088833045053400,7.517053466796875,0.417510986328125,0.06488037109375,-0.92108154296875
1757088833055099400,7.527099365234375,0.4219512939453125,0.06573486328125,-0.9264068603515625
1757088833065146400,7.537146484375,0.4199676513671875,0.063018798828125,-0.9305877685546875
1757088833075192600,7.547192626953125,0.4116973876953125,0.06182861328125,-0.9314422607421875
1757088833085239300,7.5572392578125,0.4094390869140625,0.0681610107421875,-0.9309539794921875
1757088833095285500,7.567285400390625,0.417724609375,0.074462890625,-0.9238433837890625
1757088833105331500,7.57733154296875,0.426788330078125,0.075927734375,-0.915435791015625
1757088833115378700,7.587378662109375,0.4203033447265625,0.0796356201171875,-0.90576171875
1757088833125424600,7.597424560546875,0.416168212890625,0.0813751220703125,-0.902801513671875
1757088833135470600,7.607470703125,0.4066925048828125,0.0805816650390625,-0.9023590087890625
1757088833145517600,7.617517578125,0.4011077880859375,0.077423095703125,-0.901031494140625
1757088833155563500,7.6275634765625,0.4051666259765625,0.0753173828125,-0.9033660888671875
1757088833165610500,7.637610595703125,0.408050537109375,0.071990966796875,-0.9105377197265625
1757088833175656400,7.647656494140625,0.41259765625,0.0718536376953125,-0.9183807373046875
1757088833185702700,7.65770263671875,0.415618896484375,0.075592041015625,-0.9205322265625
1757088833195749600,7.66774951171875,0.4160308837890625,0.07745361328125,-0.915771484375
1757088833205795600,7.677795654296875,0.4170074462890625,0.0798797607421875,-0.9152984619140625
1757088833215841500,7.687841552734375,0.417877197265625,0.0811920166015625,-0.9195556640625
1757088833225888500,7.697888427734375,0.41888427734375,0.0791015625,-0.921478271484375
1757088833235934500,7.7079345703125,0.4160003662109375,0.07647705078125,-0.9222412109375
1757088833245981400,7.7179814453125,0.418548583984375,0.0721435546875,-0.925689697265625
1757088833256027400,7.72802734375,0.415618896484375,0.069305419921875,-0.92327880859375
1757088833266073300,7.7380732421875,0.41473388671875,0.0704498291015625,-0.918212890625
1757088833276120300,7.748120361328125,0.4161224365234375,0.0708160400390625,-0.9129791259765625
1757088833286166500,7.75816650390625,0.4133148193359375,0.0697174072265625,-0.9061126708984375
1757088833296213500,7.768213623046875,0.4133758544921875,0.0701904296875,-0.9024200439453125
1757088833306259500,7.778259521484375,0.414794921875,0.0694427490234375,-0.9003448486328125
1757088833316305400,7.788305419921875,0.412445068359375,0.0690155029296875,-0.9035797119140625
1757088833326352600,7.7983525390625,0.407562255859375,0.069183349609375,-0.90826416015625
1757088833336398600,7.808398681640625,0.408416748046875,0.0716400146484375,-0.915618896484375
1757088833346444500,7.818444580078125,0.41259765625,0.0703125,-0.919708251953125
1757088833356491500,7.828491455078125,0.41497802734375,0.0709075927734375,-0.9201507568359375
1757088833366537500,7.838537353515625,0.4187774658203125,0.0738525390625,-0.91943359375
1757088833376584400,7.84858447265625,0.418365478515625,0.06982421875,-0.9174041748046875
1757088833386630700,7.858630615234375,0.4179229736328125,0.0696563720703125,-0.9155120849609375
1757088833396676600,7.868676513671875,0.4225311279296875,0.068115234375,-0.9093475341796875
1757088833406723600,7.8787236328125,0.4196624755859375,0.0655670166015625,-0.90618896484375
1757088833416769500,7.88876953125,0.4102020263671875,0.0648193359375,-0.9089202880859375
1757088833426815500,7.8988154296875,0.4041748046875,0.0693511962890625,-0.9182586669921875
1757088833436862500,7.908862548828125,0.4068145751953125,0.0714263916015625,-0.9208221435546875
1757088833446908400,7.918908447265625,0.407928466796875,0.0727386474609375,-0.92083740234375
1757088833456955400,7.928955322265625,0.4095306396484375,0.07330322265625,-0.921844482421875
1757088833467001300,7.93900146484375,0.4071807861328125,0.07470703125,-0.924560546875
1757088833477047600,7.949047607421875,0.401214599609375,0.0741424560546875,-0.9261932373046875
1757088833487094500,7.959094482421875,0.40478515625,0.0736236572265625,-0.9261474609375
1757088833497140500,7.969140380859375,0.4102783203125,0.07147216796875,-0.91888427734375
1757088833507186400,7.9791865234375,0.4172515869140625,0.069305419921875,-0.903533935546875
1757088833517233700,7.989233642578125,0.4319305419921875,0.0667877197265625,-0.88861083984375
1757088833527279600,7.999279541015625,0.4399871826171875,0.0654449462890625,-0.8831024169921875
1757088833537326600,8.00932666015625,0.4381256103515625,0.0636444091796875,-0.88446044921875
1757088833547372500,8.01937255859375,0.4250946044921875,0.0621795654296875,-0.8961639404296875
1757088833557418500,8.02941845703125,0.4130401611328125,0.0647735595703125,-0.910186767578125
1757088833567465500,8.039465576171875,0.4097747802734375,0.0658721923828125,-0.91766357421875
1757088833577511400,8.049511474609375,0.4188995361328125,0.0675506591796875,-0.9143218994140625
1757088833587558100,8.05955810546875,0.4290924072265625,0.071014404296875,-0.906768798828125
1757088833597604400,8.069604248046875,0.43707275390625,0.07122802734375,-0.9010467529296875
1757088833607650300,8.079650390625,0.436431884765625,0.0740203857421875,-0.897491455078125
1757088833617697300,8.089697265625,0.42279052734375,0.073822021484375,-0.9036407470703125
1757088833627743200,8.0997431640625,0.4141998291015625,0.075653076171875,-0.9173126220703125
1757088833637789200,8.1097890625,0.414886474609375,0.0752105712890625,-0.9285430908203125
1757088833647836200,8.119836181640625,0.4193267822265625,0.077239990234375,-0.9306640625
1757088833657882000,8.129882080078126,0.4251251220703125,0.078277587890625,-0.927490234375
1757088833667929000,8.13992919921875,0.4208526611328125,0.076873779296875,-0.920196533203125
1757088833677975300,8.149975341796875,0.4188079833984375,0.0739898681640625,-0.90948486328125
1757088833688021200,8.160021240234375,0.4178009033203125,0.0712127685546875,-0.903839111328125
1757088833698068200,8.170068115234375,0.4122314453125,0.068511962890625,-0.9064483642578125
1757088833708114200,8.1801142578125,0.4119873046875,0.0660552978515625,-0.9062957763671875
1757088833718161200,8.1901611328125,0.4126129150390625,0.0631103515625,-0.904541015625
1757088833728207000,8.20020703125,0.4140167236328125,0.0632476806640625,-0.9017791748046875
1757088833738253000,8.210253173828125,0.4176483154296875,0.062835693359375,-0.902740478515625
1757088833748300300,8.22030029296875,0.4160614013671875,0.06463623046875,-0.903228759765625
1757088833758346200,8.23034619140625,0.4146881103515625,0.0673065185546875,-0.904571533203125
1757088833768392400,8.240392333984374,0.41583251953125,0.0718231201171875,-0.9081268310546875
1757088833778439200,8.250439208984375,0.413116455078125,0.0719146728515625,-0.9104461669921875
1757088833788485400,8.2604853515625,0.4146881103515625,0.072357177734375,-0.908782958984375
1757088833798532400,8.270532470703126,0.4149169921875,0.0702667236328125,-0.909759521484375
1757088833808578300,8.280578369140626,0.4132843017578125,0.0699615478515625,-0.911712646484375
1757088833818624300,8.290624267578124,0.4115753173828125,0.0690460205078125,-0.9143218994140625
1757088833828671200,8.300671142578125,0.40972900390625,0.0680694580078125,-0.919219970703125
1757088833838717200,8.31071728515625,0.407501220703125,0.068817138671875,-0.9221649169921875
1757088833848764200,8.32076416015625,0.4054718017578125,0.07049560546875,-0.9221038818359375
1757088833858810000,8.33081005859375,0.4103240966796875,0.071502685546875,-0.91815185546875
1757088833868856000,8.34085595703125,0.415130615234375,0.071014404296875,-0.916961669921875
1757088833878903000,8.350903076171875,0.417327880859375,0.0718231201171875,-0.91546630859375
1757088833888949200,8.36094921875,0.4159393310546875,0.0695343017578125,-0.91583251953125
1757088833898995200,8.3709951171875,0.4123077392578125,0.0707550048828125,-0.9135284423828125
1757088833909042200,8.381042236328126,0.4120330810546875,0.0716400146484375,-0.916229248046875
1757088833919088000,8.391088134765624,0.4118194580078125,0.070556640625,-0.9195404052734375
1757088833929135400,8.40113525390625,0.4122161865234375,0.0696563720703125,-0.9193572998046875
1757088833939181300,8.411181396484375,0.415283203125,0.071136474609375,-0.91748046875
1757088833949227300,8.421227294921875,0.4134368896484375,0.0738677978515625,-0.91705322265625
1757088833959274200,8.431274169921876,0.4133453369140625,0.073577880859375,-0.9166412353515625
1757088833969320200,8.4413203125,0.4130096435546875,0.07440185546875,-0.9151763916015625
1757088833979367200,8.4513671875,0.4122467041015625,0.0705108642578125,-0.912353515625
1757088833989413400,8.461413330078125,0.41302490234375,0.0682220458984375,-0.905792236328125
1757088833999459300,8.471459228515625,0.4111785888671875,0.067138671875,-0.901397705078125
1757088834009506300,8.48150634765625,0.4097137451171875,0.067230224609375,-0.906005859375
1757088834019552300,8.49155224609375,0.4102935791015625,0.0700225830078125,-0.9153289794921875
1757088834029599200,8.50159912109375,0.4095916748046875,0.072723388671875,-0.9181976318359375
1757088834039645200,8.511645263671875,0.4118499755859375,0.073455810546875,-0.917633056640625
1757088834049691100,8.521691162109375,0.4164886474609375,0.075164794921875,-0.9140472412109375
1757088834059738000,8.531738037109376,0.4117889404296875,0.0723724365234375,-0.9118499755859375
1757088834069784000,8.5417841796875,0.4088287353515625,0.0731201171875,-0.918670654296875
1757088834079830300,8.551830322265625,0.40826416015625,0.0711517333984375,-0.92132568359375
1757088834089877200,8.561877197265625,0.4091033935546875,0.07110595703125,-0.9183807373046875
1757088834099923200,8.571923095703125,0.4100189208984375,0.0717315673828125,-0.91607666015625
1757088834109970400,8.581970458984374,0.411407470703125,0.0709228515625,-0.916961669921875
1757088834120016400,8.592016357421874,0.40966796875,0.0714111328125,-0.91693115234375
1757088834130062000,8.60206201171875,0.4129791259765625,0.0705718994140625,-0.9138641357421875
1757088834140109300,8.612109375,0.4166412353515625,0.07208251953125,-0.9090576171875
1757088834150155300,8.6221552734375,0.4233856201171875,0.07171630859375,-0.9065704345703125
1757088834160202200,8.6322021484375,0.4264678955078125,0.0718536376953125,-0.904571533203125
1757088834170248200,8.642248291015624,0.4290924072265625,0.071502685546875,-0.902984619140625
1757088834180294400,8.65229443359375,0.42523193359375,0.071075439453125,-0.9021453857421875
1757088834190341000,8.662341064453125,0.424530029296875,0.0721435546875,-0.90869140625
1757088834200387300,8.67238720703125,0.4238433837890625,0.0699310302734375,-0.9139404296875
1757088834210434300,8.682434326171874,0.4201507568359375,0.068023681640625,-0.911102294921875
1757088834220480300,8.692480224609374,0.41900634765625,0.06939697265625,-0.907562255859375
1757088834230526200,8.702526123046875,0.4190673828125,0.070770263671875,-0.907012939453125
1757088834240573200,8.7125732421875,0.4177398681640625,0.073486328125,-0.9104156494140625
1757088834250619100,8.722619140625,0.414794921875,0.0731048583984375,-0.9138031005859375
1757088834260666000,8.732666015625,0.4122467041015625,0.0734100341796875,-0.9204254150390625
1757088834270712000,8.742712158203124,0.4151153564453125,0.07293701171875,-0.9218292236328125
1757088834280758000,8.752758056640625,0.415069580078125,0.07232666015625,-0.9178924560546875
1757088834290805000,8.762804931640625,0.4132232666015625,0.070770263671875,-0.9143218994140625
1757088834300851200,8.772851318359375,0.4141998291015625,0.070281982421875,-0.915283203125
1757088834310897200,8.782897216796876,0.414520263671875,0.0712890625,-0.912994384765625
1757088834320944400,8.7929443359375,0.4142608642578125,0.072021484375,-0.909820556640625
1757088834330990300,8.802990234375,0.415802001953125,0.0712738037109375,-0.909027099609375
1757088834341037300,8.813037353515625,0.4176788330078125,0.069793701171875,-0.9066009521484375
1757088834351083300,8.823083251953125,0.4181060791015625,0.0709381103515625,-0.9044036865234375
1757088834361129200,8.833129150390626,0.4183197021484375,0.0704498291015625,-0.90631103515625
1757088834371176200,8.84317626953125,0.413848876953125,0.0686798095703125,-0.9135894775390625
1757088834381222100,8.85322216796875,0.405242919921875,0.0712432861328125,-0.9209136962890625
1757088834391269000,8.86326904296875,0.407318115234375,0.075164794921875,-0.9279327392578125
1757088834401315300,8.8733154296875,0.413970947265625,0.0743560791015625,-0.92205810546875
1757088834411361300,8.883361328125,0.4183197021484375,0.073883056640625,-0.9192352294921875
1757088834421408300,8.893408203125,0.420623779296875,0.0715179443359375,-0.9174957275390625
1757088834431454200,8.9034541015625,0.4200439453125,0.0718536376953125,-0.9115447998046875
1757088834441501200,8.913501220703125,0.417877197265625,0.074188232421875,-0.90655517578125
1757088834451547100,8.923547119140625,0.4158477783203125,0.0736541748046875,-0.90618896484375
1757088834461593000,8.933593017578126,0.41424560546875,0.0716705322265625,-0.9006195068359375
1757088834471640000,8.94364013671875,0.4144287109375,0.0712127685546875,-0.90093994140625
1757088834481686000,8.95368603515625,0.4117889404296875,0.0716705322265625,-0.9088897705078125
1757088834491733200,8.963733154296875,0.4080810546875,0.0730438232421875,-0.91571044921875
1757088834501779200,8.973779296875,0.40802001953125,0.0732269287109375,-0.9173126220703125
1757088834511825400,8.983825439453126,0.41497802734375,0.072723388671875,-0.915130615234375
1757088834521872400,8.993872314453125,0.4256439208984375,0.074188232421875,-0.9066162109375
1757088834531918300,9.00391845703125,0.430023193359375,0.0763397216796875,-0.905242919921875
1757088834541964300,9.01396435546875,0.4274749755859375,0.076202392578125,-0.9065093994140625
1757088834552011300,9.02401123046875,0.42315673828125,0.07733154296875,-0.9069976806640625
1757088834562057200,9.03405712890625,0.41943359375,0.0726470947265625,-0.912750244140625
1757088834572104200,9.044104248046875,0.4214935302734375,0.07000732421875,-0.9184417724609375
1757088834582150000,9.05414990234375,0.4210052490234375,0.0678253173828125,-0.9186553955078125
1757088834592196000,9.064196044921875,0.415130615234375,0.0676727294921875,-0.9173126220703125
1757088834602243000,9.0742431640625,0.4145355224609375,0.0703887939453125,-0.91357421875
1757088834612289000,9.0842890625,0.4162445068359375,0.0706634521484375,-0.9053955078125
1757088834622336000,9.0943359375,0.4184112548828125,0.073150634765625,-0.8997802734375
1757088834632382000,9.1043818359375,0.41973876953125,0.07275390625,-0.8979949951171875
1757088834642428000,9.114427978515625,0.418243408203125,0.0716552734375,-0.903594970703125
1757088834652475000,9.124474853515625,0.4102783203125,0.0709381103515625,-0.9127349853515625
1757088834662520800,9.134520751953126,0.408966064453125,0.0702056884765625,-0.9200286865234375
1757088834672568000,9.144568115234375,0.4088134765625,0.06494140625,-0.9240570068359375
1757088834682614000,9.154614013671875,0.4130096435546875,0.06414794921875,-0.9253997802734375
1757088834692660000,9.164659912109375,0.41326904296875,0.0670318603515625,-0.924346923828125
1757088834702707000,9.17470703125,0.4099273681640625,0.0716094970703125,-0.9205474853515625
1757088834712753200,9.184753173828126,0.4070281982421875,0.0759735107421875,-0.91400146484375
1757088834722800000,9.194800048828125,0.4052581787109375,0.0789337158203125,-0.9084930419921875
1757088834732846000,9.20484619140625,0.406341552734375,0.08038330078125,-0.9085540771484375
1757088834742892000,9.21489208984375,0.4098968505859375,0.0790252685546875,-0.9126434326171875
1757088834752939000,9.22493896484375,0.4157867431640625,0.075775146484375,-0.9185333251953125
1757088834762985000,9.23498486328125,0.421966552734375,0.07269287109375,-0.9181671142578125
1757088834773032000,9.245031982421875,0.4187774658203125,0.0717620849609375,-0.9166717529296875
1757088834783078000,9.255077880859375,0.4164886474609375,0.068511962890625,-0.9196929931640625
1757088834793123800,9.265123779296875,0.416839599609375,0.066741943359375,-0.9171295166015625
1757088834803170800,9.2751708984375,0.4186248779296875,0.0661773681640625,-0.9142913818359375
1757088834813217000,9.285217041015626,0.42388916015625,0.0659637451171875,-0.9168548583984375
1757088834823263000,9.295262939453124,0.42376708984375,0.063751220703125,-0.915435791015625
1757088834833310000,9.30531005859375,0.4242095947265625,0.0629119873046875,-0.9082794189453125
1757088834843356000,9.31535595703125,0.4237213134765625,0.064239501953125,-0.9009246826171875
1757088834853403000,9.32540283203125,0.4235076904296875,0.064697265625,-0.8943634033203125
1757088834863448800,9.33544873046875,0.421905517578125,0.0653076171875,-0.888916015625
1757088834873494800,9.345494873046874,0.4181671142578125,0.065643310546875,-0.8944549560546875
1757088834883542000,9.3555419921875,0.4157562255859375,0.0668182373046875,-0.90240478515625
1757088834893588000,9.365587890625,0.4126434326171875,0.065887451171875,-0.9102783203125
1757088834903635000,9.375635009765626,0.410980224609375,0.066131591796875,-0.9172821044921875
1757088834913681200,9.38568115234375,0.41497802734375,0.0668792724609375,-0.9241485595703125
1757088834923727000,9.39572705078125,0.417510986328125,0.0641326904296875,-0.92559814453125
1757088834933774000,9.405774169921875,0.4185791015625,0.0639495849609375,-0.922210693359375
1757088834943820000,9.415820068359375,0.4167633056640625,0.0637664794921875,-0.921112060546875
1757088834953867000,9.425866943359376,0.4186859130859375,0.0673370361328125,-0.91510009765625
1757088834963913000,9.435912841796876,0.418670654296875,0.0711669921875,-0.904815673828125
1757088834973959000,9.445958984375,0.4164276123046875,0.0744781494140625,-0.9008026123046875
1757088834984006000,9.456005859375,0.4163970947265625,0.0747222900390625,-0.9004974365234375
1757088834994051800,9.4660517578125,0.4159698486328125,0.0746002197265625,-0.8989105224609375
1757088835004098000,9.47609814453125,0.4141845703125,0.071197509765625,-0.899871826171875
1757088835014145000,9.48614501953125,0.412628173828125,0.067108154296875,-0.9051666259765625
1757088835024191000,9.49619091796875,0.4152374267578125,0.069061279296875,-0.910919189453125
1757088835034238000,9.506238037109375,0.419189453125,0.068634033203125,-0.9117431640625
1757088835044284000,9.516283935546875,0.415924072265625,0.0741424560546875,-0.91278076171875
1757088835054329900,9.526329833984375,0.409912109375,0.07513427734375,-0.9195404052734375
1757088835064377000,9.536377197265624,0.408599853515625,0.0744171142578125,-0.9245147705078125
1757088835074423000,9.546423095703124,0.410369873046875,0.0769805908203125,-0.9224700927734375
1757088835084470000,9.556469970703125,0.4080657958984375,0.077362060546875,-0.92047119140625
1757088835094516000,9.566515869140625,0.41046142578125,0.0755462646484375,-0.9207916259765625
1757088835104562000,9.57656201171875,0.4109954833984375,0.0743560791015625,-0.9130706787109375
1757088835114609000,9.58660888671875,0.41082763671875,0.0731964111328125,-0.907989501953125
1757088835124655000,9.596655029296874,0.4091033935546875,0.0725555419921875,-0.9005279541015625
1757088835134702000,9.6067021484375,0.4036407470703125,0.073486328125,-0.901885986328125
1757088835144748000,9.616748046875,0.4050140380859375,0.072540283203125,-0.90679931640625
1757088835154794000,9.6267939453125,0.4093780517578125,0.0720672607421875,-0.9104156494140625
1757088835164841000,9.636841064453124,0.4114532470703125,0.0723419189453125,-0.9174041748046875
1757088835174887000,9.646886962890624,0.4097137451171875,0.071746826171875,-0.924835205078125
1757088835184934000,9.656933837890625,0.4062347412109375,0.07379150390625,-0.93035888671875
1757088835194979800,9.666979736328125,0.4053955078125,0.0767974853515625,-0.929931640625
1757088835205025800,9.67702587890625,0.41064453125,0.0760650634765625,-0.924652099609375
1757088835215072800,9.68707275390625,0.4120330810546875,0.0739898681640625,-0.914398193359375
1757088835225119000,9.697118896484374,0.41455078125,0.0729827880859375,-0.90802001953125
1757088835235165000,9.7071650390625,0.415985107421875,0.069091796875,-0.9078369140625
1757088835245212200,9.717212158203125,0.422760009765625,0.066986083984375,-0.9098968505859375
1757088835255258000,9.727258056640625,0.4273529052734375,0.069549560546875,-0.912078857421875
1757088835265305000,9.73730517578125,0.4203643798828125,0.0702667236328125,-0.9187774658203125
1757088835275351000,9.74735107421875,0.4075164794921875,0.068817138671875,-0.9256134033203125
1757088835285397000,9.75739697265625,0.4020538330078125,0.0684814453125,-0.9247589111328125
1757088835295444000,9.76744384765625,0.402679443359375,0.0661468505859375,-0.9190216064453125
1757088835305490000,9.777489990234375,0.4058990478515625,0.064239501953125,-0.9076690673828125
1757088835315537000,9.787536865234374,0.414825439453125,0.0653533935546875,-0.9026641845703125
1757088835325583000,9.7975830078125,0.415435791015625,0.0681915283203125,-0.90411376953125
1757088835335629000,9.807629150390625,0.4124755859375,0.068328857421875,-0.9054412841796875
1757088835345676000,9.817676025390625,0.41131591796875,0.0724639892578125,-0.9119110107421875
1757088835355722000,9.827721923828125,0.4068603515625,0.0746307373046875,-0.912811279296875
1757088835365769000,9.83776904296875,0.4093170166015625,0.0743560791015625,-0.913818359375
1757088835375815000,9.84781494140625,0.4132080078125,0.0739593505859375,-0.91314697265625
1757088835385860900,9.85786083984375,0.41461181640625,0.074859619140625,-0.9079132080078125
1757088835395907800,9.867907958984375,0.4131011962890625,0.077789306640625,-0.9040069580078125
1757088835405953800,9.877953857421875,0.41259765625,0.0818939208984375,-0.9065704345703125
1757088835416001000,9.8880009765625,0.4123077392578125,0.08502197265625,-0.911895751953125
1757088835426047000,9.898046875,0.4106292724609375,0.0861053466796875,-0.919586181640625
1757088835436093000,9.908093017578125,0.4078826904296875,0.0864715576171875,-0.926025390625
1757088835446140200,9.91814013671875,0.406280517578125,0.083709716796875,-0.9289703369140625
1757088835456186000,9.92818603515625,0.406829833984375,0.0843658447265625,-0.9268646240234375
1757088835466232000,9.938232177734376,0.40460205078125,0.079864501953125,-0.921630859375
1757088835476279000,9.948279052734375,0.4075775146484375,0.074737548828125,-0.9235992431640625
1757088835486325000,9.958324951171875,0.40789794921875,0.0712890625,-0.914215087890625
1757088835496372000,9.9683720703125,0.4057464599609375,0.070556640625,-0.9041595458984375
1757088835506418000,9.97841796875,0.404510498046875,0.0727386474609375,-0.897491455078125
1757088835516463900,9.9884638671875,0.4036865234375,0.0730133056640625,-0.8935089111328125
1757088835526510800,9.9985107421875,0.3992462158203125,0.07208251953125,-0.8903961181640625
1757088835536557000,10.00855712890625,0.4003448486328125,0.0747222900390625,-0.8902740478515625
1757088835546604000,10.01860400390625,0.405975341796875,0.07366943359375,-0.88751220703125
1757088835556650000,10.02864990234375,0.4105377197265625,0.07061767578125,-0.9035491943359375
1757088835566696000,10.038696044921876,0.415008544921875,0.0698089599609375,-0.887725830078125
1757088835576743000,10.048742919921875,0.41290283203125,0.0948028564453125,-0.9297637939453125
1757088835586789400,10.058789306640625,0.4105987548828125,0.0896759033203125,-0.9208221435546875
1757088835596836400,10.06883642578125,0.410125732421875,0.0912017822265625,-0.9105072021484375
1757088835606882300,10.07888232421875,0.3983917236328125,0.093780517578125,-0.8999786376953125
1757088835616928300,10.08892822265625,0.3871307373046875,0.094329833984375,-0.887359619140625
1757088835626975200,10.098975341796875,0.3740692138671875,0.0904388427734375,-0.8793182373046875
1757088835637021200,10.109021240234375,0.3661956787109375,0.0868988037109375,-0.8754425048828125
1757088835647067400,10.1190673828125,0.3665313720703125,0.084686279296875,-0.888275146484375
1757088835657114400,10.1291142578125,0.3747100830078125,0.091583251953125,-0.9152679443359375
1757088835667160300,10.139160400390624,0.3805694580078125,0.103363037109375,-0.9463348388671875
1757088835677207300,10.149207275390625,0.3793792724609375,0.1186370849609375,-0.9680328369140625
1757088835687253200,10.159253173828125,0.3773956298828125,0.1386871337890625,-1.01202392578125
1757088835697299200,10.16929931640625,0.3696746826171875,0.1566314697265625,-1.025115966796875
1757088835707346400,10.179346435546876,0.354827880859375,0.17315673828125,-1.0254669189453125
1757088835717392400,10.189392333984374,0.339324951171875,0.1731719970703125,-1.022613525390625
1757088835727439400,10.199439453125,0.3361968994140625,0.154510498046875,-1.02447509765625
1757088835737485300,10.2094853515625,0.3556671142578125,0.13934326171875,-1.0147857666015625
1757088835747531500,10.219531494140625,0.3698577880859375,0.107208251953125,-0.993133544921875
1757088835757578500,10.22957861328125,0.364105224609375,0.072479248046875,-0.971710205078125
1757088835767624400,10.23962451171875,0.3340606689453125,0.0571136474609375,-0.9616851806640625
1757088835777671400,10.24967138671875,0.30255126953125,0.05828857421875,-0.9901123046875
1757088835787717400,10.25971728515625,0.322967529296875,0.03607177734375,-1.01959228515625
1757088835797763300,10.269763427734375,0.3809814453125,0.0352325439453125,-1.0144805908203125
1757088835807810300,10.279810302734376,0.4257659912109375,0.028564453125,-0.9746551513671875
1757088835817856300,10.289856201171874,0.4327392578125,0.0202484130859375,-0.9571533203125
1757088835827902200,10.299902099609374,0.4295196533203125,0.03863525390625,-0.9925537109375
1757088835837949200,10.30994921875,0.406951904296875,0.033721923828125,-1.0369415283203125
1757088835847995400,10.319995361328125,0.33416748046875,0.04315185546875,-1.0982208251953125
1757088835858042400,10.33004248046875,0.3204345703125,0.077239990234375,-1.1446075439453125
1757088835868088300,10.34008837890625,0.3140106201171875,0.1146087646484375,-1.126251220703125
1757088835878134300,10.35013427734375,0.3565216064453125,0.1550445556640625,-1.1340179443359375
1757088835888181500,10.360181396484375,0.3123016357421875,0.2037353515625,-1.155731201171875
1757088835898227500,10.3702275390625,0.2744140625,0.28485107421875,-1.1508331298828125
1757088835908274400,10.3802744140625,0.318267822265625,0.3496856689453125,-1.1033172607421875
1757088835918320400,10.3903203125,0.3324737548828125,0.3939208984375,-1.074310302734375
1757088835928366300,10.400366455078125,0.345611572265625,0.4536285400390625,-1.06591796875
1757088835938413300,10.410413330078125,0.3436126708984375,0.4918212890625,-1.0705108642578125
1757088835948459300,10.420459228515625,0.344207763671875,0.497161865234375,-1.078369140625
1757088835958506200,10.43050634765625,0.3609161376953125,0.5051727294921875,-1.0359954833984375
1757088835968552400,10.440552490234374,0.3632659912109375,0.49493408203125,-1.026458740234375
1757088835978598400,10.450598388671875,0.353790283203125,0.4904022216796875,-1.018402099609375
1757088835988645400,10.460645263671875,0.3023834228515625,0.5054473876953125,-0.999237060546875
1757088835998691300,10.47069140625,0.2798004150390625,0.506561279296875,-1.027557373046875
1757088836008738300,10.48073828125,0.27825927734375,0.496978759765625,-1.0231170654296875
1757088836018784300,10.4907841796875,0.27154541015625,0.4805145263671875,-1.0167999267578125
1757088836028830200,10.500830322265625,0.2941436767578125,0.4757080078125,-1.0337982177734375
1757088836038877200,10.510877197265625,0.2964019775390625,0.4949188232421875,-1.01849365234375
1757088836048923100,10.520923095703125,0.2716827392578125,0.53338623046875,-0.9734954833984375
1757088836058969300,10.53096923828125,0.256011962890625,0.5661773681640625,-0.9206390380859375
1757088836069016600,10.5410166015625,0.2619171142578125,0.5907745361328125,-0.87847900390625
1757088836079062500,10.5510625,0.2537384033203125,0.5875701904296875,-0.859100341796875
1757088836089109500,10.561109619140625,0.2546234130859375,0.5654449462890625,-0.835693359375
1757088836099155500,10.571155517578125,0.249664306640625,0.5418243408203125,-0.8105926513671875
1757088836109201400,10.581201416015626,0.219207763671875,0.5181884765625,-0.798095703125
1757088836119248400,10.591248291015624,0.207427978515625,0.52374267578125,-0.7803497314453125
1757088836129294300,10.60129443359375,0.194671630859375,0.558380126953125,-0.7524566650390625
1757088836139341300,10.61134130859375,0.1986846923828125,0.6014251708984375,-0.7166748046875
1757088836149387300,10.62138720703125,0.225555419921875,0.629486083984375,-0.7159271240234375
1757088836159433500,10.63143359375,0.233154296875,0.6167144775390625,-0.754364013671875
1757088836169480400,10.64148046875,0.1854705810546875,0.590789794921875,-0.7985687255859375
1757088836179526400,10.6515263671875,0.1189117431640625,0.5634307861328125,-0.8411712646484375
1757088836189573400,10.661573486328125,0.117889404296875,0.5513916015625,-0.8840179443359375
1757088836199619300,10.671619384765625,0.1575927734375,0.55792236328125,-0.8806304931640625
1757088836209665300,10.681665283203126,0.1936798095703125,0.56011962890625,-0.841705322265625
1757088836219712300,10.691712158203124,0.2045745849609375,0.569580078125,-0.7906341552734375
1757088836229758200,10.70175830078125,0.2123260498046875,0.565338134765625,-0.7477874755859375
1757088836239804200,10.71180419921875,0.190704345703125,0.568878173828125,-0.69189453125
1757088836249851100,10.72185107421875,0.1572113037109375,0.5946197509765625,-0.6142425537109375
1757088836259897300,10.7318974609375,0.1558685302734375,0.612701416015625,-0.5357513427734375
1757088836269944300,10.7419443359375,0.1817626953125,0.6154022216796875,-0.4892730712890625
1757088836279990500,10.751990478515625,0.1746673583984375,0.5992889404296875,-0.493377685546875
1757088836290036500,10.762036376953125,0.1433258056640625,0.57550048828125,-0.5288543701171875
1757088836300083500,10.77208349609375,0.1257476806640625,0.5648193359375,-0.5479736328125
1757088836310129400,10.78212939453125,0.11602783203125,0.563018798828125,-0.535614013671875
1757088836320176400,10.79217626953125,0.1257171630859375,0.5738525390625,-0.5413970947265625
1757088836330222300,10.802222412109375,0.1357269287109375,0.5643157958984375,-0.583587646484375
1757088836340268300,10.812268310546875,0.1173248291015625,0.5607452392578125,-0.5950469970703125
1757088836350315300,10.822315185546875,0.0825042724609375,0.594024658203125,-0.5587921142578125
1757088836360361200,10.832361328125,0.033905029296875,0.6090087890625,-0.5395965576171875
1757088836370408200,10.842408203125,0.00439453125,0.63775634765625,-0.5639801025390625
1757088836380454400,10.852454345703125,-0.0030975341796875,0.686309814453125,-0.564453125
1757088836390500400,10.862500244140625,0.0085906982421875,0.722503662109375,-0.5416717529296875
1757088836400547300,10.87254736328125,0.0354766845703125,0.7597808837890625,-0.4988555908203125
1757088836410593300,10.88259326171875,0.0639801025390625,0.778411865234375,-0.4820098876953125
1757088836420640300,10.89264013671875,0.0904388427734375,0.79351806640625,-0.515716552734375
1757088836430686200,10.902686279296875,0.1453704833984375,0.8129730224609375,-0.563323974609375
1757088836440732200,10.912732177734375,0.1456146240234375,0.8109588623046875,-0.5937042236328125
1757088836450779400,10.922779296875,0.1103515625,0.8285980224609375,-0.58648681640625
1757088836460825300,10.932825439453126,0.09332275390625,0.8689117431640625,-0.53839111328125
1757088836470871600,10.94287158203125,0.0780487060546875,0.88165283203125,-0.527069091796875
1757088836480918500,10.95291845703125,0.029541015625,0.857421875,-0.5971221923828125
1757088836490964500,10.962964599609375,0.0256500244140625,0.834228515625,-0.6676025390625
1757088836501011500,10.973011474609375,0.0548248291015625,0.807769775390625,-0.680450439453125
1757088836511057400,10.983057373046876,0.060333251953125,0.7828826904296875,-0.6439361572265625
1757088836521103400,10.993103271484374,0.0464935302734375,0.756500244140625,-0.5771484375
1757088836531150300,11.003150390625,0.051727294921875,0.81024169921875,-0.4799652099609375
1757088836541196300,11.0131962890625,0.0384979248046875,0.833404541015625,-0.4040374755859375
1757088836551243300,11.0232431640625,0.026275634765625,0.847412109375,-0.372314453125
1757088836561289200,11.033289306640626,0.0424652099609375,0.8623199462890625,-0.3559417724609375
1757088836571335400,11.04333544921875,0.047576904296875,0.8950958251953125,-0.399871826171875
1757088836581382400,11.05338232421875,0.02252197265625,0.895599365234375,-0.472991943359375
1757088836591428600,11.0634287109375,0.018280029296875,0.873382568359375,-0.5135650634765625
1757088836601475600,11.0734755859375,0.0452880859375,0.86993408203125,-0.5373992919921875
1757088836611521500,11.083521484375,0.0584259033203125,0.8545074462890625,-0.5389556884765625
1757088836621567500,11.0935673828125,0.0333251953125,0.8434906005859375,-0.527496337890625
1757088836631614500,11.103614501953125,0.00067138671875,0.8410797119140625,-0.51483154296875
1757088836641660400,11.113660400390625,-0.0212554931640625,0.84735107421875,-0.494384765625
1757088836651706400,11.123706298828125,-0.037322998046875,0.8484954833984375,-0.4701080322265625
1757088836661753300,11.13375341796875,-0.0220184326171875,0.8527374267578125,-0.439971923828125
1757088836671799300,11.14379931640625,0.0079193115234375,0.85870361328125,-0.39971923828125
1757088836681846500,11.153846435546875,0.0335845947265625,0.85467529296875,-0.3540496826171875
1757088836691892700,11.163892822265625,0.0324554443359375,0.8634033203125,-0.3361968994140625
1757088836701938700,11.173938720703125,0.0088958740234375,0.867889404296875,-0.3298187255859375
1757088836711985700,11.183985595703126,-0.002166748046875,0.8784332275390625,-0.3206787109375
1757088836722031600,11.194031494140624,0.00518798828125,0.89013671875,-0.3157958984375
1757088836732078600,11.20407861328125,0.02630615234375,0.876373291015625,-0.3162078857421875
1757088836742124500,11.21412451171875,0.0514373779296875,0.8514251708984375,-0.3278961181640625
1757088836752170500,11.22417041015625,0.08203125,0.8534698486328125,-0.34112548828125
1757088836762217500,11.234217529296876,0.106353759765625,0.8466339111328125,-0.34967041015625
1757088836772263400,11.244263427734374,0.107177734375,0.847625732421875,-0.368896484375
1757088836782310400,11.254310302734375,0.0352630615234375,0.8769378662109375,-0.4103546142578125
1757088836792356600,11.264356689453125,-0.02484130859375,0.8740081787109375,-0.4121856689453125
1757088836802402600,11.274402587890625,0.0679931640625,0.902496337890625,-0.359466552734375
1757088836812449500,11.284449462890626,0.0814971923828125,0.9673919677734375,-0.344146728515625
1757088836822495500,11.29449560546875,0.006591796875,0.9915313720703125,-0.31109619140625
1757088836832542500,11.30454248046875,0.00982666015625,1.0140380859375,-0.279296875
1757088836842588400,11.31458837890625,0.01324462890625,1.0246429443359375,-0.26220703125
1757088836852634400,11.32463427734375,-0.004241943359375,1.0559539794921875,-0.2384490966796875
1757088836862681600,11.334681640625,-0.0116424560546875,1.0847625732421875,-0.186187744140625
1757088836872727300,11.344727294921874,-0.0307464599609375,1.091766357421875,-0.126129150390625
1757088836882774500,11.3547744140625,-0.0485687255859375,1.1030731201171875,-0.110870361328125
1757088836892820500,11.364820556640625,0.0043182373046875,1.074371337890625,-0.1113433837890625
1757088836902866700,11.37486669921875,0.0661773681640625,1.0132598876953125,-0.17919921875
1757088836912913700,11.38491357421875,0.0656890869140625,0.9771575927734375,-0.24578857421875
1757088836922959600,11.394959716796874,0.0382080078125,0.958038330078125,-0.273101806640625
1757088836933005600,11.405005615234375,0.0145111083984375,0.9326019287109375,-0.2910614013671875
1757088836943052500,11.415052490234375,0.03466796875,0.9088592529296875,-0.2763214111328125
1757088836953098500,11.425098388671875,0.0530853271484375,0.8998870849609375,-0.2507781982421875
1757088836963145500,11.4351455078125,0.0241851806640625,0.90301513671875,-0.2461700439453125
1757088836973191400,11.44519140625,-0.0187225341796875,0.9036407470703125,-0.2603607177734375
1757088836983237600,11.455237548828125,-0.0325164794921875,0.89617919921875,-0.2542724609375
1757088836993284400,11.465284423828125,-0.0264434814453125,0.8770904541015625,-0.244781494140625
1757088837003330600,11.47533056640625,0.0115966796875,0.888702392578125,-0.2179107666015625
1757088837013377500,11.48537744140625,0.0425262451171875,0.8967132568359375,-0.135498046875
1757088837023423500,11.495423583984374,0.027740478515625,0.9123687744140625,-0.0854949951171875
1757088837033469400,11.505469482421875,0.0096435546875,0.9471588134765625,-0.0625762939453125
1757088837043516400,11.515516357421875,0.0016021728515625,0.963714599609375,-0.058807373046875
1757088837053562400,11.525562255859375,-0.0245513916015625,0.965484619140625,-0.105377197265625
1757088837063609600,11.535609619140626,-0.0229339599609375,0.96673583984375,-0.1457977294921875
1757088837073655600,11.545655517578124,-0.014007568359375,0.972442626953125,-0.1825714111328125
1757088837083701500,11.555701416015625,0.012939453125,0.9851531982421875,-0.2091064453125
1757088837093748500,11.56574853515625,0.0305938720703125,0.9964447021484375,-0.2094573974609375
1757088837103794700,11.575794677734375,0.008331298828125,0.9965667724609375,-0.20867919921875
1757088837113840600,11.585840576171876,-0.0322113037109375,1.0055694580078125,-0.2253875732421875
1757088837123887600,11.5958876953125,-0.02850341796875,1.007965087890625,-0.238189697265625
1757088837133933600,11.60593359375,0.00762939453125,1.005157470703125,-0.2427978515625
1757088837143980500,11.61598046875,0.0068511962890625,1.004119873046875,-0.2599334716796875
1757088837154026500,11.626026611328125,-0.02557373046875,1.011749267578125,-0.2943878173828125
1757088837164072400,11.636072509765626,-0.0355987548828125,1.015869140625,-0.312713623046875
1757088837174119400,11.646119384765624,-0.0217742919921875,1.0130767822265625,-0.324005126953125
1757088837184165400,11.656165283203125,-0.024444580078125,1.0023651123046875,-0.3307647705078125
1757088837194212400,11.66621240234375,-0.033233642578125,0.984710693359375,-0.3458099365234375
1757088837204258600,11.676258544921875,-0.0385284423828125,0.9691009521484375,-0.369537353515625
1757088837214304500,11.686304443359376,-0.037322998046875,0.9471893310546875,-0.3919219970703125
1757088837224351500,11.6963515625,-0.0305938720703125,0.924560546875,-0.394744873046875
1757088837234397400,11.7063974609375,-0.015380859375,0.9191436767578125,-0.3754119873046875
1757088837244444700,11.716444580078125,0.0061798095703125,0.911163330078125,-0.3460845947265625
1757088837254490600,11.72649072265625,0.00946044921875,0.906463623046875,-0.3196563720703125
1757088837264536600,11.73653662109375,-0.00732421875,0.9062957763671875,-0.3070526123046875
1757088837274583600,11.74658349609375,-0.01373291015625,0.91339111328125,-0.2807159423828125
1757088837284629500,11.75662939453125,-0.0096893310546875,0.919219970703125,-0.2471923828125
1757088837294676500,11.766676513671875,-0.016387939453125,0.9291534423828125,-0.2234649658203125
1757088837304722400,11.776722412109375,-0.045257568359375,0.9453277587890625,-0.1982879638671875
1757088837314768600,11.7867685546875,-0.0726318359375,0.9724578857421875,-0.16046142578125
1757088837324815600,11.796815673828124,-0.0493621826171875,0.975616455078125,-0.1502838134765625
1757088837334861600,11.806861572265625,-0.01129150390625,0.9695892333984375,-0.1989593505859375
1757088837344907500,11.816907470703125,0.00543212890625,0.9667205810546875,-0.2414093017578125
1757088837354954500,11.82695458984375,0.0021209716796875,0.973876953125,-0.2621917724609375
1757088837365000400,11.83700048828125,-0.0086517333984375,0.985809326171875,-0.271453857421875
1757088837375047400,11.84704736328125,-0.01397705078125,0.9964599609375,-0.2569427490234375
1757088837385093400,11.85709326171875,0.001220703125,1.0043792724609375,-0.236846923828125
1757088837395139300,11.867139404296875,0.006866455078125,1.0035400390625,-0.2258148193359375
1757088837405186300,11.877186279296875,-0.0062255859375,0.9959564208984375,-0.2075958251953125
1757088837415232500,11.887232421875,-0.0185089111328125,0.9810028076171875,-0.2148284912109375
1757088837425279700,11.89727978515625,-0.0329742431640625,0.9628753662109375,-0.237548828125
1757088837435325700,11.90732568359375,-0.036956787109375,0.9534912109375,-0.2529449462890625
1757088837445371600,11.91737158203125,-0.0310821533203125,0.949951171875,-0.2580718994140625
1757088837455418600,11.927418701171876,-0.0269622802734375,0.9478607177734375,-0.2583465576171875
1757088837465464600,11.937464599609376,-0.0141143798828125,0.9498291015625,-0.259521484375
1757088837475511600,11.947511474609374,-0.006072998046875,0.9534912109375,-0.2662353515625
1757088837485557500,11.9575576171875,0.0002288818359375,0.9607086181640625,-0.2649993896484375
1757088837495603500,11.967603515625,-0.0018157958984375,0.973419189453125,-0.261474609375
1757088837505650400,11.977650390625,-0.014373779296875,0.980224609375,-0.2658538818359375
1757088837515696600,11.987696533203126,-0.027252197265625,0.98480224609375,-0.2532501220703125
1757088837525743400,11.997743408203124,-0.02984619140625,0.9870147705078125,-0.24578857421875
1757088837535789600,12.00778955078125,-0.030517578125,0.98822021484375,-0.244354248046875
1757088837545835500,12.01783544921875,-0.02337646484375,0.985504150390625,-0.25067138671875
1757088837555882500,12.027882568359376,-0.0169830322265625,0.983489990234375,-0.2621307373046875
1757088837565928400,12.037928466796876,-0.0156097412109375,0.9865875244140625,-0.2716827392578125
1757088837575974400,12.047974365234374,-0.0120849609375,0.9877777099609375,-0.273101806640625
1757088837586022400,12.0580224609375,-0.0143280029296875,0.988037109375,-0.276702880859375
1757088837596068400,12.068068359375,-0.0123443603515625,0.9869232177734375,-0.2819366455078125
1757088837606115300,12.078115234375,-0.008056640625,0.9853668212890625,-0.285003662109375
1757088837616161300,12.088161376953124,-0.0042266845703125,0.9857330322265625,-0.299835205078125
1757088837626207200,12.098207275390624,-0.0026397705078125,0.9862213134765625,-0.3209991455078125
1757088837636254200,12.108254150390625,-0.0095062255859375,0.9754486083984375,-0.3337860107421875
1757088837646300400,12.118300537109375,-0.0140838623046875,0.9630279541015625,-0.341461181640625
1757088837656347400,12.128347412109376,-0.0235137939453125,0.9611663818359375,-0.3279571533203125
1757088837666393300,12.138393310546874,-0.0268096923828125,0.9654998779296875,-0.3035430908203125
1757088837676439300,12.148439208984374,-0.024566650390625,0.9616241455078125,-0.25299072265625
1757088837686486300,12.158486328125,-0.0102691650390625,0.9691162109375,-0.175140380859375
1757088837696532200,12.1685322265625,0.0028533935546875,0.9683074951171875,-0.1468048095703125
1757088837706579500,12.178579345703126,-0.0206146240234375,0.9537200927734375,-0.18310546875
1757088837716625400,12.18862548828125,-0.04705810546875,0.94500732421875,-0.236083984375
1757088837726671400,12.19867138671875,-0.0523529052734375,0.9388275146484375,-0.286712646484375
1757088837736718300,12.20871826171875,-0.0391845703125,0.9297637939453125,-0.3079986572265625
1757088837746764500,12.2187646484375,-0.0307769775390625,0.9327239990234375,-0.303436279296875
1757088837756811300,12.228811279296876,-0.0300140380859375,0.945037841796875,-0.281005859375
1757088837766857500,12.238857421875,-0.0281982421875,0.967498779296875,-0.25762939453125
1757088837776903400,12.2489033203125,-0.02166748046875,0.9927825927734375,-0.2354888916015625
1757088837786950400,12.258950439453125,-0.01348876953125,1.004150390625,-0.2222442626953125
1757088837796996400,12.268996337890625,-0.0156707763671875,0.997650146484375,-0.2445068359375
1757088837807043300,12.279043212890626,-0.0218963623046875,0.984405517578125,-0.268310546875
1757088837817089300,12.28908935546875,-0.016754150390625,0.97528076171875,-0.28057861328125
1757088837827135200,12.29913525390625,-0.0179595947265625,0.9660491943359375,-0.3008880615234375
1757088837837182200,12.30918212890625,-0.0268402099609375,0.9597625732421875,-0.3182525634765625
1757088837847228400,12.319228515625,-0.027801513671875,0.9542694091796875,-0.3163909912109375
1757088837857274400,12.3292744140625,-0.019622802734375,0.9521331787109375,-0.300811767578125
1757088837867321300,12.3393212890625,-0.01513671875,0.95587158203125,-0.28009033203125
1757088837877367300,12.3493671875,-0.0233154296875,0.95477294921875,-0.2632293701171875
1757088837887414500,12.35941455078125,-0.031097412109375,0.950958251953125,-0.2589569091796875
1757088837897460500,12.36946044921875,-0.0322113037109375,0.9550323486328125,-0.25872802734375
1757088837907506200,12.379506103515626,-0.0334930419921875,0.9586181640625,-0.2540283203125
1757088837917553400,12.389553466796874,-0.029876708984375,0.958984375,-0.2574615478515625
1757088837927599400,12.399599365234375,-0.0255126953125,0.964141845703125,-0.264495849609375
1757088837937646300,12.409646240234375,-0.0226287841796875,0.968353271484375,-0.2653045654296875
1757088837947692300,12.4196923828125,-0.0199432373046875,0.9622650146484375,-0.2627716064453125
1757088837957738500,12.429738525390626,-0.0249176025390625,0.9571990966796875,-0.2622222900390625
1757088837967785500,12.439785400390624,-0.02386474609375,0.95660400390625,-0.2710418701171875
1757088837977831400,12.44983154296875,-0.019378662109375,0.95916748046875,-0.2714996337890625
1757088837987878400,12.45987841796875,-0.0216827392578125,0.96514892578125,-0.2637481689453125
1757088837997924400,12.46992431640625,-0.0183258056640625,0.9725341796875,-0.2607421875
1757088838007970300,12.47997021484375,-0.0153961181640625,0.96875,-0.271697998046875
1757088838018017300,12.490017333984374,-0.023040771484375,0.967864990234375,-0.2777252197265625
1757088838028063200,12.500063232421875,-0.0283050537109375,0.9700775146484375,-0.2765045166015625
1757088838038109200,12.510109130859375,-0.02410888671875,0.964508056640625,-0.27764892578125
1757088838048156200,12.52015625,-0.0189361572265625,0.9615020751953125,-0.289764404296875
1757088838058202400,12.530202392578126,-0.023681640625,0.955169677734375,-0.2978668212890625
1757088838068249300,12.540249267578124,-0.027313232421875,0.9521331787109375,-0.3022308349609375
1757088838078295300,12.55029541015625,-0.02679443359375,0.9598846435546875,-0.2878570556640625
1757088838088341200,12.56034130859375,-0.026824951171875,0.963836669921875,-0.269439697265625
1757088838098388500,12.570388427734375,-0.031707763671875,0.9610443115234375,-0.2656707763671875
1757088838108434400,12.580434326171876,-0.0339813232421875,0.9635772705078125,-0.267333984375
1757088838118481400,12.5904814453125,-0.0438690185546875,0.965484619140625,-0.2698211669921875
1757088838128527400,12.60052734375,-0.04547119140625,0.9602508544921875,-0.285491943359375
1757088838138573300,12.6105732421875,-0.0332489013671875,0.9607391357421875,-0.3006591796875
1757088838148620300,12.620620361328125,-0.0300140380859375,0.959808349609375,-0.3027191162109375
1757088838158666500,12.63066650390625,-0.029083251953125,0.961883544921875,-0.2947845458984375
1757088838168712400,12.64071240234375,-0.027313232421875,0.961944580078125,-0.2831878662109375
1757088838178759400,12.650759521484375,-0.0289764404296875,0.9562225341796875,-0.2781219482421875
1757088838188805400,12.660805419921875,-0.0306549072265625,0.957489013671875,-0.281097412109375
1757088838198852400,12.670852294921875,-0.030914306640625,0.957916259765625,-0.2834625244140625
1757088838208898300,12.680898193359376,-0.03118896484375,0.9587860107421875,-0.28948974609375
1757088838218944300,12.6909443359375,-0.027374267578125,0.9613037109375,-0.2911834716796875
1757088838228991200,12.7009912109375,-0.0234832763671875,0.9707794189453125,-0.2896270751953125
1757088838239037200,12.711037109375,-0.0198211669921875,0.976104736328125,-0.29266357421875
1757088838249084200,12.721084228515625,-0.01263427734375,0.9656524658203125,-0.3003997802734375
1757088838259130000,12.731130126953126,-0.025177001953125,0.9611358642578125,-0.3000640869140625
1757088838269176300,12.74117626953125,-0.038055419921875,0.9686431884765625,-0.2873077392578125
1757088838279223600,12.7512236328125,-0.0379486083984375,0.9648895263671875,-0.2635498046875
1757088838289269500,12.76126953125,-0.033111572265625,0.9638519287109375,-0.2512969970703125
1757088838299316500,12.77131640625,-0.03466796875,0.956512451171875,-0.2683563232421875
1757088838309362400,12.781362548828126,-0.0298004150390625,0.9509429931640625,-0.2960968017578125
1757088838319408400,12.791408447265624,-0.025177001953125,0.953948974609375,-0.3190155029296875
1757088838329455400,12.801455322265625,-0.025482177734375,0.9557342529296875,-0.3220977783203125
1757088838339501300,12.811501220703125,-0.026519775390625,0.956878662109375,-0.3089599609375
1757088838349547300,12.82154736328125,-0.0296478271484375,0.96026611328125,-0.2914886474609375
1757088838359594200,12.83159423828125,-0.032135009765625,0.9627227783203125,-0.27691650390625
1757088838369640400,12.841640380859374,-0.028564453125,0.9658203125,-0.268798828125
1757088838379687400,12.8516875,-0.0277862548828125,0.9687042236328125,-0.2640533447265625
1757088838389733400,12.8617333984375,-0.02520751953125,0.969451904296875,-0.261810302734375
1757088838399779300,12.871779296875,-0.024566650390625,0.9563751220703125,-0.2733917236328125
1757088838409826300,12.881826416015626,-0.025787353515625,0.9498443603515625,-0.29315185546875
1757088838419872300,12.891872314453124,-0.0299835205078125,0.9483642578125,-0.29400634765625
1757088838429919200,12.901919189453125,-0.03778076171875,0.9511566162109375,-0.2895965576171875
1757088838439965200,12.911965087890625,-0.037689208984375,0.9531707763671875,-0.28125
1757088838450011100,12.92201123046875,-0.03448486328125,0.967987060546875,-0.280975341796875
1757088838460058400,12.932058349609376,-0.01837158203125,0.9919586181640625,-0.2839202880859375
1757088838470104600,12.9421044921875,-0.00830078125,1.0054779052734375,-0.293365478515625
1757088838480151300,12.9521513671875,-0.0092926025390625,1.002166748046875,-0.3130340576171875
1757088838490197500,12.962197509765625,-0.019683837890625,0.9839324951171875,-0.3150482177734375
1757088838500243500,12.972243408203125,-0.0288848876953125,0.9642181396484375,-0.293792724609375
1757088838510290400,12.98229052734375,-0.020751953125,0.9559783935546875,-0.266754150390625
1757088838520336400,12.99233642578125,-0.011016845703125,0.9547271728515625,-0.248504638671875
1757088838530382300,13.00238232421875,-0.0117340087890625,0.9532928466796875,-0.2521209716796875
1757088838540429300,13.01242919921875,-0.0157470703125,0.9522552490234375,-0.256866455078125
1757088838550475300,13.022475341796875,-0.021881103515625,0.9528045654296875,-0.27105712890625
