time,seconds_elapsed,z,y,x
1757088825546686000,0.01868603515625,0.7486129662126302,-0.06876229658620432,-0.20755758554786444
1757088825556732000,0.02873193359375,0.84078213134408,-0.1581091525722295,-0.05739595791399479
1757088825566777900,0.03877783203125,0.7753086654365062,-0.28249847943745554,-0.06154226393848657
1757088825576824000,0.048823974609375,0.6300830329000949,-0.31286238231267777,-0.18875307796522975
1757088825586870000,0.0588701171875,0.56962885645926,-0.16069529660791157,-0.32968057491630315
1757088825596917000,0.0689169921875,0.4318137924402952,-0.023841332706063985,-0.4161699408456683
1757088825606963000,0.078962890625,0.2079565217375755,-0.06958418916203081,-0.5121830680541694
1757088825617009000,0.0890087890625,0.23557868815660477,-0.11247907230835408,-0.7429653157144784
1757088825627055900,0.099055908203125,0.4418471106767654,-0.0832155684230849,-0.9303650793746113
1757088825637101800,0.109101806640625,0.7026216148883104,-0.04930924370065331,-1.2628557432755827
1757088825647147800,0.119147705078125,0.8193354386895895,-0.1371131262946874,-1.0132795094266533
1757088825657194800,0.12919482421875,0.9511088844567537,-0.19163564766421912,-0.776810959758237
1757088825667241000,0.139240966796875,1.1877075633108616,-0.18143289114497602,-0.6927420259088277
1757088825677287000,0.149286865234375,1.2361492303967476,-0.3670080697264522,-0.6115529583446682
1757088825687334100,0.159334228515625,1.1566033999949692,-0.5329305994633585,-0.5719591260377317
1757088825697380000,0.169380126953125,1.0741145018786191,-0.4639440839335322,-0.47273470863252876
1757088825707426000,0.179426025390625,0.38657588983178137,-0.47192120029255746,-0.26330621464625
1757088825717473000,0.18947314453125,-0.5980839665710925,-0.46692558396235107,0.09107464789301156
1757088825727519000,0.19951904296875,-1.1973428221404552,-0.02944879732429981,0.16771671967729926
1757088825737566000,0.20956591796875,-1.2883359292298555,0.6303228330053389,0.06187792563363909
1757088825747612000,0.21961181640625,-1.2535481089651583,1.1615914175406097,-0.05171893519088626
1757088825757658000,0.229658203125,-0.9760480954021215,1.555371831923723,-0.22464228360056876
1757088825767705000,0.239705078125,-0.3911450974434614,1.6397577958330511,-0.48855815457776186
1757088825777751000,0.2497509765625,-0.33719957224428654,1.0052040472596884,-0.011090133813023567
1757088825787797000,0.259796875,-0.163549809256196,0.6014227556049824,0.6044038172423839
1757088825797844000,0.269843994140625,0.316954072073102,0.5229562448725104,0.8952484655469656
1757088825807890000,0.279889892578125,0.8553525084882974,0.6863197377763688,1.052025419667363
1757088825817936000,0.289935791015625,1.4494506202936173,0.8783236342310905,1.1825912432104349
1757088825827982800,0.29998291015625,1.6437831058263779,0.6940427332438528,1.361152451376617
1757088825838028800,0.31002880859375,1.505216346657276,0.2697501300886273,1.4706073900908232
1757088825848075800,0.32007568359375,0.4435965846925974,-0.13585194725245237,1.5311197264596819
1757088825858122000,0.3301220703125,0.035468203744292257,-0.40319326263368127,1.1516714965507386
1757088825868168000,0.34016796875,0.33278584745526313,-0.35335648792758584,0.47529812937974925
1757088825878215200,0.350215087890625,0.19640870728492735,-0.16773820085674523,-0.11267127041220665
1757088825888261000,0.36026123046875,-0.16952245392501353,0.03397898809984326,-0.6237187585651874
1757088825898307000,0.37030712890625,-0.671954089424014,0.34316008808389303,-1.3547747330382465
1757088825908354000,0.38035400390625,-0.591171410703659,0.6269837517105042,-1.9675994648844002
1757088825918400000,0.39039990234375,-0.223681329613924,0.5810062827810645,-1.6742989478603005
1757088825928446000,0.400446044921875,-0.14752806425988674,0.11757204806581138,-0.007974047619104386
1757088825938493000,0.410492919921875,0.1887912180185318,-0.7008778399609029,4.189680179055035
1757088825948539100,0.4205390625,0.17288403931260107,-1.1643306332461536,4.060968751206993
1757088825958585000,0.430585205078125,0.7609814493983984,0.3351047919221222,1.3725392300486563
1757088825968632000,0.440632080078125,0.02883972551524639,0.592470364473015,-0.14396774142980576
1757088825978678000,0.450677978515625,-0.5941437045127153,-0.12077931967452167,-0.45858840211927887
1757088825988725000,0.46072509765625,-0.8318091358155012,-0.5686372150734067,-0.5027341255769133
1757088825998771000,0.47077099609375,-0.8993219985961913,-0.5234542575225234,-0.7139443884134292
1757088826008817000,0.48081689453125,-0.6336550461679696,-0.4498967077501118,-0.645672523958981
1757088826018863900,0.49086376953125,-0.17961890052556992,-0.7554553794533014,-0.705729517775774
1757088826028909800,0.500909912109375,0.10616086560487746,-0.8954347818993031,-0.8683271408736706
1757088826038956000,0.5109560546875,0.1340232705205679,-0.755138130197674,-0.6969798096090555
1757088826049003000,0.5210029296875,0.13163842121064662,-0.49894277046993374,-0.5211091557011008
1757088826059049000,0.531049072265625,-0.11528232969343662,0.0179445297524333,-0.23250030362457036
1757088826069095000,0.541094970703125,-0.4471118993371725,0.4352393829748034,0.2536775316879153
1757088826079142000,0.551141845703125,-0.3747854987949133,0.5013454476974905,0.5123652927532791
1757088826089187800,0.561187744140625,-0.23758710536956787,0.3788138775281608,0.38050942939966914
1757088826099235000,0.571235107421875,-0.08472410982251166,-0.059386547209322446,-0.061681087887287135
1757088826109281000,0.581281005859375,0.2743412572711706,-0.43780645698383447,-0.32372897303551434
1757088826119327000,0.591326904296875,0.47940907182991505,-0.5388657616659999,-0.47721039274185895
1757088826129374000,0.6013740234375,0.5925052896559239,-0.38560032279789447,-0.3156608173921704
1757088826139420200,0.611420166015625,0.5551005648910999,0.1750796496607363,0.023166940575838086
1757088826149466000,0.621466064453125,-0.11141221026182174,1.363564627084881,0.34994010361284017
1757088826159513000,0.63151318359375,-0.8398819676339626,2.1584834173984824,1.0884949094086884
1757088826169559000,0.64155908203125,-0.9967921927452087,1.847438569369167,1.9018486433401702
1757088826179605000,0.65160498046875,-0.6391489674091339,1.27398533231616,2.019016932910681
1757088826189652000,0.66165185546875,0.6471200924187899,0.3084327658347785,1.4435428575545548
1757088826199698000,0.671697998046875,2.272697679468989,-0.34678310088664294,1.2157090844362974
1757088826209745000,0.681744873046875,2.6699136212587353,0.007479834361374378,1.4363491466581821
1757088826219790800,0.691790771484375,1.8036942663192748,0.07406316120699048,1.3465543094426393
1757088826229837000,0.701837158203125,0.6317565190702676,-0.2929303685374558,0.4979331550359726
1757088826239883800,0.7118837890625,-0.1842342853665352,-0.3621418519295752,-0.6781921070307493
1757088826249930000,0.721929931640625,-0.6931634661912918,-0.17307444731816649,-1.442535726338625
1757088826259976000,0.731975830078125,-0.8568418702632188,0.10158069820776582,-1.2022849547177552
1757088826270023000,0.74202294921875,-0.8017571119010448,0.24651275462508201,-0.7680395512163639
1757088826280068900,0.75206884765625,-0.6979197208076715,0.580991231342405,0.12279343597590922
1757088826290114800,0.76211474609375,-0.15924889719188212,0.8425162616603076,1.0249603026092051
1757088826300162000,0.772162109375,0.6594798077762126,0.7242920332960784,1.685335013398528
1757088826310208000,0.7822080078125,1.2804279325842856,0.8377886486165225,2.010142721581459
1757088826320255000,0.7922548828125,1.0898556763678788,1.4414273267053066,1.7555588887035847
1757088826330301000,0.802301025390625,-0.7348276019662618,2.781305373254418,1.0442635534942148
1757088826340347100,0.81234716796875,-2.210011213931441,2.456568976742029,1.9238158527374267
1757088826350394000,0.82239404296875,-1.5539613806039094,1.6252838648006318,2.351104276707768
1757088826360440000,0.832440185546875,-0.4052309059411287,1.372036541223526,1.8296598977029324
1757088826370486000,0.842486083984375,0.5133195247381925,1.4797989968061447,1.6741180383354424
1757088826380533000,0.852532958984375,1.1372177315235137,1.516411986671388,1.8109008366972208
1757088826390579000,0.862578857421875,1.1262041700780392,1.4506201024644076,1.9324813897520303
1757088826400626000,0.8726259765625,0.02334463523030281,1.6042840391308069,1.6712871988236904
1757088826410671900,0.882671875,-1.513478563567996,2.5352660813599823,1.2881512203127146
1757088826420718000,0.892718017578125,-2.392128945535421,3.3231188788101074,1.7507494425952435
1757088826430764800,0.902764892578125,-1.5684147072397172,2.4864699017480016,1.8874357948452234
1757088826440811000,0.91281103515625,-0.2760857628509402,1.3338906427025794,1.4742308412849903
1757088826450857000,0.92285693359375,0.26224735324308274,0.4230138884562999,0.7720908724337816
1757088826460904000,0.932904052734375,0.09512509232759475,-0.5120832609415054,0.048745033946633334
1757088826470950000,0.942949951171875,-0.19199673606157303,-0.9337345558077096,-0.6446358743876218
1757088826480995800,0.952995849609375,-0.7511644042611122,-0.9708904934432357,-1.0531026935100556
1757088826491042800,0.963042724609375,-1.1302151592850684,-0.5116152781035751,-0.9499018467545509
1757088826501088800,0.9730888671875,-1.0054092144429683,0.12923146966677157,-0.49147652624249455
1757088826511136000,0.983135986328125,-0.7266857965648174,-0.10335640264339745,0.34724048926532264
1757088826521182000,0.993181884765625,-0.7499391733150929,-0.5617407700905576,0.9871996040135621
1757088826531228200,1.003228271484375,-0.944731019987911,-0.6217867675893008,1.2751274880886077
1757088826541275100,1.013275146484375,-0.8616751356385648,-0.5521554513499141,1.3399942202746868
1757088826551321000,1.023321044921875,-0.8835270480930805,-0.48634632374718784,1.162504732993245
1757088826561367000,1.033366943359375,-0.9911329979397356,-0.003334478184953332,-0.0019195698857307434
1757088826571414500,1.04341455078125,0.489015689086914,1.8344053386643528,-1.5360779333889483
1757088826581460500,1.05346044921875,0.3297451645851135,-0.8072615545362234,-2.5339023917913437
1757088826591506400,1.06350634765625,-1.0859247666597365,-3.24997736249268,-4.06110669837296
1757088826601553400,1.073553466796875,-2.1992565956830976,-3.7710958705440163,-5.195613417372107
1757088826611599400,1.083599365234375,-2.0151047279030085,-3.169281193011999,-5.10209576024115
1757088826621646300,1.093646240234375,-1.6777981881529092,-2.473484455707669,-3.8407629887491463
1757088826631692300,1.1036923828125,-1.7305565493941306,-2.3723352807849643,-2.492987028557062
1757088826641738500,1.113738525390625,-1.9219681790441274,-2.5817981154322625,-1.4047025470286607
1757088826651785500,1.123785400390625,-1.3591574781671165,-2.7920827878564594,-0.8156786697477102
1757088826661831400,1.13383154296875,7.744744942477345,-1.966450148718804,-2.9267028552263974
1757088826671877400,1.14387744140625,25.838647510254383,0.6252800165325403,-6.602798428866267
1757088826681924400,1.15392431640625,5.800711062097549,-1.1527597301788628,0.11514672061502933
1757088826691970300,1.16397021484375,4.010670058077573,-2.499954529482126,0.4208879092782736
1757088826702017300,1.174017333984375,1.02459731451571,-1.3173187164776026,0.3147837422966957
1757088826712063200,1.184063232421875,-0.7408890939623117,-0.7690101498141885,-0.3461795820355415
1757088826722109400,1.194109375,-0.7466022109121084,-0.2956055790960789,-1.066893318453431
1757088826732156200,1.20415625,-1.5861317118465899,0.5347852143540978,-1.2305559404343367
1757088826742202400,1.214202392578125,-1.6751356909453867,1.318126379598677,-1.1373878273934126
1757088826752248300,1.224248291015625,-1.516810922861099,0.9819538123145699,-0.6320744989782572
1757088826762295600,1.234295654296875,-1.2046452541083097,0.8416076223827899,0.04031681281924247
1757088826772341500,1.244341552734375,-0.9557634322643279,0.9357714684627949,0.14969430238306522
1757088826782387500,1.254387451171875,-0.3508551726311445,0.5811613272123038,-0.14717384399473665
1757088826792434400,1.264434326171875,0.4137713552713394,0.31375133050903675,0.023550971457362173
1757088826802480400,1.27448046875,0.8725251770853996,0.3244200240395963,0.11126783335506915
1757088826812527400,1.28452734375,0.8376116846144199,0.5441532005496322,0.17032967865467072
1757088826822573300,1.2945732421875,0.5453156684577465,0.5667188142314553,0.03244797914028168
1757088826832619500,1.30461962890625,0.25218495504260063,0.3759204941742122,-0.38904783290326594
1757088826842666500,1.31466650390625,0.097440968054533,0.25439269421994687,-0.6660889967828989
1757088826852712400,1.32471240234375,0.26423838092982765,0.06284633227437735,-0.5837082352161407
1757088826862758400,1.33475830078125,0.3025222266167402,-0.11618176275119185,-0.3490267881602049
1757088826872805400,1.344805419921875,0.08278700428009032,-0.06568053278699516,-0.1975140381783247
1757088826882851300,1.354851318359375,-0.025539514926075934,0.001297054073214531,0.12764555218219756
1757088826892897300,1.364897216796875,0.04754442598521709,-0.22319836840257049,0.40605741989314553
1757088826902944300,1.3749443359375,0.011705343101918697,-0.362170201241225,0.34903730955421924
1757088826912990200,1.384990234375,-0.024667116005718706,-0.4039303447365761,0.24067279642522332
1757088826923037200,1.395037109375,-0.10670037930905818,-0.25531360845714807,0.16559563587009907
1757088826933083400,1.40508349609375,-0.262189923967421,-0.17727599066123365,0.30367022760808465
1757088826943129300,1.41512939453125,-0.31403409297317264,0.007766688478738069,0.21678397131562233
1757088826953176600,1.425176513671875,-0.1847495414122939,0.03052124886140227,0.21389760222434998
1757088826963222500,1.435222412109375,-0.025236732587218282,-0.04391264535412192,0.08377367722988129
1757088826973268200,1.445268310546875,-0.008633972832560538,-0.020068243908137082,0.00041442601978778834
1757088826983315500,1.4553154296875,0.011882745495438576,-0.09308905645534396,-0.09972995577454566
1757088826993361400,1.465361328125,0.04258709583878517,-0.09139934980273247,-0.2647521756708622
1757088827003408400,1.475408447265625,-0.043674306553602216,-0.1079514022834599,-0.39261867712736126
1757088827013454300,1.485454345703125,-0.21542612696588037,-0.16808686816394328,-0.48661388864219185
1757088827023500500,1.49550048828125,-0.2794827118128538,-0.19267945762872696,-0.5113374110102653
1757088827033547500,1.505547607421875,-0.21153204213678836,-0.2309120115198195,-0.45609716982543463
1757088827043593500,1.515593505859375,-0.16124270135760307,-0.2990142184957862,-0.33647944127619267
1757088827053639400,1.525639404296875,-0.09266191708445548,-0.16883578683510422,-0.1376864692032337
1757088827063686400,1.535686279296875,-0.014422785367071627,-0.193844994276762,-0.131992056953907
1757088827073732400,1.545732421875,-0.02196077965646982,-0.18007395081669092,-0.17890110764503478
1757088827083778300,1.5557783203125,-0.09973960038572549,0.04471563230007887,-0.08043371915221213
1757088827093825300,1.5658251953125,-0.26308307341486215,0.1862327657073736,-0.1094575690627098
1757088827103871200,1.575871337890625,-0.3260638457238674,0.4126536032877862,-0.08541618373990058
1757088827113918200,1.585918212890625,-0.2712736863940954,0.5262228454530239,-0.03718260644674301
1757088827123964400,1.59596435546875,-0.15770283679366112,0.4286895229399204,-0.1054015716701746
1757088827134010400,1.60601025390625,0.020704934376478194,0.2102200827553868,-0.17375263884067535
1757088827144057300,1.616057373046875,0.14165829544365405,0.058695788466185325,-0.2237035414457321
1757088827154103300,1.626103271484375,0.07825111441612244,-0.05394318711161613,-0.2944827125459909
1757088827164149200,1.636149169921875,-0.006548398730158805,-0.17958733634352683,-0.21774141817092893
1757088827174196500,1.646196533203125,-0.09802198281288146,-0.234316559266299,-0.11160451796352863
1757088827184242400,1.656242431640625,-0.24251228681206702,-0.21981617861837147,-0.049697220104932785
1757088827194289400,1.666289306640625,-0.2979416208282113,-0.21858561391010878,-0.030370003822445868
1757088827204335400,1.67633544921875,-0.32719664914608,-0.17354206482991574,0.005724807387590408
1757088827214381600,1.686381591796875,-0.333311917155981,-0.09515124968215823,-0.0017214169651269913
1757088827224428300,1.69642822265625,-0.2188496716737747,-0.054148646555840965,0.07812894934117794
1757088827234474500,1.706474609375,-0.15704904906004666,-0.04909413964524865,0.05706979469954967
1757088827244520400,1.7165205078125,-0.18668050947487352,0.004317717068642378,-0.09586042086482048
1757088827254567400,1.7265673828125,-0.23706395827829838,0.039248891326785086,-0.22268471979200838
1757088827264613400,1.73661328125,-0.2926286091119051,-0.009714169284701347,-0.32177053244411946
1757088827274660400,1.746660400390625,-0.3534229772925377,-0.01867167498320341,-0.418210799023509
1757088827284706300,1.756706298828125,-0.34581659394204617,-0.030494068593531844,-0.4377607181459665
1757088827294752300,1.766752197265625,-0.2990820230349898,-0.004841740942746401,-0.35453999862372876
1757088827304799200,1.77679931640625,-0.22425328428298233,-0.016525456734746695,-0.2729179464697838
1757088827314845400,1.786845458984375,-0.19642215128839013,-0.016537293303012846,-0.23220248972177504
1757088827324891400,1.796891357421875,-0.14990706835091114,-0.00693491382971406,-0.1516910291582346
1757088827334938400,1.8069384765625,-0.053991410167515276,-0.08204115434885025,-0.09838906255960464
1757088827344984300,1.816984375,-0.05513122785240412,-0.2037707604855299,-0.23425416155457496
1757088827355031600,1.827031494140625,0.0811868756070733,-0.1836881957910955,-0.1898719989925623
1757088827365077500,1.837077392578125,0.2151204220175743,-0.06453852314502001,-0.07351999424099921
1757088827375123500,1.84712353515625,0.17158640071749687,0.07031330715417862,-0.007445055308938026
1757088827385170400,1.85717041015625,0.053985272687673565,0.08212284128293394,0.07460077521502971
1757088827395216400,1.86721630859375,0.03312544001042843,0.14351400631293654,0.25685586946308614
1757088827405263400,1.877263427734375,0.07655833902359008,0.14428922846913336,0.3012836247324943
1757088827415309300,1.887309326171875,0.10344108525216579,0.11650295752957462,0.1573456939190626
1757088827425355500,1.89735546875,0.07508651290535927,0.05214139838665723,0.01704874995648861
1757088827435402500,1.907402587890625,0.02659194658845663,-0.02030687496960163,-0.10563011972904204
1757088827445448400,1.917448486328125,0.025908055977523325,-0.09986015802547335,-0.12782090874910354
1757088827455495400,1.927495361328125,0.029252982491254804,-0.13689020425900816,-0.062081485381722444
1757088827465541400,1.937541259765625,0.02403963175714016,-0.12452245172560214,-0.039808278775215145
1757088827475587300,1.94758740234375,0.005387538257241249,-0.05327697828784585,-0.028395488879084586
1757088827485634300,1.95763427734375,-0.0412087932229042,-0.0482411760777235,-0.08146247767806053
1757088827495680300,1.96768017578125,-0.04975216516256332,-0.04533127998039126,-0.06254618028402328
1757088827505726500,1.9777265625,-0.09105945032387971,-0.052561085103452206,-0.019467501536011695
1757088827515773200,1.987773193359375,-0.1355605630904436,-0.07557064316049218,-0.036274259430170055
1757088827525819400,1.9978193359375,-0.10065934557914734,-0.11004793617129326,-0.049426586470007895
1757088827535866600,2.00786669921875,-0.07106091065108776,-0.08831833492219447,-0.10785597908496856
1757088827545912600,2.01791259765625,-0.02386836684346199,-0.07823620910793543,-0.183475575953722
1757088827555958300,2.027958251953125,0.0027066286101937293,-0.07947437260076404,-0.2165752970010042
1757088827566005500,2.038005615234375,-0.03615560148656368,-0.08642842952236533,-0.25559973192214963
1757088827576051500,2.048051513671875,-0.07629822678267956,-0.12062310619950294,-0.2505909638494253
1757088827586098400,2.058098388671875,-0.1254822366684675,-0.12935703227519987,-0.1954658734768629
1757088827596144400,2.068144287109375,-0.15340952351391315,-0.16919439101442693,-0.15973171227276325
1757088827606191400,2.07819140625,-0.18788579361140728,-0.16807093994244932,-0.15902034913301466
1757088827616237300,2.0882373046875,-0.16974106511175632,-0.13084931665956973,-0.12192892810106276
1757088827626283500,2.098283447265625,-0.19278584061264992,-0.11057444426342844,-0.1229518414080143
1757088827636330200,2.108330322265625,-0.25304654030799867,-0.09166443047970532,-0.17194295907020568
1757088827646376400,2.11837646484375,-0.28026538662314415,-0.09937339742183685,-0.137421096265316
1757088827656423400,2.12842333984375,-0.30844372562021016,-0.0861832225896418,-0.11812602868676185
1757088827666469400,2.138469482421875,-0.3233499105900526,-0.04642433591410518,-0.06641220806241036
1757088827676515300,2.148515380859375,-0.2941659016817808,-0.006872662248462438,-0.02530219903886318
1757088827686562300,2.158562255859375,-0.27085283063352106,0.05592208596915006,-0.03186871794760227
1757088827696608300,2.168608154296875,-0.27281799322664735,0.07745587238520384,-0.10444003316164016
1757088827706655500,2.178655517578125,-0.25385055016726255,0.07766951513588428,-0.16702479189038275
1757088827716701200,2.188701171875,-0.16349135706722737,0.11898819847404957,-0.16588438968360422
1757088827726747400,2.198747314453125,-0.06361936247348784,0.11713511795327067,-0.1364800160229206
1757088827736794400,2.20879443359375,-0.042677988992631435,0.09210662128925323,-0.13587562038898468
1757088827746840600,2.218840576171875,-0.014414894321560859,0.09816109902262687,-0.1156704522281885
1757088827756887600,2.228887451171875,0.04911211369335651,0.07192673370018601,-0.05065642052590847
1757088827766933500,2.23893359375,0.12491992661058902,0.056097150275111196,-0.021885668593645095
1757088827776979500,2.2489794921875,0.13364917651116848,0.012875263664126396,-0.031899697607755656
1757088827787026400,2.2590263671875,0.07735738044679165,-0.002551438048481941,-0.02164484557509422
1757088827797072400,2.269072265625,0.029951486149430273,-0.006745674867928027,0.014427169281244278
1757088827807119400,2.279119384765625,0.021837737798690793,-0.039221418797969816,0.0473608861118555
1757088827817165300,2.289165283203125,0.04009878615438938,-0.062413201554119585,0.06759294227957725
1757088827827211300,2.299211181640625,0.02796002007126808,-0.06920315395519137,0.059191024637222284
1757088827837258200,2.30925830078125,0.0014700725525617598,-0.05613455967605114,-0.020173603978753087
1757088827847304400,2.319304443359375,-0.02288315519839525,-0.03602598375752568,-0.15682430039346218
1757088827857351400,2.329351318359375,-0.023536358410120008,0.008722235637903213,-0.3158908267557621
1757088827867397400,2.3393974609375,-0.08421148412525653,0.01910232148543,-0.41686522963345046
1757088827877443300,2.349443359375,-0.15721972945183516,0.05107289237231016,-0.41691023781895636
1757088827887490300,2.359490234375,-0.1815185966670513,0.06176949682310223,-0.3597966039776802
1757088827897536300,2.369536376953125,-0.19702771596610544,0.04566518810987472,-0.31457156085073945
1757088827907583500,2.37958349609375,-0.20578911457061766,-0.03159749979078769,-0.22281389912962912
1757088827917629400,2.38962939453125,-0.1599210973650217,-0.10225202159807086,-0.11147241601645946
1757088827927675400,2.39967529296875,-0.15560498773157597,-0.14361951251402497,-0.10402034644484519
1757088827937722400,2.409722412109375,-0.17245178537517786,-0.1940934160798788,-0.1230295828193426
1757088827947768600,2.4197685546875,-0.18002952715307474,-0.19657091210931538,-0.05272738158106804
1757088827957815300,2.429815185546875,-0.21898235814273356,-0.203566323954612,0.023352234014868734
1757088827967861500,2.439861572265625,-0.262976982691884,-0.14827011479884386,0.09706862761080265
1757088827977907500,2.449907470703125,-0.2574778007537126,-0.10787424539402127,0.16915011348128317
1757088827987954400,2.459954345703125,-0.19386077636778354,-0.04309139209911227,0.18867898981571196
1757088827998000400,2.47000048828125,-0.13615034567713738,-0.029125556719303128,0.1257224751651287
1757088828008047400,2.48004736328125,-0.07003332116901874,-0.039084348414838314,0.006357844594120979
1757088828018093300,2.49009326171875,-0.06892039149105549,-0.05815700541436672,-0.11733633961379528
1757088828028139300,2.50013916015625,-0.04310381318926811,-0.0809276401489973,-0.1830219869673252
1757088828038186200,2.510186279296875,-0.015576339316368102,-0.055458998502045866,-0.22492110054194925
1757088828048232200,2.520232177734375,-0.033141806623339654,-0.07084566046521067,-0.2333721180230379
1757088828058279200,2.530279052734375,-0.05703092399388551,-0.07351838680580258,-0.19694529837965963
1757088828068325400,2.540325439453125,-0.012176760005950927,-0.022755437165498733,-0.11837035883665084
1757088828078371300,2.550371337890625,0.04816051205694675,0.021265198607742786,-0.011598667857050896
1757088828088418600,2.56041845703125,0.10445698429644107,0.03272416573315859,0.05880816279947757
1757088828098464500,2.570464599609375,0.12249649885594845,0.0336200916595757,0.06483867513537407
1757088828108511500,2.580511474609375,0.08487900812327862,0.001202361527085304,-0.023048867154121397
1757088828118557400,2.590557373046875,0.002315291205048561,-0.004130085542052984,-0.16686872454583643
1757088828128603400,2.600603271484375,-0.08560673787593841,-0.020086071825772524,-0.21917992654144763
1757088828138650400,2.610650390625,-0.1127688855677843,-0.029775983452051877,-0.14416355626285074
1757088828148696300,2.6206962890625,-0.07168634907305241,0.002530249129980802,-0.0592646743953228
1757088828158743300,2.630743408203125,0.007991583275794982,0.021480156532675026,0.000481061515212059
1757088828168789500,2.64078955078125,0.03837503110170364,-0.008957944089919328,0.0563759672164917
1757088828178835500,2.65083544921875,-0.019596096351742743,-0.011306699173152445,0.018017887249588964
1757088828188882400,2.66088232421875,-0.03822948515117168,-0.003939677536487579,-0.02935118216872215
1757088828198928400,2.670928466796875,-0.0599094020396471,-0.010485738179087638,-0.04922901807129383
1757088828208975400,2.680975341796875,-0.0651642538279295,-0.0012878478534519673,-0.08360065875053405
1757088828219021300,2.691021240234375,-0.1366495273709297,-0.006760872437059879,-0.16932839265763758
1757088828229067300,2.7010673828125,-0.15283961467146873,-0.02327463873401284,-0.23709844506978986
1757088828239114200,2.7111142578125,-0.14478139590024947,-0.013413169933110475,-0.2075473564147949
1757088828249160200,2.72116015625,-0.14217209018468857,-0.024911007764190436,-0.17720716320872307
1757088828259206400,2.731206298828125,-0.16750468436181545,-0.003276537452638149,-0.1572363883256912
1757088828269253400,2.74125341796875,-0.14955927782654763,-0.03376914474144578,-0.13955401664078235
1757088828279299600,2.751299560546875,-0.13304419635534287,-0.05212371659949422,-0.07891103962957859
1757088828289346600,2.7613466796875,-0.15611352177560328,-0.03145750679820776,-0.08724164560139179
1757088828299392500,2.771392578125,-0.21790976047515867,-0.08437924190759659,-0.13549801924824714
1757088828309438500,2.7814384765625,-0.184493813085556,-0.10877382458224892,-0.1392646783053875
1757088828319485400,2.7914853515625,-0.10521803179681301,-0.07549173270538449,-0.11696575273573398
1757088828329531400,2.801531494140625,-0.07685936779677867,-0.08000058843195437,-0.10999416015744208
1757088828339578400,2.811578369140625,-0.07637947532534599,-0.059418111391365526,-0.14246493565142154
1757088828349624300,2.821624267578125,-0.1450765794545412,-0.010227379503846168,-0.20381050797402858
1757088828359670500,2.83167041015625,-0.14441139354407787,-0.010082564205676317,-0.23458558546602726
1757088828369717200,2.84171728515625,-0.10849661507606506,-0.017054887436330317,-0.20250994676947592
1757088828379763500,2.851763427734375,-0.09060264646708965,-0.04236526978164911,-0.15251520502269267
1757088828389810400,2.861810546875,-0.0692985771536827,-0.06994008992761373,-0.11084463950693607
1757088828399856400,2.8718564453125,-0.044216742867231366,-0.09681392219737171,-0.05721417160630226
1757088828409902300,2.88190234375,-0.03957797715067863,-0.06631079351454973,0.010810732349753379
1757088828419949300,2.89194921875,-0.05324117632210254,-0.032604338745772836,0.013470891469717024
1757088828429995300,2.901995361328125,-0.09571838204562663,-0.014963175854086875,-0.030628947019577024
1757088828440042500,2.91204248046875,-0.04501052359342575,-0.03897431216910481,-0.08732464770972728
1757088828450088400,2.92208837890625,-0.004352349990606308,-0.03593845160454511,-0.12622574851214885
1757088828460134100,2.932134033203125,0.020047931772470474,-0.028842940385639667,-0.13601239851117133
1757088828470181400,2.942181396484375,0.0013894085317850112,-0.010931582250446081,-0.1287590663820505
1757088828480227600,2.9522275390625,-0.015238485664129256,0.0075832947358489035,-0.08481003454029559
1757088828490273500,2.9622734375,-0.04012275155186653,0.013341273740679024,-0.04498012845516205
1757088828500320500,2.972320556640625,-0.03349836497604847,0.00550751137509942,-0.021987959924340248
1757088828510366500,2.982366455078125,-0.051610360249876974,-0.007330196757614612,-0.011129881301522255
1757088828520413400,2.992413330078125,-0.07136018585860729,-0.03575461947023868,-0.016758242577314376
1757088828530459400,3.00245947265625,-0.07085749703347682,-0.04345145758315921,-0.03911854294538498
1757088828540505300,3.01250537109375,-0.08056523657739162,-0.03629121056497097,-0.10368190827071666
1757088828550552300,3.02255224609375,-0.11277122365534305,-0.039123657511919735,-0.17437106299996374
1757088828560598300,3.032598388671875,-0.09859773687422276,-0.0020836744062602518,-0.19962591576576233
1757088828570645200,3.042645263671875,-0.07126783140003681,-0.008235767295211553,-0.17959902678132056
1757088828580691000,3.05269091796875,-0.03736673084199428,-0.013114040856063365,-0.1335562375307083
1757088828590737000,3.06273681640625,-0.03236789964139462,-0.02717266908586025,-0.0957896937161684
1757088828600784100,3.0727841796875,-0.05891045413017273,-0.042669221164286134,-0.07366086401641368
1757088828610830000,3.082830078125,-0.10714110881388186,-0.060036535550653934,-0.07891103962957859
1757088828620877000,3.092876953125,-0.10235212097167969,-0.02972556843906641,-0.08834697649478912
1757088828630923000,3.102923095703125,-0.11048749663233756,-0.03500263205915689,-0.09852174902856349
1757088828640969000,3.112968994140625,-0.0999590883553028,-0.044659372068196534,-0.09466039742529392
1757088828651016000,3.123015869140625,-0.08090192118585109,-0.03662716452106833,-0.10006196420788764
1757088828661062000,3.133061767578125,-0.07082125667631625,-0.015651450379192827,-0.08290916935503483
1757088828671108900,3.14310888671875,-0.07977788559198379,-0.006944850701838731,-0.049996495312452316
1757088828681155000,3.153155029296875,-0.10109422986507414,-0.0231217862598598,-0.06741524762511253
1757088828691201000,3.163200927734375,-0.10077098926007746,-0.03777005094587803,-0.08367840016186237
1757088828701248000,3.173248046875,-0.08224281440079212,-0.04309811410084367,-0.10106675733625889
1757088828711294000,3.1832939453125,-0.08841945720911025,-0.06941445861831307,-0.14103051893413066
1757088828721341000,3.1933408203125,-0.10075812977850436,-0.03921835005804896,-0.18616203855872154
1757088828731387000,3.203386962890625,-0.10714286237955092,-0.03643894847258925,-0.2019090582668781
1757088828741432800,3.213432861328125,-0.14421674775481222,-0.035548575504124165,-0.18713468298316
1757088828751479800,3.223479736328125,-0.11846329781711101,-0.017637801890820263,-0.15255436798930166
1757088828761525800,3.23352587890625,-0.07452069571614266,-0.008792086003720759,-0.08429623979926108
1757088828771573000,3.243572998046875,-0.041761166408658026,-0.009271540083736181,-0.024587913289666176
1757088828781619000,3.253618896484375,-0.03415302949249744,-0.007192249591648579,-0.020591537129878996
1757088828791665200,3.2636650390625,-0.045130935102701185,-0.022338088536262513,-0.039139585733413695
1757088828801712000,3.273712158203125,-0.09528232871592045,-0.03470511041730642,-0.04706219542622566
1757088828811758000,3.283758056640625,-0.0939770913362503,-0.056609191450476645,-0.08956687367856501
1757088828821804000,3.293803955078125,-0.06403203492760658,-0.06271802971959113,-0.07865384999811649
1757088828831851000,3.30385107421875,-0.03553483923971653,-0.03656900459304452,-0.05245265629291534
1757088828841897000,3.31389697265625,-0.061056818509101864,-0.03794789173081517,-0.09258359115123749
1757088828851944000,3.32394384765625,-0.07870061174929141,-0.06106529407650232,-0.1347761347144842
1757088828861990000,3.333989990234375,-0.05230360321104526,-0.06004004268199205,-0.09564473228752612
1757088828872036000,3.3440361328125,-0.037002573704719544,-0.041271044804155825,-0.04754442598521709
1757088828882082800,3.354082763671875,-0.036684009274840355,-0.04479132788479328,-0.033467969837784765
1757088828892129000,3.36412890625,-0.04336392543017864,-0.022417437382787463,-0.04062836298644543
1757088828902176000,3.374176025390625,-0.04798340192437172,-0.0058140931062400335,-0.0758171652674675
1757088828912222000,3.384221923828125,-0.05284954665601253,0.0031663550764322278,-0.13957915108203886
1757088828922268000,3.394267822265625,-0.055684477820992465,0.0002050210528075695,-0.16254676969349383
1757088828932315000,3.40431494140625,-0.04811199674010277,-0.022235504944622515,-0.15111469057500362
1757088828942360800,3.41436083984375,-0.047966450789570805,-0.014300035770237444,-0.12603402533233166
1757088828952408000,3.424407958984375,-0.0867617531299591,-0.005100245748460293,-0.10760697275996207
1757088828962454000,3.4344541015625,-0.10882511637806892,-0.028124709113687276,-0.09740881935060024
1757088828972500000,3.4445,-0.07095686575472354,-0.02497983521670103,-0.030130934369564055
1757088828982547000,3.454546875,-0.035033903980255125,-0.025011253268271683,0.006639584144949913
1757088828992593200,3.46459326171875,-0.04891863694787025,-0.022602292430400846,-0.003582534661889076
1757088829002639000,3.47463916015625,-0.07597907783091068,-0.038988340694457294,-0.03118424281477928
1757088829012686000,3.48468603515625,-0.1036672952234745,-0.00966039327085018,-0.0814987180352211
1757088829022732000,3.49473193359375,-0.12305413273870944,-0.016961802325397728,-0.13193243572115898
1757088829032779000,3.504779052734375,-0.12694061878323554,-0.0219322842143476,-0.15890870545208452
1757088829042825000,3.514824951171875,-0.09543313536345958,-0.02047989344894886,-0.14522738610208033
1757088829052871000,3.524870849609375,-0.03602466858327388,-0.024787673645466565,-0.1130868654757738
1757088829062918000,3.53491796875,-0.034682606324553486,-0.04555529799461364,-0.08778115930557251
1757088829072963800,3.5449638671875,-0.016316928550601004,-0.04772971942424774,-0.06681260555684566
1757088829083010800,3.5550107421875,-0.014555764096975326,-0.02761559054777026,-0.05106617037057876
1757088829093057000,3.56505712890625,-0.028008535388112068,-0.01711801580041647,-0.03810322842299938
1757088829103103000,3.57510302734375,-0.053443128634989255,-0.04053118622228503,-0.06161386786997318
1757088829113150000,3.58514990234375,-0.07463526200652122,-0.06042202773690224,-0.11065642345845698
1757088829123196000,3.59519580078125,-0.08002747643887996,-0.05782908863425255,-0.14323416645824907
1757088829133243100,3.6052431640625,-0.0860407453790307,-0.06930676046013831,-0.15582359891831873
1757088829143288800,3.615288818359375,-0.0749281074732542,-0.07602598571255803,-0.12310089448988437
1757088829153334800,3.625334716796875,-0.05870587146878242,-0.058493982283771034,-0.11278525218069553
1757088829163382000,3.635382080078125,-0.05785276177078485,-0.03422185694500804,-0.07734101383388042
1757088829173428000,3.645427978515625,-0.06056406655609607,-0.004820990415662527,-0.06053016428649425
1757088829183474200,3.65547412109375,-0.07669570166766643,-0.013313216689974068,-0.09461188210844992
1757088829193521000,3.66552099609375,-0.11413199061453341,-0.028385552006959913,-0.13354045543968676
1757088829203567000,3.675567138671875,-0.11605623667538166,-0.020398937167227266,-0.13744915331602095
1757088829213614000,3.685614013671875,-0.07663315782546996,-0.032504823894053694,-0.12113573189675807
1757088829223660000,3.695659912109375,-0.040975568988919256,-0.027996114297956228,-0.09004851971566677
1757088829233706000,3.7057060546875,-0.022789339435100555,-0.027403701362758874,-0.05349252073466777
1757088829243753000,3.7157529296875,-0.060257777085900306,-0.02010360748246312,-0.06332417891919613
1757088829253799000,3.725798828125,-0.11064824015200138,-0.0076331252269446846,-0.08753858272135258
1757088829263846000,3.735845947265625,-0.12994973747134209,-0.02939195257052779,-0.07083119354844093
1757088829273891800,3.745891845703125,-0.1014212698623538,-0.020262012914568184,-0.06198796187937259
1757088829283938000,3.75593798828125,-0.07155015547275542,-0.027768589152395724,-0.0687017803043127
1757088829293984800,3.76598486328125,-0.04860065703988075,-0.026327012041956185,-0.09560323123335837
1757088829304031000,3.776031005859375,-0.03285422185361385,-0.029852555819600817,-0.1075187099546194
1757088829314078000,3.786077880859375,-0.014874328526854514,-0.0008510638713836669,-0.0757996296107769
1757088829324124000,3.7961240234375,-0.005327624763548374,-0.0017889292433857916,-0.06717325556278228
1757088829334169900,3.806169921875,0.0034913492470979688,-0.021565496728569267,-0.05141396089494228
1757088829344217000,3.816217041015625,-0.030556758566200732,-0.012659428956359624,-0.043995793592929835
1757088829354263000,3.826262939453125,-0.05659370162039995,-0.03540741346776485,-0.0756640205323696
1757088829364309000,3.83630908203125,-0.06282733531296253,-0.048422085602581495,-0.09317395825982093
1757088829374356000,3.84635595703125,-0.10275719464123248,-0.07963131672814489,-0.0978460417240858
1757088829384402000,3.85640185546875,-0.08362111701667309,-0.0541360793352127,-0.09087211105823516
1757088829394449000,3.866448974609375,-0.06115384914278984,-0.03366071593090891,-0.06315232948362827
1757088829404495000,3.8764951171875,-0.03726005559712648,-0.00809518978074193,-0.04096270950734615
1757088829414541000,3.886541015625,-0.00793985308855772,0.015325579425692558,-0.045479310148954386
1757088829424588000,3.896588134765625,-0.011196516796946525,0.006497106934338808,-0.07735036618411541
1757088829434634000,3.906634033203125,-0.026882161706686017,-0.008306932835280894,-0.12513152353465556
1757088829444681000,3.916680908203125,-0.09588701661080122,-0.0152333710975945,-0.19762159020602701
1757088829454727000,3.926726806640625,-0.08451748133450745,-0.021310937445610762,-0.16176292583942412
1757088829464772900,3.93677294921875,-0.0548421817779541,-0.01449044377580285,-0.06615794104039668
1757088829474819800,3.94681982421875,-0.029544951175153253,-0.02196794004961848,-0.008953121784329414
1757088829484865800,3.95686572265625,-0.04057926314771175,-0.01272913319170475,0.0070709612995386115
1757088829494912000,3.966912109375,-0.021473580661416053,-0.007832739452272653,-0.016548399218916893
1757088829504959000,3.976958984375,-0.06381225469708442,-0.04372969000265002,-0.0391916081815958
1757088829515005000,3.9870048828125,-0.07227554713785649,-0.04939604520127177,-0.08335282146930693
1757088829525052200,3.99705224609375,-0.0461956417247653,-0.044566286957263945,-0.09344634546041489
1757088829535098000,4.00709814453125,-0.012025953358411789,-0.0421923974327743,-0.057494742113351816
1757088829545144000,4.01714404296875,-0.014069441884756088,-0.027127514769881962,-0.04279226302206516
1757088829555191000,4.02719091796875,-0.036726094850897784,-0.0061129299223423,-0.0635211627960205
1757088829565237000,4.037237060546875,-0.05174012410938739,-0.0067689096130430695,-0.09253682940006255
1757088829575284500,4.047284423828125,-0.04101356291174888,-0.01671352665275335,-0.14093991804122924
1757088829585330400,4.057330322265625,-0.03347410731762648,-0.02669321500584483,-0.1869774465948343
1757088829595376400,4.06737646484375,-0.037679157792031764,-0.011132073258608578,-0.20360767887830733
1757088829605423400,4.07742333984375,-0.035053485463559624,-0.01515183029398322,-0.1648573847234249
1757088829615469600,4.087469482421875,-0.04898001174628734,-0.005270633879303932,-0.09617138651013374
1757088829625515500,4.097515625,-0.051507484397292136,-0.019503011240810154,-0.058062897390127176
1757088829635562500,4.1075625,-0.10061959809064865,-0.037585488159209486,-0.03942600145936012
1757088829645608400,4.1176083984375,-0.10308686498701572,-0.04178381663188338,-0.023420623075962065
1757088829655655400,4.127655517578125,-0.07077332588136195,-0.050503860312700266,-0.013994038560986518
1757088829665701400,4.137701416015625,-0.05459639032334089,-0.02777209628373384,-0.04730418748855591
1757088829675747300,4.147747314453125,-0.05321165796667337,-0.02900660651475191,-0.07990472684204578
1757088829685794300,4.157794189453125,-0.09716068980842828,-0.02795987394079566,-0.10424889450371265
1757088829695840300,4.16784033203125,-0.09403554352521896,-0.031651860326528544,-0.06988309904336928
1757088829705887500,4.177887451171875,-0.0518967759758234,-0.03308525413051248,-0.07021276938915252
1757088829715933400,4.187933349609375,-0.060392801642417906,-0.027997867863625285,-0.08798106579184532
1757088829725979600,4.197979736328125,-0.07791530659049749,-0.0323543095074594,-0.1009662195712328
1757088829736026600,4.208026611328125,-0.06954232278168201,-0.014674422040581702,-0.0983557448118925
1757088829746072600,4.218072509765625,-0.044271687924861906,0.013983371036499739,-0.09366846377849579
1757088829756118500,4.228118408203125,-0.02506955932676792,0.022295126177370547,-0.09671557638943194
1757088829766165500,4.23816552734375,-0.044160044243931766,0.020258505783230064,-0.10017828406393528
1757088829776211500,4.24821142578125,-0.057016603207588196,-0.0037590602725744247,-0.09477554823756218
1757088829786258400,4.258258544921875,-0.012378127796947955,-0.024616993253678082,-0.0602402414292097
1757088829796304400,4.268304443359375,-0.02747720499038696,-0.036272505864500995,-0.05014730195999145
1757088829806350600,4.2783505859375,-0.04726736260950565,-0.06152911219596863,-0.0625496874153614
1757088829816397300,4.288397216796875,-0.052879065011441705,-0.07266074706315993,-0.0900689779818058
1757088829826443500,4.298443603515625,-0.026709143227338788,-0.047120209223777056,-0.09680442371666431
1757088829836490500,4.308490478515625,-0.002633271113038063,-0.014103051893413066,-0.08066460529863834
1757088829846536400,4.318536376953125,-0.0009603694647550582,-0.006599690525978803,-0.06923077261447906
1757088829856582400,4.32858251953125,-0.029116204369068144,0.01822597704231739,-0.06619768852889538
1757088829866629400,4.33862939453125,-0.022914719380438327,0.016553952176868916,-0.07610650360286235
1757088829876675300,4.34867529296875,-0.029442952105402945,0.0253023451693356,-0.08811609034836292
1757088829886721300,4.35872119140625,-0.043051790741086005,-0.0028597733452916142,-0.07049158633053303
1757088829896768500,4.3687685546875,-0.04852466919422149,-0.0248776900164783,-0.10501695626676082
1757088829906814500,4.378814453125,-0.07604220619499683,-0.060319298014789816,-0.11233166319429874
1757088829916861400,4.388861328125,-0.045321196977794166,-0.06188333246111869,-0.05316168134510517
1757088829926907600,4.39890771484375,-0.04400865307450294,-0.021379326506704092,-0.02571311792731285
1757088829936953600,4.40895361328125,-0.025889059016108513,-0.03383402667120099,-0.009821721312403678
1757088829947000600,4.41900048828125,-0.013466215294599532,-0.027551147009432314,0.028325346252322196
1757088829957046500,4.429046630859375,-0.0667500617146492,0.009270371039956808,0.022179683104157445
1757088829967093500,4.439093505859375,-0.1298702424943447,0.0027329320952296254,0.014165887996554374
1757088829977139500,4.449139404296875,-0.13260171328485013,-0.025813801822811365,0.06146306122243404
1757088829987185400,4.459185302734375,-0.051699207577109337,0.005926321309059858,0.09876607917845248
1757088829997232400,4.469232421875,0.06379179643094539,-0.007412322083115578,0.10640461123287677
1757088830007278300,4.4792783203125,0.19977672241330147,-0.024666093092411755,0.06931143663525581
1757088830017324500,4.489324462890625,0.26082243500649926,-0.03632233635559678,-0.03353285176753998
1757088830027371500,4.49937158203125,0.2294242571800947,-0.04397738115340471,-0.14241291320323943
1757088830037417500,4.50941748046875,0.1508952026054263,-0.017895429913699627,-0.19961247176229951
1757088830047464400,4.51946435546875,0.07380991709828376,0.01257569619566202,-0.200741768053174
1757088830057510400,4.529510498046875,0.0005821838021278381,0.07448883927315474,-0.12533727523982524
1757088830067556400,4.539556396484375,-0.032227614387869835,0.10564239468872547,-0.039780806246399875
1757088830077603600,4.549603515625,-0.029254736056923865,0.11541355485767125,-0.0019581483304500578
1757088830087649500,4.5596494140625,-0.029987141984701156,0.14309709607511759,0.077974051040411
1757088830097696500,4.569696533203125,-0.06974193700700998,0.17458382896780966,0.10471943462491035
1757088830107742500,4.579742431640625,-0.08899345770478248,0.22748788229003547,-0.010322072049975395
1757088830117788700,4.58978857421875,-0.119108609983325,0.20158815574944017,-0.20334113689661024
1757088830127835400,4.59983544921875,-0.11097148075699806,0.14111337491199374,-0.35928456280231474
1757088830137881600,4.609881591796875,-0.09621405660808086,0.10808511166572571,-0.4146703499376774
1757088830147927600,4.619927490234375,-0.10576835915595292,0.05802826446816325,-0.4702379233807325
1757088830157974500,4.629974609375,-0.14857698879092932,0.03223667447715998,-0.44593291868567464
1757088830168020500,4.6400205078125,-0.15706921506524085,0.007876286333054304,-0.4114999032080173
1757088830178067500,4.6500673828125,-0.1304594405591488,0.01181830195710063,-0.3104255470871925
1757088830188113400,4.660113525390625,-0.06793313401937484,0.042163317468762396,-0.19417232653498648
1757088830198159400,4.670159423828125,-0.05433043286353349,0.031966186972707505,-0.17069675840139387
1757088830208206300,4.680206298828125,-0.0688064097225666,-0.012436579985916614,-0.1604699634194374
1757088830218252500,4.69025244140625,-0.11928513559401034,-0.07882175391092897,-0.190411512696743
1757088830228299300,4.70029931640625,-0.10339666158854961,-0.11509002199172973,-0.26582886499166486
1757088830238345500,4.710345458984375,-0.08759294325709342,-0.1549585065215826,-0.31210487847626206
1757088830248391400,4.720391357421875,-0.0461518025830388,-0.1359067461796105,-0.3489624907523393
1757088830258438700,4.730438720703125,-0.006272504398226738,-0.10915003748349844,-0.28058453557491303
1757088830268484400,4.740484375,0.041167292168736457,-0.055219417592510575,-0.183710553753376
1757088830278530300,4.7505302734375,0.12992577207386494,0.04842230479829013,-0.1752268030464649
1757088830288577500,4.76057763671875,0.1348152976810932,0.08859152584038674,-0.18007424307763575
1757088830298623500,4.77062353515625,0.12376958753168582,0.12864610752686859,-0.26686872943341733
1757088830308670500,4.78067041015625,0.09637655369341373,0.1311900198560208,-0.35153204897940155
1757088830318716400,4.79071630859375,0.05588087717592716,0.11939714460112154,-0.3500713287770748
1757088830328762600,4.8007626953125,0.0547895748078823,0.12565613193064928,-0.2711836700230837
1757088830338809600,4.8108095703125,0.035194062978029246,0.11179631420858203,-0.22222119393348694
1757088830348855600,4.82085546875,0.0747276164650917,0.09305193931534886,-0.303415960586071
1757088830358901500,4.830901611328125,0.1609136155337095,0.0910688026741147,-0.25700726063251494
1757088830368948500,4.840948486328125,0.18930413597673176,0.10594926868081092,-0.2565554252117872
1757088830378994400,4.850994384765625,0.1423527074486017,0.13494703430198132,-0.2686515211969614
1757088830389041400,4.86104150390625,0.09039338763058186,0.1568832640390843,-0.20434359193742274
1757088830399087400,4.87108740234375,0.10190846885740756,0.14642828632444144,-0.14013386235535144
1757088830409133300,4.88113330078125,0.1277741469979286,0.142901427372545,-0.08230594276487826
1757088830419180300,4.89118017578125,0.13149404430389403,0.2078564954292029,-0.08145780150294303
1757088830429226500,4.9012265625,0.1997264535307884,0.1450482301428914,-0.06455109036564827
1757088830439273500,4.9112734375,0.13965046275258064,0.043165261052921414,0.014128478595614433
1757088830449319400,4.9213193359375,0.08510697166025638,0.0921056714411825,0.030071897658705708
1757088830459365400,4.931365478515625,0.0315928236156702,0.18669665689207612,-0.14987141251564026
1757088830469412600,4.94141259765625,-0.0057893970564007755,0.15551584814339875,-0.3450841880142689
1757088830479458600,4.95145849609375,0.03619885610640049,0.12979184349589049,-0.40901568517684933
1757088830489504500,4.96150439453125,0.1726706888228655,0.17781864617057144,-0.4345744893252849
1757088830499551500,4.971551513671875,0.25069734683334827,0.22702125115897506,-0.41671909916102884
1757088830509597400,4.981597412109375,0.28883623109161854,0.2306624206729233,-0.42568800303637977
1757088830519644400,4.99164453125,0.2419464696228504,0.2449147448439151,-0.3426590066939592
1757088830529690600,5.001690673828125,0.0791109461158514,0.24676713124494998,-0.13531740198433398
1757088830539736600,5.011736572265625,-0.06699468412548303,0.1504273293653503,-0.030707272952795028
1757088830549783600,5.021783447265625,-0.134276660759747,0.23245273815579712,-0.08028466607034206
1757088830559829500,5.03182958984375,-0.19063655362427234,0.1282669354835525,0.13690437891483306
1757088830569875500,5.04187548828125,-0.2092734495550394,0.08564191878717392,0.2951899840325117
1757088830579921700,5.051921630859375,-0.23318711684495208,0.1219379516577348,0.5061404268890619
1757088830589967600,5.061967529296875,-0.1636360262349248,0.06916587241841479,0.5863309849351644
1757088830600014600,5.0720146484375,-0.10487082579433918,-0.029831430833181363,0.5660708717167378
1757088830610060800,5.082060791015625,-0.06660539254695176,-0.13698458627788349,0.4619382970690727
1757088830620106800,5.092106689453125,-0.1184942774772644,-0.23294192817853762,0.2485398765385151
1757088830630153700,5.10215380859375,-0.26284458848387,-0.19914896417008712,0.21142098297774792
1757088830640199700,5.11219970703125,-0.439794562061131,-0.12748987756329588,0.26492811675965783
1757088830650246700,5.12224658203125,-0.43699499447047707,-0.08613967570886015,0.30709552588164807
1757088830660292600,5.132292724609375,-0.35654227835685015,-0.0697585410819389,0.30960546287596225
1757088830670338600,5.142338623046875,-0.3270926042497158,-0.08094291991651989,0.3120516869843006
1757088830680385800,5.1523857421875,-0.340289062692225,-0.07360204193468671,0.21589432899951932
1757088830690431700,5.162431640625,-0.26521862413883207,-0.08926623763102107,0.1726385401189327
1757088830700477700,5.172477783203125,-0.21692454883009193,-0.14816101926802658,0.1327852531582117
1757088830710524700,5.182524658203125,-0.1744435437142849,-0.19813286419641227,0.13121405831873417
1757088830720571000,5.19257080078125,-0.12955284710824488,-0.24982518537500872,0.14338029693067073
1757088830730617900,5.202617919921875,-0.09545300910770893,-0.27055013962620866,0.06614625060260296
1757088830740663800,5.212663818359375,-0.053146191515028474,-0.26764128470849247,0.00040390462577342983
1757088830750709800,5.222709716796875,-0.14144085330069064,-0.25274679017644375,0.03364858710169792
1757088830760756700,5.2327568359375,-0.22783786477148532,-0.3040369237623177,0.11646306391060351
1757088830770802700,5.242802734375,-0.18529811520576475,-0.3057406589402817,0.1047434000223875
1757088830780849700,5.252849609375,-0.07799801643788815,-0.2292899267433211,0.021001286974549293
1757088830790895600,5.2628955078125,-0.13733926320075987,-0.30126674666292963,0.027622166419029235
1757088830800941800,5.27294189453125,-0.1101569495037198,-0.3308123554252088,0.04571545699238777
1757088830810988500,5.282988525390625,-0.0014221417576074599,-0.2799182354195975,0.053901101535558694
1757088830821034800,5.29303466796875,0.030136195066571232,-0.20334159355433656,0.023253449815511702
1757088830831080700,5.303080810546875,-0.03772153562903404,-0.11090857158862054,-0.005498012894392014
1757088830841127700,5.313127685546875,-0.03739215754419565,-0.03891017915802076,-0.012225275322794913
1757088830851173600,5.323173583984375,-0.03915419878065586,0.058928811770770695,-0.03125613900721073
1757088830861220900,5.333220947265625,0.01669803682267666,0.14893002174599096,-0.05693652370870113
1757088830871266600,5.3432666015625,0.05983809036910533,0.16222234177840872,-0.0012380173623561857
1757088830881312500,5.3533125,0.09115326608717442,0.1270173007486388,0.07001344742476939
1757088830891359700,5.36335986328125,0.11990034488290548,0.09056282591335475,0.0982078607738018
1757088830901405700,5.37340576171875,0.14144202234447,0.03440981726516038,0.03458382212519646
1757088830911452000,5.383451904296875,0.10608312419354915,-0.007233878509979695,-0.039899464190006256
1757088830921499000,5.393498779296875,0.02122106720507145,-0.010647486345749347,-0.05592646988332271
1757088830931544800,5.403544921875,-0.05179390012323856,0.010927563662454485,0.039022681355476374
1757088830941591800,5.413591796875,-0.05239917254000902,-0.028106954261288047,0.16193126814365386
1757088830951637800,5.4236376953125,-0.03315349706113338,-0.056895826372131704,0.24621464846134183
1757088830961683700,5.43368359375,0.02768821739256382,-0.08456552172731607,0.2553016257584095
1757088830971730700,5.443730712890625,0.11535071875452994,-0.14374744974263012,0.2696703428506851
1757088830981776600,5.453776611328125,0.14035013545453548,-0.16384822594719006,0.2724462373048067
1757088830991822600,5.463822509765625,0.1448275731295347,-0.11258479770515113,0.25085633678734304
1757088831001869600,5.47386962890625,0.11680004078000783,-0.11408254371592774,0.1714841093868017
1757088831011915800,5.483915771484375,0.05114420404285192,-0.09790458524459972,0.032901568126678465
1757088831021962800,5.493962646484375,-0.0748848528534174,-0.09891768041043542,-0.05235679470300674
1757088831032008700,5.5040087890625,-0.18319091379344463,-0.09456427097390405,-0.05456394935846329
1757088831042054700,5.5140546875,-0.3017936200812459,-0.10935436441656202,-0.035866847673058505
1757088831052101600,5.5241015625,-0.30754385417103763,-0.10338856961363926,-0.014139584511518477
1757088831062147600,5.534147705078125,-0.23150573962926863,-0.11391544352071359,0.051907881891727445
1757088831072194800,5.54419482421875,-0.10654840361773966,-0.12842869278336874,0.04109422693252563
1757088831082240800,5.55424072265625,-0.011757657811045647,-0.12725257080923766,-0.01635024629831314
1757088831092286700,5.56428662109375,0.01645955189168453,-0.11273075464763678,-0.02351590014398098
1757088831102333700,5.574333740234375,0.023050328458845613,-0.09011637905379757,-0.06439326945543289
1757088831112380000,5.5843798828125,-0.01937397803366184,-0.04079850908869412,-0.0855985545694828
1757088831122425900,5.59442578125,-0.002952420064806938,-0.004179153414745815,-0.1009831707060337
1757088831132472800,5.604472900390625,0.03777238903343677,0.01648253775833873,-0.02669160757064819
1757088831142518800,5.614518798828125,0.073699442461133,0.04016979186425451,0.07719546788334845
1757088831152565800,5.624565673828125,0.062276715692877765,0.07426880331430584,0.1555991425126791
1757088831162611700,5.63461181640625,-0.035032150414586065,0.0857605767307803,0.20544073952436445
1757088831172657700,5.64465771484375,-0.10787351474165915,0.05065309149108361,0.21861177126467227
1757088831182704600,5.65470458984375,-0.017435703447461127,0.022151909181242806,0.19263035778999327
1757088831192750600,5.66475048828125,0.14475772276371718,0.044755398054886604,0.14580314016342164
1757088831202796800,5.674796875,0.21619331194609404,0.03828291410515085,0.12015256607830524
1757088831212843800,5.68484375,0.25058394958674907,-0.03258999056001194,0.040164252606034276
1757088831222889700,5.6948896484375,0.29228198763132096,-0.0537959880601149,0.07765197947919368
1757088831232936700,5.704936767578125,0.37242403036057947,-0.015435104214772582,0.24486849454939363
1757088831242982700,5.714982666015625,0.4175701630324125,-0.0005111826588399708,0.41862639408707614
1757088831253028600,5.725028564453125,-0.050797290301322934,0.06838984654461965,0.33350656294524667
1757088831263075800,5.735075927734375,-0.5351324203565716,0.14647380596660076,-0.07567337288260459
1757088831273121800,5.745121826171875,-0.7054191366523503,0.05649922826997936,-0.28721827450096604
1757088831283168800,5.755168701171875,-0.6334843657761812,0.010917919051274656,-0.2726455592691898
1757088831293214700,5.765214599609375,-0.3594274784043431,0.042101741740945726,-0.2864396913439035
1757088831303261000,5.775260986328125,-0.2695224588125944,-0.04717917286939919,-0.2258165880769491
1757088831313307600,5.7853076171875,-0.16393968535661696,-0.10071748724086209,-0.17147709512412548
1757088831323353900,5.795353759765625,-0.01841594665646553,-0.16150504208821803,-0.15998364120721817
1757088831333399800,5.80539990234375,0.21781389888525007,-0.2713599033728242,-0.18889643195867536
1757088831343446800,5.81544677734375,0.38478900641500946,-0.35280495499204845,-0.3230482972949743
1757088831353492700,5.82549267578125,0.44389235276877875,-0.3072867010721937,-0.606774053505063
1757088831363539700,5.835539794921875,0.3248872031599283,-0.22891747670173643,-0.8274334049493074
1757088831373585700,5.845585693359375,0.22475100467205048,-0.08866608891393989,-0.9220844500243663
1757088831383631600,5.855631591796875,0.14453472766280173,0.10901497639436274,-0.9612824879467486
1757088831393678600,5.8656787109375,-0.1703168191730976,0.2349121140066534,-0.9092477648049593
1757088831403724500,5.875724609375,-0.38949557667076584,0.2015051536411047,-0.5652747529029846
1757088831413770800,5.885770751953125,-0.3322667920172214,0.12450688883028924,-0.14777180988788605
1757088831423817700,5.895817626953125,-0.1676233423054218,0.050535022635944185,0.10803542730510234
1757088831433863700,5.90586376953125,-0.21182167273312805,-0.009378142263367771,0.29970892276167865
1757088831443911000,5.915910888671875,-0.1646305902302265,-0.05509685065876692,0.5546493139922618
1757088831453956600,5.92595654296875,-0.031097149053215978,-0.07768927928227931,0.6837719529896974
1757088831464002600,5.93600244140625,0.06795856072157622,-0.10937544373720884,0.667530427762866
1757088831474049800,5.9460498046875,0.10185644640922546,-0.13010353979356587,0.48143853183090685
1757088831484095700,5.956095703125,0.06811550484895706,-0.11740045435857027,0.23514263482689857
1757088831494141700,5.9661416015625,-0.018676058897376058,-0.08870890514235943,-0.02410626725256443
1757088831504188700,5.976188720703125,-0.3024468232929706,0.09073741529528051,-0.20916706657111644
1757088831514235000,5.98623486328125,-0.38006577728539703,0.018455401884019375,-0.45648120070695875
1757088831524281900,5.99628173828125,0.2012345200061798,-0.2442046603458002,-0.5291816952586174
1757088831534327800,6.006327880859375,0.16740063946545122,0.2951662012981251,-0.3334229763150215
1757088831544373800,6.016373779296875,-0.04655541494786739,0.1804012465422973,-0.39810032340884205
1757088831554420700,6.026420654296875,-0.02534983757287264,0.15961411377508192,-0.5778396354436874
1757088831564466700,6.036466796875,-0.584841623160243,0.7275244393460452,-0.35989421913325786
1757088831574514000,6.046513916015625,0.43451311452686786,-0.6458608130726963,-0.6411117919147015
1757088831584559900,6.056559814453125,0.7064227607369422,-0.09489537522494793,-0.2047545108258724
1757088831594605800,6.066605712890625,-0.18631459877192974,0.20047449541911483,-0.1466273160278797
1757088831604653000,6.076653076171875,-0.41603725437670946,-0.15573803952671586,-0.16514672305881975
1757088831614699000,6.086698974609375,-0.4213438363522291,-0.056348750416003165,-0.2146019511014223
1757088831624745000,6.096744873046875,-0.07906418436467647,-0.19253573830910026,-0.18880057036876677
1757088831634792200,6.106792236328125,0.3214177734836936,-0.1772194747010246,-0.039137247645854946
1757088831644838100,6.116838134765625,0.47921617960631846,-0.15806706699617207,-0.017913257831335065
1757088831654885000,6.126885009765625,0.3884095349997282,-0.09847411049455404,0.015511457386612892
1757088831664931000,6.13693115234375,0.28388533068597316,-0.019312310974299907,0.09266425517201424
1757088831674977000,6.14697705078125,0.20279343988597393,0.027000892715528607,0.15779752933979033
1757088831685024000,6.15702392578125,0.18751900612562894,0.0601639247899875,0.05647942759096622
1757088831695070000,6.167070068359375,0.11375760434418916,0.038097711997665464,0.008387889117002487
1757088831705116200,6.1771162109375,0.06678425624519586,0.01931084966957569,-0.03854863410294056
1757088831715163000,6.187162841796875,0.1926426327496767,0.09575615677274762,-0.17583119868040084
1757088831725209000,6.197208984375,0.3602037234738469,0.09598861382175236,-0.32511107504367825
1757088831735256000,6.207256103515625,0.3839654150724411,0.014133300901204347,-0.46897301801145075
1757088831745302000,6.217302001953125,0.401052743473649,0.014552256965637207,-0.4090992718070745
1757088831755348000,6.227347900390625,0.2672749721467495,-0.05084598828125745,-0.25562545088529587
1757088831765395000,6.23739501953125,-0.260436942820251,0.9767409730371087,0.6313508608788252
1757088831775441000,6.24744091796875,-1.2216361363977193,0.7277490418821573,0.7301052496194839
1757088831785486800,6.25748681640625,-0.2602723999083042,-2.0609277369230985,-2.1619927406936883
1757088831795533800,6.267533935546875,-1.0020648724511265,1.096659657294303,0.7716717702388763
1757088831805579800,6.277579833984375,-0.249726163713634,-1.011792997195944,-0.3354495137065649
1757088831815627000,6.287626953125,0.4947638773500919,-0.433667201754637,-0.5153571680456399
1757088831825673200,6.297673095703125,0.33754502468109127,0.19801665393821893,0.013126608076691627
1757088831835719200,6.30771923828125,-0.03836918588280678,0.1805336407503113,0.3910673560321331
1757088831845766100,6.31776611328125,-0.3899292919129133,0.1181277091871947,0.6255658477365971
1757088831855812000,6.32781201171875,-0.34331133312284945,-0.012614384238235651,0.5650275001436471
1757088831865859000,6.337859130859375,-0.10265782591998576,0.0120483113206923,0.34660219136178494
1757088831875905000,6.347905029296875,0.02876782932281494,-0.0005142696650698781,0.09439268639981746
1757088831885951000,6.357950927734375,-0.0015095277801156044,-0.06900408771913498,-0.12614859162271022
1757088831895998000,6.367998046875,-0.009234569074213505,-0.05759370897579938,-0.2688075885415077
1757088831906044000,6.3780439453125,0.0383659710124135,-0.044460561560466884,-0.4885545013159513
1757088831916090000,6.388090087890625,-0.3004585720852017,-0.004614873384311795,-0.7498632585346698
1757088831926137000,6.39813720703125,-1.8034657182604072,0.06989610465541482,-0.849414935132861
1757088831936183000,6.40818310546875,1.3145575812011956,0.7659318383473902,-1.4013994138300419
1757088831946230000,6.41822998046875,-0.6950742682486772,-0.6998944549467414,-0.3880594063878059
1757088831956276000,6.42827587890625,-1.395837688049674,-0.8986647037312387,1.3079448850631714
1757088831966322000,6.438322021484375,0.16851123105585575,0.3687292674958706,0.4033797251164913
1757088831976369000,6.448368896484375,0.1256508712336421,-0.02379318271540105,0.2930757683575153
1757088831986414800,6.458414794921875,-0.10532324573695659,0.031202107265032825,0.20862579930126665
1757088831996460800,6.468460693359375,-0.03572685468047857,0.11932152208164333,0.014368132570385932
1757088832006508000,6.478508056640625,-0.09677110596895218,0.1068099040981382,-0.0237327577650547
1757088832016554200,6.48855419921875,-0.17537351804077625,0.04623319725617766,-0.1802601210385561
1757088832026601000,6.49860107421875,-0.25513036084473134,-0.0070176236771047115,-0.32331600832045077
1757088832036647200,6.508647216796875,-0.09108516928702592,-0.06981014340501278,-0.46559506601095196
1757088832046693000,6.518693115234375,0.13719284046739338,-0.08106609877161682,-0.4875362641841173
1757088832056740000,6.528739990234375,-0.03824117558896541,0.04092544623687863,-0.3638052550971508
1757088832066786000,6.5387861328125,0.03771306006163359,0.06236030232310295,-0.38037528162598605
1757088832076832000,6.54883203125,0.171336225348711,0.05205518140792846,-0.331685777258873
1757088832086879000,6.55887890625,-0.012082651981711387,0.07551376187410205,-0.3219207545697689
1757088832096925000,6.568925048828125,0.025756957069039344,0.022432671484537422,-0.3132850281715393
1757088832106972000,6.578971923828125,0.10531155529916286,-0.01167187922373414,-0.15971008496284483
1757088832117018000,6.58901806640625,-0.027796061681210994,0.0049295288240537045,-0.048935588082671164
1757088832127064000,6.59906396484375,0.00885609115064144,0.017364355244301258,0.10187281302213669
1757088832137111000,6.609111083984375,0.08013678203225136,-0.00310885273553431,0.23169687828719615
1757088832147157000,6.619156982421875,0.091454294860363,-0.014338468084484338,0.23956278935670852
1757088832157203000,6.629202880859375,0.054607788500189776,-0.060888914596289395,0.198804077988863
1757088832167250000,6.63925,-0.11880524312257766,-0.10827877107430249,0.08330605971813201
1757088832177296000,6.6492958984375,-0.21713176183998584,-0.08871650392692536,-0.0077186115533113475
1757088832187343000,6.659343017578125,-0.20360124913752078,-0.05899422342348844,-0.097000823071599
1757088832197389000,6.66938916015625,-0.16718670445382594,-0.03279189720712602,-0.1311819096148014
1757088832207435000,6.67943505859375,-0.1558598392754793,-0.04327716046217829,-0.06442249554991722
1757088832217482000,6.68948193359375,-0.15967150651812553,-0.04118501048851758,0.004755670094490051
1757088832227528200,6.699528076171875,-0.14024609055817128,-0.03853654180634766,0.021005963149666785
1757088832237575200,6.7095751953125,-0.027436872979998587,-0.04173307282533496,0.03176233496367931
1757088832247621000,6.71962109375,0.06094517482817172,-0.057490285133942956,0.013730419188737868
1757088832257667000,6.7296669921875,0.08606354173272848,-0.07426164292115718,-0.03448503792583942
1757088832267714000,6.739714111328125,0.07943594028651714,-0.07454035026468336,-0.12078092710971831
1757088832277760000,6.749760009765625,0.04625555521845817,-0.09596037410795688,-0.18546411942243574
1757088832287806000,6.759805908203125,0.0012029460489749908,-0.026022220409102736,-0.10543196680843829
1757088832297853000,6.76985302734375,0.06865969472825527,-0.07814462183434516,-0.20305355212688445
1757088832307899000,6.77989892578125,0.0546025278031826,-0.07354304632302373,-0.08585048350393772
1757088832317945900,6.78994580078125,0.0366688117057085,-0.011859181956760584,-0.03821194949448108
1757088832327992000,6.799991943359375,-0.0569201570957899,-0.006230382289551198,0.017591770792007445
1757088832338038000,6.8100380859375,-0.046314299668371674,0.02005344819780439,0.05565291363894939
1757088832348085000,6.8200849609375,0.06073240886032581,0.031723208529688414,0.08149170377254486
1757088832358131000,6.830130859375,0.057988663110136986,0.01988554428499192,0.08690613003671169
1757088832368177000,6.840177001953125,0.003415361401438713,0.012943396996892988,0.03852759131491184
1757088832378223900,6.850223876953125,-0.05096972425878048,0.005012202138826251,-0.07487783859074115
1757088832388269800,6.860269775390625,-0.10901040981709957,-0.038971645287983116,-0.18132921157479284
1757088832398317000,6.870317138671875,-0.1182066927075386,-0.07058784977924078,-0.23915011690258978
1757088832408363000,6.880363037109375,-0.060790861049294466,-0.08568615978769957,-0.19135493102669715
1757088832418409200,6.8904091796875,-0.010738251635432242,-0.05979786795657128,-0.07406126151084899
1757088832428456200,6.900456298828125,0.021662965753674508,-0.03158215609118342,-0.012201309925317764
1757088832438502100,6.910502197265625,0.01729191106259823,-0.06078384678661823,0.0038379707276821134
1757088832448549000,6.920549072265625,-0.0015144962161779403,-0.061896301540546116,-0.056956397452950475
1757088832458595000,6.930594970703125,-0.06580488981902599,-0.049740693920478224,-0.08596212718486786
1757088832468641000,6.94064111328125,-0.12908844446688889,-0.044637233301624654,-0.041805590072274204
1757088832478688000,6.95068798828125,-0.08250584925115108,-0.053352673872560256,-0.04101648552119732
1757088832488734000,6.96073388671875,-0.020396891340613364,-0.050324740886129433,-0.03598784370422363
1757088832498780000,6.97077978515625,-0.009880173501372337,-0.09082662794869392,-0.09344283832907677
1757088832508827000,6.980826904296875,-0.011266367162764072,-0.10400671977829187,-0.15453472815155983
1757088832518873000,6.990873046875,0.022953005564212797,-0.05393029109742492,-0.07356617147028446
1757088832528919800,7.000919921875,0.04682780214846134,-0.023894451132789252,-0.019030863684415818
1757088832538966000,7.010966064453125,0.059741059735417365,0.009931063438393175,-0.00998246483206749
1757088832549012000,7.021011962890625,0.006339432154595852,0.04443674229346215,0.04765080896914005
1757088832559059000,7.031058837890625,-0.05303191748559475,0.06307122707143425,0.0961819079041481
1757088832569105000,7.04110498046875,-0.09873743760585785,0.04928239222634583,0.09731120419502258
1757088832579151400,7.0511513671875,-0.05438099400699138,0.018378318059816955,0.032408231651782984
1757088832589198600,7.061198486328125,0.051039866885542864,0.017827625374495983,-0.03799450735151767
1757088832599244500,7.07124462890625,0.14522154088318348,-0.013986257113330066,-0.017047580912709234
1757088832609291500,7.08129150390625,0.1886906802535057,-0.01028404159452766,-0.0012900398105382919
1757088832619337500,7.09133740234375,0.12373890013247728,0.011930530159920454,-0.04872808281183243
1757088832629383700,7.1013837890625,0.022225275811553,0.023521818428114055,-0.1336392396390438
1757088832639430400,7.111430419921875,-0.014874913048744201,0.032690628789737816,-0.18101356975436209
1757088832649476600,7.1214765625,0.00042728550136089324,0.04943886142969131,-0.15161094965934752
1757088832659522600,7.1315224609375,0.016729016482830046,0.0511109958929941,-0.19002163659632204
1757088832669569500,7.141569580078125,0.008872457763552666,0.03147763627078384,-0.19579495930075644
1757088832679615500,7.151615478515625,0.032487142106890673,0.010842698390595614,-0.04711538691818714
1757088832689662500,7.161662353515625,0.09024199646115302,0.016003405622020364,0.13284195178151129
1757088832699708400,7.17170849609375,0.08860358160436153,-0.012709186382219195,0.1648264050632715
1757088832709754400,7.18175439453125,0.04534019393920898,-0.060386664162576195,0.1211608663380146
1757088832719801300,7.19180126953125,-0.00024316110610961912,-0.09009893472865223,0.04155073852837086
1757088832729847600,7.20184765625,-0.064122635820508,-0.09936470265872777,-0.01818330694437027
1757088832739893500,7.2118935546875,-0.11129939753711222,-0.05258073965199291,-0.07567045027315616
1757088832749940500,7.2219404296875,-0.0839297445744276,-0.002655263749137521,-0.0686976886510849
1757088832759986400,7.231986328125,0.01454465818107128,0.011825316219776867,-0.05270984592437744
1757088832770033700,7.24203369140625,0.060568742731213564,-0.008150134838372469,-0.07957856362760067
1757088832780079600,7.25207958984375,0.03825754220187664,-0.011746917221322655,-0.1331850661307573
1757088832790125600,7.26212548828125,0.00802782363295555,-0.027293738182261586,-0.23388532824218272
1757088832800172500,7.272172607421875,-0.032381343644857404,-0.05357238103784621,-0.2877215478479862
1757088832810218500,7.282218505859375,-0.08742576999664306,-0.03184307204969227,-0.2734206352949142
1757088832820264700,7.2922646484375,-0.11980068390071391,-0.01779978751949966,-0.2247188559681177
1757088832830311400,7.3023115234375,-0.14753975469768046,0.001842851387709379,-0.164849785938859
1757088832840357600,7.312357666015625,-0.14777005632221699,-0.006639803340658545,-0.1116273143172264
1757088832850404600,7.322404541015625,-0.11724252385050057,-0.008701923502236605,-0.053206689530611036
1757088832860450600,7.332450439453125,-0.13016776413619519,-0.030681115598231553,-0.04060848924219608
1757088832870496500,7.34249658203125,-0.13020341997146606,-0.03024769261702895,-0.08771452381014823
1757088832880543500,7.35254345703125,-0.12779986596107482,-0.023228899896144864,-0.09944354004859923
1757088832890589400,7.36258935546875,-0.13320084822177886,-0.03746778006367385,-0.05242869089543819
1757088832900636400,7.372636474609375,-0.10238894585072994,-0.034740181730687617,-0.01698503707051277
1757088832910682400,7.382682373046875,-0.06497954491078853,-0.035668621687218544,0.007761866173148155
1757088832920728300,7.392728271484375,-0.036703590758144854,-0.04257036389969289,0.00573474425971508
1757088832930775300,7.402775390625,0.001311082598567009,-0.03498560785911977,-0.030711364606022834
1757088832940821500,7.412821533203125,0.03188859169185161,-0.02304272967427969,-0.047475452402234074
1757088832950867500,7.422867431640625,0.028947862064838407,-0.008216478072851896,-0.06866378638148307
1757088832960914700,7.432914794921875,-0.030210721607506274,-0.03272453105933964,-0.09292962810993194
1757088832970960600,7.442960693359375,-0.06361351725459098,-0.04130845420509577,-0.07136252394616603
1757088832981007600,7.453007568359375,-0.07350538119375705,-0.06443608568385244,-0.030308629024028776
1757088832991053600,7.463053466796875,-0.02307400159537792,-0.0941877384122461,-0.00846270791888237
1757088833001099500,7.473099609375,0.0029319617986679077,-0.07435578747801483,0.01080722521841526
1757088833011146500,7.483146484375,-0.01808569178879261,-0.05564611857198178,0.0020364742636680604
1757088833021192400,7.4931923828125,0.0013885317489504814,-0.0397607133064419,-0.03442249408364296
1757088833031238700,7.50323876953125,0.03180558958351612,-0.057387774607539174,-0.07337327924668788
1757088833041285600,7.51328564453125,0.04787000467777252,-0.06398278895840048,-0.09587503391206265
1757088833051331600,7.52333154296875,0.08499971189349889,-0.060693099763244385,-0.12931728478670118
1757088833061378600,7.533378662109375,0.10723229422867298,-0.06458375052623451,-0.18457506162822246
1757088833071424500,7.543424560546875,0.06867489229738712,-0.087293010462448,-0.21291735901534556
1757088833081470500,7.553470458984375,-0.010661094745993614,-0.09337138052806257,-0.2257686572819948
1757088833091517400,7.563517333984375,-0.019095453353226183,-0.016957345345988868,-0.21383856551349162
1757088833101563400,7.5735634765625,0.07215864275991916,0.025766309419274328,-0.1350894384473562
1757088833111610400,7.5836103515625,0.1147995146125555,0.03622143326438963,-0.056311669808626175
1757088833121656300,7.59365625,0.018460954841971397,0.07672931167632341,0.024939795467257497
1757088833131702500,7.60370263671875,-0.03184036863595247,0.08902699464820325,0.02262216617465019
1757088833141749500,7.61374951171875,-0.15055179599523544,0.0771728176601231,0.03167641024589538
1757088833151795700,7.623795654296875,-0.18163257843554018,0.04443170079216361,0.024360534274578093
1757088833161841400,7.63384130859375,-0.15696633921265601,0.021147125186026097,-0.0024526538491249084
1757088833171888600,7.643888671875,-0.12980828317403792,-0.007027779744938015,-0.08060323050022125
1757088833181934600,7.6539345703125,-0.07529284913241863,0.0054912908926606175,-0.15902560983002184
1757088833191981600,7.663981689453125,-0.06264554900527,0.029815877071022987,-0.15238894829452038
1757088833202027500,7.674027587890625,-0.043402796135842796,0.053666781323030585,-0.10652502274215221
1757088833212073500,7.684073486328125,-0.030887305694818495,0.08314093228429556,-0.11861001281142235
1757088833222120400,7.694120361328125,-0.009930442383885383,0.08221117715351282,-0.16096563798189162
1757088833232166700,7.704166748046875,-0.024586159723997116,0.06129121178686618,-0.16242402009665965
1757088833242212600,7.714212646484375,-0.0386468337804079,0.027046193161979315,-0.18603695087432862
1757088833252259600,7.724259521484375,-0.009663900402188301,-0.01710566777549684,-0.2038356424152851
1757088833262305500,7.734305419921875,-0.057735857392847534,-0.037599370554089545,-0.16771686580777168
1757088833272352500,7.7443525390625,-0.05010609316676855,-0.010972791043668984,-0.12990706737339497
1757088833282398500,7.7543984375,-0.061442018434405325,-0.019570669649541378,-0.07059621574878693
1757088833292444400,7.7644443359375,-0.09155044871121644,-0.023241394051536916,-0.010933481946587562
1757088833302491400,7.774491455078125,-0.07894231155067682,-0.018293270124867558,0.022879940328001974
1757088833312537300,7.784537353515625,-0.06772533648759126,-0.03148359108753502,0.03145546097159385
1757088833322583600,7.79458349609375,-0.09503332239091396,-0.024187515795230864,-0.008984101444482803
1757088833332630300,7.80463037109375,-0.14401684126853942,-0.02130925694517791,-0.06496493186354636
1757088833342676500,7.814676513671875,-0.10712006602585315,-0.004827420156449079,-0.12136311091184615
1757088833352723700,7.8247236328125,-0.06038169572651386,-0.030070582484453916,-0.14790975705385206
1757088833362769700,7.834769775390625,-0.04366261611580848,-0.0018405863653868436,-0.14891338113844393
1757088833372815600,7.844815673828125,-0.00020487492233514784,0.011068944894522427,-0.1376432145833969
1757088833382862600,7.854862548828125,-0.01792319470345974,-0.0240797445718199,-0.12248773102760314
1757088833392908500,7.864908447265625,-0.007284896311163902,-0.03169065796695649,-0.09688158060610294
1757088833402955500,7.87495556640625,0.022264146517217157,-0.04540485667325556,-0.04133154281973839
1757088833413001500,7.88500146484375,-0.013636311164498328,-0.07477664323858917,-0.014063012143969536
1757088833423047400,7.89504736328125,-0.12349720033109188,-0.06511939177289605,-0.05843056165874004
1757088833433094400,7.905094482421875,-0.146087802323699,-0.019734847235307097,-0.14422083940804004
1757088833443140600,7.915140625,-0.11930968551337719,-0.0015473755724728106,-0.16359774005115033
1757088833453186600,7.9251865234375,-0.10729133093953132,0.015398863857612013,-0.15544424421191214
1757088833463233500,7.935233642578125,-0.095161917206645,0.008615048936381936,-0.1795581102490425
1757088833473279500,7.945279541015625,-0.14059446560442446,0.025371976339444515,-0.1978226657360792
1757088833483326500,7.955326416015625,-0.17116437591314315,0.017417948595061898,-0.2131768867343664
1757088833493372400,7.965372314453125,-0.12536854716092347,0.018707330818474293,-0.196594000723958
1757088833503418400,7.97541845703125,-0.08865911118388176,-0.014559271228313445,-0.11033961259424686
1757088833513465300,7.98546533203125,0.008925064733624458,-0.03270655701123178,0.057985155978798865
1757088833523511300,7.99551123046875,0.14168313762396573,-0.050094037402793765,0.1847743835926056
1757088833533557500,8.0055576171875,0.2067237650722265,-0.07100092409215868,0.21436989591121672
1757088833543604700,8.015604736328125,0.15569149697124957,-0.09483692303597926,0.18421382710039613
1757088833553650700,8.025650634765626,0.017292495584487914,-0.085972575513646,0.05243745872378349
1757088833563697700,8.03569775390625,-0.0786754773080349,-0.07179558160118758,-0.08325169918239116
1757088833573743600,8.04574365234375,-0.08130056511461735,-0.06328055897317826,-0.12321779886782169
1757088833583789000,8.0557890625,0.03407499582022428,-0.03949073725864291,-0.07399696410298347
1757088833593836300,8.065836181640625,0.1143351119711995,-0.016685469602048395,0.00774549956023693
1757088833603882200,8.07588232421875,0.18804419904351233,0.0020501374628394842,0.04986731597483158
1757088833613928200,8.08592822265625,0.14758447062224148,0.016059665853902696,0.06617664574086665
1757088833623975200,8.09597509765625,-0.0061710898503661155,0.016594941774383188,-0.021138065096735954
1757088833634021400,8.106021484375,-0.04899637835919857,0.02527268068343401,-0.15457973633706568
1757088833644068400,8.116068359375,-0.030962709018588063,0.025162059915810824,-0.24318974768221377
1757088833654114300,8.1261142578125,0.0374073551133275,0.04130750435702502,-0.24413550409972667
1757088833664160300,8.13616015625,0.060714288681745526,0.05483392540626227,-0.20272738891243933
1757088833674207200,8.146207275390625,0.015141455030441283,0.040726270402967925,-0.1228466274678707
1757088833684253200,8.156253173828125,0.004378653475642204,0.014695099502429365,-0.02496668347418308
1757088833694300200,8.166300048828125,-0.02181961762011051,-0.01706584722176194,0.007359130591154098
1757088833704346000,8.17634619140625,-0.07029314114898443,-0.037686537380889056,-0.01369593239724636
1757088833714392000,8.18639208984375,-0.05789455508589744,-0.060902577795460815,-0.0034942718565464017
1757088833724439000,8.19643896484375,-0.04832242462038994,-0.09269815744161605,0.021327450188994405
1757088833734485200,8.2064853515625,-0.023308979395031928,-0.08946845480538904,0.039620647248625754
1757088833744532200,8.2165322265625,0.009344751450419426,-0.09434987017139791,0.028894670572876927
1757088833754578200,8.226578125,-0.0014227262794971466,-0.06997998354658484,0.03305588190555572
1757088833764624100,8.2366240234375,-0.010864508363604544,-0.03454217494055629,0.009258826732635497
1757088833774671400,8.24667138671875,0.00043429976403713225,0.0014382891748100518,-0.031417467048764226
1757088833784717300,8.25671728515625,-0.03703589145243168,0.0019117519054561852,-0.04325812696814537
1757088833794763300,8.26676318359375,-0.011619126123189926,-0.0005360065728425979,-0.022646716094017028
1757088833804810200,8.276810302734376,-0.01331248603761196,-0.018295973538607357,-0.03583352992534637
1757088833814856200,8.286856201171876,-0.030000585988163946,-0.024812515825778245,-0.05615852507352829
1757088833824903200,8.296903076171875,-0.04890870007574558,-0.03499510633982718,-0.08776946886777877
1757088833834949400,8.306949462890625,-0.0625929420351982,-0.037768151249736544,-0.12770458889305591
1757088833844995300,8.316995361328125,-0.0870730110362172,-0.035410628338158126,-0.15200257932543754
1757088833855042300,8.327042236328126,-0.09435878413021564,-0.016941051798313855,-0.1441261468619108
1757088833865088300,8.337088134765626,-0.04053922339826822,-0.00805076611712575,-0.10828677171766757
1757088833875135200,8.34713525390625,-0.007164484801888466,-0.008746493296325207,-0.09904664968550204
1757088833885181200,8.35718115234375,0.017137597283720968,-0.0010270780254155397,-0.08920330106317996
1757088833895227100,8.36722705078125,-0.00952975262850523,-0.024345409770682454,-0.07890227180123328
1757088833905274000,8.377274169921876,-0.0356385918751359,-0.01045753499791026,-0.06783201173245906
1757088833915320000,8.387320068359376,-0.03909457754790783,-0.007188961656019091,-0.10264087478518485
1757088833925366300,8.3973662109375,-0.041380058136582375,-0.02393149520754814,-0.1309814186066389
1757088833935413200,8.407413330078125,-0.01938099229633808,-0.030838498117029666,-0.12391045730710029
1757088833945459200,8.417459228515625,-0.0034691374152898786,-0.007135916294530034,-0.10673545062243937
1757088833955506400,8.42750634765625,-0.024665946961939335,0.01469553789384663,-0.0966436801970005
1757088833965552400,8.437552490234374,-0.01671440343558788,0.012523600682243704,-0.08623568342924118
1757088833975598300,8.447598388671874,-0.023743863680958748,0.007676745172962546,-0.08278057453930378
1757088833985645300,8.457645263671875,-0.026840368391573426,-0.03211969703398645,-0.042189620953798294
1757088833995691300,8.467691162109375,-0.03081774758994579,-0.04608633613139391,0.025914777979254722
1757088834005738200,8.47773828125,-0.04985767136365175,-0.05296221325024962,0.04917582657933235
1757088834015784200,8.4877841796875,-0.05461889441609382,-0.04711063767783343,-0.01227729777097702
1757088834025830100,8.497830078125,-0.06142097564637661,-0.022106544802710414,-0.1000678094267845
1757088834035877000,8.507877197265625,-0.052525721529126164,0.001614960915967822,-0.11180793158113955
1757088834045923300,8.51792333984375,-0.03728957395255565,0.013108487898111343,-0.0987783541381359
1757088834055970300,8.52797021484375,0.003512684296071529,0.019083105328306555,-0.07765373304486274
1757088834066016300,8.538016357421874,-0.057418754267692565,0.001115340830758214,-0.051905543804168695
1757088834076062200,8.548062255859374,-0.07405424724817275,0.006785203160718083,-0.1384896022796631
1757088834086109200,8.558109130859375,-0.08165800025016069,-0.019366379249095917,-0.13855506873130796
1757088834096155100,8.568155029296875,-0.07629822678267956,-0.011639511324092746,-0.11883914539217948
1757088834106201000,8.578201171875,-0.05883271271884441,-0.007066869646310806,-0.093293200725317
1757088834116248000,8.588248046875,-0.059273442223668094,-0.016704174302518367,-0.11175240200161933
1757088834126294000,8.5982939453125,-0.07356383338272571,-0.02389941956885159,-0.10263619861006736
1757088834136341200,8.60834130859375,-0.04739245029389858,-0.020797727226465938,-0.06495207238197326
1757088834146387200,8.61838720703125,-0.004545826736092567,-0.0011098609380424023,-0.026387656188011168
1757088834156433200,8.62843310546875,0.0553255813807249,-0.013851488285139203,-0.01182370878458023
1757088834166480400,8.63848046875,0.0859536516174674,-0.012543328296020626,0.010077741900086402
1757088834176526300,8.6485263671875,0.09477204110622406,-0.01920439362041652,0.02191021851301193
1757088834186573300,8.6585732421875,0.056741293397545814,-0.017518340229615566,0.02668985400497913
1757088834196619300,8.668619384765625,0.07116027937233448,-0.009953823259472847,-0.05478606767654419
1757088834206665200,8.678665283203125,0.05198123938888311,-0.0341075098503381,-0.07746785508394241
1757088834216712200,8.688712158203124,0.0173018479347229,-0.048929962059482926,-0.050909518504142756
1757088834226758100,8.698758056640624,0.010207798020541668,-0.0324197759591043,-0.018442250141501425
1757088834236805000,8.70880517578125,0.0016667641684412955,-0.019168445524200797,-0.020098785176873205
1757088834246851300,8.718851318359375,0.00031038112342357635,0.005338511483743786,-0.06169277832508087
1757088834256897300,8.728897216796875,-0.04352554573267698,0.0019509879373013973,-0.09317804991304873
1757088834266944300,8.7389443359375,-0.05059533798843622,0.0001118628766387701,-0.16059329753816126
1757088834276990200,8.748990234375,-0.02036094324439764,-0.004539470060542225,-0.15515665944218635
1757088834287036200,8.7590361328125,-0.03177519444525242,-0.010205021541565657,-0.11213760192692279
1757088834297083100,8.769083251953125,-0.05335808070003986,-0.0248155845656991,-0.09183423408865928
1757088834307129000,8.779129150390625,-0.03923807767182588,-0.027173326672986147,-0.09355623557567595
1757088834317176000,8.789176025390624,-0.03461538630723953,-0.017341376227512955,-0.06621756227314472
1757088834327222000,8.799221923828124,-0.03795242177546024,-0.013216332186758517,-0.03950374287068844
1757088834337268200,8.809268310546875,-0.022771511517465114,-0.020055092165619133,-0.03741875329017639
1757088834347315200,8.819315185546875,0.002305354332923889,-0.030563334437459705,-0.0003857844471931457
1757088834357361400,8.829361328125,-0.0038011458486318585,-0.014747341146320104,0.010928221249580383
1757088834367408400,8.839408447265624,-0.003595394143462181,-0.03205992967076599,-0.02014379336237907
1757088834377454300,8.849454345703125,-0.06948240928798914,-0.04227569180205464,-0.10138649080991745
1757088834387500300,8.859500244140625,-0.13695435553640126,-0.003874503345787525,-0.17235738508999346
1757088834397547300,8.86954736328125,-0.09735299751013517,0.013112871812283992,-0.21922376568317412
1757088834407593200,8.87959326171875,-0.020094109001755713,0.011662599938735365,-0.14934125116169453
1757088834417640200,8.88964013671875,0.016204115825891492,0.0018533727817237377,-0.1263227791458368
1757088834427686100,8.89968603515625,0.034165012191236015,-0.020204583638906478,-0.10197042817771435
1757088834437732000,8.909732177734375,0.01329553490281105,-0.008610665022209286,-0.0447206007361412
1757088834447779000,8.919779052734375,0.0031441432446241376,0.011604293880239128,-0.005585106655955315
1757088834457825300,8.9298251953125,-0.023268647384643553,-0.0025833675567060706,-0.0018313070803880691
1757088834467872300,8.939872314453124,-0.01848433571755886,-0.016963117499649523,0.05976736322045326
1757088834477918200,8.949918212890625,-0.03228606657683849,-0.017787877885997293,0.039402620583772655
1757088834487964200,8.959964111328125,-0.06358166081160306,-0.015832286838814616,-0.046925417304039
1757088834498011100,8.97001123046875,-0.09877952318191528,-0.0036991467788815495,-0.09781681562960147
1757088834508057000,8.98005712890625,-0.07426233704090118,-0.0026141280211508275,-0.11279869618415832
1757088834518103000,8.99010302734375,0.001124035593867302,-0.005147738151997328,-0.07223638417124748
1757088834528150300,9.000150390625,0.09631810150444507,0.01927249042056501,0.0001128127247095108
1757088834538196200,9.0101962890625,0.11319880141764879,0.026242694759368895,0.0020446575701236723
1757088834548243200,9.0202431640625,0.07783084317743778,0.03320639629215002,-0.009112696260213852
1757088834558289400,9.030289306640626,0.041431788323819635,0.024362141709774732,-0.02570259653329849
1757088834568336100,9.040336181640624,0.009912322205305099,-0.009802651285752653,-0.08508417530655861
1757088834578382000,9.050382080078125,0.04049801460504532,-0.040571664363145826,-0.1347422324448824
1757088834588428000,9.060427978515625,0.023658231224119662,-0.051588221483305094,-0.11998188568651676
1757088834598475000,9.07047509765625,-0.02732347573339939,-0.04324672879129648,-0.10942892749011517
1757088834608521000,9.08052099609375,-0.03229249631762504,-0.02099135010242462,-0.06330956587195397
1757088834618567000,9.09056689453125,-0.019840426501631734,-0.013024901267886161,0.014209727138280868
1757088834628614000,9.10061376953125,0.004461363323032856,0.006787906574457884,0.06277122121155261
1757088834638659800,9.110659912109375,0.00916851810067892,-0.0029269933626055716,0.053446928027272224
1757088834648706800,9.120706787109375,-0.025359482184052467,-0.008879837352409959,-0.014880758267641066
1757088834658753000,9.1307529296875,-0.09927578226625919,-0.013227949559316039,-0.09826806652843952
1757088834668799000,9.140799072265626,-0.09861644157469272,-0.03181852213032543,-0.16062369267642498
1757088834678846000,9.150845947265625,-0.08991261837631463,-0.08158829601481557,-0.18392215067744255
1757088834688892000,9.160891845703125,-0.04938508541584015,-0.07099317917712032,-0.19772095892727373
1757088834698939100,9.170939208984375,-0.05625204857587814,-0.043158758246898646,-0.17321604774594307
1757088834708984800,9.18098486328125,-0.0932993382051587,0.00799669784232974,-0.12768529967069625
1757088834719030800,9.19103076171875,-0.12337795786559581,0.050343116793036456,-0.06893558906018733
1757088834729078000,9.201078125,-0.13298282155692576,0.0782495069809258,-0.024890695628523824
1757088834739124000,9.2111240234375,-0.10860329032093285,0.08314546232894063,-0.039021512311697
1757088834749171000,9.2211708984375,-0.065325581869483,0.06310103768780827,-0.07927870389819144
1757088834759217000,9.231216796875,-0.00957592985779047,0.033032062638551,-0.1290776308119297
1757088834769263000,9.24126318359375,0.043242929399013516,0.01628273402005434,-0.11705869171619415
1757088834779310000,9.25131005859375,0.0030406828701496124,0.0035615649390965697,-0.10761807867586612
1757088834789356000,9.26135595703125,-0.01545534328520298,-0.0320201091170311,-0.1381137547045946
1757088834799402000,9.271402099609375,-0.014435937109589576,-0.04169321573898196,-0.10182955840229987
1757088834809449000,9.281448974609376,0.012583002719283103,-0.043455695366859434,-0.09916472310721873
1757088834819495000,9.291494873046876,0.062326400053501124,-0.05064845641516149,-0.11027882231771945
1757088834829542000,9.3015419921875,0.05175999785363674,-0.07392477564960717,-0.08938274928331374
1757088834839587800,9.311587890625,0.056413084356486794,-0.077443451295048,-0.01807692396044731
1757088834849634000,9.321634033203125,0.043429391881823536,-0.06227211258299648,0.0508902292817831
1757088834859680800,9.3316806640625,0.0389998850017786,-0.06130516724698245,0.12436170820593834
1757088834869727000,9.34172705078125,0.022638532787561415,-0.05168225644230842,0.15214169553518295
1757088834879774000,9.35177392578125,-0.012998597782850264,-0.05267769722044468,0.08621639420688151
1757088834889820000,9.36181982421875,-0.03389437855631113,-0.03803849262371659,0.00967091466486454
1757088834899865900,9.371865966796875,-0.059309682580828665,-0.050601037076860665,-0.06460895803272723
1757088834909913000,9.3819130859375,-0.062251873512566086,-0.043027240821719166,-0.137490069848299
1757088834919959000,9.391958984375,-0.012425181809067725,-0.053909065646305675,-0.1831792233556509
1757088834930006000,9.402006103515625,0.014613631764054297,-0.07872326197251676,-0.1803770254164934
1757088834940052000,9.412052001953125,0.017980477848649024,-0.07595379725918174,-0.1457639771968126
1757088834950098000,9.422097900390625,0.0143085113376379,-0.07330284435898066,-0.13391338040530681
1757088834960145000,9.432144775390626,0.04771773672550916,-0.03866064311005175,-0.05100538009405136
1757088834970191000,9.442191162109374,0.03563654604852199,-0.004196501841768622,0.04069149135053157
1757088834980238000,9.452238037109375,0.024777298381924627,0.018169716810435055,0.06450140600502491
1757088834990284000,9.462283935546875,0.03294131561517715,0.021097513890638946,0.07159867078959942
1757088835000330000,9.472330078125,0.0294014510512352,0.01862199062258005,0.0807312407940626
1757088835010377000,9.482376953125,0.004120587061345577,-0.02711779709346592,0.07209025369882584
1757088835020423000,9.4924228515625,0.0019411971956491468,-0.05562514884918928,0.016218728873133657
1757088835030468900,9.50246875,0.050128012737631795,-0.04082030536197126,-0.03563888413608074
1757088835040515800,9.512515869140625,0.07981880212426185,-0.041582814167067404,-0.03128185797035694
1757088835050561800,9.522561767578125,0.041218730095028876,0.020400398471951485,-0.05724398222267627
1757088835060608800,9.53260888671875,-0.01679331389069557,0.017691870165616273,-0.11413608226776123
1757088835070655000,9.542655029296874,-0.016539923651516436,0.010287219932302832,-0.152788761267066
1757088835080701000,9.552700927734374,-0.012929624199867248,0.030734307090193033,-0.12430442506074904
1757088835090748200,9.562748046875,-0.025599136158823966,0.03192578189708292,-0.12014496729373932
1757088835100794000,9.572794189453125,-0.0026379472881555557,0.01209529226757586,-0.10635726495981215
1757088835110841000,9.582841064453126,0.003853752818703651,-0.002611643803119659,-0.033656185886263845
1757088835120887000,9.592886962890624,-0.0017781155884265898,-0.004350596424937248,0.032877602729201316
1757088835130933000,9.60293310546875,-0.028602117367088793,-0.013191124680265783,0.07705810523927212
1757088835140980000,9.61297998046875,-0.07611673273593186,0.0029980858374387023,0.055332011121511454
1757088835151026000,9.62302587890625,-0.04209200579822063,-0.010707637301459908,0.0158247611194849
1757088835161073000,9.633072998046876,-0.005819499933719634,-0.012166530872881411,-0.03934007674157619
1757088835171118800,9.643118896484374,0.0069265843927860254,-0.016867182844504714,-0.09844517666101456
1757088835181165000,9.6531650390625,-0.022447394129633903,-0.0211768627371639,-0.17632219706773758
1757088835191212000,9.6632119140625,-0.06768003604114055,0.011260741139575838,-0.22262977473437784
1757088835201258000,9.673258056640625,-0.04430559019446373,0.028093948649242518,-0.20318857668340204
1757088835211305000,9.683304931640626,-0.011236264285445212,0.02180697733424604,-0.13333996443152427
1757088835221351000,9.693350830078124,0.005958031621575355,-0.00007518412806093693,-0.041024668827652926
1757088835231396900,9.70339697265625,0.022281974434852598,-0.022266776865720747,0.003178630036115646
1757088835241443800,9.71344384765625,0.045808980494737625,-0.05919928100891411,-0.004029109385609626
1757088835251489800,9.72348974609375,0.126665601234138,-0.06738266052976251,-0.012882277926802634
1757088835261536000,9.733535888671875,0.13445523219704628,-0.05290186136513948,-0.056791562280058855
1757088835271583000,9.7435830078125,0.05087678527832031,-0.0625949147965759,-0.12536883942186833
1757088835281629200,9.753629150390625,-0.062005205275118346,-0.0708512864883989,-0.18143968621194362
1757088835291676200,9.76367626953125,-0.09687398182153702,-0.08131642027087509,-0.1531014804780483
1757088835301722000,9.77372216796875,-0.08703998554944992,-0.1132009933747351,-0.08353811490833758
1757088835311768000,9.78376806640625,-0.03961450976878404,-0.1323120096232742,0.02269055523574352
1757088835321815000,9.79381494140625,0.040272973677515984,-0.11631766409054398,0.04890694651007652
1757088835331861000,9.803861083984375,0.026498130825161934,-0.10438055805936455,0.03250526228547096
1757088835341908000,9.813907958984375,0.015425532668828963,-0.10598594742938876,0.01424889010488987
1757088835351954000,9.823953857421875,-0.016600713928043843,-0.059625178270787,-0.04432604846060276
1757088835362000000,9.833999755859375,-0.047557285466790195,-0.056307505090162156,-0.05080488908588886
1757088835372046800,9.844046875,0.0038189737662672994,-0.06454487982057035,-0.04970598793327808
1757088835382093000,9.854093017578125,0.039032910488545895,-0.0769865013077855,-0.04202887743413448
1757088835392140000,9.86414013671875,0.05175590620040893,-0.0770796594839543,0.0268786545753479
1757088835402186000,9.87418603515625,0.056631695543229575,-0.035277065086364745,0.049808279263973236
1757088835412232000,9.88423193359375,0.057197220471501345,-0.00670234718285501,0.02117839710712433
1757088835422279000,9.89427880859375,0.0668108519911766,0.007183408698067069,-0.03014847002625465
1757088835432324900,9.904324951171875,0.04410977536141872,0.008442980305105447,-0.11477496469318867
1757088835442370800,9.914370849609375,0.011738953110575675,-0.0010555734675377606,-0.16557342403829098
1757088835452417800,9.924417724609375,0.003505377772450447,-0.03277034296244383,-0.18563070816099642
1757088835462463700,9.934463623046875,0.006798866359889507,-0.04137107111252844,-0.15046937840878963
1757088835472511000,9.944510986328124,-0.0023567922592163085,-0.09916465004198252,-0.11518588358163832
1757088835482557200,9.95455712890625,0.04234042760133743,-0.158558138448745,-0.11294716474413871
1757088835492603100,9.96460302734375,0.044697804382443425,-0.19597111958526073,-0.0017079729616641998
1757088835502650000,9.974650146484375,0.025026304706931114,-0.20188618884794413,0.0825175396889448
1757088835512696000,9.984696044921876,0.01690261948406696,-0.2000044667545706,0.14134206910133362
1757088835522743000,9.994742919921874,0.005179740725457668,-0.2129359175853431,0.1762947245389223
1757088835532789000,10.0047890625,-0.02268324871212244,-0.22456015827506778,0.20367372985184193
1757088835542835000,10.0148349609375,0.01247545069158077,-0.21757753284610806,0.20653613354563713
1757088835552882000,10.0248818359375,0.07621756276190281,-0.26152773373164234,0.22051322097182272
1757088835562927900,10.034927978515626,0.131473586037755,-0.31460867799073455,0.1337485452324152
1757088835572974800,10.044974853515624,0.1786561929732561,-0.25091873449906704,0.13358020292818545
1757088835583021300,10.055021240234375,0.1518348215430975,-0.07899857178255915,-0.1807604717761278
1757088835593067500,10.065067626953125,0.16639204694479703,-0.16913761932589114,-0.04145195432901382
1757088835603114200,10.0751142578125,0.14265198265612125,-0.1407972947001457,0.04487549903690815
1757088835613160400,10.085160400390626,0.04222907618135214,-0.1375892193738371,0.17565642663538455
1757088835623207400,10.09520751953125,-0.050124505606293675,-0.15198175573311745,0.2883066542595625
1757088835633253400,10.10525341796875,-0.1531695772781968,-0.205551141096279,0.36981881629824637
1757088835643299300,10.11529931640625,-0.185099962285161,-0.2655962983448058,0.38612873058617114
1757088835653346300,10.12534619140625,-0.1262321782529354,-0.2793986867912113,0.2299865672379732
1757088835663392300,10.135392333984376,-0.02030044522881508,-0.2318612020034343,-0.05416004473268986
1757088835673438200,10.145438232421874,0.04981529352664947,-0.1261624740175903,-0.32511984287202356
1757088835683485200,10.155485107421875,0.0581818475946784,0.016812968439236284,-0.5742442413002252
1757088835693531400,10.165531494140625,0.059730830602347844,0.2004724495925009,-0.956205330812931
1757088835703578000,10.175578125,-0.02378390343040228,0.34317952343672514,-1.0288140554279088
1757088835713624300,10.185624267578126,-0.17024404619783162,0.4730192246623337,-1.016554877835512
1757088835723670300,10.195670166015624,-0.29466245302706956,0.38231355621218677,-0.9935580331295728
1757088835733717500,10.205717529296875,-0.24733400788009166,0.18480930877551435,-1.0015841031968593
1757088835743763500,10.215763427734375,-0.019823767627775667,-0.03064896689429879,-0.862794641187787
1757088835753810400,10.225810546875,0.10551701474338769,-0.39296573699936266,-0.6244657775402068
1757088835763856400,10.2358564453125,0.01959668087363243,-0.7440380595125258,-0.4305313514143228
1757088835773902300,10.24590234375,-0.26427140641659497,-0.8697088044904172,-0.3975578870952129
1757088835783949300,10.25594921875,-0.4125754234850406,-0.9752103294037282,-0.7160206101655959
1757088835793995300,10.265995361328125,-0.011174012704193591,-1.2164181094884872,-0.9177741856098175
1757088835804042200,10.276042236328125,0.6627414399206638,-1.2608937955528496,-0.7543518021255731
1757088835814088400,10.28608837890625,1.0452116479992866,-1.4376277882918715,-0.29964871700704093
1757088835824134400,10.296134521484374,1.1531561821505427,-1.4993059535697102,-0.3316618118613958
1757088835834181400,10.306181396484375,1.143309910918772,-1.4243869061857461,-0.6940583692044019
1757088835844227300,10.316227294921875,0.8104448607474565,-1.5824918940395116,-1.1588713449269532
1757088835854273300,10.326273193359375,0.204585583999753,-1.494417158614844,-1.8039561321258544
1757088835864320300,10.3363203125,0.19467267727255821,-1.2309331031836568,-2.099297507327795
1757088835874366200,10.3463662109375,0.24283815776556728,-0.9490727024540304,-1.904068365216255
1757088835884413200,10.3564130859375,0.67550505990386,-0.6465875929772853,-2.07118200443387
1757088835894459100,10.366459228515625,0.04384995538145303,-0.21555326047688722,-2.2754893560141323
1757088835904505300,10.37650537109375,0.033029578420519824,0.5105868849039078,-2.1134780083715916
1757088835914552600,10.386552490234376,0.4813353637173772,0.9148854784309863,-1.6578624845832586
1757088835924598500,10.3965986328125,0.6347355348810553,1.283998776808381,-1.47587276327312
1757088835934645500,10.4066455078125,0.8014516992136835,1.7349845949694513,-1.4260352579146622
1757088835944691500,10.41669140625,0.7753764699757099,1.8892872679308055,-1.56294957370162
1757088835954737400,10.4267373046875,0.9059060531616211,1.8019792790949343,-1.5519921263575553
1757088835964784400,10.436784423828126,1.047766008657217,1.7440055212929844,-1.1397674160063267
1757088835974830300,10.446830322265624,1.1095771526649594,1.4711097866550087,-1.2171820795983075
1757088835984877300,10.456877197265625,0.9184919784903526,1.3843185151696205,-1.0480635302990675
1757088835994923300,10.46692333984375,0.43372342545390125,1.360182437300682,-1.080185346224904
1757088836004969500,10.476969482421875,0.33559973583221436,1.2116016491174697,-1.3519716583162544
1757088836015016200,10.48701611328125,0.3353739642523229,0.9514479071527719,-1.3089882566362618
1757088836025062400,10.4970625,0.353660147049278,0.6637357116550207,-1.3684066602885723
1757088836035108400,10.5071083984375,0.6052607263326645,0.5325009028092026,-1.568684317961335
1757088836045155300,10.5171552734375,0.5753168389678001,0.648994069597125,-1.3699234945923089
1757088836055201300,10.527201171875,0.3247251444660127,0.8894891713678836,-0.9691928226798773
1757088836065248300,10.537248291015626,0.28237638742774723,1.0626739471927285,-0.5154495225042104
1757088836075294200,10.547294189453124,0.34167481796219945,1.0931988493159412,-0.2507096217930317
1757088836085340200,10.557340087890625,0.2814683326721191,0.8491270581021905,-0.15170856481492517
1757088836095387400,10.567387451171875,0.3534975038334727,0.46776948744058605,0.022200725892186163
1757088836105433300,10.577433349609375,0.26784999555572864,0.07092763966023921,0.13588555726110935
1757088836115480300,10.587480224609376,0.014573153623193502,-0.29023440745174883,0.16549568262696265
1757088836125526500,10.597526611328124,-0.025917700588703154,-0.2762228332340717,0.26243571542203425
1757088836135572500,10.607572509765625,-0.08703618615716695,-0.0732248106867075,0.49243806475102897
1757088836145619500,10.617619384765625,0.07549903922900557,0.21332360172867773,0.6853565918326378
1757088836155665400,10.62766552734375,0.3631514673635363,0.23272037611603735,0.4794289455741644
1757088836165712400,10.63771240234375,0.3174795572519302,-0.08391454700529574,-0.058332361981272694
1757088836175758300,10.64775830078125,-0.24988325397148728,-0.49749476361870765,-0.5829162080556154
1757088836185804300,10.65780419921875,-0.8177963925540447,-0.8876625404626131,-1.1495768623590468
1757088836195851300,10.667851318359375,-0.6547051407203078,-1.0769149462521075,-1.610902580487728
1757088836205897200,10.677897216796875,-0.2459653498753905,-1.1366811404287815,-1.5747206755161285
1757088836215944200,10.687944091796876,0.06595861907601357,-1.2198200268864632,-1.2481512183576822
1757088836225990400,10.697990478515624,0.14854089456424116,-1.2375836471140385,-0.8673784618467092
1757088836236036400,10.708036376953125,0.19435703545212746,-1.3978279850840567,-0.525922401201725
1757088836246083300,10.718083251953125,-0.08121230230927468,-1.3604068937063216,0.007310615274310111
1757088836256129300,10.72812939453125,-0.33867227514535186,-1.202729191353917,0.6981050142467021
1757088836266175200,10.73817529296875,-0.2504595925547182,-1.1070704305410384,1.369279935991764
1757088836276222200,10.74822216796875,0.005009352594614029,-1.2246873406618832,1.6118454142957925
1757088836286268200,10.75826806640625,-0.14040683407783508,-1.4778689055263996,1.389845169636607
1757088836296315400,10.7683154296875,-0.3940763285897672,-1.7757155415475367,0.9713198978364467
1757088836306361300,10.778361328125,-0.4685644372105598,-1.91349611877501,0.7872972093939781
1757088836316407600,10.788407470703126,-0.479171317551285,-1.9874317080795765,0.8574339909374713
1757088836326454500,10.79845458984375,-0.26161358538419005,-1.9575433502942323,0.5978086567610502
1757088836336500500,10.80850048828125,-0.19406828163862228,-2.1585779638141394,0.15957330684065818
1757088836346547500,10.81854736328125,-0.3653637365855276,-2.144068961468339,0.10133037670850753
1757088836356593400,10.828593505859375,-0.695750706205517,-1.875478230547905,0.4590180257081985
1757088836366639400,10.838639404296876,-1.1066400762997568,-1.7970950141847133,0.4392646929681301
1757088836376686300,10.848686279296874,-1.2424595825873315,-1.4910235706537962,0.15767536426484585
1757088836386732300,10.858732177734375,-1.2130512634038924,-1.100133324754238,0.16919395262300968
1757088836396779300,10.868779296875,-0.9666800361413508,-0.8067442526638507,0.37546646679639817
1757088836406825200,10.8788251953125,-0.5849250636599957,-0.5327011015564203,0.7142261279642581
1757088836416871400,10.888871337890626,-0.2448959670782089,-0.46103754883706566,0.6355781231850385
1757088836426918100,10.898918212890624,0.16199666153006254,-0.36350188823640345,0.15085107120275495
1757088836436964400,10.90896435546875,0.7262181059878319,-0.2802297307878733,-0.4076929121404886
1757088836447010300,10.91901025390625,0.6129483582258224,-0.36735622557699676,-0.7119166819781064
1757088836457057300,10.929057373046875,0.315057298541069,-0.16071546261310576,-0.6185381410568952
1757088836467103200,10.939103271484376,0.2470576020915061,0.15788871475458144,-0.21888298942148685
1757088836477150500,10.949150390625,0.010930559337139129,0.11342004295289516,-0.428481433147192
1757088836487196400,10.959196533203125,-0.40591311605162916,-0.19145663783550262,-1.2927806336790322
1757088836497242400,10.969242431640625,-0.2841442738831043,-0.4701169273495674,-1.949619571557641
1757088836507289300,10.979289306640625,0.007861892481520772,-0.776525055488944,-2.0124261563435195
1757088836517335300,10.989335205078126,0.026041692294552922,-1.0710936927527188,-1.6257622959673403
1757088836527382300,10.99938232421875,-0.06462934323363005,-1.2060066055893897,-0.950472340118885
1757088836537428500,11.009428466796875,0.02562076346874237,-0.6895026055961847,-0.06363368325978518
1757088836547474400,11.019474365234375,-0.09620532531235367,-0.5751525883167982,0.5155141121730208
1757088836557521400,11.029521484375,-0.11894899897482246,-0.4675128823310137,0.6684764764413237
1757088836567567400,11.0395673828125,0.12098317168354987,-0.32068332172930236,0.7100900510728358
1757088836577614300,11.0496142578125,0.08790617392472923,-0.056685179296135896,-0.012623042468726635
1757088836587660500,11.05966064453125,-0.12377722284886986,-0.21070377461910247,-0.7212088264584541
1757088836597706500,11.06970654296875,-0.047977574971783905,-0.43486499670445916,-1.164123858627677
1757088836607753500,11.07975341796875,0.21590605596993118,-0.462886976096034,-1.3928846834629773
1757088836617799400,11.08979931640625,0.275405708164908,-0.7006634665578604,-1.4584461199149488
1757088836627846400,11.099846435546874,-0.054024983643554146,-0.7825988224446773,-1.3733312572091818
1757088836637892600,11.109892578125,-0.3168646402239799,-0.8162748820751905,-1.3135679856419562
1757088836647938600,11.1199384765625,-0.5241477927446365,-0.7921130852431059,-1.14168230971694
1757088836657985500,11.129985595703126,-0.618767858159542,-0.7952420309185981,-0.9585027941003441
1757088836668031500,11.140031494140626,-0.3748281688928604,-0.7539198404490948,-0.6925733913436531
1757088836678078500,11.150078369140624,-0.07457330268621444,-0.7363818456709385,-0.3105401133775711
1757088836688124400,11.16012451171875,0.15175706186546012,-0.8016337777823209,0.0510536031499505
1757088836698170400,11.17017041015625,0.08195813397420569,-0.7028817271292209,0.10639175175130366
1757088836708217600,11.180217529296876,-0.1373147315477021,-0.6823965729832648,0.15443477490842342
1757088836718263600,11.190263671875,-0.17459201227426527,-0.5760960066467523,0.19308511582016943
1757088836728309500,11.2003095703125,-0.03849544261097908,-0.4949731361865997,0.17443565266877412
1757088836738356500,11.2103564453125,0.1963502550959587,-0.7479524564772844,0.1308113227367401
1757088836748402700,11.220402587890625,0.4752829318106174,-0.9392261389613151,-0.040916240017116065
1757088836758449700,11.23044970703125,0.7808674686074256,-0.8856032698452472,-0.16897738726288078
1757088836768495600,11.24049560546875,0.9966156671345233,-1.0056050292760133,-0.2719172449946403
1757088836778541600,11.25054150390625,0.8715046018660068,-0.8992986177206039,-0.513322447347641
1757088836788588500,11.260588623046875,0.007527472895383834,-0.6274871711879968,-0.8929290826886892
1757088836798634500,11.270634521484375,-0.176843590593338,-0.7096510751336813,-0.6930807563439011
1757088836808681500,11.280681396484376,0.8069570186316967,-0.21217150908410548,-0.1954752258270979
1757088836818727400,11.2907275390625,0.545135635715723,0.3180342685252428,-0.03624269524812698
1757088836828773400,11.3007734375,-0.045453595752385445,0.5642085849761963,0.3431780621320009
1757088836838820400,11.3108203125,0.09738602299690247,0.7442103473395109,0.6490402468264103
1757088836848866600,11.320866455078125,0.05273439584374427,0.8823767090141773,0.819822929945588
1757088836858913500,11.33091357421875,-0.09831775088906287,1.2491262008696793,1.1259209692224859
1757088836868959500,11.34095947265625,-0.1621300055861473,1.4460662385523317,1.7345067483246326
1757088836879005400,11.35100537109375,-0.39548634151816364,1.5411094978153705,2.204287283326685
1757088836889052700,11.361052734375,-0.4281704675018787,1.5825737271040676,2.303563357853889
1757088836899098400,11.371098388671875,0.2384475215911865,1.1750877357125282,2.1458380169674753
1757088836909144300,11.381144287109375,0.6965121920973062,0.5766442881792784,1.3357146432593463
1757088836919191600,11.391191650390626,0.6006517712324857,0.2902262241452932,0.7852759326994418
1757088836929237500,11.401237548828124,0.28926117850542066,0.08948328704833984,0.5217804790914058
1757088836939284500,11.411284423828125,0.15365326914191246,-0.1735018789499998,0.3875865281790495
1757088836949330700,11.42133056640625,0.40555414654612537,-0.3924608562171459,0.587135579316318
1757088836959376600,11.431376708984375,0.4693091180980205,-0.43666123247146604,0.7926400317266583
1757088836969423600,11.441423583984376,0.08765607162117958,-0.40917584417462344,0.7655778372779488
1757088836979469600,11.451469482421874,-0.29190672457814215,-0.410422629365325,0.630694735057652
1757088836989516500,11.4615166015625,-0.3722422440528869,-0.5401192688584328,0.7219561376944184
1757088836999562500,11.4715625,-0.2633563373982906,-0.6771919900774955,0.8095213161617517
1757088837009608400,11.4816083984375,0.1847685383737087,-0.5199111780881881,1.1893828030467033
1757088837019655400,11.491655517578126,0.36856092519164085,-0.48601358466148376,2.01332953492403
1757088837029701400,11.501701416015624,0.18220599440932272,-0.25914602622687816,2.300904952299595
1757088837039748400,11.511748291015625,0.07551789005994797,0.039193946269154546,2.5275445471972224
1757088837049794600,11.521794677734375,-0.07019757182002068,0.1409200442969799,2.3472470167577266
1757088837059840500,11.531840576171875,-0.2701239318370819,0.12200666951239109,1.8372972607135771
1757088837069887500,11.541887451171876,-0.2003150670737028,0.13609364705383778,1.4148817034766077
1757088837079933400,11.551933349609374,-0.06830605898499488,0.1945861680328846,1.0075886043086648
1757088837089980700,11.561980712890625,0.2397287935733795,0.3051496525108814,0.7685492543041705
1757088837100026600,11.572026611328125,0.32897184212505814,0.3756061675280332,0.7667331447929143
1757088837110072600,11.582072509765625,0.04536240577101707,0.38145372451245785,0.6730962451964616
1757088837120119600,11.59211962890625,-0.2905851205855608,0.4526011444032192,0.472877916495502
1757088837130165500,11.60216552734375,-0.0911275471240282,0.4453320301830768,0.316914909106493
1757088837140211500,11.61221142578125,0.22242986824810504,0.41239071456789966,0.2428907647356391
1757088837150258400,11.622258544921875,0.12857318842113016,0.4059457762122154,-0.03223433638960123
1757088837160304600,11.6323046875,-0.18379415864991022,0.48212242244184017,-0.36768531140089034
1757088837170351600,11.6423515625,-0.1746568942040205,0.49533320167064665,-0.5510094961851835
1757088837180397600,11.6523974609375,-0.05688040047413669,0.4571235902637243,-0.6497390427455305
1757088837190443500,11.662443603515625,-0.10906241399897262,0.3115110042363405,-0.7467676306068897
1757088837200490500,11.672490478515625,-0.17701366819692774,0.14317045357227326,-0.9436977314174174
1757088837210536400,11.682536376953125,-0.22368598752273244,-0.02906242835521698,-1.190312192851305
1757088837220583400,11.69258349609375,-0.18693243840932844,-0.2627379132390022,-1.381933958120644
1757088837230629400,11.70262939453125,-0.11305528302742168,-0.45144379106163973,-1.348841251336038
1757088837240675300,11.71267529296875,0.07154199043260887,-0.47636546635031696,-1.1297466649904846
1757088837250722300,11.722722412109375,0.2627782452493906,-0.558078703919053,-0.8233128178879618
1757088837260768500,11.7327685546875,0.23015490954220294,-0.5946434707283973,-0.5995072773724794
1757088837270815500,11.7428154296875,0.06562427255511283,-0.5847141973882913,-0.45999242369830606
1757088837280861700,11.75286181640625,0.04035424048649147,-0.5004278944611549,-0.14953794277757404
1757088837290907600,11.76290771484375,0.06556523584425449,-0.45377135722637174,0.15014292293339968
1757088837300954600,11.77295458984375,-0.043609406357537954,-0.33553076224923134,0.3814800279974937
1757088837311000600,11.78300048828125,-0.37206513392031193,-0.13646774106323717,0.6501338872820138
1757088837321047600,11.793047607421874,-0.5262076478838921,0.09513093754649161,1.0145321398362517
1757088837331093500,11.803093505859374,-0.20364331644726916,0.07043079605400562,0.9414163424819707
1757088837341139500,11.813139404296875,0.14769348395466803,0.006945289093255996,0.4164341447398066
1757088837351186400,11.8231865234375,0.24903494831277057,0.004622983625531196,0.03775105398446321
1757088837361232600,11.833232666015626,0.19292437230050563,0.09067162005007266,-0.125481359885633
1757088837371278600,11.843278564453126,0.08492808969570323,0.21783611071705816,-0.1882654405787587
1757088837381325600,11.85332568359375,0.09216505521191283,0.29761107369959355,0.004235153351724147
1757088837391371500,11.86337158203125,0.2517874984239228,0.364280471393466,0.16551614089310168
1757088837401418500,11.87341845703125,0.24557812238978222,0.3351052303135395,0.2898053683847189
1757088837411464400,11.88346435546875,0.10017769954204558,0.2448404374986887,0.43451311452686786
1757088837421510400,11.893510498046876,-0.02202768914652988,0.08859247568845749,0.3018199235662818
1757088837431557400,11.903557373046874,-0.1428512863541953,-0.09166822987198829,0.08340221356898546
1757088837441603300,11.913603271484375,-0.14769757560789584,-0.15797873112559319,-0.045833822675049304
1757088837451650600,11.923650634765625,-0.0952139396548271,-0.18775544523000717,-0.0684276395380497
1757088837461696500,11.933696533203126,-0.027628577893506735,-0.18843875131905077,-0.07543313438594342
1757088837471742500,11.943742431640626,0.1004711477969773,-0.1647609386116266,-0.09488456156998872
1757088837481789700,11.953789794921875,0.16832186422990633,-0.13176701602637766,-0.15042846187651157
1757088837491835600,11.963835693359375,0.22954349964559076,-0.028286183285713196,-0.10723550909906625
1757088837501882600,11.973882568359375,0.18174888002527875,0.08378010697066783,-0.1175423835799098
1757088837511928600,11.983928466796876,0.04630173244774341,0.14051146349608898,-0.12046586981117725
1757088837521974500,11.993974609375,-0.05808510922193527,0.1666477752715349,0.012647592388093471
1757088837532021500,12.004021484375,-0.06383506931709125,0.1931950059354305,0.06728723733127116
1757088837542067500,12.0140673828125,-0.05709434461891651,0.19690087471604345,0.05700199016034603
1757088837552113400,12.024113525390625,0.036608569418452676,0.16330606362819672,-0.022900398594141006
1757088837562160400,12.034160400390626,0.07600950950179249,0.16168401538431643,-0.13924801943153142
1757088837572206600,12.04420654296875,0.10289338824152947,0.18728607415258883,-0.21626929979175327
1757088837582254300,12.05425439453125,0.13368424782454966,0.197787594422698,-0.21916794384270905
1757088837592300300,12.06430029296875,0.10956862822175026,0.20213293015062808,-0.2667863118469715
1757088837602346500,12.074346435546875,0.14876491257846355,0.17485972329974173,-0.30856530617326494
1757088837612393500,12.0843935546875,0.17389526218175888,0.17094634924829005,-0.3525996782109141
1757088837622439400,12.094439453125,0.22625845009293405,0.17457681470513342,-0.5293953380092978
1757088837632486400,12.104486328125,0.21329907007561996,0.17384908495247364,-0.7014058093577623
1757088837642532400,12.114532470703125,0.1420136847525835,0.049611295387148854,-0.8140010919243097
1757088837652578300,12.124578369140625,0.07780684124734252,-0.04689151503443718,-0.8196747536465525
1757088837662625300,12.134625244140626,-0.017509937727451325,-0.03353518985509872,-0.6492702561900019
1757088837672671200,12.144671142578124,-0.03948209729446098,-0.013331775259971618,-0.3382663246929645
1757088837682718200,12.15471826171875,-0.004290993458498269,-0.0302379018753767,0.25824147860258817
1757088837692764200,12.16476416015625,0.17142392189847305,0.054039633223414416,0.9969301399111747
1757088837702810400,12.174810302734375,0.21349897656189276,0.008971826484799385,1.0758242284059525
1757088837712857300,12.184857421875,-0.07943827837407588,-0.136619132232666,0.6572910655602813
1757088837722903300,12.1949033203125,-0.30131053100572897,-0.2052390794724226,0.11973521744906902
1757088837732950500,12.204950439453125,-0.30538696839809415,-0.2719453020453453,-0.31685061169862744
