time,seconds_elapsed,gyro_x,gyro_y,gyro_z,acc_x,acc_y,acc_z,grav_x,grav_y,grav_z
1757088825546686000,0.01868603515625,0.0805327668786048,0.3950144946575165,0.5504887700080872,0.7486129662126302,-0.0687622965862043,-0.2075575855478644,-9.63633844152391,-0.1527013113124761,-1.8132982532277704
1757088825556732000,0.02873193359375,0.1001567021012306,0.2843795120716095,0.5791025757789612,0.84078213134408,-0.1581091525722295,-0.0573959579139947,-9.641418521267177,-0.2058094815052114,-1.780752366670966
1757088825566777900,0.03877783203125,0.103512018918991,0.2636494636535644,0.5855223536491394,0.7753086654365062,-0.2824984794374555,-0.0615422639384865,-9.644778353089094,-0.260536421139352,-1.7552078833088278
1757088825576824000,0.048823974609375,0.1098769530653953,0.3351165354251861,0.5733594298362732,0.6300830329000949,-0.3128623823126777,-0.1887530779652297,-9.648292498689887,-0.314867365459539,-1.7267577416330575
1757088825586870000,0.0588701171875,0.137877956032753,0.4323506653308868,0.5621110200881958,0.56962885645926,-0.1606952966079115,-0.3296805749163031,-9.652930095362665,-0.3678246833389624,-1.689978016898781
1757088825596917000,0.0689169921875,0.165542796254158,0.5971967577934265,0.5675481557846069,0.4318137924402952,-0.0238413327060639,-0.4161699408456683,-9.659216628286242,-0.4199837635127827,-1.641197473247349
1757088825606963000,0.078962890625,0.1816788911819458,0.7903233170509338,0.5927768349647522,0.2079565217375755,-0.0695841891620308,-0.5121830680541694,-9.667896193826198,-0.4733010738110169,-1.5742140411682426
1757088825617009000,0.0890087890625,0.190679669380188,0.9143284559249878,0.6307367086410522,0.2355786881566047,-0.112479072308354,-0.7429653157144784,-9.678010760605334,-0.5299151240997017,-1.491872296437621
1757088825627055900,0.099055908203125,0.1797828078269958,0.9487319588661194,0.6698611974716187,0.4418471106767654,-0.0832155684230849,-0.9303650793746112,-9.687954646992685,-0.5904529237033799,-1.4018866128250955
1757088825637101800,0.109101806640625,0.1251544058322906,0.9765639305114746,0.7255173921585083,0.7026216148883104,-0.0493092437006533,-1.2628557432755827,-9.696738841950893,-0.6562319849614053,-1.3088159688092766
1757088825647147800,0.119147705078125,0.0480012968182563,0.8402274250984192,0.7534070611000061,0.8193354386895895,-0.1371131262946874,-1.0132795094266531,-9.703319973906874,-0.7274929482292384,-1.2193135386690497
1757088825657194800,0.12919482421875,-0.0264221671968698,0.4946252405643463,0.7313041687011719,0.9511088844567536,-0.1916356476642191,-0.776810959758237,-9.705656307899952,-0.8000126063212751,-1.1535140556775032
1757088825667241000,0.139240966796875,-0.1154921203851699,0.0977077111601829,0.7051236629486084,1.1877075633108616,-0.181432891144976,-0.6927420259088277,-9.702985042864084,-0.870669100889936,-1.124457034149766
1757088825677287000,0.149286865234375,-0.2414454966783523,-0.2299674153327942,0.6836133599281311,1.2361492303967476,-0.3670080697264522,-0.6115529583446682,-9.695911158955097,-0.94037567432262,-1.129330923796445
1757088825687334100,0.159334228515625,-0.4254283905029297,-0.6065940856933594,0.6578933596611023,1.1566033999949692,-0.5329305994633585,-0.5719591260377317,-9.684600075867772,-1.0095338200923054,-1.166081641631946
1757088825697380000,0.169380126953125,-0.609831690788269,-1.0332787036895752,0.6515923142433167,1.0741145018786191,-0.4639440839335322,-0.4727347086325287,-9.667801501280069,-1.0791187399066984,-1.240765345890075
1757088825707426000,0.179426025390625,-0.7048018574714661,-1.33656644821167,0.7252207398414612,0.3865758898317813,-0.4719212002925574,-0.26330621464625,-9.64465443444848,-1.1537418000187725,-1.3490389658652244
1757088825717473000,0.18947314453125,-0.7222840189933777,-1.5433589220046997,0.901138722896576,-0.5980839665710925,-0.466925583962351,0.0910746478930115,-9.614383214825391,-1.2422351261816915,-1.4801605235949158
1757088825727519000,0.19951904296875,-0.6935815215110779,-1.6813327074050903,1.073832392692566,-1.1973428221404552,-0.0294487973242998,0.1677167196772992,-9.576265373355149,-1.3488631709069012,-1.626683356335014
1757088825737566000,0.20956591796875,-0.6623395681381226,-1.7850964069366455,1.194218993186951,-1.2883359292298555,0.6303228330053389,0.061877925633639,-9.530462822601198,-1.4694905148901043,-1.7836081944935025
1757088825747612000,0.21961181640625,-0.6767086386680603,-1.870754957199097,1.2538937330245972,-1.2535481089651583,1.1615914175406097,-0.0517189351908862,-9.477263147333264,-1.5994309000112117,-1.9477385801166296
1757088825757658000,0.229658203125,-0.7635726928710938,-2.254561185836792,1.1818662881851196,-0.9760480954021216,1.555371831923723,-0.2246422836005687,-9.414487834468485,-1.7298492779076098,-2.13200033801198
1757088825767705000,0.239705078125,-0.8330630660057068,-2.283604145050049,1.1297311782836914,-0.3911450974434614,1.6397577958330511,-0.4885581545777618,-9.342181892192365,-1.856582537550479,-2.333906181408465
1757088825777751000,0.2497509765625,-0.8144493103027344,-2.006882905960083,1.0778117179870603,-0.3371995722442865,1.0052040472596884,-0.0110901338130235,-9.268337488302588,-1.9800930357545612,-2.5194313833683726
1757088825787797000,0.259796875,-0.7186362147331238,-1.6696966886520386,0.9810452461242676,-0.163549809256196,0.6014227556049824,0.6044038172423839,-9.199275057992338,-2.0960031419575214,-2.6740415148437022
1757088825797844000,0.269843994140625,-0.5827488899230957,-1.3707263469696045,0.8086673617362976,0.316954072073102,0.5229562448725104,0.8952484655469656,-9.138090813711283,-2.1969521181330083,-2.7998358862012624
1757088825807890000,0.279889892578125,-0.4246639013290405,-1.0795376300811768,0.5667492747306824,0.8553525084882974,0.6863197377763688,1.052025419667363,-9.087515641728045,-2.274573264082521,-2.900648376515508
1757088825817936000,0.289935791015625,-0.2396607846021652,-0.8501734733581543,0.3159860074520111,1.4494506202936173,0.8783236342310905,1.1825912432104349,-9.049095602440833,-2.324570928438753,-2.98003813957274
1757088825827982800,0.29998291015625,-0.069152683019638,-0.7957248687744141,0.094948686659336,1.643783105826378,0.6940427332438528,1.361152451376617,-9.019719870352745,-2.3475382547892627,-3.050261722616851
1757088825838028800,0.31002880859375,0.0633328184485435,-0.6376737952232361,-0.0561993196606636,1.505216346657276,0.2697501300886273,1.4706073900908232,-8.996673341286181,-2.348814996726811,-3.1166210314482448
1757088825848075800,0.32007568359375,0.1315611451864242,-0.5254037380218506,-0.1357010602951049,0.4435965846925974,-0.1358519472524523,1.531119726459682,-8.981469342413543,-2.336610179670155,-3.1692025748178363
1757088825858122000,0.3301220703125,0.1412034183740615,-0.7796656489372253,-0.1511691212654113,0.0354682037442922,-0.4031932626336812,1.1516714965507386,-8.964344020089506,-2.3188642412297424,-3.230137812773884
1757088825868168000,0.34016796875,0.092534951865673,-1.07122802734375,-0.1301141679286956,0.3327858474552631,-0.3533564879275858,0.4752981293797492,-8.937097116723656,-2.3021122822627422,-3.316467019705474
1757088825878215200,0.350215087890625,0.0334546081721782,-1.21937358379364,-0.0678243637084961,0.1964087072849273,-0.1677382008567452,-0.1126712704122066,-8.900229567575455,-2.290807628916204,-3.421768930393457
1757088825888261000,0.36026123046875,0.0018612653948366,-1.1184533834457395,0.0560413897037506,-0.1695224539250135,0.0339789880998432,-0.6237187585651874,-8.859310697209834,-2.2894665895707904,-3.5272280774697657
1757088825898307000,0.37030712890625,-0.0500725954771041,-1.0346721410751345,0.1976134330034256,-0.671954089424014,0.343160088083893,-1.3547747330382465,-8.818062741020322,-2.3016170460917054,-3.621423779992759
1757088825908354000,0.38035400390625,-0.1717471033334732,-1.1090977191925049,0.2923521995544433,-0.591171410703659,0.6269837517105042,-1.9675994648844,-8.773000194978714,-2.3276151184402405,-3.7130928866475816
1757088825918400000,0.39039990234375,-0.3247513771057129,-1.166689157485962,0.3388025462627411,-0.223681329613924,0.5810062827810645,-1.6742989478603003,-8.722253173559903,-2.364985648674517,-3.8078243034824726
1757088825928446000,0.400446044921875,-0.2322249114513397,-1.0322428941726685,0.3017720878124237,-0.1475280642598867,0.1175720480658113,-0.0079740476191043,-8.672561214151978,-2.405381371948868,-3.8950235712468624
1757088825938493000,0.410492919921875,0.1961750090122223,-0.989679217338562,0.2217723727226257,0.1887912180185318,-0.7008778399609029,4.189680179055035,-8.624910405182838,-2.429989889635145,-3.984527024300396
1757088825948539100,0.4205390625,0.5213717222213745,-0.7160630822181702,-0.0438952632248401,0.172884039312601,-1.1643306332461536,4.060968751206993,-8.5882035995543,-2.4229316416867075,-4.067253530564904
1757088825958585000,0.430585205078125,0.6304590702056885,-0.4234631657600403,-0.2707497775554657,0.7609814493983984,0.3351047919221222,1.3725392300486563,-8.568622116249799,-2.3846909044891595,-4.130659250287711
1757088825968632000,0.440632080078125,0.6517633199691772,-0.1394780576229095,-0.3968856036663055,0.0288397255152463,0.592470364473015,-0.1439677414298057,-8.565066469594836,-2.3287154808975754,-4.169785099756718
1757088825978678000,0.450677978515625,0.6098317503929138,0.0670914873480796,-0.446601390838623,-0.5941437045127153,-0.1207793196745216,-0.4585884021192788,-8.573703365036845,-2.2653419098787007,-4.186911006602645
1757088825988725000,0.46072509765625,0.5245354771614075,0.1765335500240326,-0.4487100541591644,-0.8318091358155012,-0.5686372150734067,-0.5027341255769133,-8.589075121691822,-2.2026512065574524,-4.188853665103018
1757088825998771000,0.47077099609375,0.4374572932720184,0.2638504207134247,-0.4231119155883789,-0.8993219985961913,-0.5234542575225234,-0.7139443884134292,-8.607902571758627,-2.144733708987385,-4.18025242549628
1757088826008817000,0.48081689453125,0.3496922850608825,0.3267255425453186,-0.4080922305583954,-0.6336550461679696,-0.4498967077501118,-0.645672523958981,-8.629211901769041,-2.092446180128306,-4.162782235257327
1757088826018863900,0.49086376953125,0.2158179283142089,0.33723184466362,-0.4234917163848877,-0.1796189005255699,-0.7554553794533014,-0.705729517775774,-8.651842835772037,-2.044563608229905,-4.139536091965437
1757088826028909800,0.500909912109375,0.0745113939046859,0.2484297901391983,-0.420407772064209,0.1061608656048774,-0.8954347818993031,-0.8683271408736706,-8.672913680851458,-2.0015493730202314,-4.1164007155716416
1757088826038956000,0.5109560546875,-0.0183767732232809,0.1469362527132034,-0.3783597648143768,0.1340232705205679,-0.755138130197674,-0.6969798096090555,-8.688954715070128,-1.965722418966144,-4.099803216513991
1757088826049003000,0.5210029296875,-0.0285931918770074,0.0773270800709724,-0.3193773925304413,0.1316384212106466,-0.4989427704699337,-0.5211091557011008,-8.700335940784216,-1.9362594469860197,-4.0896740366876125
1757088826059049000,0.531049072265625,0.0305904019623994,0.0598095692694187,-0.2099329531192779,-0.1152823296934366,0.0179445297524333,-0.2325003036245703,-8.708248613604903,-1.912955143766105,-4.083796376825869
1757088826069095000,0.541094970703125,0.1328765600919723,0.0095453318208456,-0.091921366751194,-0.4471118993371725,0.4352393829748034,0.2536775316879153,-8.71280437721312,-1.8966002212926745,-4.08170671107024
1757088826079142000,0.551141845703125,0.221735417842865,-0.0989574044942855,0.0139965657144784,-0.3747854987949133,0.5013454476974905,0.5123652927532791,-8.711658714309333,-1.8857925576828416,-4.089152935422956
1757088826089187800,0.561187744140625,0.2447001338005066,-0.2642345130443573,0.1428325623273849,-0.2375871053695678,0.3788138775281608,0.3805094293996691,-8.703259719276428,-1.8826717953138048,-4.1084310518667095
1757088826099235000,0.571235107421875,0.1724458187818527,-0.6147340536117554,0.2887988090515136,-0.0847241098225116,-0.0593865472093224,-0.0616810878872871,-8.681196356028318,-1.89263599383682,-4.150318182742596
1757088826109281000,0.581281005859375,0.0618862845003604,-0.9150962829589844,0.4092341363430023,0.2743412572711706,-0.4378064569838344,-0.3237289730355143,-8.641926421913505,-1.9183871056869624,-4.2198672275260085
1757088826119327000,0.591326904296875,-0.0092848790809512,-1.053864598274231,0.4574782848358154,0.479409071829915,-0.5388657616659999,-0.4772103927418589,-8.590964296439289,-1.9552938178017731,-4.306105249042809
1757088826129374000,0.6013740234375,-0.036391332745552,-1.1273095607757568,0.4404582679271698,0.5925052896559239,-0.3856003227978944,-0.3156608173921704,-8.534071611872315,-1.995283444493264,-4.399868989889323
1757088826139420200,0.611420166015625,0.0634922757744789,-1.0052801370620728,0.427691251039505,0.5551005648910999,0.1750796496607363,0.023166940575838,-8.476914723411202,-2.032082020058483,-4.492542597411573
1757088826149466000,0.621466064453125,0.3101286888122558,-0.65633624792099,0.4537904858589172,-0.1114122102618217,1.363564627084881,0.3499401036128401,-8.42975199021995,-2.0610254982091485,-4.567476257842779
1757088826159513000,0.63151318359375,0.6204421520233154,-0.2422750145196914,0.5116757154464722,-0.8398819676339626,2.1584834173984824,1.0884949094086884,-8.398893326097726,-2.080372588235885,-4.615303592422604
1757088826169559000,0.64155908203125,0.9123365879058838,0.0493294186890125,0.5845023393630981,-0.9967921927452088,1.847438569369167,1.9018486433401705,-8.384138824558258,-2.0904500378750264,-4.637523315276205
1757088826179605000,0.65160498046875,1.0157997608184814,-0.2563734352588653,0.6986495852470398,-0.6391489674091339,1.27398533231616,2.019016932910681,-8.367837678098677,-2.0984885290324686,-4.6632630289494985
1757088826189652000,0.66165185546875,0.9458612203598022,-1.114718317985535,0.8133602142333984,0.6471200924187899,0.3084327658347785,1.4435428575545548,-8.320536413219571,-2.115456322707236,-4.739610355570912
1757088826199698000,0.671697998046875,0.8665774464607239,-2.0655088424682617,0.8975273370742798,2.272697679468989,-0.3467831008866429,1.2157090844362974,-8.224683006617427,-2.143186625675857,-4.892005733606219
1757088826209745000,0.681744873046875,0.8730987310409546,-2.7622199058532715,0.9670227766036988,2.6699136212587358,0.0074798343613743,1.436349146658182,-8.082455386853217,-2.1761776256516576,-5.109653043752909
1757088826219790800,0.691790771484375,0.8506746292114258,-3.1188178062438965,0.9977700710296632,1.8036942663192748,0.0740631612069904,1.346554309442639,-7.904419371604919,-2.209990317273885,-5.367167084863782
1757088826229837000,0.701837158203125,0.7669323086738586,-2.993990659713745,0.8965475559234619,0.6317565190702676,-0.2929303685374558,0.4979331550359726,-7.712607928982377,-2.240284479381144,-5.627360574316978
1757088826239883800,0.7118837890625,0.6593747735023499,-2.4565343856811523,0.6633245348930359,-0.1842342853665352,-0.3621418519295752,-0.6781921070307493,-7.536616571304202,-2.2593593283377587,-5.85363893468678
1757088826249930000,0.721929931640625,0.5649635791778564,-1.873875379562378,0.4139375984668731,-0.6931634661912918,-0.1730744473181664,-1.442535726338625,-7.395946117854118,-2.2630255957603453,-6.029019466990232
1757088826259976000,0.731975830078125,0.4843552708625793,-1.553136110305786,0.2639020383358001,-0.8568418702632188,0.1015806982077658,-1.2022849547177552,-7.2846402905762195,-2.2553147291220723,-6.165870069891214
1757088826270023000,0.74202294921875,0.481769859790802,-1.5429260730743408,0.2910705506801605,-0.8017571119010448,0.246512754625082,-0.7680395512163639,-7.183204699927568,-2.2447731691025195,-6.2875231036603445
1757088826280068900,0.75206884765625,0.5704190135002136,-1.8639203310012815,0.4399476647377014,-0.6979197208076715,0.580991231342405,0.1227934359759092,-7.067373504179716,-2.237479358832538,-6.419992130476236
1757088826290114800,0.76211474609375,0.7270485758781433,-2.3610527515411377,0.5722044706344604,-0.1592488971918821,0.8425162616603076,1.0249603026092051,-6.918310485437512,-2.231153516811877,-6.58250149076879
1757088826300162000,0.772162109375,0.915896773338318,-2.89497971534729,0.6568660736083984,0.6594798077762126,0.7242920332960784,1.685335013398528,-6.728182465857267,-2.2182738692335784,-6.780944334229827
1757088826310208000,0.7822080078125,1.031007170677185,-3.491552829742432,0.7712997198104858,1.2804279325842856,0.8377886486165225,2.010142721581459,-6.491556898996233,-2.197096641170233,-7.0144731041193005
1757088826320255000,0.7922548828125,0.9208295345306396,-4.123240470886231,1.1296695470809937,1.0898556763678788,1.4414273267053066,1.755558888703585,-6.197585643103718,-2.1855752763330933,-7.278982118684053
1757088826330301000,0.802301025390625,0.8814922571182251,-4.715914249420166,1.7681338787078855,-0.7348276019662618,2.781305373254418,1.0442635534942148,-5.8362084919363255,-2.206397699609399,-7.565769016030431
1757088826340347100,0.81234716796875,0.963381290435791,-5.252566337585449,2.324916124343872,-2.210011213931441,2.456568976742029,1.9238158527374267,-5.402502602139115,-2.2512658921226856,-7.868617990383505
1757088826350394000,0.82239404296875,0.9694543480873108,-5.411186695098877,2.416745901107788,-1.5539613806039094,1.6252838648006318,2.351104276707768,-4.914572370201349,-2.297754963836074,-8.169313001573085
1757088826360440000,0.832440185546875,1.0306214094161987,-4.953133583068848,2.0496480464935303,-0.4052309059411287,1.372036541223526,1.8296598977029324,-4.4274648528233165,-2.320888732794672,-8.436908291715383
1757088826370486000,0.842486083984375,1.203991413116455,-4.282423496246338,1.4433577060699463,0.5133195247381925,1.479798996806145,1.6741180383354424,-3.9907483830332753,-2.299663573936373,-8.657706174847483
1757088826380533000,0.852532958984375,1.4413453340530396,-3.688076972961426,0.8476637005805969,1.1372177315235137,1.516411986671388,1.8109008366972208,-3.6146176071092486,-2.227040966926515,-8.83997763570845
1757088826390579000,0.862578857421875,1.6727514266967771,-3.181081295013428,0.4638516008853912,1.1262041700780392,1.4506201024644076,1.9324813897520303,-3.2938547904029485,-2.109474471818656,-8.992832447949052
1757088826400626000,0.8726259765625,1.849998354911804,-2.897331714630127,0.4099757373332977,0.0233446352303028,1.6042840391308069,1.6712871988236904,-3.009961860932409,-1.9620675497204063,-9.124736242097615
1757088826410671900,0.882671875,2.00290322303772,-2.7005953788757324,0.6733247637748718,-1.513478563567996,2.5352660813599823,1.2881512203127146,-2.7420652497559783,-1.7991987084656953,-9.241988410559296
1757088826420718000,0.892718017578125,2.064821243286133,-2.6295313835144043,1.0771522521972656,-2.392128945535421,3.323118878810108,1.7507494425952437,-2.479772157675028,-1.6313161307021975,-9.346653484648463
1757088826430764800,0.902764892578125,1.9810811281204224,-2.9217238426208496,1.4517266750335691,-1.5684147072397172,2.4864699017480016,1.8874357948452236,-2.200507764787972,-1.4693829628624022,-9.44293709936142
1757088826440811000,0.91281103515625,1.812358021736145,-3.4921677112579346,1.6874080896377563,-0.2760857628509402,1.3338906427025794,1.4742308412849905,-1.873159724472463,-1.32072253357172,-9.535060087263584
1757088826450857000,0.92285693359375,1.6063244342803955,-3.9031667709350586,1.7793800830841064,0.2622473532430827,0.4230138884562999,0.7720908724337816,-1.4937648321859538,-1.1857168278850614,-9.619415363773705
1757088826460904000,0.932904052734375,1.4072805643081665,-4.005308151245117,1.7469580173492432,0.0951250923275947,-0.5120832609415054,0.0487450339466333,-1.088569362884387,-1.0625533164877443,-9.687950555339455
1757088826470950000,0.942949951171875,1.235239028930664,-3.8146235942840576,1.6316429376602173,-0.191996736061573,-0.9337345558077096,-0.6446358743876218,-0.6883212137918919,-0.9490057016324251,-9.73632324884236
1757088826480995800,0.952995849609375,1.1405444145202637,-3.383725881576538,1.4537488222122192,-0.7511644042611122,-0.9708904934432356,-1.0531026935100556,-0.3208392429433763,-0.84107117741853,-9.76524656098783
1757088826491042800,0.963042724609375,1.1737017631530762,-2.877239942550659,1.2324122190475464,-1.1302151592850684,-0.5116152781035751,-0.9499018467545508,-0.0032896506646604,-0.7303767600372433,-9.779413618028164
1757088826501088800,0.9730888671875,1.284123778343201,-2.4893383979797363,0.9703345894813538,-1.0054092144429685,0.1292314696667715,-0.4914765262424945,0.2666487665398046,-0.6082214758343994,-9.784138892984387
1757088826511136000,0.983135986328125,1.3847004175186155,-2.2907357215881348,0.7086286544799805,-0.7266857965648174,-0.1033564026433974,0.3472404892653226,0.5047733032543212,-0.4736461974542588,-9.782190097004175
1757088826521182000,0.993181884765625,1.4685405492782593,-2.2546281814575195,0.5367469787597656,-0.7499391733150929,-0.5617407700905576,0.987199604013562,0.7295880938775837,-0.3295007979026064,-9.773920865830778
1757088826531228200,1.003228271484375,1.542249321937561,-2.302122116088867,0.4276239573955536,-0.944731019987911,-0.6217867675893008,1.2751274880886077,0.953858694621548,-0.1777268397012725,-9.75853332708478
1757088826541275100,1.013275146484375,1.6404962539672852,-2.4862985610961914,0.3372025191783905,-0.8616751356385648,-0.5521554513499141,1.3399942202746868,1.1871375814031808,-0.018113436028955,-9.734515322637558
1757088826551321000,1.023321044921875,1.7968064546585083,-2.8608415126800537,0.2659547030925751,-0.8835270480930805,-0.4863463237471878,1.162504732993245,1.4467634270362555,0.1532529812453314,-9.698132926657795
1757088826561367000,1.033366943359375,2.550873279571533,-3.7701568603515625,-0.0757985860109329,-0.9911329979397356,-0.0033344781849533,-0.0019195698857307,1.767901506795734,0.364709181666933,-9.639080433708427
1757088826571414500,1.04341455078125,2.7804579734802246,-4.072391510009766,-0.2227097302675247,0.489015689086914,1.8344053386643528,-1.5360779333889485,2.1519388180606067,0.6236917244277894,-9.54728010188937
1757088826581460500,1.05346044921875,2.2940211296081543,-3.8467977046966553,-0.1398182511329651,0.3297451645851135,-0.8072615545362234,-2.533902391791344,2.53177443985194,0.8641238439649342,-9.434711707329749
1757088826591506400,1.06350634765625,1.628456473350525,-3.6223881244659424,0.0089533794671297,-1.0859247666597365,-3.24997736249268,-4.06110669837296,2.8830726800754665,1.046264371922612,-9.31469942650497
1757088826601553400,1.073553466796875,1.280310869216919,-3.59494423866272,0.1556470692157745,-2.1992565956830976,-3.771095870544016,-5.195613417372107,3.21649273378104,1.1819163396235557,-9.188450881639122
1757088826611599400,1.083599365234375,1.1601853370666504,-3.609149932861328,0.3102321028709411,-2.0151047279030085,-3.169281193011999,-5.10209576024115,3.544100886337459,1.3012052015446125,-9.050776687395572
1757088826621646300,1.093646240234375,1.0559430122375488,-3.418605327606201,0.4532230496406555,-1.6777981881529092,-2.473484455707669,-3.8407629887491455,3.8574204013004896,1.415546889387071,-8.90432180532515
1757088826631692300,1.1036923828125,0.9697052836418152,-2.9983158111572266,0.5412921905517578,-1.7305565493941306,-2.3723352807849643,-2.492987028557062,4.1352334263354535,1.5252369520314035,-8.76035932459235
1757088826641738500,1.113738525390625,0.949212372303009,-2.5415360927581787,0.6235085725784302,-1.9219681790441276,-2.5817981154322625,-1.4047025470286607,4.368692930381,1.6332456374600528,-8.626554665258526
1757088826651785500,1.123785400390625,0.8365963697433472,-0.8143011331558228,1.4976253509521484,-1.3591574781671163,-2.79208278785646,-0.8156786697477102,4.51097432615906,1.7570393365196884,-8.528440912508964
1757088826661831400,1.13383154296875,0.0148668186739087,1.182816743850708,0.4390066266059875,7.744744942477345,-1.966450148718804,-2.9267028552263974,4.4646366456151005,1.8418024631783363,-8.53494021140039
1757088826671877400,1.14387744140625,0.0277618467807769,-0.1058006957173347,-0.1562767028808593,25.838647510254383,0.6252800165325403,-6.602798428866267,4.391292007941007,1.847631461592764,-8.571652862247824
1757088826681924400,1.15392431640625,-0.0719000697135925,-0.6544293761253357,-0.3953256011009216,5.800711062097549,-1.1527597301788628,0.1151467206150293,4.442131383818388,1.8322636504605407,-8.548720314949751
1757088826691970300,1.16397021484375,-0.1215794757008552,-0.82768714427948,-0.1820564717054367,4.010670058077573,-2.499954529482126,0.4208879092782736,4.510293942679464,1.810424743618071,-8.517629011115432
1757088826702017300,1.174017333984375,-0.1324100941419601,-0.6368768811225891,-0.00371919805184,1.02459731451571,-1.3173187164776026,0.3147837422966957,4.577086674492061,1.7952615151472389,-8.485147714227438
1757088826712063200,1.184063232421875,-0.0630898773670196,-0.3147741854190826,0.0802803635597229,-0.7408890939623117,-0.7690101498141885,-0.3461795820355415,4.616054410789907,1.7887905655674636,-8.465381522005796
1757088826722109400,1.194109375,-0.0255465283989906,-0.0897676348686218,0.0747363716363906,-0.7466022109121084,-0.2956055790960789,-1.066893318453431,4.631792954930663,1.7894379235602915,-8.45664350427687
1757088826732156200,1.20415625,-0.0787370502948761,-0.0003123230999335,0.0142290843650698,-1.58613171184659,0.5347852143540978,-1.2305559404343367,4.632603979052603,1.7871414831861852,-8.45668325176537
1757088826742202400,1.214202392578125,-0.1153285428881645,-0.1475157588720321,-0.0444420091807842,-1.6751356909453867,1.318126379598677,-1.1373878273934126,4.639157346218824,1.778174917398393,-8.454981124022602
1757088826752248300,1.224248291015625,-0.1285897493362426,-0.1926174461841583,-0.0872890725731849,-1.516810922861099,0.98195381231457,-0.6320744989782572,4.655011041171848,1.7644947670921682,-8.449132397994399
1757088826762295600,1.234295654296875,-0.0956556722521781,-0.2904637455940246,-0.1365897506475448,-1.2046452541083097,0.8416076223827899,0.0403168128192424,4.676986141614616,1.7496669080555438,-8.440075231313704
1757088826772341500,1.244341552734375,-0.0987196415662765,-0.2671563029289245,-0.110335499048233,-0.955763432264328,0.9357714684627948,0.1496943023830652,4.704035476581752,1.7355590338565408,-8.427945817580818
1757088826782387500,1.254387451171875,-0.1239586696028709,-0.1709206402301788,-0.0915370136499404,-0.3508551726311445,0.5811613272123038,-0.1471738439947366,4.7243122486740345,1.721761102389544,-8.419428164604305
1757088826792434400,1.264434326171875,-0.1580481976270675,-0.012015676125884,-0.1555974781513214,0.4137713552713394,0.3137513305090367,0.0235509714573621,4.734510109822452,1.7039621185876428,-8.417322716757655
1757088826802480400,1.27448046875,-0.1649037152528762,0.1479622721672058,-0.2423206865787506,0.8725251770853996,0.3244200240395963,0.1112678333550691,4.731851704268157,1.680723866341263,-8.42348708460629
1757088826812527400,1.28452734375,-0.144019216299057,0.2121244817972183,-0.2972137629985809,0.8376116846144199,0.5441532005496322,0.1703296786546707,4.720377831834554,1.654472111492604,-8.435113809514045
1757088826822573300,1.2945732421875,-0.1176210269331932,0.2609290778636932,-0.3290727734565735,0.5453156684577465,0.5667188142314553,0.0324479791402816,4.705917344805598,1.628614470528066,-8.44821645219326
1757088826832619500,1.30461962890625,-0.1128616854548454,0.3532326519489288,-0.3085651099681854,0.2521849550426006,0.3759204941742122,-0.3890478329032659,4.684808798064291,1.6036353659637272,-8.464709906354546
1757088826842666500,1.31466650390625,-0.1215374395251274,0.3509649038314819,-0.2593617737293243,0.097440968054533,0.2543926942199468,-0.6660889967828989,4.658939612792432,1.5803139654785394,-8.48335264750421
1757088826852712400,1.32471240234375,-0.1328462809324264,0.2786001563072204,-0.2265915721654892,0.2642383809298276,0.0628463322743773,-0.5837082352161407,4.635645246444643,1.558177975385636,-8.50019330766797
1757088826862758400,1.33475830078125,-0.1445713192224502,0.1776012331247329,-0.2043699622154235,0.3025222266167402,-0.1161817627511918,-0.3490267881602049,4.619507766114175,1.53624276856184,-8.512962188348174
1757088826872805400,1.344805419921875,-0.1462035775184631,0.0885432735085487,-0.1456193029880523,0.0827870042800903,-0.0656805327869951,-0.1975140381783247,4.610746367509663,1.515519275615364,-8.521420220091938
1757088826882851300,1.354851318359375,-0.1198586821556091,-0.0156803000718355,-0.117086686193943,-0.0255395149260759,0.0012970540732145,0.1276455521821975,4.609538745285571,1.4980718817301093,-8.525159406620263
1757088826892897300,1.364897216796875,-0.082526221871376,-0.1155653521418571,-0.0962636992335319,0.047544425985217,-0.2231983684025704,0.4060574198931455,4.616810197593272,1.4844938766241074,-8.52359931769669
1757088826902944300,1.3749443359375,-0.0658908188343048,-0.1894578486680984,-0.071679338812828,0.0117053431019186,-0.362170201241225,0.3490373095542192,4.631399279437959,1.4742767262533307,-8.517454239070416
1757088826912990200,1.384990234375,-0.0675118789076805,-0.2209057956933975,-0.0578849613666534,-0.0246671160057187,-0.4039303447365761,0.2406727964252233,4.650115378084778,1.4656089972816406,-8.508748370045423
1757088826923037200,1.395037109375,-0.0538687743246555,-0.2094518542289734,-0.0433720797300338,-0.1067003793090581,-0.255313608457148,0.165595635870099,4.669599538494646,1.4581003752171993,-8.499361533018947
1757088826933083400,1.40508349609375,-0.0426813662052154,-0.1427417993545532,-0.0209344122558832,-0.262189923967421,-0.1772759906612336,0.3036702276080846,4.685327561241388,1.452337866167724,-8.49168968321681
1757088826943129300,1.41512939453125,-0.0308830309659242,-0.0633766576647758,-0.0057064574211835,-0.3140340929731726,0.007766688478738,0.2167839713156223,4.694225445707142,1.448655816654116,-8.487402215155958
1757088826953176600,1.425176513671875,-0.0230095237493515,0.0199232697486877,-0.0078791892156004,-0.1847495414122939,0.0305212488614022,0.2138976022243499,4.696173072643578,1.44610233277902,-8.486760410121082
1757088826963222500,1.435222412109375,-0.0195529554039239,0.0801649689674377,-0.0209873672574758,-0.0252367325872182,-0.0439126453541219,0.0837736772298812,4.691686574879288,1.443622937053442,-8.489667237478494
1757088826973268200,1.445268310546875,-0.0200922451913356,0.0903768613934516,-0.0392766259610652,-0.0086339728325605,-0.020068243908137,0.0004144260197877,4.684510984161496,1.4405783086605368,-8.494145259675383
1757088826983315500,1.4553154296875,-0.0201838798820972,0.0421872809529304,-0.0539184845983982,0.0118827454954385,-0.0930890564553439,-0.0997299557745456,4.679256716895103,1.436685246744752,-8.497699737286567
1757088826993361400,1.465361328125,-0.0245168432593345,-0.0372438952326774,-0.0597691796720027,0.0425870958387851,-0.0913993498027324,-0.2647521756708622,4.679826625737547,1.432002788016945,-8.498175538104771
1757088827003408400,1.475408447265625,-0.0326726287603378,-0.0878740772604942,-0.042312528938055,-0.0436743065536022,-0.1079514022834599,-0.3926186771273612,4.686330308543146,1.4271565170295537,-8.495406073391438
1757088827013454300,1.485454345703125,-0.0397643633186817,-0.0848274230957031,-0.003605613252148,-0.2154261269658803,-0.1680868681639432,-0.4866138886421918,4.694379467225074,1.42309759702757,-8.491643505987524
1757088827023500500,1.49550048828125,-0.0466197356581687,-0.0500268526375293,0.0304973702877759,-0.2794827118128538,-0.1926794576287269,-0.5113374110102653,4.699926872219145,1.420156575139612,-8.489064010888338
1757088827033547500,1.505547607421875,-0.0636234879493713,-6.62191596347e-05,0.0573731921613216,-0.2115320421367883,-0.2309120115198195,-0.4560971698254346,4.701259582127631,1.4173887178614737,-8.488791039165854
1757088827043593500,1.515593505859375,-0.0673421695828437,0.0433486029505729,0.0749228149652481,-0.161242701357603,-0.2990142184957862,-0.3364794412761926,4.698404192696511,1.4148619758628307,-8.49079244211614
1757088827053639400,1.525639404296875,-0.0743923559784889,0.0703242942690849,0.075084738433361,-0.0926619170844554,-0.1688357868351042,-0.1376864692032337,4.692223165974021,1.4124739116825162,-8.494607616490125
1757088827063686400,1.535686279296875,-0.096223197877407,0.0949603617191314,0.0602127984166145,-0.0144227853670716,-0.193844994276762,-0.131992056953907,4.684013848294318,1.4081540026567876,-8.499852531406283
1757088827073732400,1.545732421875,-0.099165454506874,0.0777973532676696,0.0439201109111309,-0.0219607796564698,-0.1800739508166909,-0.1789011076450347,4.675839601927995,1.402313752195984,-8.505316642031072
1757088827083778300,1.5557783203125,-0.0958533585071563,0.0467333048582077,0.0431030839681625,-0.0997396003857254,0.0447156323000788,-0.0804337191522121,4.669821949073672,1.395995070568472,-8.509661977759004
1757088827093825300,1.5658251953125,-0.0823926776647567,0.0100538525730371,0.058244489133358,-0.2630830734148621,0.1862327657073736,-0.1094575690627098,4.666766068634391,1.3906477181911467,-8.512210493198037
1757088827103871200,1.575871337890625,-0.0541822984814643,-0.0186755992472171,0.0755716860294342,-0.3260638457238674,0.4126536032877862,-0.0854161837399005,4.666302835036814,1.3879356827534737,-8.512910165899992
1757088827113918200,1.585918212890625,-0.0358823873102664,-0.0215800423175096,0.0857252553105354,-0.2712736863940954,0.5262228454530239,-0.037182606446743,4.66702734991908,1.3879412357114254,-8.512510352927446
1757088827123964400,1.59596435546875,-0.0259722769260406,-0.0043671228922903,0.0780243277549743,-0.1577028367936611,0.4286895229399204,-0.1054015716701746,4.666882096229493,1.389257725137472,-8.512377666458487
1757088827134010400,1.60601025390625,-0.0210049487650394,0.0099457707256078,0.0569406151771545,0.0207049343764781,0.2102200827553868,-0.1737526388406753,4.6656455401718615,1.390453364662826,-8.512859897017478
1757088827144057300,1.616057373046875,-0.0244828537106513,0.0215650089085102,0.0323114432394504,0.141658295443654,0.0586957884661853,-0.2237035414457321,4.663654074093699,1.390544550077617,-8.51393658633828
1757088827154103300,1.626103271484375,-0.0261768903583288,0.0185212828218936,0.0190552901476621,0.0782511144161224,-0.0539431871116161,-0.2944827125459909,4.661520569196343,1.3894588006675244,-8.51528157120645
1757088827164149200,1.636149169921875,-0.0274164341390132,-0.0004377984150778,0.0110479155555367,-0.0065483987301588,-0.1795873363435268,-0.2177414181709289,4.660426636479794,1.387761202969402,-8.516155431431532
1757088827174196500,1.646196533203125,-0.0232816096395254,-0.0337917581200599,0.0121238324791193,-0.0980219828128814,-0.234316559266299,-0.1116045179635286,4.661669914539158,1.386077195405215,-8.515751526805758
1757088827184242400,1.656242431640625,-0.0208921059966087,-0.0641238018870353,0.020293952897191,-0.242512286812067,-0.2198161786183714,-0.0496972201049327,4.665650508607924,1.3848945614919066,-8.513763567858934
1757088827194289400,1.666289306640625,-0.0199392288923263,-0.0715905055403709,0.0280312336981296,-0.2979416208282113,-0.2185856139101087,-0.0303700038224458,4.671249643789231,1.3842624010682103,-8.510794196659326
1757088827204335400,1.67633544921875,-0.0194890387356281,-0.0582648143172264,0.0349941439926624,-0.32719664914608,-0.1735420648299157,0.0057248073875904,4.676413602423668,1.3841102792464195,-8.507983815413713
1757088827214381600,1.686381591796875,-0.0142202414572238,-0.0320388041436672,0.03255096077919,-0.333311917155981,-0.0951512496821582,-0.0017214169651269,4.6798353935658925,1.384279206072539,-8.506074182400107
1757088827224428300,1.69642822265625,-0.0029602982103824,-0.0026121223345398,0.020882086828351,-0.2188496716737747,-0.0541486465558409,0.0781289493411779,4.680893670447171,1.3847262191876768,-8.505419517883658
1757088827234474500,1.706474609375,0.0020126225426793,0.0265870410948991,0.0110499635338783,-0.1570490490600466,-0.0490941396452486,0.0570697946995496,4.679546055230498,1.3853575028285383,-8.506056062221527
1757088827244520400,1.7165205078125,0.0067963367328047,0.0338635705411434,0.008182437159121,-0.1866805094748735,0.0043177170686423,-0.0958604208648204,4.676557102547585,1.386264680801332,-8.507554776346684
1757088827254567400,1.7265673828125,0.0113780396059155,0.0109830209985375,0.0127718625590205,-0.2370639582782983,0.039248891326785,-0.2226847197920083,4.674417752431332,1.3875458066530524,-8.508520991030334
1757088827264613400,1.73661328125,0.0131588727235794,-0.0176120828837156,0.0202805809676647,-0.2926286091119051,-0.0097141692847013,-0.3217705324441194,4.674466852270067,1.3893731682106851,-8.50819599685967
1757088827274660400,1.746660400390625,0.0015850407071411,-0.044580053538084,0.0340842753648757,-0.3534229772925377,-0.0186716749832034,-0.418210799023509,4.676753209641576,1.3912974142715333,-8.506624802020191
1757088827284706300,1.756706298828125,-0.0066333296708762,-0.0608330853283405,0.0527800992131233,-0.3458165939420461,-0.0304940685935318,-0.4377607181459665,4.680518699654937,1.3929445969566705,-8.504284376373887
1757088827294752300,1.766752197265625,-0.0138760628178715,-0.0654909536242485,0.0675230920314788,-0.2990820230349898,-0.0048417409427464,-0.3545399986237287,4.684809674847125,1.3948251500062645,-8.50161018872857
1757088827304799200,1.77679931640625,-0.0169942826032638,-0.0726209357380867,0.0870016738772392,-0.2242532842829823,-0.0165254567347466,-0.2729179464697838,4.689438795952499,1.397081842891872,-8.498688163802028
1757088827314845400,1.786845458984375,-0.0163239650428295,-0.0917525514960289,0.110698215663433,-0.1964221512883901,-0.0165372933030128,-0.232202489721775,4.694978017640113,1.400236361400038,-8.495112643402814
1757088827324891400,1.796891357421875,-0.0096274381503462,-0.1206683591008186,0.1153142973780632,-0.1499070683509111,-0.006934913829714,-0.1516910291582346,4.702332179795206,1.4045502790763973,-8.490330669823289
1757088827334938400,1.8069384765625,-0.0121108358725905,-0.1393235474824905,0.1248358935117721,-0.0539914101675152,-0.0820411543488502,-0.0983890625596046,4.71191015547961,1.4093265535674988,-8.484224754163622
1757088827344984300,1.816984375,-0.0260528344660997,-0.1378762125968933,0.1320557445287704,-0.0551312278524041,-0.2037707604855299,-0.2342541615545749,4.721878884047269,1.4137402783565225,-8.477945820024608
1757088827355031600,1.827031494140625,-0.035608522593975,-0.1435071974992752,0.1153806298971176,0.0811868756070733,-0.1836881957910955,-0.1898719989925623,4.732055117885768,1.4168513961143792,-8.471749303472041
1757088827365077500,1.837077392578125,-0.0399021320044994,-0.1450631618499755,0.0839756578207016,0.2151204220175743,-0.06453852314502,-0.0735199942409992,4.74297077191472,1.4183096320986748,-8.465398473140597
1757088827375123500,1.84712353515625,-0.0429921969771385,-0.125679075717926,0.0579557679593563,0.1715864007174968,0.0703133071541786,-0.007445055308938,4.753585104909539,1.41798229984045,-8.45949947822988
1757088827385170400,1.85717041015625,-0.0420850850641727,-0.0712142959237098,0.0389427803456783,0.0539852726876735,0.0821228412829339,0.0746007752150297,4.761353693084419,1.4166476902358234,-8.45535580255389
1757088827395216400,1.86721630859375,-0.0249306000769138,-0.0273272674530744,0.0136664528399705,0.0331254400104284,0.1435140063129365,0.2568558694630861,4.765005493590236,1.415111566709727,-8.453556059655547
1757088827405263400,1.877263427734375,-0.0111907366663217,0.0012296342756599,-0.0127920694649219,0.07655833902359,0.1442892284691333,0.3012836247324943,4.766014086110889,1.4135878642737865,-8.453241002357005
1757088827415309300,1.887309326171875,-0.0018022946314886,0.0025532252620905,-0.0280101727694273,0.1034410852521657,0.1165029575295746,0.1573456939190626,4.7659170554772015,1.412045457137376,-8.453554890611768
1757088827425355500,1.89735546875,0.0014317648019641,-0.0233221389353275,-0.0297955367714166,0.0750865129053592,0.0521413983866572,0.0170487499564886,4.767036122635006,1.4105661783650516,-8.453167937120794
1757088827435402500,1.907402587890625,0.003480800660327,-0.0561732985079288,-0.0262149162590503,0.0265919465884566,-0.0203068749696016,-0.105630119729042,4.77078904542774,1.4093926045410334,-8.451246029147505
1757088827445448400,1.917448486328125,0.0038754283450543,-0.0725790485739708,-0.0265026930719614,0.0259080559775233,-0.0998601580254733,-0.1278209087491035,4.776710544431209,1.408440856774151,-8.448059215804934
1757088827455495400,1.927495361328125,0.0092166643589735,-0.0765125378966331,-0.0227071568369865,0.0292529824912548,-0.1368902042590081,-0.0620814853817224,4.783392506413161,1.407912302855402,-8.444369129115342
1757088827465541400,1.937541259765625,0.0094598503783345,-0.0748550593852996,-0.0247848387807607,0.0240396317571401,-0.1245224517256021,-0.0398082787752151,4.790102233184874,1.4076650500960648,-8.44060480814576
1757088827475587300,1.94758740234375,0.0114558897912502,-0.0564068034291267,-0.0284062046557664,0.0053875382572412,-0.0532769782878458,-0.0283954888790845,4.796183306664228,1.4073475085794924,-8.437201137182116
1757088827485634300,1.95763427734375,0.0066082342527806,-0.031627383083105,-0.0395413897931575,-0.0412087932229042,-0.0482411760777235,-0.0814624776780605,4.800283727720379,1.4065018515355885,-8.43501210270524
1757088827495680300,1.96768017578125,0.0057791923172771,-0.0147634465247392,-0.0407866835594177,-0.0497521651625633,-0.0453312799803912,-0.0625461802840232,4.802692542427778,1.4050886237367988,-8.433878714761137
1757088827505726500,1.9777265625,0.0053870696574449,-0.0098970895633101,-0.0363485775887966,-0.0910594503238797,-0.0525610851034522,-0.0194675015360116,4.804194763684272,1.4036387171894311,-8.43326087512374
1757088827515773200,1.987773193359375,0.0065002711489796,-0.0127325570210814,-0.0237757917493581,-0.1355605630904436,-0.0755706431604921,-0.03627425943017,4.805601415611803,1.4027066970363258,-8.432616732001303
1757088827525819400,1.9978193359375,0.0106731997802853,-0.0135704427957534,-0.0114945601671934,-0.1006593455791473,-0.1100479361712932,-0.0494265864700078,4.806912205949425,1.4026175574481488,-8.431883157029748
1757088827535866600,2.00786669921875,0.0106210019439458,-0.015503897331655,0.0027552160900086,-0.0710609106510877,-0.0883183349221944,-0.1078559790849685,4.808138825134932,1.4033337428934871,-8.431064826384187
1757088827545912600,2.01791259765625,0.0111708529293537,-0.0163838919252157,0.0116048911586403,-0.0238683668434619,-0.0782362091079354,-0.183475575953722,4.809429449467361,1.404624367225915,-8.430115562835335
1757088827555958300,2.027958251953125,0.0058804838918149,-0.0119934063404798,0.0159357227385044,0.0027066286101937,-0.079474372600764,-0.2165752970010042,4.8103863118007775,1.4060114376701414,-8.429334057068825
1757088827566005500,2.038005615234375,0.0023021162487566,-0.0055163041688501,0.0181049704551696,-0.0361556014865636,-0.0864284295223653,-0.2555997319221496,4.810793139036,1.4071300664365292,-8.428919046527147
1757088827576051500,2.048051513671875,-0.0024910410866141,0.0079481052234768,0.0244566090404987,-0.0762982267826795,-0.1206231061995029,-0.2505909638494253,4.810382804669439,1.408104902818054,-8.42898743558824
1757088827586098400,2.058098388671875,-0.0031049437820911,0.0205782558768987,0.0290624145418405,-0.1254822366684675,-0.1293570322751998,-0.1954658734768629,4.808690906059741,1.409057965759188,-8.429796413883567
1757088827596144400,2.068144287109375,-0.001712643308565,0.0435096733272075,0.0347794219851493,-0.1534095235139131,-0.1691943910144269,-0.1597317122727632,4.805492986801267,1.4102885304674506,-8.431410863342881
1757088827606191400,2.07819140625,0.0030901758000254,0.0680617168545723,0.041907861828804,-0.1878857936114072,-0.1680709399424493,-0.1590203491330146,4.800017185738683,1.412158123731613,-8.434219491022825
1757088827616237300,2.0882373046875,0.0121595710515975,0.0665037706494331,0.0385661274194717,-0.1697410651117563,-0.1308493166595697,-0.1219289281010627,4.793543021288514,1.4145901731841266,-8.43749047551751
1757088827626283500,2.098283447265625,0.0140211675316095,0.0430772043764591,0.0388259291648864,-0.1927858406126499,-0.1105744442634284,-0.1229518414080143,4.788157528857886,1.417509567762166,-8.440061787310242
1757088827636330200,2.108330322265625,0.0191940926015377,0.0179095305502414,0.0349126830697059,-0.2530465403079986,-0.0916644304797053,-0.1719429590702056,4.7849724690809845,1.4205962817311286,-8.441348904511331
1757088827646376400,2.11837646484375,0.01979486271739,0.0015687048435211,0.0271047074347734,-0.2802653866231441,-0.0993733974218368,-0.137421096265316,4.7836099485561245,1.4236664829567074,-8.441603756055235
1757088827656423400,2.12842333984375,0.0203863494098186,-0.0068362317979335,0.023002641275525,-0.3084437256202101,-0.0861832225896418,-0.1181260286867618,4.783355389273166,1.4263373096011578,-8.441292790409921
1757088827666469400,2.138469482421875,0.019487215206027,-0.0125826857984066,0.0179965402930974,-0.3233499105900526,-0.0464243359141051,-0.0664122080624103,4.783747603461146,1.4289258647896348,-8.440634034240245
1757088827676515300,2.148515380859375,0.0221272073686122,-0.0190991759300231,0.0063284328207373,-0.2941659016817808,-0.0068726622484624,-0.0253021990388631,4.784789513729512,1.4309734449692069,-8.4396958766073
1757088827686562300,2.158562255859375,0.0255082640796899,-0.0226639024913311,0.0003427029587328,-0.270852830633521,0.05592208596915,-0.0318687179476022,4.786316284905374,1.4328222877062855,-8.438516311433911
1757088827696608300,2.168608154296875,0.0260022804141044,-0.016965003684163,-0.0018655902240425,-0.2728179932266473,0.0774558723852038,-0.1044400331616401,4.78783428825289,1.43478189734146,-8.43732447130084
1757088827706655500,2.178655517578125,0.0270061083137989,-0.0124324783682823,-0.0032057107891887,-0.2538505501672625,0.0776695151358842,-0.1670247918903827,4.788916530531645,1.4366625965215265,-8.436387482711673
1757088827716701200,2.188701171875,0.0280484687536954,-0.0107320500537753,-0.0107467183843255,-0.1634913570672273,0.1189881984740495,-0.1658843896836042,4.789536708256602,1.4384398353271186,-8.435732818195223
1757088827726747400,2.198747314453125,0.0258641932159662,-0.0015759065281599,-0.0149889877066016,-0.0636193624734878,0.1171351179532706,-0.1364800160229206,4.789774024143815,1.4398445875585075,-8.435362231317162
1757088827736794400,2.20879443359375,0.0192763321101665,0.0018473208183422,-0.0170462783426046,-0.0426779889926314,0.0921066212892532,-0.1358756203889846,4.789481763198972,1.4407806993648409,-8.43536456940472
1757088827746840600,2.218840576171875,0.0145764984190464,0.0017623985186219,-0.0156437847763299,-0.0144148943215608,0.0981610990226268,-0.1156704522281885,4.789050678305328,1.4413104223273694,-8.435518883183597
1757088827756887600,2.228887451171875,0.0110992090776562,-0.0047993641346693,-0.0158893298357725,0.0491121136933565,0.071926733700186,-0.0506564205259084,4.788820668941736,1.4416574821993708,-8.43559019485414
1757088827766933500,2.23893359375,0.0076964790932834,-0.0246955677866935,-0.0219784062355756,0.124919926610589,0.0560971502751111,-0.021885668593645,4.7900776832655065,1.4416259180173276,-8.434884676933288
1757088827776979500,2.2489794921875,0.0034724394790828,-0.0352057330310344,-0.0247081462293863,0.1336491765111684,0.0128752636641263,-0.0318996976077556,4.79257008460313,1.4411531859390436,-8.433547290849685
1757088827787026400,2.2590263671875,0.0005694282008334,-0.0349225588142871,-0.0258101280778646,0.0773573804467916,-0.0025514380484819,-0.0216448455750942,4.795590601468086,1.4402693888418376,-8.431980772185325
1757088827797072400,2.269072265625,-0.0025930753909051,-0.0268571749329566,-0.0189378410577774,0.0299514861494302,-0.006745674867928,0.0144271692812442,4.798255144502222,1.4392263095296918,-8.430643386101723
1757088827807119400,2.279119384765625,-0.0056649185717105,-0.0221670493483543,-0.0133507205173373,0.0218377377986907,-0.0392214187979698,0.0473608861118555,4.800384557746351,1.438183814739436,-8.429612289488315
1757088827817165300,2.289165283203125,-0.0076958453282713,-0.020721485838294,-0.0031841034069657,0.0400987861543893,-0.0624132015541195,0.0675929422795772,4.802174656033516,1.437283797159791,-8.42874485900402
1757088827827211300,2.299211181640625,-0.0108728436753153,-0.0174343772232532,0.0111795822158455,0.027960020071268,-0.0692031539551913,0.0591910246372222,4.803689152249693,1.4367415069766345,-8.427975043675303
1757088827837258200,2.30925830078125,-0.0122915096580982,-0.0101450402289628,0.020622618496418,0.0014700725525617,-0.0561345596760511,-0.020173603978753,4.80459106952548,1.436691238094121,-8.427468847718835
1757088827847304400,2.319304443359375,-0.0207256358116865,-0.0197576824575662,0.0280294492840766,-0.0228831551983952,-0.0360259837575256,-0.1568243003934621,4.805450024442375,1.4366338088184594,-8.426986617159843
1757088827857351400,2.329351318359375,-0.0329178534448146,-0.0593402460217475,0.025806775316596,-0.02353635841012,0.0087222356379032,-0.3158908267557621,4.808348376232385,1.4357295534551142,-8.425489072078467
1757088827867397400,2.3393974609375,-0.0452328324317932,-0.1018909066915512,0.0196628905832767,-0.0842114841252565,0.01910232148543,-0.4168652296334504,4.815005203773081,1.4334300443410872,-8.422079555895925
1757088827877443300,2.349443359375,-0.0511304028332233,-0.1310711652040481,0.0090805515646934,-0.1572197294518351,0.0510728923723101,-0.4169102378189563,4.824714696882665,1.430039817380905,-8.417093584176898
1757088827887490300,2.359490234375,-0.0564556121826171,-0.1523560136556625,0.0037357343826442,-0.1815185966670513,0.0617694968231022,-0.3597966039776802,4.836744449633359,1.4257779221527278,-8.410912265193462
1757088827897536300,2.369536376953125,-0.054810844361782,-0.1523999571800232,0.0046286922879517,-0.1970277159661054,0.0456651881098747,-0.3145715608507394,4.849709437407553,1.421232095416635,-8.404211890771984
1757088827907583500,2.37958349609375,-0.0432775914669036,-0.1400770545005798,0.0110846906900405,-0.2057891145706176,-0.0315974997907876,-0.2228138991296291,4.861913377681375,1.4173917866013943,-8.397810207036137
1757088827917629400,2.38962939453125,-0.029114369302988,-0.1256528496742248,0.0177481863647699,-0.1599210973650217,-0.1022520215980708,-0.1114724160164594,4.872907357643545,1.415022865512967,-8.391835224279761
1757088827927675400,2.39967529296875,-0.0169766563922166,-0.1108879297971725,0.0208467841148376,-0.1556049877315759,-0.1436195125140249,-0.1040203464448451,4.882506376115978,1.4140426223039626,-8.386416121840476
1757088827937722400,2.409722412109375,-0.007942147552967,-0.0984613522887229,0.0212859399616718,-0.1724517853751778,-0.1940934160798788,-0.1230295828193426,4.890974052470922,1.4140886534027757,-8.381473404741287
1757088827947768600,2.4197685546875,-0.0048497333191335,-0.0955951884388923,0.0159565396606922,-0.1800295271530747,-0.1965709121093153,-0.052727381581068,4.898851361717283,1.4144712229795753,-8.376807166495919
1757088827957815300,2.429815185546875,-0.0025943024083971,-0.0798332765698432,0.007830437272787,-0.2189823581427335,-0.203566323954612,0.0233522340148687,4.906080436187982,1.4147329426556825,-8.372531388872861
1757088827967861500,2.439861572265625,0.0008149503264576,-0.0495440550148487,0.0045413221232593,-0.262976982691884,-0.1482701147988438,0.0970686276108026,4.911469728010893,1.4149527228862049,-8.369335807701944
1757088827977907500,2.449907470703125,0.0048003708943724,-0.0043235821649432,0.0014187658671289,-0.2574778007537126,-0.1078742453940212,0.1691501134812831,4.913752285990118,1.4152581355735658,-8.36794523012638
1757088827987954400,2.459954345703125,0.0099704880267381,0.0362305305898189,-0.0006267072167247,-0.1938607763677835,-0.0430913920991122,0.1886789898157119,4.912383335724472,1.4160162604644897,-8.36861801482141
1757088827998000400,2.47000048828125,0.0129931755363941,0.0594458393752574,-0.0058369161561131,-0.1361503456771373,-0.0291255567193031,0.1257224751651287,4.908242582657933,1.4168646939873697,-8.370904079931973
1757088828008047400,2.48004736328125,0.0139645226299762,0.0563886165618896,-0.0006163115613162,-0.0700333211690187,-0.0390843484148383,0.0063578445941209,4.903327922609448,1.4176954457230866,-8.373643149507044
1757088828018093300,2.49009326171875,0.011839585378766,0.0432531088590621,0.0029161053244024,-0.0689203914910554,-0.0581570054143667,-0.1173363396137952,4.8990720187306405,1.418811590271443,-8.375943243142961
1757088828028139300,2.50013916015625,0.0116394199430942,0.0142241548746824,0.0003467334900051,-0.0431038131892681,-0.0809276401489973,-0.1830219869673252,4.896449853533506,1.41988491859138,-8.377296411317586
1757088828038186200,2.510186279296875,0.0138788726180791,-0.003565760795027,-0.0003520799800753,-0.0155763393163681,-0.0554589985020458,-0.2249211005419492,4.896155839022994,1.4209021328099072,-8.377295826795697
1757088828048232200,2.520232177734375,0.0154035724699497,-0.0184137467294931,-0.0006544957868754,-0.0331418066233396,-0.0708456604652106,-0.2333721180230379,4.896963063752651,1.422073514676839,-8.376627133753896
1757088828058279200,2.530279052734375,0.0136850345879793,-0.0245869550853967,0.0010906737297773,-0.0570309239938855,-0.0735183868058025,-0.1969452983796596,4.898854284326732,1.4230997889846562,-8.375343523684144
1757088828068325400,2.540325439453125,0.0099837854504585,-0.0220386255532503,0.0025461283512413,-0.0121767600059509,-0.0227554371654987,-0.1183703588366508,4.900837274837493,1.4241115963757038,-8.374012567341326
1757088828078371300,2.550371337890625,0.0101473033428192,-0.0145114669576287,0.0017929865280166,0.0481605120569467,0.0212651986077427,-0.0115986678570508,4.902450262992084,1.4251321715950964,-8.372896715053916
1757088828088418600,2.56041845703125,0.0122523549944162,-0.0085256164893507,0.0004960268270224,0.104456984296441,0.0327241657331585,0.0588081627994775,4.90331535538882,1.426092979451269,-8.372225683924555
1757088828098464500,2.570464599609375,0.0111977439373731,-0.0006937918369658,-0.0043554538860917,0.1224964988559484,0.0336200916595757,0.064838675135374,4.903530751705169,1.426842628774792,-8.371969078814983
1757088828108511500,2.580511474609375,0.0063072489574551,0.0012566859368234,-0.0073364591225981,0.0848790081232786,0.0012023615270853,-0.0230488671541213,4.903290513208508,1.4270884202294052,-8.372068447536229
1757088828118557400,2.590557373046875,-0.0037983823567628,-0.0048904223367571,-0.0092853605747222,0.0023152912050485,-0.0041300855420529,-0.1668687245458364,4.903254272851347,1.4264356554090976,-8.372202303048967
1757088828128603400,2.600603271484375,-0.0064618098549544,-0.0146647561341524,-0.0034961805213242,-0.0856067378759384,-0.0200860718257725,-0.2191799265414476,4.903938747984171,1.425482738598436,-8.371965571683646
1757088828138650400,2.610650390625,-0.0072080274112522,-0.0219636801630258,-0.0006692351307719,-0.1127688855677843,-0.0297759834520518,-0.1441635562628507,4.905361474263668,1.4246975795701144,-8.371262391850351
1757088828148696300,2.6206962890625,-0.0040707625448703,-0.0241779536008834,-0.005416402593255,-0.0716863490730524,0.0025302491299808,-0.0592646743953228,4.907224930047988,1.424114518985152,-8.370269873681664
1757088828158743300,2.630743408203125,0.0033067262265831,-0.0140720559284091,-0.0147766144946217,0.0079915832757949,0.021480156532675,0.000481061515212,4.909100660791993,1.4235701829753815,-8.369263326987623
1757088828168789500,2.64078955078125,0.0047164084389805,-0.0015827550087124,-0.0223850533366203,0.0383750311017036,-0.0089579440899193,0.0563759672164917,4.910141694277525,1.4230337380111218,-8.36874660963714
1757088828178835500,2.65083544921875,0.0031704430002719,0.0106454147025942,-0.0266908518970012,-0.0195960963517427,-0.0113066991731524,0.0180178872495889,4.910202484554052,1.4222399572849274,-8.368844809314608
1757088828188882400,2.66088232421875,0.0039983708411455,0.0188365709036588,-0.0296689476817846,-0.0382294851511716,-0.0039396775364875,-0.0293511821687221,4.909382400342822,1.421157276614755,-8.369507657137513
1757088828198928400,2.670928466796875,0.005393068306148,0.018262393772602,-0.0346405357122421,-0.0599094020396471,-0.0104857381790876,-0.0492290180712938,4.908167763856053,1.4199221818618477,-8.370429448157548
1757088828208975400,2.680975341796875,0.004346617963165,0.0085761658847332,-0.0341523997485637,-0.0651642538279295,-0.0012878478534519,-0.083600658750534,4.907437696015834,1.4186553767964245,-8.371074760323763
1757088828219021300,2.691021240234375,0.0001643896102905,0.0126990051940083,-0.0311784427613019,-0.1366495273709297,-0.0067608724370598,-0.1693283926576375,4.906798229068517,1.4172452177375554,-8.371688508307933
1757088828229067300,2.7010673828125,-0.0015061190351843,-0.0034119663760066,-0.0287954397499561,-0.1528396146714687,-0.0232746387340128,-0.2370984450697898,4.906676063993573,1.4158021793223916,-8.372001812040805
1757088828239114200,2.7111142578125,-0.0073621440678834,-0.0190132968127727,-0.0248845871537923,-0.1447813959002494,-0.0134131699331104,-0.2075473564147949,4.90804442973733,1.414170340336859,-8.371473988774419
1757088828249160200,2.72116015625,-0.0077146617695689,-0.0265305507928133,-0.0169491749256849,-0.1421720901846885,-0.0249110077641904,-0.177207163208723,4.910373164945841,1.4125000690370797,-8.37039028519094
1757088828259206400,2.731206298828125,-0.0118036791682243,-0.0376604348421096,-0.0105780949816107,-0.1675046843618154,-0.0032765374526381,-0.1572363883256912,4.913261872124672,1.4109177682816982,-8.368965805345773
1757088828269253400,2.74125341796875,-0.0120229301974177,-0.0400975905358791,-0.0094502009451389,-0.1495592778265476,-0.0337691447414457,-0.1395540166407823,4.916713473883271,1.4093873438440263,-8.367192365932464
1757088828279299600,2.751299560546875,-0.0093392636626958,-0.0383417680859565,-0.0126784853637218,-0.1330441963553428,-0.0521237165994942,-0.0789110396295785,4.920101947277784,1.4079903365276754,-8.365439969307184
1757088828289346600,2.7613466796875,-0.0053603379055857,-0.0307169109582901,-0.0084781916812062,-0.1561135217756032,-0.0314575067982077,-0.0872416456013917,4.923118664750456,1.406926214427501,-8.363840132895112
1757088828299392500,2.771392578125,-0.0019142075907438,-0.0166303869336843,0.003192844800651,-0.2179097604751586,-0.0843792419075965,-0.1354980192482471,4.924910224342346,1.406427471125126,-8.362870411080122
1757088828309438500,2.7814384765625,-0.001923446310684,-0.0086586540564894,0.0066147218458354,-0.184493813085556,-0.1087738245822489,-0.1392646783053875,4.9254625975281,1.4064311243869363,-8.362545416909455
1757088828319485400,2.7914853515625,0.0011695489520207,-0.0063068168237805,0.0049670240841805,-0.105218031796813,-0.0754917327053844,-0.1169657527357339,4.925642630270123,1.406667709621787,-8.362398117393255
1757088828329531400,2.801531494140625,0.0046453629620373,-0.0129479141905903,0.0009137941524386,-0.0768593677967786,-0.0800005884319543,-0.109994160157442,4.926165192839503,1.4069867124430837,-8.362036882865429
1757088828339578400,2.811578369140625,0.0067548532970249,-0.0165397189557552,0.0026123581919819,-0.0763794753253459,-0.0594181113913655,-0.1424649356514215,4.927030869758129,1.407502845271677,-8.361438332450389
1757088828349624300,2.821624267578125,0.0026448271237313,-0.0081561487168073,0.0093648955225944,-0.1450765794545412,-0.0102273795038461,-0.2038105079740285,4.9276452022641895,1.4079923823542893,-8.360998187467455
1757088828359670500,2.83167041015625,-0.0003677405184134,0.0014344269875437,0.0129857286810874,-0.1444113935440778,-0.0100825642056763,-0.2345855854660272,4.927428929165005,1.4084461174711584,-8.361048456349968
1757088828369717200,2.84171728515625,-0.0020762598142027,0.0013619079254567,0.0142496284097433,-0.108496615076065,-0.0170548874363303,-0.2025099467694759,4.926678987580537,1.408984316001087,-8.361401507571339
1757088828379763500,2.851763427734375,-0.0025258015375584,0.0077641471289098,0.014284249395132,-0.0906026464670896,-0.0423652697816491,-0.1525152050226926,4.925543846070767,1.409305072388053,-8.36201525555551
1757088828389810400,2.861810546875,-0.0019530872814357,0.014524825848639,0.0142356511205434,-0.0692985771536827,-0.0699400899276137,-0.110844639506936,4.923842887371778,1.4094962110459803,-8.3629849773705
1757088828399856400,2.8718564453125,0.0013649452012032,0.0145293539389967,0.0114928614348173,-0.0442167428672313,-0.0968139221973717,-0.0572141716063022,4.922102181184291,1.4098834567978975,-8.363939501616358
1757088828409902300,2.88190234375,0.0057735820300877,0.0093012368306517,0.0030843161512166,-0.0395779771506786,-0.0663107935145497,0.0108107323497533,4.920757780838012,1.4105058264799415,-8.364630991011857
1757088828419949300,2.89194921875,0.0088375490158796,-0.0036481176503002,0.004148515406996,-0.0532411763221025,-0.0326043387457728,0.013470891469717,4.920354460734129,1.4112158744454384,-8.364746726346015
1757088828429995300,2.901995361328125,0.0080079836770892,-0.0150549747049808,0.0065043750219047,-0.0957183820456266,-0.0149631758540868,-0.030628947019577,4.920782330757379,1.412129336028546,-8.364338730067015
1757088828440042500,2.91204248046875,0.0067850593477487,-0.028142811730504,0.0051112752407789,-0.0450105235934257,-0.0389743121691048,-0.0873246477097272,4.922298580539226,1.4129467898912726,-8.363309387019276
1757088828450088400,2.92208837890625,0.0061203343793749,-0.0308134313672781,0.0040785013698041,-0.0043523499906063,-0.0359384516045451,-0.1262257485121488,4.924587568259239,1.4138017992854115,-8.361819440722465
1757088828460134100,2.932134033203125,0.0064103528857231,-0.0250423606485128,-0.0013764512259513,0.0200479317724704,-0.0288429403856396,-0.1360123985111713,4.926822195443511,1.4143375135973095,-8.36041074296832
1757088828470181400,2.942181396484375,0.0063167628832161,-0.0130642941221594,-0.006003500893712,0.001389408531785,-0.010931582250446,-0.1287590663820505,4.928422031855583,1.41453245164752,-8.359435175934433
1757088828480227600,2.9522275390625,0.0035649184137582,0.0006099721649661,-0.0132342502474784,-0.0152384856641292,0.0075832947358489,-0.0848100345402955,4.929038117927313,1.4144228537932038,-8.359090308019518
1757088828490273500,2.9622734375,0.0040120016783475,0.0142460083588957,-0.0217458941042423,-0.0401227515518665,0.013341273740679,-0.044980128455162,4.92863304425776,1.4139021909199654,-8.359415886712073
1757088828500320500,2.972320556640625,0.0048951059579849,0.0159344524145126,-0.0264176130294799,-0.0334983649760484,0.0055075113750994,-0.0219879599243402,4.927695471146702,1.4130568261370062,-8.360110883238912
1757088828510366500,2.982366455078125,0.0058600408956408,0.0103760445490479,-0.0269726701080799,-0.0516103602498769,-0.0073301967576146,-0.0111298813015222,4.9268034907430405,1.4121281669847667,-8.360795942893624
1757088828520413400,2.992413330078125,0.0051465802825987,0.0076489667408168,-0.0225590132176876,-0.0713601858586072,-0.0357546194702386,-0.0167582425773143,4.926201433196663,1.4112233270995318,-8.361300385284423
1757088828530459400,3.00245947265625,0.0035704402253031,0.0002052970812655,-0.0176161602139472,-0.0708574970334768,-0.0434514575831592,-0.0391185429453849,4.925999773144722,1.4105408977933227,-8.361537701171637
1757088828540505300,3.01250537109375,-1.84354139491e-05,-0.0099360207095742,-0.0114466799423098,-0.0805652365773916,-0.0362912105649709,-0.1036819082707166,4.926577865293622,1.4098144832149146,-8.361316751897334
1757088828550552300,3.02255224609375,-0.0056088929995894,-0.0127664990723133,-0.0084129264578223,-0.112771223655343,-0.0391236575119197,-0.1743710629999637,4.9276592307895415,1.4090557738021017,-8.360807633331417
1757088828560598300,3.032598388671875,-0.0062959883362054,-0.0084942560642957,-0.0071599092334508,-0.0985977368742227,-0.0020836744062602,-0.1996259157657623,4.928600311031937,1.408227944675833,-8.36039262278974
1757088828570645200,3.042645263671875,-0.00390160176903,-0.0092323655262589,-0.0094370953738689,-0.0712678314000368,-0.0082357672952115,-0.1795990267813205,4.929403444108367,1.4073475085794924,-8.360070551228523
1757088828580691000,3.05269091796875,-0.0031220945529639,-0.0081828134134411,-0.0106325875967741,-0.0373667308419942,-0.0131140408560633,-0.1335562375307083,4.930217098578811,1.4065392609365284,-8.359723929747938
1757088828590737000,3.06273681640625,-0.0005410201847553,-0.0104730119928717,-0.0092457979917526,-0.0323678996413946,-0.0271726690858602,-0.0957896937161684,4.931053549402952,1.405933403997868,-8.359332884603738
1757088828600784100,3.0727841796875,0.0034678359515964,-0.0161940157413482,-0.0029860376380383,-0.0589104541301727,-0.0426692211642861,-0.0736608640164136,4.932158880296349,1.4057185922034083,-8.358719136619568
1757088828610830000,3.082830078125,0.0038493443280458,-0.0181085877120494,0.0024927821941673,-0.1071411088138818,-0.0600365355506539,-0.0789110396295785,4.933403327399492,1.4058772898964582,-8.357957504597305
1757088828620877000,3.092876953125,0.0047513567842543,-0.0200745332986116,0.0105869276449084,-0.1023521209716796,-0.0297255684390664,-0.0883469764947891,4.93475065035522,1.406541599024087,-8.357051495668292
1757088828630923000,3.102923095703125,0.0039159138686954,-0.0215360708534717,0.014932912774384,-0.1104874966323375,-0.0350026320591568,-0.0985217490285634,4.936000942677259,1.4074788798741995,-8.356152501001954
1757088828640969000,3.112968994140625,0.0036783600226044,-0.0107342889532446,0.0159060321748256,-0.0999590883553028,-0.0446593720681965,-0.0946603974252939,4.936995798933506,1.408606422599405,-8.355376840454339
1757088828651016000,3.123015869140625,0.0029034717008471,0.0048197237774729,0.007809498347342,-0.080901921185851,-0.0366271645210683,-0.1000619642078876,4.936792969837785,1.4094026875436303,-8.355361642885208
1757088828661062000,3.133061767578125,0.0008744093356654,0.0135703375563025,-0.0048218742012977,-0.0708212566763162,-0.0156514503791928,-0.0829091693550348,4.9358396146357055,1.4095260216623544,-8.355904663720727
1757088828671108900,3.14310888671875,0.0033986761700361,0.0242784023284912,-0.0127113880589604,-0.0797778855919837,-0.0069448507018387,-0.0499964953124523,4.93417197368443,1.4091988355346023,-8.3569433591187
1757088828681155000,3.153155029296875,0.0007142096292227,0.0313128754496574,-0.0161769576370716,-0.1010942298650741,-0.0231217862598598,-0.0674152476251125,4.9316959389597175,1.4084667218677698,-8.35852858248353
1757088828691201000,3.163200927734375,0.0004381129983812,0.0247264448553323,-0.0184926241636276,-0.1007709892600774,-0.037770050945878,-0.0836784001618623,4.929127549776434,1.4074031842894852,-8.360223111441732
1757088828701248000,3.173248046875,-0.0021563386544585,0.0183519031852483,-0.0176579877734184,-0.0822428144007921,-0.0430981141008436,-0.1010667573362588,4.927209148934483,1.4062963920913636,-8.361537116649746
1757088828711294000,3.1832939453125,-0.0013678896939381,0.0101290941238403,-0.0157070308923721,-0.0884194572091102,-0.069414458618313,-0.1410305189341306,4.925753689429164,1.4052293473817408,-8.362575227525829
1757088828721341000,3.1933408203125,-0.0037636694032698,-0.0040572988800704,-0.0143735874444246,-0.1007581297785043,-0.0392183500580489,-0.1861620385587215,4.925222943553329,1.4040627878203986,-8.363082008004188
1757088828731387000,3.203386962890625,-0.0043949726969003,-0.0182505939155817,-0.0074284663423895,-0.1071428623795509,-0.0364389484725892,-0.2019090582668781,4.926072253859043,1.4030793297410011,-8.362748830527067
1757088828741432800,3.213432861328125,-0.0028561982326209,-0.0273223854601383,-0.0011729672551155,-0.1442167477548122,-0.0355485755041241,-0.18713468298316,4.927831664746999,1.4024880858495832,-8.36181125741601
1757088828751479800,3.223479736328125,-0.0018692096928134,-0.027512589469552,-0.0001164269633591,-0.118463297817111,-0.0176378018908202,-0.1525543679893016,4.929911393630504,1.4022348417408763,-8.360629354155064
1757088828761525800,3.23352587890625,-0.0003916879650205,-0.0250891130417585,0.0006889128126204,-0.0745206957161426,-0.0087920860037207,-0.084296239799261,4.931906951361895,1.4022174522146582,-8.359454465156793
1757088828771573000,3.243572998046875,0.002966926433146,-0.0143077569082379,-0.0034517324529588,-0.041761166408658,-0.0092715400837361,-0.0245879132896661,4.933413264271617,1.4022477012224497,-8.358558977621794
1757088828781619000,3.253618896484375,0.0040361853316426,0.0042038750834763,-0.0087365098297595,-0.0341530294924974,-0.0071922495916485,-0.0205915371298789,4.933737673920393,1.4022639217048882,-8.358367254441976
1757088828791665200,3.2636650390625,0.0064245294779539,0.0149813676252961,-0.0067342817783355,-0.0451309351027011,-0.0223380885362625,-0.0391395857334136,4.932744571229815,1.4021464328050612,-8.358971650075912
1757088828801712000,3.273712158203125,0.0015027410117909,0.0237588789314031,-0.0042471550405025,-0.0952823287159204,-0.0347051104173064,-0.0470621954262256,4.930971716338396,1.4020936797045171,-8.360028465652466
1757088828811758000,3.283758056640625,-0.000579563435167,0.0244395304471254,-0.0019581040833145,-0.0939770913362503,-0.0566091914504766,-0.089566873678565,4.928768068814278,1.4018512492507695,-8.361366436257958
1757088828821804000,3.293803955078125,0.0003813052317127,0.0174359492957592,-0.0021871358621865,-0.0640320349276065,-0.0627180297195911,-0.0786538499981164,4.9268034907430405,1.4016748697705566,-8.362551262128353
1757088828831851000,3.30385107421875,-0.0001712088705971,0.0068222740665078,-0.000353806419298,-0.0355348392397165,-0.0365690045930445,-0.0524526562929153,4.925542677026987,1.4015635183505712,-8.363316985803841
1757088828841897000,3.31389697265625,0.0008735492592677,-0.0039858990348875,0.0010153246112167,-0.0610568185091018,-0.0379478917308151,-0.0925835911512374,4.925326988449693,1.4015953747935592,-8.363437397313117
1757088828851944000,3.32394384765625,0.0017445659032091,-0.0090198451653122,0.0022565785329788,-0.0787006117492914,-0.0610652940765023,-0.1347761347144842,4.925761872735619,1.401818516024947,-8.363144551846384
1757088828861990000,3.333989990234375,0.0013078075135126,-0.0107921790331602,-0.002997572068125,-0.0523036032110452,-0.060040042681992,-0.0956447322875261,4.92659890808165,1.401990365460515,-8.362621989277004
1757088828872036000,3.3440361328125,0.0019803377799689,-0.0054215551353991,-0.0091457646340131,-0.0370025737047195,-0.0412710448041558,-0.047544425985217,4.927310271221399,1.4017765765793622,-8.362240296483039
1757088828882082800,3.354082763671875,0.0002918938407674,0.0022741816937923,-0.0121724475175142,-0.0366840092748403,-0.0447913278847932,-0.0334679698377847,4.927440619602799,1.4012564982280131,-8.362250233355164
1757088828892129000,3.36412890625,0.0008565452881157,0.0020860424265265,-0.0118015510961413,-0.0433639254301786,-0.0224174373827874,-0.0406283629864454,4.927086983859539,1.4005799141407012,-8.362571720394492
1757088828902176000,3.374176025390625,-0.0013373668771237,0.0038352068513631,-0.0094731487333774,-0.0479834019243717,-0.00581409310624,-0.0758171652674675,4.92661819730401,1.3996883721284568,-8.362995498764514
1757088828912222000,3.384221923828125,-0.000831929501146,0.0060592722147703,-0.0076154200360178,-0.0528495466560125,0.0031663550764322,-0.1395791510820388,4.926096803778409,1.3989378460220991,-8.363426875919103
1757088828922268000,3.394267822265625,-0.0004476354224607,0.0091437455266714,-0.0033482369035482,-0.0556844778209924,0.0002050210528075,-0.1625467696934938,4.925340432453155,1.398457515159249,-8.363952361097931
1757088828932315000,3.40431494140625,-0.0008616840932518,0.0090687423944473,-0.0016795461997389,-0.0481119967401027,-0.0222355049446225,-0.1511146905750036,4.924352005937696,1.3980036339119075,-8.364611701789498
1757088828942360800,3.41436083984375,-0.0020177622791379,0.0124339135363698,-0.0010241423733532,-0.0479664507895708,-0.0143000357702374,-0.1260340253323316,4.923309803408384,1.397550191055983,-8.365302606663107
1757088828952408000,3.424407958984375,-0.0046205632388591,0.0177047979086637,0.0038068140856921,-0.0867617531299591,-0.0051002457484602,-0.107606972759962,4.921852005815506,1.3971790196560323,-8.366220890551805
1757088828962454000,3.4344541015625,-0.0054400176741182,0.0191887114197015,0.0046680802479386,-0.1088251163780689,-0.0281247091136872,-0.0974088193506002,4.920122405543923,1.3968598707042634,-8.367291150131821
1757088828972500000,3.4445,-0.002160262549296,0.0251649431884288,0.0015273678582161,-0.0709568657547235,-0.024979835216701,-0.030130934369564,4.918018711262941,1.3965584035396574,-8.36858002089858
1757088828982547000,3.454546875,-0.0015746335266157,0.0216477066278457,-0.0057755522429943,-0.0350339039802551,-0.0250112532682716,0.0066395841449499,4.91591326341629,1.396140616519004,-8.36988525827825
1757088828992593200,3.46459326171875,0.0007904490921646,0.0196533892303705,-0.0125034404918551,-0.0489186369478702,-0.0226022924304008,-0.003582534661889,4.91408663251102,1.3956773829214275,-8.371037350922823
1757088829002639000,3.47463916015625,0.0014535763766616,0.0158610492944717,-0.0146675249561667,-0.0759790778309106,-0.0389883406944572,-0.0311842428147792,4.912565706554055,1.395153797438741,-8.372014087000489
1757088829012686000,3.48468603515625,0.0014805354876443,0.0082131288945674,-0.0122819487005472,-0.1036672952234745,-0.0096603932708501,-0.0814987180352211,4.911522919502854,1.394556416067481,-8.372726619184016
1757088829022732000,3.49473193359375,-0.0007421387126669,-0.0019769242499023,-0.0071841264143586,-0.1230541327387094,-0.0169618023253977,-0.1319324357211589,4.91115700879991,1.3940765235960482,-8.37301888012886
1757088829032779000,3.504779052734375,-0.0024062981829047,-0.0094958981499075,-0.0029554115608334,-0.1269406187832355,-0.0219322842143476,-0.1589087054520845,4.911601829957962,1.3936597594887017,-8.372827156949043
1757088829042825000,3.514824951171875,-0.0037972673308104,-0.006473742891103,0.001536009600386,-0.0954331353634595,-0.0204798934489488,-0.1452273861020803,4.912117962786555,1.3932555626019834,-8.372595101758836
1757088829052871000,3.524870849609375,-0.0041090906597673,0.0006831334903836,0.0027675561141222,-0.0360246685832738,-0.0247876736454665,-0.1130868654757738,4.912264093258977,1.3929239925600587,-8.372561784011125
1757088829062918000,3.53491796875,-0.0045053688809275,0.0139595232903957,0.0040791630744934,-0.0346826063245534,-0.0455552979946136,-0.0877811593055725,4.9115223349809645,1.392742790774256,-8.373029401522874
1757088829072963800,3.5449638671875,-0.0024403352290391,0.0254633035510778,0.0016810414381325,-0.016316928550601,-0.0477297194242477,-0.0668126055568456,4.909766431224346,1.3925231566742062,-8.374096153971552
1757088829083010800,3.5550107421875,-0.0020150283817201,0.0289517771452665,-0.0002422935795038,-0.0145557640969753,-0.0276155905477702,-0.0510661703705787,4.907256494230031,1.392160899233073,-8.375625847756861
1757088829093057000,3.56505712890625,0.0016626841388642,0.0295749250799417,0.0002516496460884,-0.028008535388112,-0.0171180158004164,-0.0381032284229993,4.904548404315114,1.3921381028793751,-8.377217500862479
1757088829103103000,3.57510302734375,-7.71590275689e-05,0.021967340260744,-0.0003219952341169,-0.0534431286349892,-0.040531186222285,-0.0616138678699731,4.902000765658915,1.3922075148537754,-8.378694587677717
1757088829113150000,3.58514990234375,0.000355236697942,0.0137428836897015,0.0017403196543455,-0.0746352620065212,-0.0604220277369022,-0.1106564234584569,4.9001492925733325,1.392196701198816,-8.379781213870643
1757088829123196000,3.59519580078125,-0.002671712078154,0.0105276489630341,0.0052658123895525,-0.0800274764388799,-0.0578290886342525,-0.143234166458249,4.898808107097446,1.392147747490555,-8.380573825553059
1757088829133243100,3.6052431640625,-0.0027647791430354,0.0081036128103733,0.0090572535991668,-0.0860407453790307,-0.0693067604601383,-0.1558235989183187,4.897787531878054,1.3922526691697537,-8.381150748658179
1757088829143288800,3.615288818359375,-0.0019746192265301,0.0093718105927109,0.0064494861289858,-0.0749281074732542,-0.076025985712558,-0.1231008944898843,4.8968493742451065,1.392238202252984,-8.381700783756374
1757088829153334800,3.625334716796875,-0.0005515082739293,0.0166964773088693,0.005338167771697,-0.0587058714687824,-0.058493982283771,-0.1127852521806955,4.895592067660391,1.392213944594562,-8.382440788468719
1757088829163382000,3.635382080078125,0.0024562659673392,0.0283576603978872,-0.0008345071692019,-0.0578527617707848,-0.034221856945008,-0.0773410138338804,4.893541272610426,1.3923326025381684,-8.383617431032658
1757088829173428000,3.645427978515625,0.0045150332152843,0.0308141317218542,-0.005046397447586,-0.060564066556096,-0.0048209904156625,-0.0605301642864942,4.89086708496511,1.3924106362104416,-8.385166998562216
1757088829183474200,3.65547412109375,0.0020896922796964,0.025743206962943,-0.0039188154041767,-0.0766957016676664,-0.013313216689974,-0.0946118821084499,4.88829285056293,1.3922238814666867,-8.386699030435086
1757088829193521000,3.66552099609375,0.0032091625034809,0.0196466725319623,-0.0026858721394091,-0.1141319906145334,-0.0283855520069599,-0.1335404554396867,4.886074589991569,1.3920328889392315,-8.388020634427667
1757088829203567000,3.675567138671875,0.0019992887973785,0.0175670105963945,-0.0014016961213201,-0.1160562366753816,-0.0203989371672272,-0.1374491533160209,4.884109427398443,1.3918277217559516,-8.389201953166722
1757088829213614000,3.685614013671875,0.0025810762308537,0.0140018025413155,-0.0035373584832996,-0.0766331578254699,-0.0325048238940536,-0.121135731896758,4.882394732435047,1.391513541240245,-8.39025116995871
1757088829223660000,3.695659912109375,0.0054061571136116,0.0126672927290201,-0.0102437306195497,-0.0409755689889192,-0.0279961142979562,-0.0900485197156667,4.881004154859483,1.3911948306798934,-8.391112755224109
1757088829233706000,3.7057060546875,0.0084925042465329,0.0139464028179645,-0.0138325793668627,-0.0227893394351005,-0.0274037013627588,-0.0534925207346677,4.879726974530517,1.3909015468217432,-8.391904197862743
1757088829243753000,3.7157529296875,0.0048860516399145,0.0135546522215008,-0.0121742291375994,-0.0602577770859003,-0.0201036074824631,-0.0633241789191961,4.878439565068483,1.3906345664486288,-8.392697978588938
1757088829253799000,3.725798828125,0.0035784726496785,0.015494929626584,-0.0065481988713145,-0.1106482401520013,-0.0076331252269446,-0.0875385827213525,4.8769060718908905,1.3904343677014113,-8.393622692218422
1757088829263846000,3.735845947265625,0.0019946908578276,0.0160616505891084,-0.0011664836201816,-0.129949737471342,-0.0293919525705277,-0.0708311935484409,4.874959321737289,1.390346251026541,-8.394768355122208
1757088829273891800,3.745891845703125,-0.0001141960965469,0.0116385463625192,0.0013874326832592,-0.1014212698623538,-0.0202620129145681,-0.0619879618793725,4.8729146641671655,1.3901938369438052,-8.39597656186819
1757088829283938000,3.75593798828125,0.0008650483796373,0.0021789984311908,0.00235415995121,-0.0715501554727554,-0.0277685891523957,-0.0687017803043127,4.871326518192887,1.3902194097764788,-8.396897768366337
1757088829293984800,3.76598486328125,-0.0006241606315597,-0.003727153642103,0.0026525259017944,-0.0486006570398807,-0.0263270120419561,-0.0956032312333583,4.870823537106812,1.3899747873656452,-8.397230361321569
1757088829304031000,3.776031005859375,0.0003140709595754,-0.003049112856388,-0.0008391446899622,-0.0328542218536138,-0.0298525558196008,-0.1075187099546194,4.870786712227761,1.3897589526578784,-8.39728296829164
1757088829314078000,3.786077880859375,-0.0004613095661625,0.0042860531248152,-0.0044835517182946,-0.0148743285268545,-0.0008510638713836,-0.0757996296107769,4.870613693748414,1.389487880631536,-8.397428514242172
1757088829324124000,3.7961240234375,0.0027195701841264,0.011269393377006,-0.0060745244845747,-0.0053276247635483,-0.0017889292433857,-0.0671732555627822,4.869746263264119,1.38922864517346,-8.397975042209028
1757088829334169900,3.806169921875,0.0037168839480727,0.0117304529994726,-0.0067638698965311,0.0034913492470979,-0.0215654967285692,-0.0514139608949422,4.868409753963351,1.3891037036195395,-8.398772330066562
1757088829344217000,3.816217041015625,0.0050961347296833,0.0132154319435358,-0.0072432393208146,-0.0305567585662007,-0.0126594289563596,-0.0439957935929298,4.866993165163696,1.3890259622082113,-8.399604689237474
1757088829354263000,3.826262939453125,0.0055595035664737,0.0182368755340576,-0.0033998289145529,-0.0565937016203999,-0.0354074134677648,-0.0756640205323696,4.8653471515223385,1.389029030948132,-8.400557459917664
1757088829364309000,3.83630908203125,0.0027418793179094,0.0188209060579538,0.0004937124904245,-0.0628273353129625,-0.0484220856025814,-0.0931739582598209,4.863501815916598,1.3891753075510265,-8.401604338622093
1757088829374356000,3.84635595703125,0.0028116875328123,0.0177198536694049,0.0051282467320561,-0.1027571946412324,-0.0796313167281448,-0.0978460417240858,4.861682783795893,1.3894094085678457,-8.4026184841007
1757088829384402000,3.85640185546875,0.0011586635373532,0.018749164417386,0.0054201292805373,-0.083621117016673,-0.0541360793352127,-0.0908721110582351,4.859904375946521,1.3896518390215933,-8.403606910616158
1757088829394449000,3.866448974609375,-0.0002356880577281,0.0241147708147764,0.00606538541615,-0.0611538491427898,-0.0336607159309089,-0.0631523294836282,4.8579371675267815,1.3899759564094245,-8.404690029677749
1757088829404495000,3.8764951171875,-0.0002716407179832,0.0241565834730863,0.0052912039682269,-0.0372600555971264,-0.0080951897807419,-0.0409627095073461,4.855740826526284,1.3901479519754647,-8.405929800605774
1757088829414541000,3.886541015625,0.0018133883131667,0.0163262914866209,0.003328574122861,-0.0079398530885577,0.0153255794256925,-0.0454793101489543,4.8539533585876224,1.3902199942983686,-8.406948622259497
1757088829424588000,3.896588134765625,0.0035937116481363,0.0027292557060718,0.001497118268162,-0.0111965167969465,0.0064971069343388,-0.0773503661841154,4.852870824047923,1.3903697780326008,-8.407549510762095
1757088829434634000,3.906634033203125,-0.001004870282486,-0.0097709046676754,0.0066740000620484,-0.026882161706686,-0.0083069328352808,-0.1251315235346555,4.852693421654403,1.3903595488995313,-8.40765180209279
1757088829444681000,3.916680908203125,-0.0024176770821213,-0.0122050335630774,0.0069855898618698,-0.0958870166108012,-0.0152333710975945,-0.197621590206027,4.85331476842314,1.3904026573888957,-8.407287060433626
1757088829454727000,3.926726806640625,-0.0046243602409958,0.0012494736583903,0.0050191488116979,-0.0845174813345074,-0.0213109374456107,-0.1617629258394241,4.853467620897293,1.3901955905094745,-8.407233868941665
1757088829464772900,3.93677294921875,-0.0022187267895787,0.0128113217651844,3.79723496735e-05,-0.0548421817779541,-0.0144904437758028,-0.0661579410403966,4.852522741262614,1.3899592975355683,-8.40781955987513
1757088829474819800,3.94681982421875,-0.0025338309351354,0.024799920618534,-0.0017582196742296,-0.0295449511751532,-0.0219679400496184,-0.0089531217843294,4.850718029928207,1.389655200022459,-8.408908524155617
1757088829484865800,3.95686572265625,0.0008177573326975,0.0283744148910045,-0.0032967277802526,-0.0405792631477117,-0.0127291331917047,0.0070709612995386,4.848435764209926,1.3893952339120208,-8.410271044680476
1757088829494912000,3.966912109375,0.000222755013965,0.0275697242468595,-0.002343472559005,-0.021473580661416,-0.0078327394522726,-0.0165483992189168,4.846089785605669,1.3892873896233735,-8.4116411639899
1757088829504959000,3.976958984375,0.00294557120651,0.0316443592309951,0.002243023365736,-0.0638122546970844,-0.04372969000265,-0.0391916081815958,4.843536886252463,1.3894206606142223,-8.413088440188766
1757088829515005000,3.9870048828125,0.0022273166105151,0.0331373289227485,0.0017221092712134,-0.0722755471378564,-0.0493960452012717,-0.0833528214693069,4.840627720807492,1.3897002082079648,-8.414717502695321
1757088829525052200,3.99705224609375,0.0021814918145537,0.033548530191183,-0.0021206201054155,-0.0461956417247653,-0.0445662869572639,-0.0934463454604148,4.837591129590571,1.389808052496612,-8.416442426791786
1757088829535098000,4.00709814453125,0.0034806001931428,0.0310328975319862,-0.0094240186735987,-0.0120259533584117,-0.0421923974327743,-0.0574947421133518,4.834696284931898,1.3896790192894637,-8.418128772443533
1757088829545144000,4.01714404296875,0.0025298516266047,0.0249054972082376,-0.0134669644758105,-0.014069441884756,-0.0271275147698819,-0.0427922630220651,4.832400867471098,1.3892786217950284,-8.4195135048002
1757088829555191000,4.02719091796875,0.0025056903250515,0.0166633762419223,-0.0105950562283396,-0.0367260948508977,-0.0061129299223423,-0.0635211627960205,4.830816520889103,1.3889141723968088,-8.42048322661519
1757088829565237000,4.037237060546875,0.0015003469306975,0.0097162555903196,-0.0084458850324153,-0.0517401241093873,-0.006768909613043,-0.0925368294000625,4.829819034284353,1.3886724725954234,-8.42109580555558
1757088829575284500,4.047284423828125,-0.0008636401616968,0.0040677720680832,-0.0074255922809243,-0.0410135629117488,-0.0167135266527533,-0.1409399180412292,4.829268706925213,1.3882920949757098,-8.421475160261988
1757088829585330400,4.057330322265625,-0.0015981399919837,0.00048262468772,-0.0045917220413684,-0.0334741073176264,-0.0266932150058448,-0.1869774465948343,4.8290591558277605,1.387796566543728,-8.421672144138812
1757088829595376400,4.06737646484375,-0.0034986941609531,-0.0054088472388684,-0.001998437102884,-0.0376791577920317,-0.0111320732586085,-0.2036076788783073,4.829223991000652,1.387348822776228,-8.421651685872673
1757088829605423400,4.07742333984375,-0.0024227770045399,-0.009952200576663,-0.0058453730307519,-0.0350534854635596,-0.0151518302939832,-0.1648573847234249,4.829890345954895,1.38687945169881,-8.421346565446257
1757088829615469600,4.087469482421875,0.0006653418531641,-0.0099030248820781,-0.008396397344768,-0.0489800117462873,-0.0052706338793039,-0.0961713865101337,4.830800154276192,1.386425862712413,-8.420902913331984
1757088829625515500,4.097515625,0.0003572142450138,-0.004413716495037,-0.0089042615145444,-0.0515074843972921,-0.0195030112408101,-0.0580628973901271,4.831530514377356,1.385993316514045,-8.420552200198173
1757088829635562500,4.1075625,-0.0016362231690436,0.0109320702031254,-0.0077110826969146,-0.1006195980906486,-0.0375854881592094,-0.0394260014593601,4.8312616343081,1.385520584435761,-8.4207830863446
1757088829645608400,4.1176083984375,-0.0043310755863785,0.0138130774721503,-0.0083707477897405,-0.1030868649870157,-0.0417838166318833,-0.023420623075962,4.830139644540846,1.384931094110012,-8.421528351753949
1757088829655655400,4.127655517578125,-0.0005587479099631,0.0137492269277572,-0.0026892793830484,-0.0707733258813619,-0.0505038603127002,-0.0139940385609865,4.828950142495334,1.3845233900919556,-8.422275955250859
1757088829665701400,4.137701416015625,0.0002242214977741,0.0084838913753628,-0.0020615721587091,-0.0545963903233408,-0.0277720962837338,-0.0473041874885559,4.82788602039516,1.3842366821050642,-8.422930619767309
1757088829675747300,4.147747314453125,0.0006528770318254,0.0052790101617574,-0.0023953397758305,-0.0532116579666733,-0.0290066065147519,-0.0799047268420457,4.827099838453531,1.384124600032717,-8.423401159888506
1757088829685794300,4.157794189453125,0.0020038983784615,-0.0004768796788994,0.001600467134267,-0.0971606898084282,-0.0279598739407956,-0.1042488945037126,4.82675643184334,1.384125330685079,-8.42359755924344
1757088829695840300,4.16784033203125,0.0028987820260226,-0.0034046121872961,0.0019399375887587,-0.0940355435252189,-0.0316518603265285,-0.0698830990433692,4.826772506195306,1.384375506053865,-8.423545536795258
1757088829705887500,4.177887451171875,0.0031661633402109,-0.0089892614632844,0.0002245954237878,-0.0518967759758234,-0.0330852541305124,-0.0702127693891525,4.827281917022169,1.384612237419188,-8.423218789058923
1757088829715933400,4.187933349609375,-0.0021090046502649,-0.0105499271303415,0.0001919032074511,-0.0603928016424179,-0.0279978678636252,-0.0879810657918453,4.8279970795542,1.3846126758106052,-8.422809039214252
1757088829725979600,4.197979736328125,-0.0006394722731783,-0.0105208987370133,0.0019384041661396,-0.0779153065904974,-0.0323543095074594,-0.1009662195712328,4.828758127054572,1.3844794048197566,-8.422389937019348
1757088829736026600,4.208026611328125,-0.0029233596287667,-0.0042327083647251,0.00332523137331,-0.069542322781682,-0.0146744220405817,-0.0983557448118925,4.829214638650417,1.384307263123244,-8.422157881829142
1757088829746072600,4.218072509765625,-0.0033723686356097,0.0059845088981091,-0.0012908256612718,-0.0442716879248619,0.0139833710364997,-0.0936684637784957,4.828934652665257,1.3840810531519352,-8.422358957359194
1757088829756118500,4.228118408203125,-0.0031441049650311,0.0061445049941539,-0.0038441731594502,-0.0250695593267679,0.0222951261773705,-0.0967155763894319,4.828137364807724,1.383550015015155,-8.422900224629045
1757088829766165500,4.23816552734375,-0.0043273475021123,0.0078454660251736,-0.0037751970812678,-0.0441600442439317,0.02025850578323,-0.1001782840639352,4.826578737188876,1.3827438131988048,-8.423928983154893
1757088829776211500,4.24821142578125,-0.0049404380843043,0.0060191298834979,-0.0054000834934413,-0.0570166032075881,-0.0037590602725744,-0.0947755482375621,4.825220308317244,1.3819216831609606,-8.424843175390363
1757088829786258400,4.258258544921875,-0.0010684679728001,0.0021101422607898,-0.0060392417944967,-0.0123781277969479,-0.024616993253678,-0.0602402414292097,4.8244238972425455,1.3812315089397131,-8.42540840805769
1757088829796304400,4.268304443359375,0.0001365205971524,-0.0057966038584709,-0.005717275198549,-0.0274772049903869,-0.0362725058645009,-0.0501473019599914,4.823960663644969,1.3806167380422354,-8.425775487804412
1757088829806350600,4.2783505859375,0.0005306685343384,-0.0187219902873039,-0.0029878010973334,-0.0472673626095056,-0.0615291121959686,-0.0625496874153614,4.823849604485929,1.3799861850537358,-8.425943830108642
1757088829816397300,4.288397216796875,0.002635037060827,-0.0151124875992536,0.0026089143939316,-0.0528790650114417,-0.0726607470631599,-0.0900689779818058,4.824372751577198,1.3798944151170551,-8.425655660817027
1757088829826443500,4.298443603515625,0.0027647330425679,-0.0056500099599361,0.0005199308507144,-0.0267091432273387,-0.047120209223777,-0.0968044237166643,4.824539340315759,1.380241621119529,-8.425506023213266
1757088829836490500,4.308490478515625,-0.0006104347994551,0.0002941924030892,-0.0006618790794163,-0.002633271113038,-0.014103051893413,-0.0806646052986383,4.824255554938316,1.3804438656933604,-8.425633448985218
1757088829846536400,4.318536376953125,-0.0022994116879999,-0.0015955866547301,-0.0036174554843455,-0.000960369464755,-0.0065996905259788,-0.069230772614479,4.823630701038241,1.3804226767748593,-8.425996437078714
1757088829856582400,4.32858251953125,-0.003058556234464,-0.0016448281239718,-0.0054815672338008,-0.0291162043690681,0.0182259770423173,-0.0661976885288953,4.823205753624439,1.3798381548851728,-8.426334875252842
1757088829866629400,4.33862939453125,-0.0046734972856938,0.0039107925258576,-0.0102462284266948,-0.0229147193804383,0.0165539521768689,-0.0761065036028623,4.82298918826431,1.3789661943562328,-8.42660083271265
1757088829876675300,4.34867529296875,-0.0044420035555958,0.0024040786083787,-0.0154498517513275,-0.0294429521054029,0.0253023451693356,-0.0881160903483629,4.822634091216326,1.3776996815517544,-8.42701058255732
1757088829886721300,4.35872119140625,-0.0029743355698883,-0.0008985073654912,-0.0147289335727691,-0.043051790741086,-0.0028597733452916,-0.070491586330533,4.8223278017461295,1.376233846782893,-8.427429100230336
1757088829896768500,4.3687685546875,-0.0058914432302117,-0.0079350406304001,-0.011622798629105,-0.0485246691942214,-0.0248776900164783,-0.1050169562667608,4.822414018724858,1.3747589519247412,-8.427620238888263
1757088829906814500,4.378814453125,-0.0071676298975944,-0.0159061476588249,-0.0094845462590456,-0.0760422061949968,-0.0603192980147898,-0.1123316631942987,4.823296062256396,1.3733894171372054,-8.427337914815544
1757088829916861400,4.388861328125,-0.0098676132038235,-0.0151139991357922,-0.0098860953003168,-0.0453211969777941,-0.0618833324611186,-0.0531616813451051,4.824596038939059,1.3721098987206817,-8.426799570155143
1757088829926907600,4.39890771484375,-0.010442323051393,-0.0123610896989703,-0.0129351494833827,-0.0440086530745029,-0.021379326506704,-0.0257131179273128,4.825678573478758,1.3706615996085108,-8.426417292839288
1757088829936953600,4.40895361328125,-0.0103094102814793,-0.0106995971873402,-0.0165585819631814,-0.0258890590161085,-0.0338340266712009,-0.0098217213124036,4.826562955097854,1.3692001487538217,-8.426148997291921
1757088829947000600,4.41900048828125,-0.0067005604505538,-0.0050507662817835,-0.0264234617352485,-0.0134662152945995,-0.0275511470094323,0.0283253462523221,4.827309681811928,1.3675563270695508,-8.425989422816038
1757088829957046500,4.429046630859375,-0.0077314702793955,0.0053850961849093,-0.0319596417248249,-0.0667500617146492,0.0092703710399568,0.0221796831041574,4.827620939718186,1.3656002245657146,-8.426128539025783
1757088829967093500,4.439093505859375,-0.0105112772434949,0.0161416046321392,-0.0297500174492597,-0.1298702424943447,0.0027329320952296,0.0141658879965543,4.826844986909627,1.3633087526276706,-8.426941608974337
1757088829977139500,4.449139404296875,-0.0148131027817726,0.0102813718840479,-0.0318553112447261,-0.1326017132848501,-0.0258138018228113,0.061463061222434,4.8259851552098985,1.3607310110941528,-8.427852294078468
1757088829987185400,4.459185302734375,-0.0135696735233068,-0.0002967032487504,-0.0264333803206682,-0.0516992075771093,0.0059263213090598,0.0987660791784524,4.825887247793376,1.3580204369612037,-8.428344461509585
1757088829997232400,4.469232421875,-0.0164447296410799,-0.0040111932903528,-0.0254711732268333,0.0637917964309453,-0.0074123220831155,0.1064046112328767,4.82636597122103,1.3553481490120292,-8.42850111337602
1757088830007278300,4.4792783203125,-0.015525140799582,-0.0121093336492776,-0.0245888642966747,0.1997767224133014,-0.0246660930924117,0.0693114366352558,4.827300037200748,1.3528499024555087,-8.428369011428952
1757088830017324500,4.489324462890625,-0.0187161397188901,-0.0053955046460032,-0.0208268836140632,0.2608224350064992,-0.0363223363555967,-0.0335328517675399,4.8283536379069085,1.350290281100571,-8.428174950161576
1757088830027371500,4.49937158203125,-0.0233116913586854,0.0064473068341612,-0.0120701445266604,0.2294242571800947,-0.0439773811534047,-0.1424129132032394,4.828477264286577,1.3476203312389552,-8.428530923992396
1757088830037417500,4.50941748046875,-0.0322443172335624,0.0138705307617783,-0.002053020754829,0.1508952026054263,-0.0178954299136996,-0.1996124717622995,4.827696927563846,1.3450311915285884,-8.429389002126454
1757088830047464400,4.51946435546875,-0.0345996171236038,0.0170034728944301,0.0080030756071209,0.0738099170982837,0.012575696195662,-0.200741768053174,4.826223347879946,1.3423928058490155,-8.430654492017625
1757088830057510400,4.529510498046875,-0.0414038859307765,0.0149438604712486,0.0150554552674293,0.0005821838021278,0.0744888392731547,-0.1253372752398252,4.824632571557164,1.33973615386039,-8.431988370969892
1757088830067556400,4.539556396484375,-0.0497009642422199,0.0204528756439685,0.0226225610822439,-0.0322276143878698,0.1056423946887254,-0.0397808062463998,4.822874621973932,1.33686381329447,-8.433447337606548
1757088830077603600,4.549603515625,-0.0569260902702808,0.033147569745779,0.0204447191208601,-0.0292547360569238,0.1154135548576712,-0.00195814833045,4.820500586318969,1.333377578613907,-8.435356970620155
1757088830087649500,4.5596494140625,-0.0607794150710105,0.0558315776288509,0.0196809247136116,-0.0299871419847011,0.1430970960751175,0.077974051040411,4.816594811052084,1.329336924920976,-8.438226973098516
1757088830097696500,4.569696533203125,-0.0582819059491157,0.0815198943018913,0.0249276179820299,-0.0697419370070099,0.1745838289678096,0.1047194346249103,4.810710136927664,1.3252335812553762,-8.442226856389642
1757088830107742500,4.579742431640625,-0.0556847900152206,0.0872624740004539,0.0364540442824363,-0.0889934577047824,0.2274878822900354,-0.0103220720499753,4.803173311682045,1.321859720908105,-8.447045654848218
1757088830117788700,4.58978857421875,-0.0625652745366096,0.0779202505946159,0.0439566187560558,-0.119108609983325,0.2015881557494401,-0.2033411368966102,4.795583879466355,1.3187301907107234,-8.451848671215773
1757088830127835400,4.59983544921875,-0.0658635944128036,0.0526263453066349,0.0447084307670593,-0.110971480756998,0.1411133749119937,-0.3592845628023147,4.789391454567015,1.315459060085565,-8.455866674685478
1757088830137881600,4.609881591796875,-0.0714369863271713,0.0195548199117183,0.0406648963689804,-0.0962140566080808,0.1080851116657257,-0.4146703499376774,4.785706336313486,1.311676326676458,-8.458539108765125
1757088830147927600,4.619927490234375,-0.0806960016489029,-0.0172684416174888,0.033987820148468,-0.1057683591559529,0.0580282644681632,-0.4702379233807325,4.785235211670399,1.3069658108979465,-8.45953513406515
1757088830157974500,4.629974609375,-0.0921674966812133,-0.0457404665648937,0.0285117831081151,-0.1485769887909293,0.0322366744771599,-0.4459329186856746,4.787490881642699,1.3011835742346942,-8.459148765096067
1757088830168020500,4.6400205078125,-0.1010595262050628,-0.0678028911352157,0.0233668219298124,-0.1570692150652408,0.0078762863330543,-0.4114999032080173,4.792244213649631,1.294270141584426,-8.45752087163329
1757088830178067500,4.6500673828125,-0.1032694876194,-0.0544499419629573,0.0162045732140541,-0.1304594405591488,0.0118183019571006,-0.3104255470871925,4.797356734357774,1.2865871858663855,-8.455794193971157
1757088830188113400,4.660113525390625,-0.1022004932165145,-0.0442849211394786,0.0046541769988834,-0.0679331340193748,0.0421633174687623,-0.1941723265349864,4.801420330534875,1.278388827972114,-8.454733286741375
1757088830198159400,4.670159423828125,-0.1025060042738914,-0.0281404610723257,-0.0052489438094198,-0.0543304328635334,0.0319661869727075,-0.1706967584013938,4.804575871956348,1.2695815443992613,-8.454264500185847
1757088830208206300,4.680206298828125,-0.0999674797058105,-0.0103952856734395,-0.0084854830056428,-0.0688064097225666,-0.0124365799859166,-0.1604699634194374,4.806333237017691,1.2605636868156491,-8.454615797841548
1757088830218252500,4.69025244140625,-0.0947807058691978,0.008322475478053,-0.0114184226840734,-0.1192851355940103,-0.0788217539109289,-0.190411512696743,4.806534312547743,1.251831075914204,-8.455800039190054
1757088830228299300,4.70029931640625,-0.0927689597010612,0.021007377654314,-0.0089147854596376,-0.1033966615885496,-0.1150900219917297,-0.2658288649916648,4.805310615971684,1.243357846601307,-8.45774532803893
1757088830238345500,4.710345458984375,-0.1019358411431312,0.0263790283352136,-0.0119055798277258,-0.0875929432570934,-0.1549585065215826,-0.312104878476262,4.803422025746107,1.2345938176482916,-8.460100366732478
1757088830248391400,4.720391357421875,-0.1192820742726326,0.0325983092188835,-0.0098320432007312,-0.0461518025830388,-0.1359067461796105,-0.3489624907523393,4.801036299653351,1.2246698780704288,-8.46289613493085
1757088830258438700,4.730438720703125,-0.1313409954309463,0.0554865524172782,-0.0055204853415489,-0.0062725043982267,-0.1091500374834984,-0.280584535574913,4.797519815964996,1.213625410030037,-8.466482761245965
1757088830268484400,4.740484375,-0.1440030038356781,0.0995642617344856,-0.0104332184419035,0.0411672921687364,-0.0552194175925105,-0.183710553753376,4.79092991618067,1.2015929538656025,-8.471925829082727
1757088830278530300,4.7505302734375,-0.1566004604101181,0.1393634378910064,-0.023567946627736,0.1299257720738649,0.0484223047982901,-0.1752268030464649,4.780880231331288,1.1880329958729443,-8.47951175416708
1757088830288577500,4.76057763671875,-0.1712342649698257,0.1698627471923828,-0.042885985225439,0.1348152976810932,0.0885915258403867,-0.1800742430776357,4.768059035941958,1.1725538333207368,-8.488879301971197
1757088830298623500,4.77062353515625,-0.1880516558885574,0.2006399631500244,-0.0598995089530944,0.1237695875316858,0.1286461075268685,-0.2668687294334173,4.752921088042855,1.1547958391163498,-8.49980109347999
1757088830308670500,4.78067041015625,-0.2025134116411209,0.2377580404281616,-0.0622793063521385,0.0963765536934137,0.1311900198560208,-0.3515320489794015,4.734824290338159,1.1350436023548245,-8.512551853981613
1757088830318716400,4.79071630859375,-0.2120285630226135,0.2468645870685577,-0.0632130950689315,0.0558808771759271,0.1193971446011215,-0.3500713287770748,4.71471615281105,1.1143651175938547,-8.526432495296001
1757088830328762600,4.8007626953125,-0.2135135382413864,0.2354042083024978,-0.0666030347347259,0.0547895748078823,0.1256561319306492,-0.2711836700230837,4.694706507222354,1.092992147762701,-8.540224873805046
1757088830338809600,4.8108095703125,-0.2223109751939773,0.2200216650962829,-0.0741318389773368,0.0351940629780292,0.111796314208582,-0.2222211939334869,4.675997130577266,1.0709395981695502,-8.553277832123637
1757088830348855600,4.82085546875,-0.2226151078939438,0.2038509547710418,-0.0918698236346244,0.0747276164650917,0.0930519393153488,-0.303415960586071,4.658610819229484,1.0479350816138089,-8.565606567820906
1757088830358901500,4.830901611328125,-0.2173035740852356,0.1860251128673553,-0.116839550435543,0.1609136155337095,0.0910688026741147,-0.2570072606325149,4.642901793444157,1.024180112016946,-8.576997145885228
1757088830368948500,4.840948486328125,-0.2177784144878387,0.1688890159130096,-0.134466752409935,0.1893041359767317,0.1059492686808109,-0.2565554252117872,4.628876482962071,0.9995732748311013,-8.58747528527975
1757088830378994400,4.850994384765625,-0.2222769111394882,0.1528549492359161,-0.1346458792686462,0.1423527074486017,0.1349470343019813,-0.2686515211969614,4.616422659580409,0.9743166684996336,-8.597078395405411
1757088830389041400,4.86104150390625,-0.2316427081823349,0.1508479863405227,-0.1234350353479385,0.0903933876305818,0.1568832640390843,-0.2043435919374227,4.604784828756749,0.9487887709461152,-8.606167710790038
1757088830399087400,4.87108740234375,-0.2480424344539642,0.1829893440008163,-0.1180870458483696,0.1019084688574075,0.1464282863244414,-0.1401338623553514,4.591625487454236,0.9224332634620368,-8.616061328294872
1757088830409133300,4.88113330078125,-0.2657830715179443,0.2636051177978515,-0.10367002338171,0.1277741469979286,0.142901427372545,-0.0823059427648782,4.573541549231112,0.8951349221698939,-8.628550222989917
1757088830419180300,4.89118017578125,-0.2869773805141449,0.3336085677146911,-0.1008747220039367,0.131494044303894,0.2078564954292029,-0.081457801502943,4.548272083418071,0.8665414995659142,-8.644808699351548
1757088830429226500,4.9012265625,-0.3080754578113556,0.3784953355789184,-0.1109481304883956,0.1997264535307884,0.1450482301428914,-0.0645510903656482,4.518047625546157,0.8358262625023722,-8.66366069933772
1757088830439273500,4.9112734375,-0.3134196996688843,0.3633407056331634,-0.1295592188835144,0.1396504627525806,0.0431652610529214,0.0141284785956144,4.486544233779609,0.8033343711551278,-8.683081439122557
1757088830449319400,4.9213193359375,-0.3173646330833435,0.3372217416763305,-0.1525329798460006,0.0851069716602563,0.0921056714411825,0.0300718976587057,4.457141613684595,0.7695075779423117,-8.701270591285825
1757088830459365400,4.931365478515625,-0.3258321285247803,0.3357846736907959,-0.1699865013360977,0.0315928236156702,0.1866966568920761,-0.1498714125156402,4.428955383642018,0.7341733027759939,-8.718701618558168
1757088830469412600,4.94141259765625,-0.3358035385608673,0.3430378139019012,-0.1894539445638656,-0.0057893970564007,0.1555158481433987,-0.3450841880142689,4.400495597355068,0.6972687826182693,-8.736122124436497
1757088830479458600,4.95145849609375,-0.3495254516601562,0.3454614579677582,-0.2115276753902435,0.0361988561064004,0.1297918434958904,-0.4090156851768493,4.371375885854661,0.6583492693763225,-8.753742536801099
1757088830489504500,4.96150439453125,-0.3560206294059753,0.2890985906124115,-0.2189459204673767,0.1726706888228655,0.1778186461705714,-0.4345744893252849,4.34443907135129,0.6179539844933897,-8.770082261705397
1757088830499551500,4.971551513671875,-0.3665806353092193,0.1795255690813064,-0.2264881581068039,0.2506973468333482,0.227021251158975,-0.4167190991610288,4.3249221777156,0.5763831164924428,-8.782553036221861
1757088830509597400,4.981597412109375,-0.3747820854187011,0.0693655088543891,-0.247206762433052,0.2888362310916185,0.2306624206729233,-0.4256880030363797,4.31551342111826,0.5333872937222942,-8.789894631156324
1757088830519644400,4.99164453125,-0.3729228973388672,0.0142750274389982,-0.2657733857631683,0.2419464696228504,0.2449147448439151,-0.3426590066939592,4.313471393896639,0.4892072661362588,-8.79346489085853
1757088830529690600,5.001690673828125,-0.3681241571903229,0.0268544685095548,-0.278758704662323,0.0791109461158514,0.2467671312449499,-0.1353174019843339,4.313201637044549,0.4448579463979229,-8.795953785064816
1757088830539736600,5.011736572265625,-0.3738627135753631,0.0785926952958107,-0.2937657535076141,-0.066994684125483,0.1504273293653503,-0.030707272952795,4.309968354211748,0.3996405020555481,-8.799706415596605
1757088830549783600,5.021783447265625,-0.3763258755207062,0.1575849801301956,-0.3043438196182251,-0.134276660759747,0.2324527381557971,-0.080284666070342,4.300636462242901,0.3535281547000631,-8.806243123888969
1757088830559829500,5.03182958984375,-0.3718622028827667,0.2218000441789627,-0.3039371073246002,-0.1906365536242723,0.1282669354835525,0.136904378914833,4.284721100230515,0.3071784549247473,-8.8157345903337
1757088830569875500,5.04187548828125,-0.3631880283355713,0.2783597409725189,-0.2904958724975586,-0.2092734495550394,0.0856419187871739,0.2951899840325117,4.26340446369648,0.2618165058114566,-8.827524981370567
1757088830579921700,5.051921630859375,-0.3455991148948669,0.3124147653579712,-0.2689695656299591,-0.233187116844952,0.1219379516577348,0.5061404268890619,4.23763844653815,0.2183379775582812,-8.841104009389877
1757088830589967600,5.061967529296875,-0.3275732398033142,0.3053251504898071,-0.2476221919059753,-0.1636360262349248,0.0691658724184147,0.5863309849351644,4.210435674574971,0.1774370447081513,-8.855008031579851
1757088830600014600,5.0720146484375,-0.3051026165485382,0.2480233907699585,-0.2297097146511078,-0.1048708257943391,-0.0298314308331813,0.5660708717167378,4.185787263269722,0.1392164826489519,-8.867365408849716
1757088830610060800,5.082060791015625,-0.2923822999000549,0.1662776619195938,-0.2130942642688751,-0.0666053925469517,-0.1369845862778834,0.4619382970690727,4.167722906529903,0.1034658087014686,-8.876359447166323
1757088830620106800,5.092106689453125,-0.2843165397644043,0.1024684607982635,-0.1933115422725677,-0.1184942774772644,-0.2329419281785376,0.2485398765385151,4.156015517601371,0.0692384398977039,-8.882180700665712
1757088830630153700,5.10215380859375,-0.2705128490924835,0.0615433938801288,-0.1580701917409896,-0.26284458848387,-0.1991489641700871,0.2114209829777479,4.149082795728742,0.0370914392982609,-8.88561301320195
1757088830640199700,5.11219970703125,-0.2492180168628692,0.0608702264726161,-0.1273473352193832,-0.439794562061131,-0.1274898775632958,0.2649281167596578,4.143923805530369,0.0079294435756863,-8.88809372410178
1757088830650246700,5.12224658203125,-0.2205480188131332,0.083057552576065,-0.1044628024101257,-0.436994994470477,-0.0861396757088601,0.307095525881648,4.137533812232316,-0.0178584474877337,-8.891057834604382
1757088830660292600,5.132292724609375,-0.1886068880558014,0.114650160074234,-0.0870751067996025,-0.3565422783568501,-0.0697585410819389,0.3096054628759622,4.128757216058672,-0.0400754007122246,-8.895065316680073
1757088830670338600,5.142338623046875,-0.162012293934822,0.1463361829519271,-0.0737097710371017,-0.3270926042497158,-0.0809429199165198,0.3120516869843006,4.117114124538004,-0.0591178772026207,-8.900352317172288
1757088830680385800,5.1523857421875,-0.1446504443883896,0.1682459115982055,-0.0558535195887088,-0.340289062692225,-0.0736020419346867,0.2158943289995193,4.102777556149661,-0.0754369337782263,-8.906848693454265
1757088830690431700,5.162431640625,-0.1346960812807083,0.1595794558525085,-0.0360619723796844,-0.265218624138832,-0.089266237631021,0.1726385401189327,4.087860849785804,-0.0898499649362638,-8.913569526141881
1757088830700477700,5.172477783203125,-0.1265689730644226,0.1356396228075027,-0.023286735638976,-0.2169245488300919,-0.1481610192680265,0.1327852531582117,4.07458138923496,-0.1029308798408601,-8.919504761409758
1757088830710524700,5.182524658203125,-0.1117199882864952,0.0917014628648758,-0.0118583124130964,-0.1744435437142849,-0.1981328641964122,0.1312140583187341,4.064272761188447,-0.1143104707202874,-8.92406929284632
1757088830720571000,5.19257080078125,-0.1016842350363731,0.042290735989809,-0.0097592556849122,-0.1295528471082448,-0.2498251853750087,0.1433802969306707,4.058288718342781,-0.1242688148912508,-8.926659893861412
1757088830730617900,5.202617919921875,-0.0932784974575042,0.0118854269385337,-0.0229174010455608,-0.0954530091077089,-0.2705501396262086,0.0661462506026029,4.05606198220402,-0.1336210189957637,-8.927536676695942
1757088830740663800,5.212663818359375,-0.0880855992436409,0.0081386258825659,-0.0280873961746692,-0.0531461915150284,-0.2676412847084924,0.0004039046257734,4.055203611809015,-0.1428146441382355,-8.9277827604115
1757088830750709800,5.222709716796875,-0.0719777420163154,0.0217684190720319,-0.0194435752928257,-0.1414408533006906,-0.2527467901764437,0.0336485871016979,4.053866225725412,-0.1509754373679403,-8.928258561229706
1757088830760756700,5.2327568359375,-0.060949120670557,0.0225453823804855,-0.0103189693763852,-0.2278378647714853,-0.3040369237623177,0.1164630639106035,4.051827121113241,-0.1574454462327994,-8.929071631178259
1757088830770802700,5.242802734375,-0.0555176027119159,0.035650797188282,-0.0245812628418207,-0.1852981152057647,-0.3057406589402817,0.1047434000223875,4.049389957094192,-0.1633731923139654,-8.930069994565844
1757088830780849700,5.252849609375,-0.0462935417890548,0.0649731159210205,-0.0272217039018869,-0.0779980164378881,-0.2292899267433211,0.0210012869745492,4.044740085461736,-0.1690453744651749,-8.932069059428573
1757088830790895600,5.2628955078125,-0.0358531512320041,0.0596971288323402,-0.02131880633533,-0.1373392632007598,-0.3012667466629296,0.0276221664190292,4.038841090551019,-0.1736829346053302,-8.934650892615318
1757088830800941800,5.27294189453125,-0.0277415588498115,0.0369720868766307,-0.0176706705242395,-0.1101569495037198,-0.3308123554252088,0.0457154569923877,4.034404569408298,-0.1773569469429552,-8.93658566007018
1757088830810988500,5.282988525390625,-0.0159658603370189,0.0129546364769339,-0.0155254937708377,-0.0014221417576074,-0.2799182354195975,0.0539011015355586,4.032060636630654,-0.180067776804231,-8.937587530589104
1757088830821034800,5.29303466796875,-0.0121104670688509,-0.0108589194715023,-0.0066064954735338,0.0301361950665712,-0.2033415935543365,0.0232534498155117,4.0319256120741365,-0.1816760522510856,-8.93761324955225
1757088830831080700,5.303080810546875,-0.0097104255110025,-0.0384567268192768,-0.0013643288984894,-0.037721535629034,-0.1109085715886205,-0.005498012894392,4.03424236458391,-0.1828299532602541,-8.936545912581682
1757088830841127700,5.313127685546875,-0.0033057983964681,-0.0273702461272478,-0.010239340364933,-0.0373921575441956,-0.0389101791580207,-0.0122252753227949,4.037505458033085,-0.1836008828338235,-8.93505830437243
1757088830851173600,5.323173583984375,0.000999734038487,0.0042073866352438,-0.029003707692027,-0.0391541987806558,0.0589288117707706,-0.0312561390072107,4.0385187267288565,-0.1844747065262869,-8.934581334510446
1757088830861220900,5.333220947265625,0.0074851159006357,0.0342607796192169,-0.0397592596709728,0.0166980368226766,0.1489300217459909,-0.0569365237087011,4.036684789299965,-0.1855912164008245,-8.935383883064985
1757088830871266600,5.3432666015625,0.0133960023522377,0.0528823994100093,-0.0436312295496463,0.0598380903691053,0.1622223417784087,-0.0012380173623561,4.032601319378614,-0.1863139777174219,-8.937215774667262
1757088830881312500,5.3533125,0.0194750037044286,0.0388103984296321,-0.0406378917396068,0.0911532660871744,0.1270173007486388,0.0700134474247693,4.028220620076358,-0.1865730853113345,-8.939185028913617
1757088830891359700,5.36335986328125,0.0254530012607574,0.0064436704851686,-0.04189969971776,0.1199003448829054,0.0905628259133547,0.0982078607738018,4.02610815796703,-0.186181291248463,-8.940143644812702
1757088830901405700,5.37340576171875,0.0282518211752176,-0.027537427842617,-0.0465106479823589,0.14144202234447,0.0344098172651603,0.0345838221251964,4.02686423703134,-0.1855437239972874,-8.939818066120147
1757088830911452000,5.383451904296875,0.0303946007043123,-0.0597773902118206,-0.050668641924858,0.1060831241935491,-0.0072338785099796,-0.0398994641900062,4.030797484827041,-0.1849007864512503,-8.938056317144632
1757088830921499000,5.393498779296875,0.0348997898399829,-0.067773625254631,-0.0596173740923404,0.0212210672050714,-0.0106474863457493,-0.0559264698833227,4.036501541687548,-0.1841806006842292,-8.935496111267804
1757088830931544800,5.403544921875,0.0473042614758014,-0.0636894032359123,-0.0687509477138519,-0.0517939001232385,0.0109275636624544,0.0390226813554763,4.042329224927723,-0.1831604821225628,-8.932882129377127
1757088830941591800,5.413591796875,0.0605059042572975,-0.0540590584278106,-0.08081666380167,-0.052399172540009,-0.028106954261288,0.1619312681436538,4.047572970800101,-0.1813856910023838,-8.93054462634027
1757088830951637800,5.4236376953125,0.0715742707252502,-0.0327590964734554,-0.0983154997229576,-0.0331534970611333,-0.0568958263721317,0.2462146484613418,4.051222140957415,-0.1790826199580915,-8.928934853056072
1757088830961683700,5.43368359375,0.085584357380867,-0.0135483806952834,-0.1132638230919838,0.0276882173925638,-0.084565521727316,0.2553016257584095,4.05307858247906,-0.1764025322949513,-8.928145748504996
1757088830971730700,5.443730712890625,0.0991134867072105,-0.0014528358587995,-0.1245100870728492,0.1153507187545299,-0.1437474497426301,0.2696703428506851,4.053553214253485,-0.1728856832804158,-8.928001371598244
1757088830981776600,5.453776611328125,0.1053685396909713,-0.0044160429388284,-0.1278305202722549,0.1403501354545354,-0.16384822594719,0.2724462373048067,4.05354386190325,-0.168796203743387,-8.92808495822847
1757088830991822600,5.463822509765625,0.1099249422550201,-0.0143405785784125,-0.1229407042264938,0.1448275731295347,-0.1125847977051511,0.250856336787343,4.054152933712303,-0.1642447875167243,-8.927890896961092
1757088831001869600,5.47386962890625,0.1134546473622322,-0.0355256497859954,-0.1164142191410064,0.1168000407800078,-0.1140825437159277,0.1714841093868017,4.056144107529521,-0.1591556842167861,-8.927078996056318
1757088831011915800,5.483915771484375,0.1170938536524772,-0.0451516471803188,-0.107282243669033,0.0511442040428519,-0.0979045852445997,0.0329015681266784,4.059701215489208,-0.1533368236038833,-8.92556742244959
1757088831021962800,5.493962646484375,0.1185347065329551,-0.0411810390651226,-0.0922415554523468,-0.0748848528534174,-0.0989176804104354,-0.0523567947030067,4.063476057852805,-0.1469368751673959,-8.923955311077833
1757088831032008700,5.5040087890625,0.122107870876789,-0.0238206945359706,-0.069758616387844,-0.1831909137934446,-0.094564270973904,-0.0545639493584632,4.066286731359362,-0.1394689047737512,-8.922795619648694
1757088831042054700,5.5140546875,0.1228566318750381,-0.0075498772785067,-0.0436913967132568,-0.3017936200812459,-0.109354364416562,-0.0358668476730585,4.0675738485604525,-0.1308139530852436,-8.922340277096628
1757088831052101600,5.5241015625,0.1267408579587936,0.0069094896316528,-0.0217011459171772,-0.3075438541710376,-0.1033885696136392,-0.0141395845115184,4.067487923842668,-0.1209182166885584,-8.922517387229204
1757088831062147600,5.534147705078125,0.131398320198059,0.0005506380693987,-0.0089151700958609,-0.2315057396292686,-0.1139154435207135,0.0519078818917274,4.067016506938636,-0.1099423843044321,-8.922873945581912
1757088831072194800,5.54419482421875,0.1365328878164291,-0.0251547247171401,-0.0079076960682868,-0.1065484036177396,-0.1284286927833687,0.0410942269325256,4.068054910075665,-0.0984218871169723,-8.922536091929674
1757088831082240800,5.55424072265625,0.1462405323982238,-0.0523568093776702,-0.0165351331233978,-0.0117576578110456,-0.1272525708092376,-0.0163502462983131,4.071574900895357,-0.0862803354217205,-8.92105315989554
1757088831092286700,5.56428662109375,0.1539152264595031,-0.0686327144503593,-0.0262820366770029,0.0164595518916845,-0.1127307546476367,-0.0235159001439809,4.077026444299519,-0.0737177772688446,-8.918676493892074
1757088831102333700,5.574333740234375,0.158872365951538,-0.0574249103665351,-0.029139244928956,0.0230503284588456,-0.0901163790537975,-0.0643932694554328,4.082855588844418,-0.0608680407716194,-8.916105182099342
1757088831112380000,5.5843798828125,0.1562803089618683,-0.0225633345544338,-0.0318346284329891,-0.0193739780336618,-0.0407985090886941,-0.0855985545694828,4.086524048224091,-0.048086268643802,-8.91450593020916
1757088831122425900,5.59442578125,0.1547249108552932,0.0283280052244663,-0.0268780421465635,-0.0029524200648069,-0.0041791534147458,-0.1009831707060337,4.086263643722236,-0.0354747567826649,-8.914683624863624
1757088831132472800,5.604472900390625,0.1599228680133819,0.0821214616298675,-0.0281086880713701,0.0377723890334367,0.0164825377583387,-0.0266916075706481,4.081301929661631,-0.0226176315634278,-8.916999500590562
1757088831142518800,5.614518798828125,0.1670094430446624,0.104369468986988,-0.0301090124994516,0.073699442461133,0.0401697918642545,0.0771954678833484,4.072758849982917,-0.009194750232945,-8.920928656733036
1757088831152565800,5.624565673828125,0.1739123612642288,0.1126636117696762,-0.025491090491414,0.0622767156928777,0.0742688033143058,0.1555991425126791,4.062931867973506,0.0048895141907851,-8.925409017017483
1757088831162611700,5.63461181640625,0.1790829449892044,0.1161650195717811,-0.0071103009395301,-0.035032150414586,0.0857605767307803,0.2054407395243644,4.0526524660214776,0.0200331817279104,-8.930062395781277
1757088831172657700,5.64465771484375,0.1836777031421661,0.1131170317530632,0.0057343915104866,-0.1078735147416591,0.0506530914910836,0.2186117712646722,4.042294738136231,0.036286344876897,-8.9347029150635
1757088831182704600,5.65470458984375,0.1897574216127395,0.0748591274023056,-0.0035246480256319,-0.0174357034474611,0.0221519091812428,0.1926303577899932,4.03370957288146,0.0531158922748873,-8.938500553780793
1757088831192750600,5.66475048828125,0.1965626031160354,0.038994874805212,-0.0293426644057035,0.1447577227637171,0.0447553980548866,0.1458031401634216,4.028784975960851,0.069866905960394,-8.940603079017997
1757088831202796800,5.674796875,0.2024271488189697,0.0471348203718662,-0.0547941997647285,0.216193311946094,0.0382829141051508,0.1201525660783052,4.0252839821025725,0.0862155996224377,-8.942036911213398
1757088831212843800,5.68484375,0.2094190120697021,0.0800070166587829,-0.0789956822991371,0.250583949586749,-0.0325899905600119,0.0401642526060342,4.019775155553221,0.1020218843703158,-8.944351033374666
1757088831222889700,5.6948896484375,0.2228773683309555,0.1554153114557266,-0.1045266687870025,0.2922819876313209,-0.0537959880601149,0.0776519794791936,4.009499260732532,0.1176912905313074,-8.94876768077314
1757088831232936700,5.704936767578125,0.2400646060705185,0.1976642310619354,-0.1327391415834427,0.3724240303605794,-0.0154351042147725,0.2448684945493936,3.993104590770602,0.1336489299159962,-8.955873128864168
1757088831242982700,5.714982666015625,0.2667886614799499,0.159378096461296,-0.1459022611379623,0.4175701630324125,-0.0005111826588399,0.4186263940870761,3.977285967130959,0.1508968922390136,-8.962633124518394
1757088831253028600,5.725028564453125,0.2562332153320312,0.1750345528125763,-0.103901021182537,-0.0507972903013229,0.0683898465446196,0.3335065629452466,3.962623527789116,0.1695339799660258,-8.968793400713801
1757088831263075800,5.735075927734375,0.2363177239894867,0.1552027612924575,-0.0409165322780609,-0.5351324203565716,0.1464738059666007,-0.0756733728826045,3.947317822107673,0.1887143351237289,-8.975156506004929
1757088831273121800,5.745121826171875,0.2296371906995773,0.0679876953363418,0.0079274401068687,-0.7054191366523503,0.0564992282699793,-0.287218274500966,3.9369919506654143,0.2091073722731322,-8.97923822236061
