time,seconds_elapsed,z,y,x
1757088120319240700,0.10824072265625,-3.31966495513916,1.494500994682312,9.061813354492188
1757088120328794000,0.117794189453125,-4.319454193115234,1.1553800106048584,8.6065092086792
1757088120338347300,0.12734716796875,-4.817996025085449,0.6114090085029602,7.863998889923096
1757088120347900700,0.136900634765625,-4.842226028442383,-0.05918300151824951,6.668651103973389
1757088120357454000,0.1464541015625,-5.3414530754089355,-0.9750109910964966,5.535726070404053
1757088120367007200,0.15600732421875,-5.98793888092041,-1.7196409702301025,4.6757988929748535
1757088120376560600,0.165560546875,-8.436606407165527,-3.6087770462036133,2.427053928375244
1757088120386113800,0.17511376953125,-8.403339385986328,-5.158769130706787,0.7653239965438843
1757088120395667200,0.184667236328125,-7.350547790527344,-5.1287841796875,0.8426139950752258
1757088120405220600,0.194220703125,-7.4692301750183105,-6.471436023712158,1.251628041267395
1757088120414773800,0.203773681640625,-7.368545055389404,-7.403651237487793,2.753514051437378
1757088120424327200,0.2133271484375,-6.504316806793213,-8.300031661987305,5.004001140594482
1757088120433880600,0.222880615234375,-5.0353617668151855,-9.060267448425293,7.302618980407715
1757088120443433700,0.232433837890625,-4.152202129364014,-9.777978897094727,9.001869201660156
1757088120452987100,0.241987060546875,-4.213898181915283,-10.637081146240234,10.073803901672363
1757088120462540300,0.251540283203125,-4.0172929763793945,-10.793577194213867,11.111776351928711
1757088120472093700,0.26109375,-4.047840118408203,-10.552846908569336,12.234842300415039
1757088120481647000,0.270647216796875,-4.586101055145264,-10.38817310333252,12.654609680175781
1757088120491200300,0.2802001953125,-5.7267608642578125,-10.873833656311035,12.87810230255127
1757088120510306800,0.299306884765625,-8.57829475402832,-9.832725524902344,10.71843147277832
1757088120519860200,0.308860107421875,-9.13421630859375,-9.770668983459473,11.222588539123535
1757088120529413600,0.31841357421875,-9.324809074401855,-10.526098251342773,13.221927642822266
1757088120538967000,0.327967041015625,-9.210755348205566,-10.030311584472656,14.76385498046875
1757088120548520200,0.337520263671875,-9.59505844116211,-9.254570007324219,15.616363525390625
1757088120558073600,0.347073486328125,-10.568951606750488,-8.557703971862793,15.756843566894531
1757088120567626800,0.356626708984375,-12.413824081420898,-7.637170791625977,15.562287330627441
1757088120577180400,0.366180419921875,-14.44698715209961,-6.529819011688232,15.238651275634766
1757088120586733600,0.375733642578125,-15.594152450561523,-5.436620235443115,14.344018936157227
1757088120596286700,0.38528662109375,-16.63642692565918,-5.178760051727295,12.903497695922852
1757088120605840100,0.394840087890625,-15.986763000488281,-4.985573768615723,10.96481704711914
1757088120615393500,0.4043935546875,-14.523138046264648,-4.220742225646973,8.916740417480469
1757088120624946700,0.41394677734375,-13.619756698608398,-4.007156848907471,7.894867897033691
1757088120634500000,0.4235,-13.266027450561523,-4.360029220581055,7.649647235870361
1757088120644053500,0.433053466796875,-13.174003601074219,-4.8443989753723145,7.035637855529785
1757088120653606700,0.442606689453125,-13.245119094848633,-5.039010047912598,6.040298938751221
1757088120663160000,0.45216015625,-13.457237243652344,-5.119484901428223,5.274013042449951
1757088120672713500,0.46171337890625,-14.206642150878906,-5.652791976928711,4.415057182312012
1757088120682266600,0.4712666015625,-14.875370979309082,-6.238529205322266,3.008665084838867
1757088120691820000,0.480820068359375,-20.689151763916016,-8.106817245483398,0.6472799777984619
1757088120701373200,0.490373291015625,-25.04737091064453,-8.941372871398926,-2.2583510875701904
1757088120710926600,0.499926513671875,-18.67786979675293,-7.610452175140381,-1.868759036064148
1757088120720480000,0.50947998046875,-9.026159286499023,-7.372859954833984,1.10487699508667
1757088120730033200,0.519033203125,-3.535609006881714,-9.150890350341797,2.6135571002960205
1757088120739586600,0.528586669921875,-3.0045061111450195,-9.3956880569458,0.2874610126018524
1757088120749140000,0.538139892578125,-6.017141819000244,-9.951348304748535,-2.629473924636841
1757088120758693400,0.547693359375,-7.8521199226379395,-9.646712303161621,-3.314445972442627
1757088120768246500,0.55724658203125,-7.305890083312988,-9.268900871276855,-1.9939830303192139
1757088120777800000,0.566800048828125,-6.131365776062012,-8.016778945922852,0.15575100481510162
1757088120787353300,0.576353271484375,-4.8811421394348145,-6.801184177398682,2.8395919799804688
1757088120796906500,0.585906494140625,-4.229959011077881,-6.877884864807129,4.554180145263672
1757088120806460000,0.5954599609375,-5.766790866851807,-7.3757548332214355,3.792306900024414
1757088120816013300,0.605013427734375,-6.020806789398193,-7.760303974151611,1.802278995513916
1757088120825566500,0.61456640625,-6.140192985534668,-8.29106330871582,-0.2596920132637024
1757088120835119900,0.624119873046875,-5.736888885498047,-8.466306686401367,-2.087398052215576
1757088120844673300,0.63367333984375,-5.237668037414551,-8.399892807006836,-3.022559881210327
1757088120854226400,0.643226318359375,-5.326158046722412,-8.23689079284668,-3.6365110874176025
1757088120863779800,0.65277978515625,-5.525450229644775,-8.28049087524414,-4.380836009979248
1757088120873333200,0.662333251953125,-3.904850959777832,-8.560626029968262,-4.798998832702637
1757088120882886400,0.671886474609375,-4.340259075164795,-9.125152587890625,-2.5582220554351807
1757088120892439800,0.681439697265625,-4.421998977661133,-9.430464744567871,-0.8178640007972717
1757088120901993000,0.690992919921875,-4.9296979904174805,-8.037148475646973,0.36691999435424805
1757088120911546600,0.700546630859375,-6.5739970207214355,-8.372603416442871,0.40474599599838257
1757088120921099800,0.710099853515625,-5.97216796875,-9.597535133361816,1.5705499649047852
1757088120930653200,0.719653076171875,-6.626377105712891,-9.910340309143066,2.1126270294189453
1757088120940206300,0.729206298828125,-8.884156227111816,-9.076386451721191,2.117003917694092
1757088120949759700,0.738759765625,-10.786048889160156,-8.562056541442871,0.6670629978179932
1757088120959313200,0.748313232421875,-15.990215301513672,-6.378488063812256,-3.3468480110168457
1757088120968866600,0.757866455078125,-9.37276554107666,-6.656743049621582,-4.319667816162109
1757088120978419700,0.767419677734375,-2.532742977142334,-6.963955879211426,-4.485843181610107
1757088120987973000,0.77697314453125,-0.7013180255889893,-7.49706506729126,-4.329599857330322
1757088120997526300,0.7865263671875,-1.218384027481079,-7.089396953582764,-4.400781154632568
1757088121007079700,0.79607958984375,-2.77768611907959,-5.422062873840332,-5.252354145050049
1757088121016632800,0.8056328125,-4.288021087646484,-4.626707077026367,-6.681149959564209
1757088121026186200,0.815186279296875,-4.364712238311768,-3.556191921234131,-8.958658218383789
1757088121035739400,0.824739501953125,-4.52492618560791,-3.418708086013794,-9.607512474060059
1757088121045292800,0.834292724609375,-4.156177043914795,-3.8397529125213623,-8.733078002929688
1757088121054846200,0.84384619140625,-4.093413829803467,-2.5526340007781982,-3.7666869163513184
1757088121064399400,0.8533994140625,-3.678270101547241,-1.9244279861450195,4.185826778411865
1757088121073953000,0.862953125,-4.964476108551025,-2.0785770416259766,1.6747299432754517
1757088121083506200,0.872506103515625,-7.949993133544922,-0.5910189747810364,-5.873208999633789
1757088121093059300,0.882059326171875,-10.336051940917969,0.6003140211105347,-6.461136817932129
1757088121102612700,0.89161279296875,-10.272673606872559,1.9140510559082031,-4.723227024078369
1757088121112166100,0.901166259765625,-8.601482391357422,3.2905960083007812,-3.8769829273223877
1757088121121719300,0.91071923828125,-6.833290100097656,4.3208842277526855,-4.281075954437256
1757088121131272700,0.920272705078125,-5.63956880569458,5.086938858032227,-4.216124057769775
1757088121140825900,0.929825927734375,-5.2454938888549805,5.548664093017578,-3.9147610664367676
1757088121150379300,0.939379150390625,-5.161503791809082,5.8095221519470215,-3.7472569942474365
1757088121159932400,0.948932373046875,-5.605038166046143,4.8308210372924805,-3.942142963409424
1757088121169486000,0.958486083984375,-4.974827766418457,4.408565998077393,-3.854435920715332
1757088121179039200,0.968039306640625,-4.863842964172363,3.5629589557647705,-4.38261604309082
1757088121188592600,0.977592529296875,-5.660731792449951,3.125643014907837,-4.026072978973389
1757088121198145800,0.987145751953125,-3.544271945953369,-3.532996892929077,-4.268995761871338
1757088121207699200,0.99669921875,-1.1308469772338867,-16.178016662597656,-12.541924476623535
1757088121217252600,1.006252685546875,-5.2237019538879395,-33.101318359375,-20.991924285888672
1757088121226806000,1.015805908203125,-5.4967827796936035,-38.24140167236328,-8.828951835632324
1757088121236359200,1.025359130859375,-4.039793968200684,-34.686302185058594,-1.6953259706497192
1757088121245912600,1.03491259765625,-3.0100131034851074,-24.474369049072266,-10.65376091003418
1757088121255465500,1.044465576171875,-3.4376440048217773,-13.419031143188477,-10.324210166931152
1757088121265019100,1.05401904296875,-3.0118820667266846,-5.741477012634277,-6.753136157989502
1757088121274572300,1.063572265625,-2.4503281116485596,-0.8898550271987915,-3.9919850826263428
1757088121284125700,1.073125732421875,-3.679861068725586,2.0288310050964355,-3.3875010013580322
1757088121293679000,1.08267919921875,-5.788228988647461,4.2135138511657715,-2.573482036590576
1757088121303232300,1.092232177734375,-7.529388904571533,5.87664794921875,-2.021651029586792
1757088121312785700,1.10178564453125,-9.200450897216797,6.994300842285156,-2.1934409141540527
1757088121322339000,1.111339111328125,-8.257553100585938,7.461862087249756,-3.1807639598846436
1757088121331892200,1.120892333984375,-5.009550094604492,6.0301408767700195,-5.097858905792236
1757088121341445600,1.130445556640625,-3.350142002105713,3.315825939178467,-5.957503795623779
1757088121350998800,1.139998779296875,-3.654803991317749,0.9771980047225952,-5.3510050773620605
1757088121360552000,1.149552001953125,-3.577518939971924,-1.0685160160064697,-5.177105903625488
1757088121370105600,1.159105712890625,-3.604660987854004,-3.232163906097412,-5.480852127075195
1757088121379658800,1.16865869140625,-3.8461151123046875,-4.673029899597168,-5.421847820281982
1757088121389212200,1.178212158203125,-4.315805912017822,-5.05731201171875,-5.547313213348389
1757088121398765600,1.187765625,-4.7359161376953125,-4.3258819580078125,-5.531195163726807
1757088121408318700,1.197318603515625,-5.0244832038879395,-2.730570077896118,-4.8873090744018555
1757088121417872100,1.2068720703125,-4.766462802886963,-1.2312259674072266,-4.187853813171387
1757088121427425300,1.21642529296875,-4.331243991851807,-0.16301199793815613,-3.855531930923462
1757088121436978700,1.225978759765625,-3.8718268871307373,0.48668399453163147,-3.6931259632110596
1757088121446532000,1.235531982421875,-3.6146080493927,0.5905629992485046,-3.8269150257110596
1757088121456085200,1.245085205078125,-3.2020339965820312,0.3368380069732666,-3.9086289405822754
1757088121465638700,1.254638671875,-2.9296510219573975,-0.08806400001049042,-3.837412118911743
1757088121475191800,1.26419189453125,-2.7746739387512207,-0.44321998953819275,-3.5918378829956055
1757088121484745200,1.2737451171875,-2.6645290851593018,-0.6421740055084229,-3.3679730892181396
1757088121494298600,1.283298583984375,-2.599756956100464,-0.6084640026092529,-3.0755679607391357
1757088121503852000,1.29285205078125,-2.530669927597046,-0.3984540104866028,-2.672236919403076
1757088121513405200,1.3024052734375,-2.3167519569396973,-0.16505299508571625,-2.441739082336426
1757088121522958600,1.31195849609375,-2.1334569454193115,0.0013889999827370048,-2.3385729789733887
1757088121532511700,1.32151171875,-2.0163750648498535,0.05683799833059311,-2.269184112548828
1757088121542065200,1.331065185546875,-1.9134999513626099,0.013677000068128109,-2.24127197265625
1757088121551618300,1.340618408203125,-1.9337669610977173,-0.06314700096845627,-2.190908908843994
1757088121561171700,1.350171630859375,-2.0057458877563477,-0.16483299434185028,-2.0902578830718994
1757088121570724900,1.359724853515625,-2.073676109313965,-0.20979300141334534,-1.9995529651641846
1757088121580278500,1.369278564453125,-2.109365940093994,-0.21474500000476837,-1.8785289525985718
1757088121589831700,1.378831787109375,-2.167736053466797,-0.1743060052394867,-1.7388440370559692
1757088121599384800,1.388384765625,-2.206199884414673,-0.13889199495315552,-1.5850739479064941
1757088121608938500,1.3979384765625,-2.142371892929077,-0.057486001402139664,-1.4801440238952637
1757088121618491600,1.40749169921875,-2.0016229152679443,0.007031000219285488,-1.3421779870986938
1757088121628045000,1.417045166015625,-1.8751729726791382,0.0715700015425682,-1.2297450304031372
1757088121637598200,1.42659814453125,-1.7551310062408447,0.10277300328016281,-1.1411800384521484
1757088121647151400,1.4361513671875,-1.6702179908752441,0.08673399686813354,-1.080610990524292
1757088121656704800,1.445704833984375,-1.5688480138778687,0.03526199981570244,-1.0516990423202515
1757088121666258200,1.455258056640625,-1.4094890356063843,-0.0353889986872673,-1.0652029514312744
1757088121675811300,1.464811279296875,-1.2450979948043823,-0.08635599911212921,-1.0417020320892334
1757088121685364700,1.47436474609375,-1.114382028579712,-0.12401899695396423,-0.9951189756393433
1757088121694918100,1.483918212890625,-1.0073699951171875,-0.13328300416469574,-0.9124559760093689
1757088121704471300,1.49347119140625,-0.8976879715919495,-0.12849700450897217,-0.8432310223579407
1757088121714024700,1.503024658203125,-0.7654160261154175,-0.12594999372959137,-0.7442179918289185
1757088121723577900,1.512577880859375,-0.6487619876861572,-0.11404699832201004,-0.6917049884796143
1757088121733131300,1.52213134765625,-0.5496829748153687,-0.09983500093221664,-0.6376820206642151
1757088121742684400,1.531684326171875,-0.47407999634742737,-0.07868000119924545,-0.6092960238456726
1757088121752237800,1.54123779296875,-0.4182380139827728,-0.038047999143600464,-0.5437350273132324
1757088121761791000,1.550791015625,-0.37440600991249084,-0.011811000294983387,-0.5132060050964355
1757088121771344600,1.5603447265625,-0.3086000084877014,0.016644999384880066,-0.49108201265335083
1757088121780897800,1.569897705078125,-0.24053199589252472,-0.00014200000441633165,-0.4456070065498352
1757088121790451000,1.579450927734375,-0.17777499556541443,-0.03325299918651581,-0.3965980112552643
1757088121800004400,1.58900439453125,-0.12226799875497818,-0.1040859967470169,-0.3563629984855652
1757088121809557800,1.598557861328125,-0.08040399849414825,-0.1526000052690506,-0.30855700373649597
1757088121819111200,1.608111083984375,-0.042121000587940216,-0.1698240041732788,-0.2982900142669678
1757088121828664300,1.617664306640625,-0.027329999953508377,-0.17991499602794647,-0.312267005443573
1757088121838217700,1.6272177734375,-0.045921001583337784,-0.14247600734233856,-0.3439520001411438
1757088121847771000,1.63677099609375,-0.059664998203516006,-0.11507900059223175,-0.38335099816322327
1757088121857324300,1.64632421875,-0.09591399878263474,-0.08826400339603424,-0.42974400520324707
1757088121866877400,1.65587744140625,-0.1262740045785904,-0.06911099702119827,-0.469294011592865
1757088121876430800,1.665430908203125,-0.15998399257659912,-0.04399000108242035,-0.5493339896202087
1757088121885984300,1.674984375,-0.20297299325466156,-0.05051000043749809,-0.5839560031890869
1757088121895537400,1.684537353515625,-0.2426680028438568,-0.07649900019168854,-0.6146219968795776
1757088121905090800,1.6940908203125,-0.274167001247406,-0.0928570032119751,-0.6045759916305542
1757088121914644200,1.703644287109375,-0.27757400274276733,-0.08335000276565552,-0.6143879890441895
1757088121924197400,1.713197265625,-0.25458401441574097,-0.08341299742460251,-0.5887969732284546
1757088121933750500,1.72275048828125,-0.21390900015830994,-0.05265900120139122,-0.567579984664917
1757088121943304000,1.732303955078125,-0.17711399495601654,-0.05963899940252304,-0.4988900125026703
1757088121952857300,1.741857421875,-0.14413100481033325,-0.06352599710226059,-0.4333629906177521
1757088121962410800,1.75141064453125,-0.11964400112628937,-0.10200600326061249,-0.34676700830459595
1757088121971964000,1.7609638671875,-0.11907699704170227,-0.12735199928283691,-0.27651599049568176
1757088121981517300,1.770517333984375,-0.11656399816274643,-0.1395989954471588,-0.20569899678230286
1757088121991070700,1.78007080078125,-0.12598499655723572,-0.14897100627422333,-0.17259299755096436
1757088122000623900,1.789623779296875,-0.12647399306297302,-0.1432809978723526,-0.12535299360752106
1757088122010177300,1.79917724609375,-0.13646799325942993,-0.1179559975862503,-0.07987300306558609
1757088122019730400,1.80873046875,-0.14353099465370178,-0.10867899656295776,-0.03448500111699104
1757088122029283800,1.818283935546875,-0.13408400118350983,-0.12546999752521515,-0.018856000155210495
1757088122038837200,1.827837158203125,-0.10717099905014038,-0.13707000017166138,0.00469199987128377
1757088122048390400,1.837390380859375,-0.0935709998011589,-0.16062000393867493,-0.003128000069409609
1757088122057943600,1.846943603515625,-0.09271200001239777,-0.21534299850463867,-0.025262000039219856
1757088122067497200,1.856497314453125,-0.09972699731588364,-0.21321099996566772,-0.06448099762201309
1757088122077050400,1.86605029296875,-0.12322500348091125,-0.2256380021572113,-0.07904600352048874
1757088122086603800,1.875603759765625,-0.16191700100898743,-0.1880989968776703,-0.08037400245666504
1757088122096157000,1.885156982421875,-0.20055200159549713,-0.18837599456310272,-0.049695998430252075
1757088122105710000,1.8947099609375,-0.19814400374889374,-0.18098999559879303,-0.011137999594211578
1757088122115263500,1.904263427734375,-0.21327300369739532,-0.17509600520133972,0.045896001160144806
1757088122124817000,1.91381689453125,-0.2091369926929474,-0.1924629956483841,0.08131799846887589
1757088122134370000,1.9233701171875,-0.20056399703025818,-0.19974499940872192,0.10526400059461594
1757088122143923500,1.93292333984375,-0.1793140023946762,-0.21909399330615997,0.09343600273132324
1757088122153476900,1.942476806640625,-0.17773500084877014,-0.23160900175571442,0.06120400130748749
1757088122163030000,1.952030029296875,-0.1854500025510788,-0.23983000218868256,0.02354300022125244
1757088122172583400,1.96158349609375,-0.20141899585723877,-0.21721899509429932,0.0061519998125731945
1757088122182136600,1.971136474609375,-0.19533300399780273,-0.18775300681591034,-0.01006999984383583
1757088122191690000,1.98068994140625,-0.15969599783420563,-0.18024200201034546,-0.039340998977422714
1757088122201243400,1.990243408203125,-0.1279670000076294,-0.16605299711227417,-0.06932900100946426
1757088122210796500,1.999796630859375,-0.09349700063467026,-0.17134299874305725,-0.09111499786376953
1757088122220350000,2.009349853515625,-0.08365699648857117,-0.1653749942779541,-0.13673800230026245
1757088122229903000,2.018903076171875,-0.08569400012493134,-0.17874999344348907,-0.1505739986896515
1757088122239456800,2.028456787109375,-0.07640200108289719,-0.1903800070285797,-0.19089099764823914
1757088122249010200,2.03801025390625,-0.06991700083017349,-0.16373799741268158,-0.17844800651073456
1757088122258563000,2.04756298828125,-0.05681600049138069,-0.1679619997739792,-0.15980200469493866
1757088122268116700,2.05711669921875,-0.032774001359939575,-0.15290799736976624,-0.14167000353336334
1757088122277670000,2.066669921875,-0.03695400059223175,-0.14725400507450104,-0.12654699385166168
1757088122287223000,2.07622314453125,-0.0294560007750988,-0.13407999277114868,-0.10066500306129456
1757088122296776400,2.0857763671875,-0.03339499980211258,-0.13522900640964508,-0.09408500045537949
1757088122306329900,2.095329833984375,-0.014812000095844269,-0.17674900591373444,-0.0839499980211258
1757088122315883000,2.104883056640625,0.013621999882161617,-0.1915619969367981,-0.06323599815368652
1757088122325436400,2.1144365234375,0.033684998750686646,-0.19905400276184082,-0.05982600152492523
1757088122334989600,2.123989501953125,0.028029000386595726,-0.2205200046300888,-0.043404001742601395
1757088122344543000,2.13354296875,0.031980000436306,-0.20803099870681763,-0.018914999440312386
1757088122354096000,2.14309619140625,0.04032599925994873,-0.2143940031528473,-0.007482000160962343
1757088122363649500,2.1526494140625,0.041425999253988266,-0.20171000063419342,-0.014840999618172646
1757088122373203000,2.162202880859375,0.07373800128698349,-0.20160600543022156,-0.05608699843287468
1757088122382756000,2.171756103515625,0.0899989977478981,-0.18555399775505066,-0.10414999723434448
1757088122392309200,2.181309326171875,0.07540600001811981,-0.17948900163173676,-0.12682700157165527
1757088122401862700,2.190862548828125,0.061191998422145844,-0.1573760062456131,-0.16377800703048706
1757088122411415800,2.200415771484375,0.04969000071287155,-0.1309799998998642,-0.18218499422073364
1757088122420969200,2.20996923828125,0.02757200039923191,-0.12616300582885742,-0.17891399562358856
1757088122430522600,2.219522705078125,0.00240899994969368,-0.1310259997844696,-0.1799830049276352
1757088122440076000,2.229075927734375,-0.00532800005748868,-0.13612699508666992,-0.18981699645519257
1757088122449629200,2.238629150390625,-0.007988999597728252,-0.15748099982738495,-0.1535169929265976
1757088122459182600,2.2481826171875,-0.0014019999653100967,-0.17044100165367126,-0.08071000128984451
1757088122468735700,2.25773583984375,-0.017361000180244446,-0.18960300087928772,-0.02796100080013275
1757088122478289000,2.267288818359375,-0.02984599955379963,-0.21995000541210175,0.007774000056087971
1757088122487842300,2.27684228515625,-0.04329799860715866,-0.23272299766540527,0.047965001314878464
1757088122497395700,2.286395751953125,-0.0439319983124733,-0.24525399506092072,0.04904500022530556
1757088122506948900,2.295948974609375,-0.04127100110054016,-0.22719399631023407,0.018476000055670738
1757088122516502300,2.305502197265625,-0.02249700017273426,-0.19078899919986725,-0.02129399962723255
1757088122526055700,2.3150556640625,0.012931999750435352,-0.14574000239372253,-0.060366999357938766
1757088122535608800,2.32460888671875,0.04140400141477585,-0.12746599316596985,-0.07648800313472748
1757088122545162200,2.334162353515625,0.05684899911284447,-0.14050599932670593,-0.08483099937438965
1757088122554715400,2.34371533203125,0.044672999531030655,-0.16049599647521973,-0.072393998503685
1757088122564268800,2.353268798828125,0.06722500175237656,-0.2037629932165146,-0.038350000977516174
1757088122573822200,2.362822265625,0.08401700109243393,-0.22261600196361542,-0.013176999986171722
1757088122583375400,2.372375244140625,0.08810999989509583,-0.25030601024627686,0.023770999163389206
1757088122592928800,2.3819287109375,0.10488200187683105,-0.22943399846553802,0.06543800234794617
1757088122602482200,2.391482177734375,0.09971900284290314,-0.19170799851417542,0.0732399970293045
1757088122612035300,2.401035400390625,0.06743399798870087,-0.16618700325489044,0.05796999856829643
1757088122621588700,2.410588623046875,0.06366799771785736,-0.14873600006103516,0.005059000104665756
1757088122631142000,2.420141845703125,0.043827999383211136,-0.17521600425243378,-0.052090998739004135
1757088122640695000,2.429695068359375,0.02028699964284897,-0.1974560022354126,-0.09290800243616104
1757088122650248700,2.439248779296875,-0.010971000418066978,-0.22947600483894348,-0.11134999990463257
1757088122659801900,2.4488017578125,-0.02214200049638748,-0.24007999897003174,-0.11970800161361694
1757088122669355000,2.45835498046875,-0.030084999278187752,-0.2173279970884323,-0.11787199974060059
1757088122678908700,2.46790869140625,-0.04412199929356575,-0.18950499594211578,-0.09061700105667114
1757088122688461800,2.4774619140625,-0.0570250004529953,-0.16397500038146973,-0.073232002556324
1757088122698015000,2.487014892578125,-0.07135199755430222,-0.16218699514865875,-0.05649099871516228
1757088122707568400,2.496568359375,-0.06904800236225128,-0.18589000403881073,-0.01396000012755394
1757088122717121500,2.50612158203125,-0.06025899946689606,-0.20883700251579285,0.025916000828146935
1757088122726675000,2.515675048828125,-0.05381299927830696,-0.21677200496196747,0.06113100051879883
1757088122736228400,2.525228271484375,-0.07415299862623215,-0.19786499440670013,0.09470099955797195
1757088122745781500,2.534781494140625,-0.07451000064611435,-0.19300499558448792,0.11039000004529953
1757088122755335000,2.5443349609375,-0.06767100095748901,-0.20770800113677979,0.07719200104475021
1757088122764888000,2.55388818359375,-0.036632999777793884,-0.21822699904441833,0.0339989997446537
1757088122774441200,2.563441162109375,-0.010223000310361385,-0.2128790020942688,-0.01573600061237812
1757088122783994600,2.57299462890625,-0.012544999830424786,-0.20978200435638428,-0.006113999988883734
1757088122793548000,2.582548095703125,-0.014378000050783157,-0.2116059958934784,-0.015185000374913216
1757088122803101200,2.59210107421875,0.000012999999853491317,-0.19427500665187836,-0.012300999835133553
1757088122812654600,2.601654541015625,0.03599800169467926,-0.1914130002260208,-0.01872600056231022
1757088122822208000,2.6112080078125,0.0556580014526844,-0.20305700600147247,-0.029541000723838806
1757088122831761200,2.62076123046875,0.03313999995589256,-0.19326700270175934,-0.03511599823832512
1757088122841314300,2.630314208984375,0.009724999777972698,-0.1932229995727539,-0.04482699930667877
1757088122850867700,2.63986767578125,0.001276999944821,-0.18634000420570374,-0.06527899950742722
1757088122860420900,2.6494208984375,-0.017873000353574753,-0.1768220067024231,-0.048215001821517944
1757088122869974300,2.658974365234375,0.000371000001905486,-0.16300199925899506,-0.07256899774074554
1757088122879527700,2.668527587890625,0.026433000341057777,-0.1498270034790039,-0.10430900007486343
1757088122889080800,2.678080810546875,0.03510500118136406,-0.14828500151634216,-0.07741700112819672
1757088122898634200,2.68763427734375,0.0228279996663332,-0.15135599672794342,-0.06547699868679047
1757088122908187400,2.6971875,0.015692999586462975,-0.16860200464725494,-0.05419899895787239
1757088122917740800,2.70674072265625,0.024846000596880913,-0.18992500007152557,-0.01909000054001808
1757088122927294000,2.7162939453125,0.033952001482248306,-0.21086600422859192,-0.00686699990183115
1757088122936847400,2.725847412109375,0.027240000665187836,-0.2200150042772293,-0.027504999190568924
1757088122946400500,2.735400390625,0.034341000020504,-0.22213999927043915,-0.038026999682188034
1757088122955954200,2.7449541015625,0.045207999646663666,-0.1887740045785904,-0.059085000306367874
1757088122965507300,2.75450732421875,0.05068400129675865,-0.17251700162887573,-0.07654000073671341
1757088122975060500,2.764060546875,0.05126500129699707,-0.14025400578975677,-0.11291199922561646
1757088122984614000,2.77361376953125,0.056223999708890915,-0.1296290010213852,-0.11069899797439575
1757088122994167000,2.7831669921875,0.07187700271606445,-0.13826699554920197,-0.1129549965262413
1757088123003720400,2.792720458984375,0.04775699973106384,-0.17583699524402618,-0.13124200701713562
1757088123013273900,2.80227392578125,0.026801999658346176,-0.17955900728702545,-0.10996100306510925
1757088123022827000,2.811826904296875,0.007058999966830015,-0.1920730024576187,-0.06739799678325653
1757088123032380400,2.82138037109375,-0.01969200000166893,-0.1897049993276596,-0.036086998879909515
1757088123041933600,2.83093359375,-0.014898999594151974,-0.19233199954032898,-0.051938001066446304
1757088123051486700,2.84048681640625,0.014512999914586544,-0.17805999517440796,-0.04200499877333641
1757088123061040000,2.8500400390625,0.014701000414788723,-0.16146700084209442,-0.041418999433517456
1757088123070593500,2.859593505859375,0.01436999998986721,-0.17351999878883362,-0.04115400090813637
1757088123080146700,2.869146728515625,-0.013283000327646732,-0.18091200292110443,-0.052352000027894974
1757088123089700000,2.8787001953125,-0.048211999237537384,-0.1860630065202713,-0.06292200088500977
1757088123099253200,2.888253173828125,-0.06272199749946594,-0.18187400698661804,-0.07502999901771545
1757088123108806700,2.897806640625,-0.05094299837946892,-0.1968120038509369,-0.07526600360870361
1757088123118360000,2.907360107421875,-0.039608001708984375,-0.1901320070028305,-0.06619500368833542
1757088123127913200,2.916913330078125,-0.00394799979403615,-0.18322600424289703,-0.05079299956560135
1757088123137466600,2.926466552734375,0.0227230004966259,-0.19475099444389343,-0.011618999764323235
1757088123147019800,2.936019775390625,0.03666500002145767,-0.20328299701213837,0.01587899960577488
1757088123156573200,2.9455732421875,0.04547100141644478,-0.20726199448108673,-0.0037090000696480274
1757088123166126600,2.955126708984375,0.04466399922966957,-0.20220699906349182,-0.04057599976658821
1757088123175679700,2.9646796875,0.03714900091290474,-0.1903200000524521,-0.061841998249292374
1757088123185233000,2.97423291015625,0.025544000789523125,-0.17672599852085114,-0.0974700003862381
1757088123194786600,2.98378662109375,0.017069000750780106,-0.14456099271774292,-0.11907699704170227
1757088123204339700,2.993339599609375,0.02704799920320511,-0.14843900501728058,-0.12352599948644638
1757088123213893000,3.00289306640625,0.06314799934625626,-0.15216299891471863,-0.10944200307130814
1757088123223446300,3.0124462890625,0.07840900123119354,-0.1648779958486557,-0.07111900299787521
1757088123232999400,3.02199951171875,0.06728699803352356,-0.15828600525856018,-0.05966699868440628
1757088123242553000,3.031552978515625,0.04290200024843216,-0.1800989955663681,-0.04449699819087982
1757088123252106200,3.041106201171875,0.006521000061184168,-0.1851229965686798,-0.04131799936294556
1757088123261659400,3.050659423828125,-0.03182300180196762,-0.19224800169467926,-0.027055999264121056
1757088123271212800,3.060212890625,-0.04061400145292282,-0.19890600442886353,-0.0023990001063793898
1757088123280766000,3.069765869140625,-0.04222099855542183,-0.21943399310112,0.02055400051176548
1757088123290319000,3.079319091796875,-0.03080900013446808,-0.23247799277305603,0.030431000515818596
1757088123299872500,3.08887255859375,-0.04078400135040283,-0.2309180051088333,0.03948799893260002
1757088123309426000,3.098426025390625,-0.06337399780750275,-0.21984200179576874,0.029656000435352325
1757088123318979000,3.10797900390625,-0.09275399893522263,-0.2020460069179535,0.004736000206321478
1757088123328532500,3.117532470703125,-0.07902199774980545,-0.19488200545310974,-0.05485599860548973
1757088123338085600,3.127085693359375,-0.04554999992251396,-0.20960299670696259,-0.07503700256347656
1757088123347639000,3.13663916015625,-0.032010000199079514,-0.19076499342918396,-0.06664899736642838
1757088123357192200,3.146192138671875,-0.02805499918758869,-0.18590199947357178,-0.040467001497745514
1757088123366745600,3.15574560546875,0.0029869999270886183,-0.1662130057811737,-0.013528999872505665
1757088123376298800,3.165298828125,0.0414079986512661,-0.1586879938840866,-0.026677999645471573
1757088123385852200,3.17485205078125,0.0484980009496212,-0.18260900676250458,-0.05548999831080437
1757088123395405300,3.1844052734375,0.04601199924945831,-0.18294599652290344,-0.07826600223779678
1757088123404958700,3.193958740234375,0.05689400061964989,-0.20756900310516357,-0.10467000305652618
1757088123414512000,3.20351220703125,0.05319000035524368,-0.21051999926567078,-0.09559900313615799
1757088123424065300,3.213065185546875,0.051851000636816025,-0.2083590030670166,-0.06848499923944473
1757088123433618400,3.222618408203125,0.06405699998140335,-0.17755399644374847,-0.060256000608205795
1757088123443172000,3.232172119140625,0.07335299998521805,-0.15358899533748627,-0.03167299926280975
1757088123452725200,3.241725341796875,0.09558200091123581,-0.15116100013256073,-0.029506999999284744
1757088123462278400,3.2512783203125,0.10278400033712387,-0.1368730068206787,-0.03177399933338165
1757088123471831800,3.260831787109375,0.10242199897766113,-0.15137100219726562,-0.041060999035835266
1757088123481385000,3.270385009765625,0.0815109983086586,-0.14463099837303162,-0.061216000467538834
1757088123490938400,3.2799384765625,0.06838999688625336,-0.16902300715446472,-0.06696899980306625
1757088123500491500,3.289491455078125,0.05794199928641319,-0.15556900203227997,-0.08789200335741043
1757088123510045000,3.299044921875,0.04537099972367287,-0.16819000244140625,-0.07139699906110764
1757088123519598000,3.30859814453125,0.03565099835395813,-0.17551100254058838,-0.03988699987530708
1757088123529151700,3.31815185546875,0.001981999957934022,-0.19440199434757233,-0.02164199948310852
1757088123538705000,3.327704833984375,-0.010897999629378319,-0.1915069967508316,-0.008949000388383865
1757088123548258000,3.337258056640625,-0.002633000025525689,-0.20787499845027924,-0.022237999364733696
1757088123557811200,3.346811279296875,-0.001766999950632453,-0.18352100253105164,-0.014046999625861645
1757088123567364600,3.356364501953125,-0.0009689999860711396,-0.17595399916172028,-0.017735999077558517
1757088123576917800,3.365917724609375,-0.027141999453306198,-0.19231000542640686,-0.026220999658107758
1757088123586471200,3.37547119140625,-0.03579699993133545,-0.20914000272750854,-0.05698100104928017
1757088123596024600,3.385024658203125,-0.05501199886202812,-0.2143850028514862,-0.0791890025138855
1757088123605577700,3.39457763671875,-0.05914200097322464,-0.17932499945163727,-0.08564600348472595
1757088123615131100,3.404131103515625,-0.04645099863409996,-0.1659960001707077,-0.08668900281190872
1757088123624684300,3.413684326171875,-0.02078999951481819,-0.14758500456809998,-0.05768100172281265
1757088123634237400,3.423237548828125,0.0055740000680089,-0.12857599556446075,-0.014023000374436378
1757088123643790800,3.432790771484375,0.023594999685883522,-0.14229899644851685,0.029296999797225
1757088123653344300,3.44234423828125,0.051500000059604645,-0.17003700137138367,0.04022099822759628
1757088123662897400,3.4518974609375,0.05696700140833855,-0.20481200516223907,0.03384700044989586
1757088123672450600,3.461450439453125,0.04122700169682503,-0.2064169943332672,0.0071379998698830605
1757088123682004000,3.47100390625,0.016721000894904137,-0.21086600422859192,-0.02517399936914444
1757088123691557000,3.48055712890625,-0.011489000171422958,-0.18957799673080444,-0.05538799986243248
1757088123701110800,3.49011083984375,-0.0495619997382164,-0.1922149956226349,-0.0544699989259243
1757088123710664000,3.499663818359375,-0.07398200035095215,-0.20445799827575684,-0.06060099974274635
1757088123720217000,3.509217041015625,-0.06522499769926071,-0.22277900576591492,0.006043999921530485
1757088123729770500,3.5187705078125,-0.03898800164461136,-0.24069400131702423,0.020961999893188477
1757088123739323600,3.52832373046875,-0.03027700074017048,-0.2272620052099228,0.03269900009036064
1757088123748877000,3.537876953125,-0.022397000342607498,-0.22607900202274323,0.011851999908685684
1757088123758430200,3.54743017578125,-0.04899900034070015,-0.19166399538516998,-0.0031870000530034304
1757088123767983600,3.556983642578125,-0.07830599695444107,-0.20597200095653534,-0.060759998857975006
1757088123777536800,3.566536865234375,-0.10080400109291077,-0.19679999351501465,-0.08557300269603729
1757088123787090200,3.576090087890625,-0.11641299724578857,-0.18525099754333496,-0.07918599992990494
1757088123796643300,3.585643310546875,-0.09636499732732773,-0.18323099613189697,-0.07298900187015533
1757088123806196700,3.59519677734375,-0.054110001772642136,-0.178289994597435,-0.03754099830985069
1757088123815750100,3.604750244140625,0.0015330000314861536,-0.17584599554538727,-0.04486599937081337
1757088123825303300,3.61430322265625,0.0605349987745285,-0.1757729947566986,-0.04273099824786186
1757088123834856700,3.623856689453125,0.0863490030169487,-0.17354799807071686,-0.05894000083208084
1757088123844409900,3.633409912109375,0.07008399814367294,-0.1835480034351349,-0.0718500018119812
1757088123853963000,3.642962890625,0.061583999544382095,-0.18116800487041473,-0.04547100141644478
1757088123863516700,3.6525166015625,0.0743120014667511,-0.17630399763584137,-0.036173999309539795
1757088123873069800,3.66206982421875,0.09275899827480316,-0.1949480026960373,-0.011649999767541885
1757088123882623000,3.671623046875,0.11628899723291397,-0.1559000015258789,0.012047999538481236
1757088123892176400,3.68117626953125,0.13549399375915527,-0.17447499930858612,-0.006837999913841486
1757088123901729500,3.6907294921875,0.1079690009355545,-0.19054600596427917,-0.004561999812722206
1757088123911283000,3.700282958984375,0.08861599862575531,-0.19442200660705566,0.0017350000562146306
1757088123920836400,3.70983642578125,0.07501199841499329,-0.26337501406669617,-0.04313100129365921
1757088123930389500,3.719389404296875,0.06183899939060211,-0.2607460021972656,-0.058400001376867294
1757088123939942700,3.728942626953125,0.055730000138282776,-0.24130100011825562,-0.045141998678445816
1757088123949496000,3.73849609375,0.03174100071191788,-0.18824100494384766,-0.02260899916291237
1757088123959049500,3.748049560546875,-0.021849000826478004,-0.20408299565315247,0.002947000088170171
1757088123968602600,3.7576025390625,-0.033031001687049866,-0.2174530029296875,-0.00046499999007210135
1757088123978155800,3.76715576171875,-0.006858999840915203,-0.22837600111961365,-0.0016919999616220593
1757088123987709200,3.776709228515625,0.008988999761641026,-0.21787400543689728,-0.014480000361800194
1757088123997262300,3.786262451171875,0.013007000088691711,-0.24629299342632294,-0.06343299895524979
1757088124006815700,3.795815673828125,0.008166000247001648,-0.16710999608039856,-0.054402001202106476
1757088124016369000,3.805368896484375,0.017721999436616898,-0.09617900103330612,-0.10147500038146973
1757088124025922000,3.814922119140625,0.02548299916088581,-0.07327199727296829,-0.10736300051212311
1757088124035475500,3.824475341796875,0.045389000326395035,-0.15134599804878235,-0.15487000346183777
1757088124045028900,3.83402880859375,0.08271999657154083,-0.12924300134181976,-0.16755999624729156
1757088124054582000,3.84358203125,0.11181599646806717,-0.1813659965991974,-0.18267300724983215
1757088124064135400,3.853135498046875,0.1201459988951683,-0.27428901195526123,-0.21661700308322906
1757088124073688600,3.8626884765625,0.15764300525188446,-0.24493500590324402,-0.198511004447937
1757088124083241700,3.87224169921875,0.21755799651145935,-0.20923399925231934,-0.23506900668144226
1757088124092795100,3.881795166015625,0.22365400195121765,-0.18061700463294983,-0.21457000076770782
1757088124102348500,3.8913486328125,0.2224009931087494,-0.12522999942302704,-0.17165899276733398
1757088124111901700,3.900901611328125,0.19889500737190247,-0.09194999933242798,-0.196259006857872
1757088124121454800,3.910454833984375,0.18640099465847015,-0.10176700353622437,-0.19692100584506989
1757088124131008300,3.92000830078125,0.17779900133609772,-0.1257379949092865,-0.19112199544906616
1757088124140561400,3.9295615234375,0.16366200149059296,-0.16173799335956573,-0.20425699651241302
1757088124150114800,3.93911474609375,0.17997799813747406,-0.178630992770195,-0.2076980024576187
1757088124159668200,3.948668212890625,0.1841530054807663,-0.2022850066423416,-0.18864600360393524
1757088124169221400,3.958221435546875,0.18782299757003784,-0.17570699751377106,-0.1766519993543625
1757088124178774500,3.9677744140625,0.16428500413894653,-0.18233999609947205,-0.15609200298786163
1757088124188328000,3.977327880859375,0.1539890021085739,-0.21227000653743744,-0.12809999287128448
1757088124197881000,3.986881103515625,0.13179700076580048,-0.22977399826049805,-0.10874699801206589
1757088124207434500,3.9964345703125,0.10295599699020386,-0.2642250061035156,-0.12942999601364136
1757088124216988000,4.00598779296875,0.08608599752187729,-0.29111799597740173,-0.11540299654006958
1757088124226541000,4.015541015625,0.04895099997520447,-0.33417901396751404,-0.0985490009188652
1757088124236094500,4.025094482421875,0.03833400085568428,-0.37204399704933167,-0.09028399735689163
1757088124245647600,4.034647705078125,-0.016687000170350075,-0.38801899552345276,-0.08800599724054337
1757088124255201000,4.044200927734375,-0.032239001244306564,-0.37796398997306824,-0.113646000623703
1757088124264754200,4.053754150390625,-0.017078999429941177,-0.3606570065021515,-0.11342199891805649
1757088124274307300,4.063307373046875,0.0021100000012665987,-0.31040701270103455,-0.13793599605560303
1757088124283860500,4.072860595703125,0.01603199914097786,-0.23914100229740143,-0.1562349945306778
1757088124293414000,4.082413818359375,0.03897099941968918,-0.161421000957489,-0.1629520058631897
1757088124302967300,4.09196728515625,0.07506900280714035,-0.12005399912595749,-0.1543010026216507
1757088124312520700,4.101520751953125,0.1284089982509613,-0.08008799701929092,-0.07517199963331223
1757088124322073900,4.111073974609375,0.1984259933233261,-0.03943999856710434,-0.02506200037896633
1757088124331627000,4.120626953125,0.34721100330352783,-0.04513699933886528,-0.08455300331115723
1757088124341180700,4.1301806640625,0.49752599000930786,-0.05645100027322769,-0.15057900547981262
1757088124350733600,4.139733642578125,0.6240339875221252,-0.12541399896144867,-0.20367400348186493
1757088124360287000,4.149286865234375,0.7210429906845093,-0.1701660007238388,-0.22390900552272797
1757088124369840400,4.15884033203125,0.7849389910697937,-0.10311300307512283,-0.2607400119304657
1757088124379393500,4.1683935546875,0.81495201587677,0.017607999965548515,-0.30496299266815186
1757088124388947200,4.177947265625,0.8333230018615723,0.13110600411891937,-0.39401599764823914
1757088124398500000,4.1875,0.7733650207519531,0.15875999629497528,-0.3438960015773773
1757088124408053200,4.19705322265625,0.7119439840316772,0.2407590001821518,-0.33318400382995605
1757088124417606700,4.206606689453125,0.5441529750823975,0.36691099405288696,-0.31576699018478394
1757088124427160000,4.21616015625,0.41382598876953125,0.4228309988975525,-0.27720698714256287
1757088124436713200,4.225713134765625,0.2901790142059326,0.5788339972496033,-0.286421000957489
1757088124446266400,4.235266357421875,0.10170300304889679,0.7325670123100281,-0.20694799721240997
1757088124455819800,4.24481982421875,-0.03811800107359886,0.8880079984664917,-0.3376219868659973
1757088124465373000,4.254373046875,-0.26663899421691895,0.8594949841499329,0.015675999224185944
1757088124474926300,4.26392626953125,-0.6593040227890015,0.8609099984169006,-0.01397399976849556
1757088124484479700,4.273479736328125,-1.0161139965057373,0.6990180015563965,0.08643999695777893
1757088124494033000,4.283032958984375,-1.1215020418167114,0.5371310114860535,0.05888700112700462
1757088124503586300,4.29258642578125,-0.9523159861564636,0.305851012468338,0.289095014333725
1757088124513139500,4.302139404296875,-0.5558810234069824,-0.16135700047016144,0.549422025680542
1757088124522692600,4.311692626953125,0.3797740042209625,-0.4588469862937927,0.8002520203590393
1757088124532246000,4.32124609375,0.6130409836769104,-0.5327939987182617,1.6904079914093018
1757088124541799200,4.330799072265625,-0.05540600046515465,-0.6287339925765991,2.26782488822937
1757088124551352600,4.3403525390625,-0.6775760054588318,-0.756667971611023,1.630627989768982
1757088124560906000,4.349906005859375,-0.09649600088596344,-0.6710109710693359,0.834758996963501
1757088124570459100,4.359459228515625,0.48432600498199463,-0.19557100534439087,0.03967500105500221
1757088124580012300,4.36901220703125,1.157623052597046,0.3280079960823059,-0.7799339890480042
1757088124589565700,4.378565673828125,0.7797409892082214,0.5411940217018127,-1.7095619440078735
1757088124599118800,4.388118896484375,0.3049499988555908,0.5809820294380188,-2.0844900608062744
1757088124608672000,4.397672119140625,-0.42575401067733765,0.4562700092792511,-2.050616979598999
1757088124618225700,4.4072255859375,-0.588703989982605,0.04019000008702278,-2.4950690269470215
1757088124627778800,4.41677880859375,-0.1350249946117401,-0.3844529986381531,-1.7340949773788452
1757088124637332000,4.42633203125,-0.19837899506092072,-0.3617610037326813,-0.6463239789009094
1757088124646885400,4.435885498046875,0.7331470251083374,-0.7346410155296326,0.9494659900665283
1757088124656438500,4.4454384765625,0.757752001285553,-1.503844976425171,1.9012030363082886
1757088124665991700,4.45499169921875,0.7664719820022583,-1.6584420204162598,2.152070999145508
1757088124675545000,4.464545166015625,0.6797590255737305,-1.7135319709777832,2.504455089569092
1757088124685098500,4.474098388671875,0.7726349830627441,-1.6561989784240723,2.737060070037842
1757088124694651600,4.483651611328125,0.2852550148963928,-1.3330949544906616,2.769305944442749
1757088124704204800,4.493204833984375,-0.12293600291013718,-0.8676530122756958,1.7878270149230957
1757088124713758200,4.50275830078125,-0.4565039873123169,-0.5625219941139221,1.511023998260498
1757088124723311400,4.512311279296875,-0.5009520053863525,-0.16510100662708282,1.5731240510940552
1757088124732864800,4.52186474609375,-0.3052560091018677,0.11414399743080139,1.0053479671478271
1757088124742418000,4.53141796875,0.2742129862308502,0.40384700894355774,0.5831599831581116
1757088124751971000,4.54097119140625,0.6371709704399109,0.8245030045509338,0.08934500068426132
1757088124761524500,4.5505244140625,0.759335994720459,1.2722519636154175,-0.6050459742546082
1757088124771078000,4.560077880859375,0.3000650107860565,1.6518189907073975,-1.1137609481811523
1757088124780631000,4.569631103515625,-0.23522600531578064,1.8478749990463257,-1.444012999534607
1757088124790184200,4.57918408203125,-0.20964199304580688,1.7925339937210083,-1.6801209449768066
1757088124799737600,4.588737548828125,-0.0864270031452179,1.3671870231628418,-1.6378840208053589
1757088124809290800,4.598290771484375,-0.21334600448608398,0.8703190088272095,-1.527938961982727
1757088124818844400,4.607844482421875,-0.05201999843120575,0.3453739881515503,-0.9511160254478455
1757088124828397300,4.617397216796875,-0.05383700132369995,-0.038724999874830246,-0.5267750024795532
1757088124837950700,4.62695068359375,0.04759500175714493,-0.17362500727176666,0.022741999477148056
1757088124847504000,4.63650390625,0.3993090093135834,-0.14837999641895294,0.3458310067653656
1757088124857057300,4.646057373046875,0.5362610220909119,0.03199300169944763,0.4948650002479553
1757088124866610400,4.6556103515625,0.1001729965209961,0.3418950140476227,0.7649369835853577
1757088124876163800,4.665163818359375,0.069752998650074,0.6295679807662964,0.9379130005836487
1757088124885717000,4.674717041015625,0.5013840198516846,0.4580810070037842,1.0909169912338257
1757088124895270100,4.684270263671875,0.66771399974823,0.16519300639629364,1.0533920526504517
1757088124904823600,4.693823486328125,0.726934015750885,0.18329399824142456,0.7159759998321533
1757088124914376700,4.703376708984375,0.7507500052452087,0.5476559996604919,0.17729899287223816
1757088124923930000,4.71293017578125,0.588886022567749,0.9279890060424805,-0.4791199862957001
1757088124933483300,4.722483154296875,0.2511259913444519,1.175495982170105,-1.2700899839401245
1757088124943036700,4.73203662109375,0.0743269994854927,1.279708981513977,-1.1430360078811646
1757088124952589800,4.74158984375,0.16362999379634857,1.449341058731079,-1.184736967086792
1757088124962143200,4.751143310546875,0.3285619914531708,1.2941720485687256,-1.0447319746017456
1757088124971696400,4.7606962890625,0.16892500221729279,1.1837329864501953,-0.5907419919967651
1757088124981249500,4.77024951171875,-0.029407000169157982,0.6374509930610657,-0.46772301197052
1757088124990803000,4.779802978515625,0.10337799787521362,0.19223999977111816,0.12858599424362183
1757088125000356400,4.7893564453125,0.2512440085411072,-0.451772004365921,0.7605760097503662
1757088125009909500,4.798909423828125,0.6903719902038574,-0.72502601146698,0.7390559911727905
1757088125019463000,4.808462890625,0.8240969777107239,-0.5628160238265991,0.6333810091018677
1757088125029016000,4.81801611328125,0.528901994228363,-0.7648919820785522,0.22982800006866455
1757088125038569200,4.8275693359375,0.3240160048007965,-0.6140140295028687,-0.1621900051832199
1757088125048122600,4.83712255859375,0.027489999309182167,-0.36294999718666077,-0.05069899931550026
1757088125057675800,4.84667578125,0.33243799209594727,0.3542569875717163,0.8581429719924927
1757088125067229000,4.85622900390625,0.4200429916381836,0.32382500171661377,0.3084630072116852
1757088125076782300,4.8657822265625,0.48630601167678833,-0.20999999344348907,-0.042298998683691025
1757088125086335700,4.875335693359375,-0.003845999948680401,-0.31355300545692444,-0.2807680070400238
1757088125095889000,4.884888916015625,-0.012679999694228172,-0.5165960192680359,0.0805329978466034
1757088125105442000,4.894442138671875,0.12329799681901932,-0.5999760031700134,0.09495700150728226
1757088125114995200,4.9039951171875,-0.05846500024199486,-0.431988000869751,-0.07536099851131439
1757088125124548600,4.913548583984375,-0.0563649982213974,-0.8046119809150696,-0.6335480213165283
1757088125134101800,4.923101806640625,-0.10239200294017792,-0.5410850048065186,-0.6089810132980347
1757088125143655200,4.9326552734375,0.07657799869775772,-0.4720200002193451,-0.39535000920295715
1757088125153208600,4.94220849609375,0.13057200610637665,-0.2850649952888489,-0.0770459994673729
1757088125162761500,4.951761474609375,-0.07428500056266785,-0.36878401041030884,-0.17281000316143036
1757088125172315100,4.961315185546875,-0.15756799280643463,-1.0167310237884521,-0.6684830188751221
1757088125181868300,4.970868408203125,-0.13968700170516968,-0.8341950178146362,-0.3266200125217438
1757088125191421400,4.98042138671875,-0.30496999621391296,-0.5540390014648438,-0.018655000254511833
1757088125200974800,4.989974853515625,-0.4531489908695221,-0.48846399784088135,-0.14194199442863464
1757088125210528000,4.999528076171875,-0.3958190083503723,-0.4035559892654419,-0.2210340052843094
1757088125220081200,5.0090810546875,-0.17566700279712677,-0.35217899084091187,-0.04275500029325485
1757088125229634600,5.018634521484375,-0.0353659987449646,-0.233814999461174,0.1654530018568039
1757088125239188000,5.02818798828125,-0.12763899564743042,0.7589799761772156,1.171368956565857
1757088125248740900,5.037740966796875,-0.11486499756574631,0.212801992893219,0.147024005651474
1757088125258294300,5.047294189453125,-0.06992100179195404,-0.5827670097351074,-0.43387800455093384
1757088125267847700,5.05684765625,-0.49037298560142517,0.2141759991645813,0.10433900356292725
1757088125277400800,5.06640087890625,-0.32892999053001404,0.5396919846534729,0.4277690052986145
1757088125286954000,5.0759541015625,-0.7029250264167786,0.48680800199508667,0.3431229889392853
1757088125296507400,5.08550732421875,-0.8864870071411133,0.1953440010547638,0.3044300079345703
1757088125306060500,5.095060546875,-0.7262470126152039,0.10552400350570679,0.3733470141887665
1757088125315614000,5.104614013671875,-0.3605549931526184,0.12404099851846695,0.3139989972114563
1757088125325167000,5.1141669921875,-0.15251600742340088,0.14379599690437317,0.25424501299858093
1757088125334720300,5.12372021484375,-0.9217259883880615,0.2379540055990219,0.7107610106468201
1757088125344273700,5.133273681640625,-0.7250699996948242,-0.019847000017762184,0.610526978969574
1757088125353826800,5.142826904296875,0.014909000135958195,-0.4012700021266937,0.5952020287513733
1757088125363380000,5.1523798828125,0.15707899630069733,-0.4367220103740692,0.7366899847984314
1757088125372933600,5.16193359375,0.1967020034790039,-0.016738999634981155,0.34131699800491333
1757088125382486800,5.17148681640625,-0.09381499886512756,0.4191119968891144,-0.4363040030002594
1757088125392040000,5.1810400390625,-0.3461959958076477,0.7023950219154358,-0.743520975112915
1757088125401593300,5.19059326171875,-0.9547119736671448,0.9384340047836304,-1.0622700452804565
1757088125411146500,5.200146484375,-1.1356960535049438,0.9717820286750793,-1.4670339822769165
1757088125420699600,5.20969970703125,-1.0831019878387451,0.7492939829826355,-1.0285630226135254
1757088125430253000,5.219253173828125,-1.0289069414138794,0.42540299892425537,-0.7489830255508423
1757088125439806500,5.228806396484375,-1.0231740474700928,0.08852100372314453,-0.31254199147224426
1757088125449359400,5.238359375,-1.0105600357055664,-0.20407900214195251,-0.16371700167655945
1757088125458913000,5.2479130859375,-0.974045991897583,-0.33469098806381226,0.0003589999978430569
1757088125468466200,5.257466064453125,-0.9202029705047607,-0.5108699798583984,0.09965500235557556
1757088125478019300,5.267019287109375,-0.8594650030136108,-0.5881100296974182,0.21204300224781036
1757088125487572500,5.276572509765625,-0.821744978427887,-0.37123098969459534,0.17698700726032257
1757088125497126000,5.2861259765625,-0.7586349844932556,-0.02155500091612339,0.02503499947488308
1757088125506679000,5.295678955078125,-0.6016370058059692,0.16133299469947815,0.010742000304162502
1757088125516232400,5.305232421875,-0.44244301319122314,0.19029399752616882,-0.035124000161886215
1757088125525785600,5.31478564453125,-0.30006200075149536,0.24380500614643097,-0.08470200002193451
1757088125535338800,5.3243388671875,-0.17706499993801117,0.25311100482940674,-0.27895501255989075
1757088125544892000,5.333891845703125,-0.13585099577903748,0.24313899874687195,-0.35367900133132935
1757088125554445600,5.343445556640625,-0.09270799905061722,0.18843600153923035,-0.4278259873390198
1757088125563998700,5.352998779296875,0.07662700116634369,0.039354000240564346,-0.4477730095386505
1757088125573551900,5.3625517578125,0.18051199615001678,-0.20073899626731873,-0.46540701389312744
1757088125583105000,5.37210498046875,0.3106510043144226,-0.3160420060157776,-0.38475701212882996
1757088125592658400,5.381658447265625,0.33807599544525146,-0.3678480088710785,-0.2847520112991333
1757088125602211600,5.391211669921875,0.17702600359916687,-0.3322249948978424,-0.25602900981903076
1757088125611765000,5.400764892578125,0.20329299569129944,-0.25953900814056396,-0.02536199986934662
1757088125621318100,5.410318115234375,0.32089000940322876,-0.1829719990491867,0.2522909939289093
1757088125630871300,5.419871337890625,0.43617600202560425,-0.08890900015830994,0.3388589918613434
1757088125640424700,5.4294248046875,0.4082300066947937,0.08523300290107727,0.32173898816108704
1757088125649978000,5.43897802734375,0.28547200560569763,0.35470399260520935,0.2113810032606125
1757088125659531300,5.44853125,0.1916539967060089,0.4718700051307678,0.14635899662971497
1757088125669084400,5.45808447265625,0.09103900194168091,0.5903800129890442,0.04002999886870384
1757088125678637800,5.467637939453125,-0.07139299809932709,0.6851339936256409,-0.013003000058233738
1757088125688191000,5.47719091796875,-0.29846400022506714,0.6389439702033997,-0.26133498549461365
1757088125697744100,5.486744140625,-0.36744600534439087,0.6800370216369629,-0.21571500599384308
1757088125707297500,5.496297607421875,-0.4150010049343109,0.719510018825531,-0.17502599954605103
1757088125716850700,5.5058505859375,-0.46327099204063416,0.5934100151062012,-0.20993199944496155
1757088125726404000,5.515404052734375,-0.3660539984703064,0.5111740231513977,-0.2078000009059906
1757088125735957200,5.524957275390625,-0.23109999299049377,0.40973100066185,-0.21971100568771362
1757088125745510400,5.534510498046875,-0.07994399964809418,0.28262999653816223,-0.19899000227451324
1757088125755063800,5.544063720703125,0.06600499898195267,0.19381499290466309,-0.12886099517345428
1757088125764617000,5.553616943359375,0.20925700664520264,0.1063779965043068,-0.157601997256279
1757088125774170400,5.56317041015625,0.2804189920425415,0.007918000221252441,-0.20208799839019775
1757088125783723800,5.572723876953125,0.30608201026916504,-0.025635000318288803,-0.19515299797058105
1757088125793277000,5.58227685546875,0.2623080015182495,-0.0965920016169548,-0.23059800267219543
1757088125802830000,5.591830078125,0.2686299979686737,-0.19940699636936188,-0.21887600421905518
1757088125812383500,5.601383544921875,0.21250399947166443,-0.27572301030158997,-0.151201993227005
1757088125821936600,5.6109365234375,0.0917460024356842,-0.256509006023407,-0.019974999129772186
1757088125831489800,5.62048974609375,-0.005131999962031841,-0.2592889964580536,0.020510999485850334
1757088125841043200,5.630043212890625,-0.013911999762058258,-0.38329800963401794,-0.0737299993634224
1757088125850596400,5.639596435546875,-0.030914999544620514,-0.6420320272445679,-0.18314699828624725
1757088125860149500,5.6491494140625,-0.116457998752594,-0.9955599904060364,-0.3621090054512024
1757088125869703000,5.658702880859375,-0.18692700564861298,-1.2763890027999878,-0.33073699474334717
1757088125879256000,5.668256103515625,-0.14405600726604462,-0.9032549858093262,0.24145600199699402
1757088125888809200,5.677809326171875,0.0988050028681755,-0.043772999197244644,0.7066400051116943
1757088125898363000,5.68736279296875,0.1884630024433136,0.33182498812675476,0.314985990524292
1757088125907916000,5.696916015625,0.26892200112342834,0.4146310091018677,0.2625730037689209
1757088125917469200,5.70646923828125,0.37855100631713867,0.41347000002861023,0.021824000403285027
1757088125927022300,5.716022216796875,0.4944069981575012,0.1689399927854538,-0.042399000376462936
1757088125936575700,5.72557568359375,0.3932960033416748,-0.13408499956130981,0.04056299850344658
1757088125946129000,5.73512890625,0.35670098662376404,-0.1480959951877594,0.057371001690626144
1757088125955682000,5.74468212890625,0.2078630030155182,-0.05665900185704231,0.14011099934577942
1757088125965235200,5.754235107421875,0.07826200127601624,0.0009159999899566174,0.20307399332523346
1757088125974788600,5.76378857421875,-0.04584699869155884,0.16679400205612183,0.17150500416755676
1757088125984341800,5.773341796875,-0.14122499525547028,0.1722639948129654,0.12557099759578705
1757088125993895200,5.782895263671875,-0.14056700468063354,0.18370600044727325,0.0001900000061141327
1757088126003448300,5.7924482421875,-0.09180399775505066,0.15406200289726257,-0.0938429981470108
1757088126013001500,5.80200146484375,-0.03253199905157089,0.2975020110607147,-0.09165000170469284
1757088126022555000,5.811554931640625,0.051732998341321945,0.5265089869499207,-0.05162699893116951
1757088126032108300,5.8211083984375,0.10172799974679947,0.3911980092525482,-0.09392499923706055
1757088126041661400,5.830661376953125,0.16920599341392517,0.052069999277591705,-0.1648769974708557
1757088126051214600,5.840214599609375,0.1513029932975769,-0.2424059957265854,-0.1364150047302246
1757088126060768000,5.84976806640625,0.04879700019955635,-0.3884449899196625,-0.14548100531101227
1757088126070321200,5.859321044921875,-0.02727299928665161,-0.35822001099586487,-0.11302900314331055
1757088126079874600,5.86887451171875,0.07848799973726273,-0.41935500502586365,-0.19180899858474731
1757088126089427700,5.878427734375,0.20184700191020966,-0.24708199501037598,-0.15130199491977692
1757088126098981000,5.887981201171875,0.17475299537181854,-0.17337000370025635,-0.10380300134420395
1757088126108534000,5.897533935546875,0.011556999757885933,-0.09047800302505493,-0.054297998547554016
1757088126118087400,5.90708740234375,-0.11782000213861465,-0.02593499980866909,-0.06264500319957733
1757088126127640600,5.916640625,-0.13250400125980377,-0.06678400188684464,-0.08648400008678436
1757088126137193700,5.92619384765625,0.04174099862575531,-0.09986799955368042,-0.15674500167369843
1757088126146747100,5.9357470703125,0.1250230073928833,-0.08827199786901474,-0.09664399921894073
1757088126156300300,5.94530029296875,0.14807599782943726,-0.18710100650787354,-0.17067299783229828
1757088126165853700,5.954853759765625,0.20475800335407257,-0.1484290063381195,-0.2335740029811859
1757088126175407000,5.964406982421875,0.20865200459957123,-0.13043299317359924,-0.25117799639701843
1757088126184960300,5.973960205078125,0.037657998502254486,-0.1402219980955124,-0.31289100646972656
1757088126194513400,5.983513427734375,0.0018909999635070562,0.06924200057983398,-0.23140400648117065
1757088126204066800,5.99306689453125,0.020306000486016273,-0.1286430060863495,0.008399000391364098
1757088126213620000,6.002619873046875,-0.015406999737024307,-0.4473159909248352,-0.2028529942035675
1757088126223173000,6.012173095703125,0.0055669997818768024,-0.598468005657196,-0.1623149961233139
1757088126232726300,6.021726318359375,-0.004162999801337719,-0.5345410108566284,-0.031177999451756477
1757088126242279700,6.03127978515625,-0.02011300064623356,-0.3848240077495575,-0.040702998638153076
1757088126251832800,6.040832763671875,0.032242998480796814,-0.17583900690078735,-0.055539000779390335
1757088126261386200,6.05038623046875,0.09357900172472,0.1135689988732338,-0.07155600190162659
1757088126270939400,6.059939453125,0.12410300225019455,0.1624860018491745,-0.11045800149440765
1757088126280492500,6.069492431640625,0.12163300067186356,0.2511720061302185,-0.04901299998164177
1757088126290046000,6.0790458984375,0.09739299863576889,0.23127500712871552,-0.1010809987783432
1757088126299599000,6.08859912109375,0.050436001271009445,0.0484439991414547,-0.15338799357414246
1757088126309152500,6.098152587890625,0.05102600157260895,0.0011350000277161598,-0.07063599675893784
1757088126318705700,6.10770556640625,0.08285199850797653,0.039097998291254044,-0.013794999569654465
1757088126328259000,6.117259033203125,0.13162000477313995,0.09441500157117844,0.060906000435352325
1757088126337812200,6.126812255859375,0.209088996052742,0.1285109966993332,0.0806879997253418
1757088126347365400,6.136365478515625,0.22430899739265442,0.15290600061416626,0.1006229966878891
1757088126356918500,6.14591845703125,0.17004400491714478,0.1536480039358139,0.0789719969034195
1757088126366472000,6.155471923828125,0.14921699464321136,0.1431950032711029,0.11337999999523163
1757088126376025000,6.165025146484375,0.12352100014686584,0.13582399487495422,0.13054999709129333
1757088126385578500,6.17457861328125,0.10955899953842163,0.10693400353193283,0.18934200704097748
1757088126395131600,6.184131591796875,-0.005189999938011169,0.05887399986386299,0.23702900111675262
1757088126404684800,6.193684814453125,-0.07229100167751312,0.010746000334620476,0.2628229856491089
1757088126414238200,6.20323828125,-0.08448600023984909,-0.01676199957728386,0.28524601459503174
1757088126423791400,6.212791259765625,-0.09431400150060654,-0.015653999522328377,0.2931860089302063
1757088126433344800,6.2223447265625,-0.08993099629878998,-0.041811998933553696,0.29669898748397827
1757088126442898000,6.23189794921875,-0.06880299746990204,-0.043907999992370605,0.2636820077896118
1757088126452451000,6.241451171875,-0.026220999658107758,-0.052212998270988464,0.21818700432777405
1757088126462004200,6.251004150390625,0.06419900059700012,-0.02954000048339367,0.2368829995393753
1757088126471557600,6.2605576171875,0.07615599781274796,0.05296099931001663,0.08819799870252609
1757088126481110800,6.27011083984375,0.06667900085449219,0.053606998175382614,0.037094999104738235
1757088126490664000,6.279663818359375,0.07378599792718887,0.015529000200331211,0.0410120002925396
1757088126500217600,6.289217529296875,0.07599399983882904,-0.009189000353217125,0.026373999193310738
1757088126509770500,6.2987705078125,0.0661109983921051,-0.039427999407052994,-0.0035699999425560236
1757088126519324000,6.308323974609375,0.048976998776197433,-0.049973998218774796,-0.0007929999846965075
1757088126528877000,6.317876953125,0.03911200165748596,-0.04191499948501587,-0.03669999912381172
1757088126538430500,6.327430419921875,0.03181000053882599,-0.016186999157071114,-0.06811100244522095
1757088126547983600,6.336983642578125,0.01724899932742119,-0.03466999903321266,-0.10710299760103226
1757088126557536800,6.346536865234375,0.00735899992287159,-0.0541829988360405,-0.11667100340127945
1757088126567090200,6.356090087890625,-0.002429000101983547,-0.03888599947094917,-0.11883799731731415
1757088126576643300,6.365643310546875,0.011775000020861626,-0.028898000717163086,-0.1299149990081787
1757088126586196500,6.375196533203125,0.030810000374913216,-0.02163100056350231,-0.13785499334335327
1757088126595750000,6.38475,0.037873998284339905,-0.01474200002849102,-0.10899899899959564
1757088126605303000,6.394302978515625,0.03781700134277344,-0.0038419999182224274,-0.0928419977426529
1757088126614856200,6.403856201171875,0.05449799820780754,-0.009387999773025513,-0.09991700202226639
1757088126624409300,6.413409423828125,0.06873200088739395,-0.014421000145375729,-0.09753499925136566
1757088126633962800,6.422962646484375,0.07817099988460541,-0.009968000464141369,-0.07709299772977829
1757088126643516000,6.432515869140625,0.0757180005311966,0.003134000115096569,-0.0735969990491867
1757088126653069300,6.4420693359375,0.07094399631023407,0.017722999677062035,-0.061117999255657196
1757088126662622500,6.45162255859375,0.05427499860525131,0.029138000681996346,-0.06262599676847458
1757088126672175600,6.461175537109375,0.05912400037050247,0.02164199948310852,-0.05272199958562851
1757088126681729000,6.47072900390625,0.05690599977970123,0.04153800010681152,-0.04323099926114082
1757088126691282200,6.4802822265625,0.047520000487565994,0.039707001298666,-0.03864699974656105
1757088126700835600,6.489835693359375,0.04771300032734871,0.03775399923324585,-0.022785000503063202
1757088126710388700,6.499388671875,0.04800499975681305,0.05159800127148628,-0.037053998559713364
1757088126719942000,6.50894189453125,0.04109099879860878,0.048698000609874725,-0.00749099999666214
1757088126729495300,6.518495361328125,0.0388839989900589,0.032290998846292496,0.002432999899610877
1757088126739048700,6.528048583984375,0.03670300170779228,0.03938300162553787,0.020812999457120895
1757088126748601900,6.537601806640625,0.03689999878406525,0.03940799832344055,0.029106000438332558
1757088126758155000,6.547155029296875,0.04663199931383133,0.034961000084877014,0.03892999887466431
1757088126767708400,6.55670849609375,0.05397700145840645,0.03994299843907356,0.052678998559713364
1757088126777261600,6.566261474609375,0.061285000294446945,0.03564000129699707,0.06322299689054489
1757088126786814700,6.575814697265625,0.07571999728679657,0.024880999699234962,0.0459429994225502
1757088126796368100,6.5853681640625,0.0733179971575737,0.012466000393033028,0.06122399866580963
1757088126805921300,6.59492138671875,0.06372600048780441,0.011997000314295292,0.07573200017213821
1757088126815474400,6.604474365234375,0.07077600061893463,-0.008723000064492226,0.06907500326633453
1757088126825027600,6.614027587890625,0.03708399832248688,-0.0241480004042387,0.07207199931144714
1757088126834581000,6.6235810546875,0.04403800144791603,-0.031883999705314636,0.07700499892234802
1757088126844134100,6.633134033203125,0.03424200043082237,-0.030086999759078026,0.06810300052165985
1757088126853687600,6.6426875,0.05555199831724167,-0.03279300034046173,0.057186998426914215
1757088126863240700,6.65224072265625,0.06972499936819077,-0.016982000321149826,0.06481300294399261
1757088126872793900,6.6617939453125,0.07670900225639343,-0.017727000638842583,0.0402659997344017
1757088126882347000,6.671346923828125,0.07658199965953827,-0.004770999774336815,0.033038001507520676
1757088126891900400,6.680900390625,0.07405900210142136,-0.006111000198870897,0.02848299965262413
1757088126901453600,6.69045361328125,0.07398699969053268,-0.0030869999900460243,0.013023000210523605
1757088126911006700,6.7000068359375,0.07153400033712387,-0.002503999974578619,-0.0016550000291317701
1757088126920560000,6.70956005859375,0.054836999624967575,0.016015000641345978,-0.01322800014168024
1757088126930113300,6.71911328125,0.05729199945926666,0.013175000436604023,-0.02638000063598156
1757088126939666400,6.72866650390625,0.0406159982085228,0.014926999807357788,-0.03199100121855736
1757088126949219800,6.7382197265625,0.04796599969267845,0.02790299989283085,-0.050818998366594315
1757088126958773000,6.74777294921875,0.03610699996352196,0.019990000873804092,-0.05511699989438057
1757088126968326100,6.757326171875,0.03625300154089928,0.023587999865412712,-0.05239500105381012
1757088126977879300,6.76687939453125,0.06036499887704849,0.031842999160289764,-0.0611100010573864
1757088126987432700,6.7764326171875,0.060552000999450684,0.03511200100183487,-0.06930699944496155
1757088126996985900,6.78598583984375,0.05831800028681755,0.03141000121831894,-0.05433899909257889
1757088127006539000,6.7955390625,0.07761500030755997,0.02552800066769123,-0.05591899901628494
1757088127016092400,6.805092529296875,0.07535099983215332,0.02674200013279915,-0.0346050001680851
1757088127025645600,6.8146455078125,0.06822200119495392,0.014194999821484089,-0.0009590000263415277
1757088127035198700,6.82419873046875,0.06593699753284454,0.022669000551104546,-0.012118999846279621
1757088127044752100,6.833752197265625,0.06845399737358093,0.026040000841021538,0.0044450000859797
1757088127054305500,6.843305419921875,0.05176300182938576,0.017962999641895294,0.01568000018596649
1757088127063858700,6.852858642578125,0.04938500002026558,0.01033599954098463,0.02842099964618683
1757088127073411800,6.862411865234375,0.0374470017850399,0.012230000458657742,0.013361000455915928
1757088127082965000,6.871965087890625,0.03739500045776367,0.0006990000256337225,0.01947600021958351
1757088127092518400,6.881518310546875,0.03962799906730652,-0.016819000244140625,0.02072400040924549
1757088127102071600,6.891071533203125,0.0562559999525547,-0.008419999852776527,0.026156000792980194
1757088127111625000,6.900625,0.07290499657392502,-0.005044000223278999,0.02211800031363964
1757088127121178000,6.91017822265625,0.07050800323486328,0.01143800001591444,0.027326000854372978
1757088127130731300,6.919731201171875,0.0872419998049736,0.004375999793410301,0.016641000285744667
1757088127140284700,6.92928466796875,0.0777060016989708,0.01561100035905838,0.024855999276041985
1757088127149837800,6.938837890625,0.05858299881219864,0.008050000295042992,0.008024999871850014
1757088127159391000,6.948390869140625,0.034658998250961304,0.0030580000020563602,0.012719999998807907
1757088127168944400,6.9579443359375,0.032239001244306564,-0.001547000021673739,0.021661000326275826
1757088127178497500,6.96749755859375,0.029680000618100166,-0.02147899940609932,0.02973799966275692
1757088127188050700,6.97705078125,0.027171000838279724,-0.008450999855995178,0.0212009996175766
1757088127197603800,6.986603759765625,0.04144800081849098,-0.0028669999446719885,0.015282999724149704
1757088127207157200,6.9961572265625,0.07252500206232071,0.011695999652147293,0.02759600058197975
1757088127226263800,7.015263916015625,0.0866440013051033,-0.01661599986255169,-0.010648000054061413
1757088127235817000,7.02481689453125,0.08908700197935104,0.009424000047147274,-0.023600000888109207
1757088127245370000,7.0343701171875,0.06772899627685547,0.03149300068616867,-0.02189899981021881
1757088127254923300,7.04392333984375,0.06061600148677826,0.009375999681651592,-0.011137999594211578
1757088127264476700,7.0534765625,0.0462380014359951,-0.00003099999958067201,0.0011660000309348106
1757088127274029800,7.06302978515625,0.036722999066114426,0.018364999443292618,0.012656000442802906
1757088127283583000,7.0725830078125,0.029551999643445015,0.01107299979776144,-0.001547000021673739
1757088127293136100,7.08213623046875,0.04140299931168556,-0.009286999702453613,0.014275999739766121
1757088127302689500,7.091689453125,0.058086998760700226,-0.00367900007404387,0.001981999957934022
1757088127312242700,7.10124267578125,0.07246000319719315,0.010594000108540058,-0.0028470000252127647
1757088127321796000,7.110796142578125,0.06293600052595139,0.01723100058734417,-0.007277000229805708
1757088127331349200,7.120349365234375,0.07251600176095963,0.00773700000718236,-0.011343000456690788
1757088127340902400,7.12990234375,0.060600001364946365,0.01215600036084652,-0.01955300010740757
1757088127350455800,7.139455810546875,0.06298799812793732,0.005162999965250492,-0.013752000406384468
1757088127360009000,7.149009033203125,0.051054999232292175,0.012051999568939209,-0.008160999976098537
1757088127369562000,7.15856201171875,0.05583300068974495,0.007397000212222338,0.0015010000206530094
1757088127379115300,7.168115234375,0.04382599890232086,0.0029460000805556774,0.008237999863922596
1757088127388668700,7.177668701171875,0.048569999635219574,0.0009169999975711107,0.014468000270426273
1757088127398221800,7.187221923828125,0.0557279996573925,0.0034409998916089535,0.008934999816119671
1757088127407775200,7.196775146484375,0.058118999004364014,0.005716999992728233,0.015103000216186047
1757088127417328600,7.20632861328125,0.05088600143790245,-0.0034600000362843275,0.016522999852895737
1757088127426881500,7.215881591796875,0.06521199643611908,-0.000750000006519258,0.013344000093638897
1757088127436435000,7.22543505859375,0.06281399726867676,0.008674999698996544,0.017107000574469566
1757088127445988000,7.234988037109375,0.05561399832367897,0.0016129999421536922,0.00950200017541647
1757088127455541200,7.244541259765625,0.060371000319719315,0.004236000124365091,0.013496999628841877
1757088127465094700,7.2540947265625,0.060378000140190125,0.008851000107824802,0.012861999683082104
1757088127474647800,7.263647705078125,0.06035900115966797,0.00417400011792779,0.00989300012588501
1757088127484201000,7.273200927734375,0.05080400034785271,0.00863100029528141,0.007331000175327063
1757088127493754000,7.282754150390625,0.05320199951529503,0.00381499994546175,0.004904000088572502
1757088127503307500,7.2923076171875,0.060440998524427414,0.012741000391542912,0.007246000226587057
1757088127512860700,7.301860595703125,0.055716998875141144,0.012105000205338001,0.0005559999844990671
1757088127522413800,7.311413818359375,0.0533050000667572,0.0003209999995306134,0.009934999980032444
1757088127531967200,7.32096728515625,0.058187998831272125,0.020834999158978462,0.0005929999751970172
1757088127541520400,7.330520263671875,0.06300099939107895,0.008713999763131142,-0.008317000232636929
1757088127551073500,7.340073486328125,0.07257299870252609,0.004106000065803528,-0.009961999952793121
1757088127560627000,7.349626953125,0.06071300059556961,0.024413999170064926,0.0021470000501722097
1757088127570180000,7.35918017578125,0.07757200300693512,0.021071000024676323,-0.013527999632060528
1757088127579733200,7.368733154296875,0.06089799851179123,0.02009199932217598,0.0078119998797774315
1757088127589286700,7.37828662109375,0.06337200105190277,0.016922999173402786,-0.008177000097930431
1757088127598840000,7.387840087890625,0.053839001804590225,0.014003000222146511,0.005989000201225281
1757088127608393000,7.39739306640625,0.04908600077033043,0.008967000059783459,-0.012253000400960445
1757088127617946400,7.4069462890625,0.05622300133109093,-0.00014600000577047467,0.006639999803155661
1757088127627499500,7.41649951171875,0.0609470009803772,-0.00431300001218915,0.010797999799251556
1757088127637052700,7.426052734375,0.06567300111055374,-0.003702000016346574,0.012683000415563583
1757088127646606000,7.435606201171875,0.06570900231599808,0.0126740001142025,-0.001563000027090311
1757088127656159200,7.4451591796875,0.058563001453876495,0.012276999652385712,-0.0014440000522881746
1757088127665712400,7.45471240234375,0.06817100197076797,0.014321999624371529,-0.0013409999664872885
1757088127675265500,7.464265625,0.07055799663066864,0.00723200011998415,0.0010100000072270632
1757088127684819000,7.47381884765625,0.06098499894142151,0.004902999848127365,-0.005665000062435865
1757088127694372000,7.4833720703125,0.05140399932861328,0.004912999924272299,0.003836000105366111
1757088127703925200,7.49292529296875,0.05621900036931038,0.00709300022572279,-0.005253999959677458
1757088127713478700,7.502478759765625,0.05619899928569794,-0.002136999974027276,-0.007050999905914068
1757088127723031800,7.51203173828125,0.06330700218677521,-0.008434999734163284,-0.004370000213384628
1757088127732585000,7.5215849609375,0.05377599969506264,0.01029600016772747,-0.006225999910384417
1757088127742138000,7.53113818359375,0.056244999170303345,0.016682999208569527,-0.0034539999905973673
1757088127751691800,7.54069189453125,0.0490569993853569,0.002463999902829528,-0.005357999820262194
1757088127761244700,7.55024462890625,0.05149500072002411,0.011642999947071075,-0.004792999941855669
1757088127770797800,7.5597978515625,0.0562870018184185,0.004406000021845102,0.0047690002247691154
1757088127780351000,7.56935107421875,0.03958800062537193,0.013300999999046326,0.004769999999552965
1757088127789904400,7.578904296875,0.0467820018529892,0.005919000133872032,0.013903999701142311
1757088127799457800,7.588457763671875,0.05629400163888931,-0.007876000367105007,0.022501999512314796
1757088127809011000,7.598010986328125,0.05630800127983093,0.0062049999833106995,0.01470400020480156
1757088127818564000,7.607564208984375,0.058722998946905136,0.008206999860703945,0.018634000793099403
1757088127828117200,7.6171171875,0.06353700160980225,0.012488000094890594,0.026840999722480774
1757088127837670400,7.62667041015625,0.06109200045466423,-0.003800000064074993,0.01652899943292141
1757088127847223800,7.636223876953125,0.0634939968585968,0.003312000073492527,0.0022849999368190765
1757088127856777000,7.64577685546875,0.05396899953484535,0.009971000254154205,0.0002749999985098839
1757088127866330000,7.655330078125,0.051614999771118164,0.004834999796003103,-0.003880999982357025
1757088127875883300,7.66488330078125,0.054026998579502106,0.0022619999945163727,0.005737000145018101
1757088127885436700,7.674436767578125,0.05647899955511093,0.011132000014185905,0.007903999648988247
1757088127894989800,7.68398974609375,0.04932500049471855,0.006029999814927578,0.0031850000377744436
1757088127904543000,7.69354296875,0.04939299821853638,0.014991999603807926,-0.010286999866366386
1757088127914096400,7.703096435546875,0.05659500136971474,0.007672999985516071,-0.009575000032782555
1757088127923649500,7.7126494140625,0.0495229996740818,0.02105499990284443,-0.024806000292301178
1757088127933203000,7.722202880859375,0.05210300162434578,0.0313120000064373,-0.034407999366521835
1757088127942756000,7.731756103515625,0.035537999123334885,0.02475699968636036,-0.03407600149512291
1757088127952309200,7.741309326171875,0.03568900004029274,0.009205999784171581,-0.04040500149130821
1757088127961862400,7.7508623046875,0.002426000079140067,0.021129999309778214,-0.03245599940419197
1757088127971415800,7.760415771484375,0.002650999929755926,0.007199999876320362,-0.04265400022268295
1757088127980969000,7.769968994140625,-0.018711000680923462,-0.011129000224173069,-0.02933100052177906
1757088127990522000,7.779522216796875,-0.02096099965274334,-0.021995000541210175,-0.0029849999118596315
1757088128000075500,7.789075439453125,0.02226400002837181,-0.01859300024807453,0.01931999996304512
1757088128009628700,7.798628662109375,0.07028800249099731,-0.010743999853730202,0.037810999900102615
1757088128019181800,7.808181884765625,0.09207700192928314,0.010298999957740307,0.041767001152038574
1757088128028735200,7.8177353515625,0.0851529985666275,0.00267699989490211,0.0095210000872612
1757088128038288400,7.827288330078125,0.0709960013628006,-0.0163199994713068,0.013435999862849712
1757088128047841500,7.836841552734375,0.030431000515818596,-0.04403600096702576,0.02224300056695938
1757088128057395000,7.84639501953125,0.028106000274419785,-0.0499889999628067,0.09163500368595123
1757088128066948000,7.855947998046875,0.12127699702978134,-0.051382001489400864,0.1687919944524765
1757088128076501200,7.865501220703125,0.08293499797582626,-0.018238000571727753,0.08970899879932404
1757088128086054400,7.875054443359375,0.10921800136566162,0.0006169999833218753,0.08890300244092941
1757088128095607600,7.884607666015625,0.11142200231552124,-0.017131999135017395,0.06049700081348419
1757088128105161000,7.894160888671875,0.08264700323343277,0.004124999977648258,0.06802699714899063
1757088128114714000,7.903714111328125,0.07769300043582916,-0.030136000365018845,0.021097000688314438
1757088128124267300,7.913267333984375,0.05620700120925903,0.011590000241994858,0.06316699832677841
1757088128133820400,7.9228203125,0.04449399933218956,0.03259199857711792,0.006161999888718128
1757088128143373800,7.932373779296875,0.044592998921871185,0.009150000289082527,0.08373700082302094
1757088128152927000,7.941927001953125,0.08071299642324448,0.023574000224471092,0.005200000014156103
1757088128162480400,7.95148046875,0.07373400032520294,0.03036300092935562,0.04401199892163277
1757088128172033500,7.961033447265625,0.07631999999284744,0.027744999155402184,0.04471899941563606
1757088128181586700,7.970586669921875,0.07638899981975555,-0.004282999783754349,0.02747100032866001
1757088128191139800,7.980139892578125,0.05494999885559082,0.0036730000283569098,0.04983200132846832
1757088128200693200,7.989693359375,0.06226599961519241,0.002182000083848834,0.01684900000691414
1757088128210246400,7.999246337890625,0.06488099694252014,0.021208999678492546,0.015293000265955925
1757088128219799600,8.008799560546874,0.07702100276947021,0.007718000095337629,-0.013264000415802002
1757088128229353000,8.01835302734375,0.06278599798679352,-0.0005540000274777412,-0.01332200039178133
1757088128238906000,8.027906005859375,0.05842699855566025,0.05933300033211708,-0.006378999911248684
1757088128248459500,8.03745947265625,0.06836599856615067,0.04360499978065491,-0.0316540002822876
1757088128258012700,8.0470126953125,0.06866999715566635,0.03340600058436394,-0.03754099830985069
1757088128267565800,8.05656591796875,0.052267998456954956,0.03522900119423866,-0.10197900235652924
1757088128277119000,8.066118896484374,0.03824299946427345,0.030223999172449112,-0.14287100732326508
1757088128286672100,8.075672119140625,0.045784998685121536,0.0370509997010231,-0.16370299458503723
1757088128296225300,8.085225341796875,0.06766799837350845,0.03681199997663498,-0.1631229966878891
1757088128305778700,8.09477880859375,0.07284100353717804,0.047777000814676285,-0.1556680053472519
1757088128315331800,8.104331787109375,0.080315001308918,0.03094800002872944,-0.14389799535274506
1757088128324885000,8.113885009765625,0.08041200041770935,-0.007362999953329563,-0.1759990006685257
1757088128334438100,8.123438232421876,0.0541750006377697,-0.005115000065416098,-0.1770319938659668
1757088128343991600,8.132991455078125,0.06142999976873398,0.001896000001579523,-0.12606999278068542
1757088128353544700,8.142544677734374,0.054242998361587524,-0.007209000177681446,-0.09888900071382523
1757088128363098000,8.15209814453125,0.05187699943780899,-0.002372999908402562,-0.09604000300168991
1757088128372651300,8.1616513671875,0.06394600123167038,0.015898000448942184,-0.09592500329017639
1757088128382204400,8.171204345703124,0.04469899833202362,-0.02339000068604946,-0.07988099753856659
1757088128391757600,8.180757568359375,0.05903799831867218,-0.008558000437915325,-0.05106600001454353
1757088128401310700,8.190310791015625,0.0829939991235733,0.0032770000398159027,-0.03279399871826172
1757088128410864000,8.199864013671874,0.07576899975538254,-0.008165000006556511,-0.006533999927341938
1757088128420417300,8.209417236328125,0.047008998692035675,-0.005427999887615442,0.0001849999971454963
1757088128429970400,8.218970458984375,0.0589199997484684,-0.004821000155061483,0.038127001374959946
1757088128439523800,8.22852392578125,0.05639699846506119,-0.020166000351309776,0.041822999715805054
1757088128449077000,8.238076904296875,0.05115899816155434,-0.07743000239133835,0.1176069974899292
1757088128458630100,8.247630126953124,0.053130000829696655,-0.06514400243759155,0.039021000266075134
1757088128468183600,8.25718359375,0.03628399968147278,0.005394999869167805,-0.02260899916291237
1757088128477736700,8.26673681640625,0.03664499893784523,0.09818699955940247,0.18859100341796875
1757088128487289900,8.276289794921874,0.09424600005149841,0.059282999485731125,0.22047600150108337
1757088128496843000,8.285843017578125,0.08008699864149094,0.07184799760580063,0.23952999711036682
1757088128506396400,8.295396484375,0.09480299800634384,0.08352500200271606,0.11670800298452377
1757088128515949600,8.304949462890624,0.08563800156116486,0.08522400259971619,0.0520160011947155
1757088128525502700,8.314502685546875,0.08312399685382843,-0.028046999126672745,0.01959799975156784
1757088128535056000,8.324055908203125,0.06881000101566315,0.030438000336289406,0.09590800106525421
1757088128544609300,8.333609375,0.049594998359680176,0.04385500028729439,0.20382900536060333
1757088128554162400,8.343162353515625,0.008485999889671803,-0.008108999580144882,0.2035370022058487
1757088128563715300,8.35271533203125,0.022355999797582626,-0.016169000416994095,0.20969800651073456
1757088128573269000,8.36226904296875,0.062484998255968094,-0.04196299985051155,0.15700200200080872
1757088128582822100,8.371822265625,0.06918899714946747,-0.03746100142598152,0.11873599886894226
1757088128592375300,8.381375244140624,0.08341799676418304,0.01863499917089939,0.05561299994587898
1757088128601928700,8.3909287109375,0.06680399924516678,0.03496899828314781,-0.1027820035815239
1757088128611481600,8.400481689453125,0.0623910017311573,0.02902200073003769,-0.2996020019054413
1757088128621035000,8.410034912109374,0.0984480008482933,0.022786999121308327,-0.008298000320792198
1757088128630588200,8.419588134765625,0.16488300263881683,-0.08892899751663208,0.2089349925518036
1757088128640141600,8.4291416015625,0.0977730005979538,-0.029812999069690704,-0.021501999348402023
1757088128649694500,8.438694580078124,0.038114000111818314,0.0008089999901130795,-0.15412800014019012
1757088128659247900,8.448247802734375,0.047752998769283295,-0.036309998482465744,-0.19214800000190735
1757088128668801000,8.457801025390625,0.08874700218439102,0.014655999839305878,-0.21258600056171417
1757088128678354200,8.467354248046876,0.05783800035715103,-0.0006370000191964209,-0.2061779946088791
1757088128687907300,8.4769072265625,0.048259999603033066,-0.04287699982523918,-0.09619899839162827
1757088128697460500,8.48646044921875,0.06018200144171715,-0.051267001777887344,-0.06654399633407593
1757088128707014000,8.496013916015626,0.03642899915575981,-0.009743000380694866,-0.10206499695777893
1757088128716567000,8.505567138671875,0.029583999887108803,0.02745700068771839,-0.12255000323057175
1757088128726120400,8.515120361328124,0.027728000655770302,0.06714499741792679,-0.17815299332141876
1757088128735673600,8.524673583984375,0.05909600108861923,0.01700199954211712,-0.19436299800872803
1757088128745226800,8.534226806640625,0.06143299862742424,-0.024948999285697937,-0.11022999882698059
1757088128754780000,8.54377978515625,0.058775000274181366,-0.04543299973011017,-0.09637600183486938
1757088128764333300,8.553333251953125,0.03240099921822548,0.01764100044965744,-0.14888599514961243
1757088128773886500,8.562886474609375,0.018278999254107475,0.08415400236845016,-0.12693899869918823
1757088128783439600,8.572439697265626,0.07356999814510345,0.08861900120973587,-0.063230000436306
1757088128792993000,8.581992919921875,0.07370000332593918,0.06777200102806091,0.10471300035715103
1757088128802546200,8.591546142578125,0.0831419974565506,0.01645899936556816,0.19070200622081757
1757088128812099300,8.601099365234376,0.06128299981355667,-0.02320300042629242,0.17239899933338165
1757088128821652500,8.610652587890625,0.07553599774837494,0.011477000080049038,0.07723599672317505
1757088128831206000,8.620205810546874,0.025105999782681465,-0.01080000028014183,0.08981800079345703
1757088128840759000,8.629759033203126,0.03445100039243698,-0.025100000202655792,0.1261260062456131
1757088128850312200,8.639312255859375,0.019850999116897583,-0.01573299989104271,0.15252099931240082
1757088128859865300,8.648865234375,0.06509499996900558,0.0007619999814778566,0.15385299921035767
1757088128869418800,8.658418701171875,0.06299900263547897,0.13265499472618103,0.12707099318504333
1757088128878972000,8.667971923828125,0.041478000581264496,0.0951870009303093,0.1355540007352829
1757088128888525000,8.677525146484374,0.05545099824666977,0.005413999781012535,0.14433600008487701
1757088128898078200,8.687078125,0.0477450005710125,-0.044613998383283615,0.14633400738239288
1757088128907631400,8.69663134765625,0.05452999845147133,-0.046163998544216156,0.1569949984550476
1757088128917184800,8.706184814453126,0.06639999896287918,-0.020155999809503555,0.14907799661159515
1757088128926738000,8.715738037109375,0.080656997859478,-0.03958500176668167,0.1354060024023056
1757088128936291000,8.725291015625,0.12120400369167328,-0.02317200042307377,0.1760610044002533
1757088128945844200,8.73484423828125,0.080315001308918,-0.0011109999613836408,0.13100700080394745
1757088128955397400,8.7443974609375,0.03210600093007088,-0.005129000172019005,0.04610700160264969
1757088128964950800,8.75395068359375,-0.025766000151634216,-0.005013999994844198,-0.004517999943345785
1757088128974504000,8.76350390625,-0.054721999913454056,0.0388839989900589,-0.047791000455617905
1757088128984057000,8.77305712890625,-0.035638000816106796,0.07144500315189362,-0.07363700121641159
1757088128993610500,8.782610595703124,0.02164199948310852,0.05677799880504608,-0.03339900076389313
1757088129003163600,8.79216357421875,0.06939300149679184,0.055904000997543335,-0.03873499855399132
1757088129012716800,8.801716796875,0.11228500306606293,0.04116300120949745,-0.02644200064241886
1757088129022270200,8.811270263671876,0.11657000333070755,-0.0012390000047162175,-0.005148999858647585
1757088129031823400,8.8208232421875,0.03891799971461296,-0.030381999909877777,0.2082269936800003
1757088129041376500,8.83037646484375,0.02602599933743477,0.03612999990582466,0.2550570070743561
1757088129050929700,8.8399296875,0.05391699820756912,0.012749000452458858,0.0791890025138855
1757088129060482800,8.84948291015625,0.043977998197078705,0.013460000045597553,-0.1476850062608719
1757088129070036000,8.859035888671874,0.06987400352954865,-0.0287650004029274,-0.08993399888277054
1757088129079589000,8.868589111328125,0.0955910012125969,-0.07421600073575974,-0.060437001287937164
1757088129089142500,8.878142578125,0.07354500144720078,-0.06550300121307373,-0.08567699790000916
1757088129098695700,8.88769580078125,0.06836000084877014,-0.032150998711586,-0.03219899907708168
1757088129108248800,8.897248779296875,0.05109500139951706,-0.024612000212073326,0.01592699997127056
1757088129117802200,8.90680224609375,0.038380999118089676,-0.057408999651670456,-0.004612999968230724
1757088129127355400,8.91635546875,0.035009998828172684,-0.08292900025844574,-0.00571900000795722
1757088129136908500,8.925908447265625,0.017167000100016594,-0.09309300035238266,-0.02607100084424019
1757088129146461700,8.935461669921875,0.030256999656558037,-0.11820799857378006,-0.07571899890899658
1757088129156015000,8.94501513671875,0.09654899686574936,-0.026802999898791313,-0.17973199486732483
1757088129165568300,8.954568359375,0.19214700162410736,0.018198000267148018,-0.4676699936389923
1757088129175121400,8.964121337890624,-0.10092300176620483,-0.13427899777889252,0.007247000001370907
1757088129184674800,8.9736748046875,0.3371250033378601,0.283050000667572,-0.5632839798927307
1757088129194228000,8.98322802734375,-0.19646599888801575,0.4330640137195587,0.09403099864721298
1757088129203781000,8.992781005859374,0.1738860011100769,0.031300999224185944,0.2899389863014221
1757088129213334300,9.002334228515625,0.00005199999941396527,-0.054283998906612396,0.21792800724506378
1757088129222887400,9.011887451171875,-0.03200399875640869,-0.02230300009250641,-0.0768280029296875
1757088129232440600,9.021440673828126,-0.03963899984955788,-0.03752899914979935,-0.19090299308300018
1757088129241994000,9.030993896484375,-0.025381000712513924,-0.07193899899721146,-0.2755739986896515
1757088129251547100,9.040547119140625,-0.007895000278949738,-0.007156999781727791,-0.11478699743747711
1757088129261100300,9.050100341796876,0.334852010011673,0.49255600571632385,0.388931006193161
1757088129270653400,9.0596533203125,0.3350830078125,0.23773899674415588,0.4672299921512604
1757088129280206800,9.069206787109374,-0.031171999871730804,-0.2174919992685318,0.22585000097751617
1757088129289760000,9.078760009765626,0.012636000290513039,-0.13397400081157684,0.0887880027294159
1757088129299313200,9.088313232421875,-0.012498999945819378,-0.13947099447250366,-0.023435000330209732
1757088129308866600,9.097866455078124,0.0037360000424087048,-0.1517930030822754,-0.15395499765872955
1757088129318419700,9.107419677734375,0.05422599986195564,-0.12791399657726288,-0.18796999752521515
1757088129327972900,9.116972900390625,0.15067699551582336,0.018451999872922897,-0.05777699872851372
1757088129337526000,9.126526123046874,0.09057299792766571,0.13626399636268616,-0.32662299275398254
1757088129347079400,9.136079345703125,0.030427999794483185,0.09041900187730789,-0.4167110025882721
1757088129356632600,9.145632568359375,0.08231399953365326,-0.057635001838207245,-0.39295700192451477
1757088129366185700,9.155185791015626,0.28660500049591064,-0.020907999947667122,-0.04852199926972389
1757088129375739100,9.1647392578125,0.03184400126338005,0.12345399707555771,-0.2537260055541992
1757088129385292300,9.174292236328125,-0.08260799944400787,0.06028199940919876,-0.12471099942922592
1757088129394845400,9.183845458984376,-0.004554999992251396,-0.06937699764966965,0.1166440024971962
1757088129404398600,9.193398681640625,0.004356000106781721,0.02077700011432171,0.06618800014257431
1757088129413951700,9.20295166015625,-0.07026399672031403,0.06792599707841873,0.2173829972743988
1757088129423505000,9.2125048828125,0.07775799930095673,0.1265600025653839,0.3670629858970642
1757088129433058300,9.222058349609375,0.019331999123096466,0.038082998245954514,0.3176240026950836
1757088129442611500,9.231611572265624,-0.03914799913764,-0.06615400314331055,0.001979999942705035
1757088129452164600,9.24116455078125,0.07195000350475311,-0.14658300578594208,-0.06622400134801865
1757088129461718000,9.250718017578125,0.1614599972963333,-0.19653399288654327,-0.2425680011510849
1757088129471271200,9.260271240234376,0.07095000147819519,-0.1747869998216629,-0.03743800148367882
1757088129480824300,9.26982421875,0.0864270031452179,0.045260000973939896,0.2694990038871765
1757088129490377500,9.27937744140625,0.08866900205612183,0.11607199907302856,0.21491999924182892
1757088129499930600,9.2889306640625,0.12894900143146515,0.3126409947872162,0.12978899478912354
1757088129509484000,9.298484130859375,0.15476299822330475,0.3620379865169525,0.30470800399780273
1757088129519037200,9.308037109375,0.07056000083684921,0.023781999945640564,0.25434499979019165
1757088129528590300,9.31759033203125,-0.10089299827814102,-0.2773819863796234,-0.08715199679136276
1757088129538143700,9.327143798828125,-0.022252000868320465,-0.11507699638605118,-0.40025898814201355
1757088129547696600,9.336696533203124,0.05597199872136116,-0.002715999959036708,-0.05449900031089783
1757088129557249800,9.346249755859375,-0.0034439999144524336,-0.2168319970369339,-0.03480499982833862
1757088129566803200,9.35580322265625,0.060506999492645264,0.010468999855220318,0.045145999640226364
1757088129576356400,9.3653564453125,0.09586399793624878,-0.020150000229477882,-0.023538000881671906
1757088129585909500,9.374909423828125,0.3342770040035248,-0.02422500029206276,0.021616000682115555
1757088129595462700,9.384462646484375,0.16606999933719635,0.11965399980545044,0.26131999492645264
1757088129605016000,9.39401611328125,0.030300000682473183,0.21599499881267548,-0.07803499698638916
1757088129614569200,9.4035693359375,0.04010999947786331,0.16905200481414795,-0.09004300087690353
1757088129624122400,9.413122314453124,0.0660019963979721,0.21644699573516846,0.1803400069475174
1757088129633675500,9.422675537109376,0.05539099872112274,-0.08715300261974335,-0.2732259929180145
1757088129643229000,9.43222900390625,0.23523899912834167,0.3475799858570099,0.4099690020084381
1757088129652782000,9.441781982421874,0.003169999923557043,0.4094710052013397,-0.06741999834775925
1757088129662335200,9.451335205078125,0.028456000611186028,0.006864999886602163,-0.7008669972419739
1757088129671888400,9.460888427734375,0.16766199469566345,0.14277300238609314,-0.7296040058135986
1757088129681441800,9.47044189453125,0.0316229984164238,0.20815999805927277,-0.5862619876861572
1757088129690994700,9.47999462890625,-0.15094000101089478,0.1267389953136444,-0.3658500015735626
1757088129700548000,9.489548095703125,0.14911599457263947,-0.8153629899024963,-0.23430199921131134
1757088129710101200,9.499101318359376,0.15356799960136414,-1.1580530405044556,0.4510729908943176
1757088129719654400,9.508654296875,-0.1812710016965866,-1.2082949876785278,0.011633999645709991
1757088129729207800,9.518207763671874,-0.26593101024627686,-1.0199270248413086,-0.24528999626636505
1757088129738761000,9.527760986328126,-0.5117509961128235,0.18023599684238434,0.02662999927997589
1757088129748314000,9.537314208984375,0.02915400080382824,0.9290210008621216,0.07361000031232834
1757088129757867300,9.5468671875,0.4619790017604828,0.44065698981285095,-0.7577340006828308
1757088129767420700,9.556420654296875,0.3093990087509155,0.7204689979553223,-0.16444100439548492
1757088129776973800,9.565973876953125,0.42630499601364136,0.5354049801826477,-0.09027600288391113
1757088129786527000,9.57552685546875,0.18751700222492218,0.41081899404525757,0.809840977191925
1757088129796080000,9.585080078125,0.06747899949550629,0.1014069989323616,-0.026312999427318573
1757088129805633500,9.594633544921875,-0.0636570006608963,-0.7985339760780334,-0.47739699482917786
1757088129815186400,9.6041865234375,-0.42383500933647156,-1.5281939506530762,0.5897719860076904
1757088129824739600,9.613739501953125,-0.363646000623703,-0.6347209811210632,1.4863309860229492
1757088129834293000,9.62329296875,-0.3436349928379059,0.6414219737052917,0.06122700124979019
1757088129843846100,9.63284619140625,-0.29851698875427246,1.0566730499267578,-1.1710489988327026
1757088129853399600,9.642399658203125,0.6943809986114502,1.3680700063705444,-1.0438090562820435
1757088129862952700,9.65195263671875,1.1966160535812378,1.4599419832229614,0.07036499679088593
1757088129872505900,9.661505859375,0.01906299963593483,1.776419997215271,-0.5045459866523743
1757088129882059000,9.67105908203125,0.6978039741516113,-0.8181189894676208,0.36873799562454224
1757088129891612200,9.680612060546874,0.41286900639533997,-3.827850103378296,2.0168700218200684
1757088129901165600,9.69016552734375,-0.4784870147705078,-1.5257049798965454,0.8778010010719299
1757088129910718700,9.69971875,-0.028922999277710915,0.9922969937324524,0.01706800051033497
1757088129920272000,9.70927197265625,0.27316901087760925,2.370452880859375,0.6603569984436035
1757088129929825300,9.7188251953125,0.5615000128746033,2.552931070327759,0.03459800034761429
1757088129939378400,9.72837841796875,0.20515500009059906,1.1509239673614502,-0.19288599491119385
1757088129948931600,9.737931640625,-0.05155700072646141,-0.7815039753913879,0.19088900089263916
1757088129958484700,9.747484619140625,-0.12046699970960617,-2.256514072418213,0.14135700464248657
1757088129968038000,9.757037841796874,-0.2865920066833496,-2.8545329570770264,0.05752300098538399
1757088129977591000,9.766591064453126,-0.34818199276924133,-2.223249912261963,-0.09784600138664246
1757088129987144400,9.77614453125,-0.1685509979724884,-1.2611329555511475,0.1673469990491867
1757088129996697600,9.785697509765624,-0.11283499747514725,-0.7288870215415955,0.5379989743232727
1757088130006250800,9.795250732421875,-0.16679799556732178,-0.27790701389312744,0.31689199805259705
1757088130015804000,9.804803955078125,-0.10563600063323975,0.39139899611473083,0.14958399534225464
1757088130025357000,9.814357177734376,-0.056442998349666595,0.18870499730110168,0.32545700669288635
1757088130034910500,9.823910400390625,-0.13458499312400818,-0.2785010039806366,-0.11953499913215637
1757088130044463400,9.83346337890625,-0.3539830148220062,-0.6749560236930847,-0.6524749994277954
1757088130054016800,9.843016845703126,-0.2874099910259247,-0.5910680294036865,-0.7165629863739014
1757088130063570200,9.852570068359375,-0.3279320001602173,-0.3941420018672943,-0.1680469959974289
1757088130073123000,9.862123046875,-0.7409759759902954,-1.3684370517730713,-0.15414300560951233
1757088130082676200,9.87167626953125,-0.6716639995574951,-2.3856749534606934,0.3806770145893097
1757088130092229600,9.881229736328125,-0.7530080080032349,-2.2383649349212646,0.5211219787597656
1757088130101782800,9.89078271484375,-0.5846779942512512,-1.9296259880065918,0.22756299376487732
1757088130111336000,9.9003359375,-0.3574349880218506,-1.5665210485458374,-0.16969700157642365
1757088130120889000,9.90988916015625,-0.09835600107908249,-1.5701559782028198,-0.5926200151443481
1757088130130442500,9.9194423828125,-0.07277499884366989,-1.850957989692688,-1.0749859809875488
1757088130139995600,9.92899560546875,0.21375200152397156,-1.4259370565414429,-0.7897949814796448
1757088130149548800,9.938548828125,0.21195200085639954,-0.10191600024700165,-0.8086090087890625
1757088130159102000,9.94810205078125,-0.2000119984149933,0.6171140074729919,-1.7008249759674072
1757088130168655400,9.9576552734375,-0.1122559979557991,0.12477800250053406,-2.9007580280303955
1757088130178208500,9.96720849609375,0.8529049754142761,-0.12367799878120422,-2.9484469890594482
1757088130187761400,9.976761474609376,0.7857279777526855,-0.5320799946784973,-0.9943810105323792
1757088130197314800,9.986314697265625,0.5224729776382446,-0.7321929931640625,1.4504590034484863
1757088130206868000,9.995867919921874,0.052974000573158264,-1.1483670473098755,2.2739310264587402
1757088130216421000,10.005421142578125,-0.5598369836807251,-2.601936101913452,2.3217129707336426
1757088130225974300,10.014974365234375,-1.411821961402893,-3.650114059448242,0.5029879808425903
1757088130235527700,10.024527587890624,-1.315858006477356,-3.833385944366455,0.17257000505924225
1757088130245080800,10.034080810546875,0.34727299213409424,-3.257775068283081,0.3193899989128113
1757088130254634000,10.043634033203125,2.5006659030914307,-1.0933459997177124,1.6337499618530273
1757088130264187400,10.0531875,2.3622379302978516,1.676772952079773,2.1202518939971924
1757088130273740500,10.062740478515625,2.3527610301971436,3.602195978164673,1.6340199708938599
1757088130283293400,10.07229345703125,1.4099370241165161,3.994563102722168,0.4920549988746643
1757088130292846800,10.081846923828126,-1.9344290494918823,2.8670809268951416,0.8713639974594116
1757088130302400000,10.09139990234375,-5.249867916107178,2.3295679092407227,0.415816992521286
1757088130311953200,10.100953125,-4.525407791137695,3.43264102935791,-1.1721830368041992
1757088130321506300,10.11050634765625,-2.819179058074951,2.982741117477417,-1.9262830018997192
1757088130331059500,10.1200595703125,-1.8152179718017578,0.6413130164146423,-1.7460670471191406
1757088130340612900,10.12961279296875,-0.6490039825439453,-2.8600709438323975,-0.9116349816322327
1757088130350166000,10.139166015625,0.028008000925183296,-4.122920036315918,-1.0505139827728271
1757088130359719200,10.14871923828125,1.7663400173187256,-3.2307510375976562,-0.9905509948730469
1757088130369272300,10.158272216796876,3.313584089279175,-1.2366629838943481,-0.871815025806427
1757088130378825700,10.16782568359375,-0.7784879803657532,2.760802984237671,2.8910489082336426
1757088130388379000,10.17737890625,-1.846642017364502,4.410706996917725,1.7135590314865112
1757088130397932000,10.18693212890625,-2.1926090717315674,5.191842079162598,-0.7514359951019287
1757088130407485200,10.196485107421875,-3.0108609199523926,3.5533900260925293,-2.050968885421753
1757088130417038600,10.20603857421875,-1.6062400341033936,1.0760719776153564,-3.1476430892944336
1757088130426591700,10.215591796875,1.6464929580688477,-4.627306938171387,-3.554548978805542
1757088130436145000,10.225144775390625,1.8760039806365967,-16.275218963623047,-0.2299319952726364
1757088130445698000,10.234697998046874,-0.21498000621795654,-9.560699462890625,0.2328290045261383
1757088130455251500,10.24425146484375,0.8233399987220764,2.5240321159362793,8.045113563537598
1757088130464804600,10.2538046875,4.2998528480529785,2.240386962890625,15.516555786132812
1757088130474357800,10.263357666015626,-0.5726339817047119,-0.35347500443458557,7.474850177764893
1757088130483911000,10.272910888671875,0.12025099992752075,-4.729272842407227,6.604895114898682
1757088130493464000,10.282464111328125,-0.3897770047187805,-7.159848213195801,-3.7905819416046143
1757088130503017200,10.292017333984376,-3.5157740116119385,-1.9530500173568726,-2.151884078979492
1757088130512570600,10.301570556640625,-5.778345108032227,4.202663898468018,0.6026719808578491
1757088130522123800,10.311123779296874,-7.114939212799072,0.40425699949264526,-3.7765491008758545
1757088130531677000,10.320677001953126,-10.902864456176758,1.91519296169281,-4.466156005859375
1757088130541230000,10.33022998046875,-11.122020721435547,2.0982511043548584,-1.2897340059280396
1757088130550783500,10.339783447265624,-8.271873474121094,1.9815789461135864,-0.015692999586462975
1757088130560336600,10.349336669921875,-5.284540176391602,1.3525569438934326,0.9050419926643372
1757088130569889800,10.358889892578125,-4.31087589263916,0.8050079941749573,0.35744398832321167
1757088130579443200,10.368443115234374,-4.333456039428711,0.9589110016822815,0.9553830027580261
1757088130588996400,10.377996337890625,-4.763877868652344,1.2466130256652832,1.8162920475006104
1757088130598549200,10.38754931640625,-5.154632091522217,1.4697799682617188,3.3371028900146484
1757088130608102400,10.397102294921876,-5.262598991394043,1.36154305934906,4.766837120056152
1757088130617655800,10.40665576171875,-4.924825191497803,1.0762219429016113,6.015439033508301
1757088130627209000,10.416208984375,-4.392317771911621,1.322679042816162,6.695051193237305
1757088130636762000,10.42576220703125,-3.9519550800323486,2.284782886505127,6.623861789703369
1757088130646315300,10.435315185546875,-3.819322109222412,3.6922450065612793,6.347860813140869
1757088130655868700,10.44486865234375,-4.18123722076416,4.789571762084961,6.407322883605957
1757088130665421800,10.454421875,-4.884321212768555,5.306640148162842,6.762608051300049
1757088130674975000,10.46397509765625,-5.451091766357422,5.436651229858398,7.481492042541504
1757088130684528000,10.473528076171876,-5.725259780883789,5.452974796295166,7.893899917602539
1757088130694081500,10.48308154296875,-5.370819091796875,5.4687981605529785,7.522253036499023
1757088130703634400,10.492634521484375,-4.519921779632568,5.288741111755371,6.653482913970947
1757088130713187800,10.502187744140626,-3.3407139778137207,4.802964210510254,5.682139873504639
1757088130722741000,10.511740966796875,-2.2382121086120605,4.199018955230713,4.735979080200195
1757088130732294100,10.521294189453124,-1.162405014038086,3.428591012954712,3.8856201171875
1757088130741847300,10.530847412109376,-0.1515599936246872,2.576766014099121,3.0863399505615234
1757088130751400400,10.540400390625,0.14083099365234375,1.7532169818878174,2.723768949508667
1757088130760953900,10.549953857421874,0.41144201159477234,0.3008610010147095,1.8502830266952515
1757088130770507000,10.559507080078125,0.5467060208320618,-1.4546170234680176,0.9388049840927124
1757088130780060200,10.56906005859375,1.2982209920883179,-3.3852200508117676,-0.4774940013885498
1757088130789613600,10.578613525390624,4.941662788391113,-4.164452075958252,-3.352078914642334
1757088130799166700,10.588166748046875,6.9505720138549805,-3.988389015197754,-5.65946102142334
1757088130808719600,10.5977197265625,7.616258144378662,-4.437838077545166,-7.2868571281433105
1757088130818273000,10.60727294921875,6.5198469161987305,-5.654117107391357,-6.920772075653076
1757088130827826200,10.616826171875,4.830496788024902,-6.25716495513916,-5.314480781555176
1757088130837379300,10.62637939453125,3.357235908508301,-6.303666114807129,-3.882735013961792
1757088130846932500,10.635932373046876,1.6626039743423462,-4.855037212371826,-2.9392309188842773
1757088130856486000,10.64548583984375,0.14149799942970276,-3.1745400428771973,-2.347296953201294
1757088130866039000,10.6550390625,-1.1453160047531128,-2.572273015975952,-2.1612539291381836
1757088130875592000,10.664592041015625,-1.9838789701461792,-2.7481539249420166,-2.226073980331421
1757088130885145300,10.674145263671875,-2.431425094604492,-2.6992440223693848,-2.1920459270477295
1757088130894698500,10.683698486328124,-2.6420540809631348,-2.1251211166381836,-1.9890090227127075
1757088130904251600,10.693251708984375,-2.992882013320923,-1.4635430574417114,-1.9274909496307373
1757088130913804800,10.7028046875,-3.353740930557251,-0.8704730272293091,-2.1384549140930176
1757088130923358200,10.712358154296876,-3.7567930221557617,-0.4235270023345947,-2.370026111602783
1757088130932911400,10.721911376953125,-4.050095081329346,-0.1693740040063858,-2.670527935028076
1757088130942464500,10.731464599609374,-4.430449962615967,1.0328129529953003,-2.4917590618133545
1757088130952018000,10.741017822265626,-4.217042922973633,0.11869099736213684,-2.994637966156006
1757088130961570800,10.75057080078125,-4.090114116668701,-0.34658199548721313,-3.779167890548706
1757088130971124200,10.760124267578124,-3.9901208877563477,-0.6700389981269836,-4.2156782150268555
1757088130980677400,10.769677490234375,-4.229259967803955,-0.5099850296974182,-4.1680989265441895
1757088130990230500,10.77923046875,-3.047593116760254,-0.31047600507736206,0.09870900213718414
1757088130999783700,10.78878369140625,-2.395395040512085,-0.37895500659942627,2.0956950187683105
1757088131009337000,10.798337158203125,-3.9017651081085205,-0.8949840068817139,1.5572140216827393
1757088131018890200,10.80789013671875,-4.003174781799316,-1.540861964225769,0.7008010149002075
1757088131028443400,10.817443359375,-4.794093132019043,-1.5324159860610962,-1.198752999305725
1757088131037996500,10.82699658203125,-4.59018611907959,-0.8071990013122559,-1.0955369472503662
1757088131047549700,10.8365498046875,-3.2376420497894287,0.0026569999754428864,-0.8022350072860718
1757088131057102800,10.846102783203126,-2.840172052383423,0.8098139762878418,-0.6174960136413574
1757088131066656000,10.855656005859375,-2.142659902572632,1.008241057395935,-0.6276869773864746
1757088131076209400,10.86520947265625,-0.05138999968767166,1.0954060554504395,-0.8411809802055359
1757088131085762600,10.874762451171875,-3.301892042160034,0.5326160192489624,-0.3036539852619171
1757088131095315700,10.884315673828125,-3.13037109375,-0.24431100487709045,-1.5586340427398682
1757088131104868900,10.893868896484374,-1.7101449966430664,-0.6262069940567017,-2.9792680740356445
1757088131114422300,10.90342236328125,-0.7878199815750122,-1.2852089405059814,-2.8317348957061768
1757088131123975400,10.912975341796875,0.06727900356054306,-1.6296470165252686,-2.5561270713806152
1757088131133528600,10.922528564453126,0.47554001212120056,-1.560278058052063,-1.6481529474258423
1757088131143081700,10.932081787109375,0.19548000395298004,-1.2546119689941406,-0.31080400943756104
1757088131152635000,10.941634765625,0.4204989969730377,-0.8419079780578613,0.635686993598938
1757088131162188000,10.95118798828125,0.23315399885177612,-0.4266340136528015,1.1954799890518188
1757088131171741200,10.9607412109375,-0.036348000168800354,-0.08853399753570557,1.2378560304641724
1757088131181294300,10.97029443359375,-0.09924300014972687,0.3155539929866791,1.1540000438690186
1757088131190847700,10.97984765625,-0.23038099706172943,0.6565510034561157,1.1013109683990479
1757088131200401000,10.98940087890625,-0.2920590043067932,0.8744620084762573,0.9862629771232605
1757088131209954000,10.9989541015625,-0.24779699742794037,1.0527540445327759,0.9497849941253662
1757088131219507500,11.008507568359375,-0.19154499471187592,1.2027230262756348,0.9855459928512573
1757088131229060600,11.018060546875,-0.12578099966049194,1.2071000337600708,0.9816259741783142
1757088131238613500,11.027613525390626,0.20240899920463562,1.1460410356521606,0.8559949994087219
1757088131248167000,11.0371669921875,0.40983301401138306,1.214040994644165,0.8581169843673706
1757088131257720000,11.046719970703125,0.1735610067844391,1.2854499816894531,0.9835169911384583
1757088131267273200,11.056273193359376,0.10135100036859512,1.1843140125274658,0.8992170095443726
1757088131276826400,11.065826416015625,0.006515999790281057,0.9366570115089417,0.426362007856369
1757088131295933000,11.084932861328125,0.1489270031452179,0.47286200523376465,-0.23347599804401398
1757088131305485800,11.09448583984375,0.04921099916100502,0.4047290086746216,-0.39352700114250183
1757088131315039200,11.104039306640624,0.008616999723017216,0.3634049892425537,-0.5089600086212158
1757088131324592400,11.11359228515625,-0.045857999473810196,0.34605100750923157,-0.37800100445747375
1757088131334145500,11.1231455078125,-0.13117800652980804,0.4060409963130951,0.04101800173521042
1757088131343698700,11.13269873046875,0.12122400104999542,0.0785679966211319,0.8469650149345398
1757088131353252000,11.142252197265625,-0.7332969903945923,0.12700800597667694,0.9278140068054199
1757088131362805200,11.15180517578125,-0.9720519781112671,0.3787670135498047,0.21339499950408936
1757088131372358400,11.1613583984375,-0.9530979990959167,0.9087709784507751,-1.074774980545044
1757088131381911300,11.170911376953125,-0.9228429794311523,0.8593040108680725,-1.5436880588531494
1757088131391464700,11.180464599609374,-0.9316229820251465,0.4496789872646332,-1.0352120399475098
1757088131401017900,11.190017822265625,-0.6059820055961609,-0.1676820069551468,-0.2926639914512634
