time,seconds_elapsed,gyro_x,gyro_y,gyro_z,acc_x,acc_y,acc_z,grav_x,grav_y,grav_z
1757088120319240700,0.10824072265625,0.9722625017166138,-3.795412540435791,1.325087547302246,-3.31966495513916,1.494500994682312,9.061813354492188,7.140724182128906,-3.214730978012085,-5.903045177459717
1757088120328794000,0.117794189453125,1.0797874927520752,-4.089937686920166,1.3007500171661377,-4.319454193115234,1.1553800106048584,8.6065092086792,7.153962135314941,-3.2072319984436035,-5.890456199645996
1757088120338347300,0.12734716796875,1.2227874994277954,-4.443037509918213,1.3068000078201294,-4.817996025085449,0.6114090085029602,7.863998889923096,7.180753231048584,-3.1918089389801025,-5.863606929779053
1757088120347900700,0.136900634765625,1.4671249389648438,-4.833950042724609,1.3983750343322754,-4.842226028442383,-0.0591830015182495,6.668651103973389,7.221445083618164,-3.1675169467926025,-5.820685863494873
1757088120357454000,0.1464541015625,1.7457000017166138,-5.277387619018555,1.536424994468689,-5.341453075408936,-0.9750109910964966,5.535726070404053,7.2763237953186035,-3.133228063583374,-5.759547233581543
1757088120367007200,0.15600732421875,2.05356240272522,-5.740487575531006,1.714900016784668,-5.98793888092041,-1.7196409702301023,4.6757988929748535,7.345451831817627,-3.0876870155334477,-5.677797794342041
1757088120376560600,0.165560546875,2.591049909591675,-6.556550025939941,1.7759499549865725,-8.436606407165527,-3.608777046203613,2.427053928375244,7.429029941558838,-3.0298120975494385,-5.571600914001465
1757088120386113800,0.17511376953125,3.232487440109253,-7.773287296295166,1.8614749908447263,-8.403339385986328,-5.158769130706787,0.7653239965438843,7.527225971221924,-2.9586050510406494,-5.435112953186035
1757088120395667200,0.184667236328125,3.8409249782562256,-8.142337799072266,2.11433744430542,-7.350547790527344,-5.1287841796875,0.8426139950752258,7.638145923614502,-2.8728549480438232,-5.265736103057861
1757088120405220600,0.194220703125,4.43093729019165,-8.373200416564941,2.264625072479248,-7.4692301750183105,-6.471436023712158,1.251628041267395,7.759191036224365,-2.772286891937256,-5.06138277053833
1757088120414773800,0.203773681640625,4.875612258911133,-8.287674903869629,2.348912477493286,-7.368545055389404,-7.403651237487793,2.753514051437378,7.884778022766113,-2.683171033859253,-4.81492280960083
1757088120424327200,0.2133271484375,5.17261266708374,-7.85881233215332,2.485724925994873,-6.504316806793213,-8.300031661987305,5.004001140594482,8.014322280883789,-2.5809590816497803,-4.5352959632873535
1757088120433880600,0.222880615234375,5.297187328338623,-7.251749992370605,2.7655375003814697,-5.0353617668151855,-9.060267448425291,7.302618980407715,8.145238876342773,-2.465877056121826,-4.224546909332275
1757088120443433700,0.232433837890625,5.3424248695373535,-6.552837371826172,3.1222124099731445,-4.152202129364014,-9.777978897094728,9.001869201660156,8.275453567504883,-2.337773084640503,-3.885272026062012
1757088120452987100,0.241987060546875,5.302000045776367,-5.98963737487793,3.457025051116944,-4.213898181915283,-10.637081146240234,10.073803901672363,8.40324878692627,-2.196523904800415,-3.519505023956299
1757088120462540300,0.251540283203125,5.198187351226807,-5.443487644195557,3.807650089263916,-4.0172929763793945,-10.793577194213867,11.111776351928713,8.527196884155273,-2.041822910308838,-3.1292591094970703
1757088120472093700,0.26109375,5.021087646484375,-4.833950042724609,4.137512683868408,-4.047840118408203,-10.552846908569336,12.23484230041504,8.646209716796875,-1.8733010292053225,-2.71687388420105
1757088120481647000,0.270647216796875,4.835324764251709,-4.236512660980225,4.403850078582764,-4.586101055145264,-10.38817310333252,12.65460968017578,8.759450912475586,-1.6907449960708618,-2.284653902053833
1757088120491200300,0.2802001953125,4.6472249031066895,-3.783312559127808,4.562662601470947,-5.7267608642578125,-10.873833656311035,12.87810230255127,8.866159439086914,-1.4943209886550903,-1.834277987480164
1757088120510306800,0.299306884765625,4.501887321472168,-3.113687515258789,4.580949783325195,-8.57829475402832,-9.832725524902344,10.71843147277832,9.05739688873291,-1.0629819631576538,-0.8839880228042603
1757088120519860200,0.308860107421875,4.487174987792969,-2.9207749366760254,4.5687127113342285,-9.13421630859375,-9.770668983459473,11.222588539123535,9.127541542053224,-0.8377540111541748,-0.39826300740242
1757088120529413600,0.31841357421875,4.299075126647949,-2.8595874309539795,4.594425201416016,-9.324809074401855,-10.526098251342772,13.221927642822266,9.174986839294434,-0.6099730134010315,0.0882799997925758
1757088120538967000,0.327967041015625,3.986262559890747,-2.7655375003814697,4.693425178527832,-9.210755348205566,-10.030311584472656,14.76385498046875,9.198637962341309,-0.3805350065231323,0.5733569860458374
1757088120548520200,0.337520263671875,3.578162431716919,-2.6152498722076416,4.771524906158447,-9.59505844116211,-9.25457000732422,15.616363525390623,9.19762897491455,-0.1503179967403412,1.053974986076355
1757088120558073600,0.347073486328125,3.1212499141693115,-2.3208625316619877,4.754475116729736,-10.568951606750488,-8.557703971862793,15.756843566894531,9.171807289123535,0.0795309990644455,1.5262340307235718
1757088120567626800,0.356626708984375,2.639999866485596,-1.9017624855041504,4.53695011138916,-12.413824081420898,-7.637170791625977,15.56228733062744,9.121541976928713,0.3075279891490936,1.9842530488967896
1757088120577180400,0.366180419921875,2.114612579345703,-1.5670875310897827,4.113037586212158,-14.44698715209961,-6.529819011688232,15.238651275634766,9.047462463378906,0.531827986240387,2.4203789234161377
1757088120586733600,0.375733642578125,1.623462438583374,-1.1504625082015991,3.6133625507354736,-15.594152450561523,-5.436620235443115,14.344018936157228,8.95277214050293,0.7502560019493103,2.829921007156372
1757088120596286700,0.38528662109375,1.220312476158142,-0.7558375000953674,3.018399953842163,-16.63642692565918,-5.178760051727295,12.903497695922852,8.84165096282959,0.9612039923667908,3.20887303352356
1757088120605840100,0.394840087890625,0.9002124667167664,-0.5384500026702881,2.515012502670288,-15.98676300048828,-4.985573768615723,10.96481704711914,8.720799446105957,1.1898659467697144,3.548917055130005
1757088120615393500,0.4043935546875,0.6851624846458435,-0.4064500033855438,2.180337429046631,-14.523138046264648,-4.220742225646973,8.916740417480469,8.59152603149414,1.4110080003738403,3.858234882354736
1757088120624946700,0.41394677734375,0.4787749946117401,-0.3697375059127807,1.9420499801635744,-13.619756698608398,-4.007156848907471,7.894867897033691,8.456770896911621,1.624519944190979,4.138443946838379
1757088120634500000,0.4235,0.2502500116825104,-0.3929750025272369,1.723425030708313,-13.266027450561523,-4.360029220581055,7.649647235870361,8.318799018859863,1.8300859928131104,4.391851902008057
1757088120644053500,0.433053466796875,0.0559624992311,-0.3123999834060669,1.5010875463485718,-13.17400360107422,-4.8443989753723145,7.035637855529785,8.179844856262207,2.027329921722412,4.619898796081543
1757088120653606700,0.442606689453125,-0.0721874982118606,-0.1363999992609024,1.256749987602234,-13.245119094848633,-5.039010047912598,6.040298938751221,8.042184829711914,2.215466022491455,4.823790073394775
1757088120663160000,0.45216015625,-0.1821874976158142,0.0101749999448657,0.9976999759674072,-13.457237243652344,-5.119484901428223,5.274013042449951,7.907736778259277,2.3935649394989014,5.005189895629883
1757088120672713500,0.46171337890625,-0.270187497138977,0.0444125011563301,0.6727874875068665,-14.206642150878906,-5.652791976928711,4.415057182312012,7.777982234954834,2.5605928897857666,5.166125774383545
1757088120682266600,0.4712666015625,-0.2994749844074249,0.039462499320507,0.2402125000953674,-14.875370979309082,-6.238529205322266,3.008665084838867,7.654438018798828,2.7153849601745605,5.308237075805664
1757088120691820000,0.480820068359375,-0.1724250018596649,0.5550875067710876,-0.7981874942779541,-20.689151763916016,-8.106817245483398,0.6472799777984619,7.5411200523376465,2.8548479080200195,5.431366920471191
1757088120701373200,0.490373291015625,0.1391499936580658,1.1023374795913696,-1.995537519454956,-25.04737091064453,-8.941372871398926,-2.2583510875701904,7.442173957824707,2.9752469062805176,5.535265922546387
1757088120710926600,0.499926513671875,0.3443000018596649,1.1548625230789185,-2.407212495803833,-18.67786979675293,-7.610452175140381,-1.868759036064148,7.358853816986084,3.0755391120910645,5.620591163635254
1757088120720480000,0.50947998046875,0.2514874935150146,0.5355625152587891,-1.8990124464035036,-9.026159286499023,-7.372859954833984,1.10487699508667,7.289212226867676,3.158143997192383,5.689405918121338
1757088120730033200,0.519033203125,0.0193875003606081,-0.4027374982833862,-1.0022374391555786,-3.535609006881714,-9.150890350341797,2.6135571002960205,7.229920864105225,3.2267038822174072,5.745037078857422
1757088120739586600,0.528586669921875,-0.0185624994337558,-1.1626999378204346,-0.2227499932050705,-3.0045061111450195,-9.3956880569458,0.2874610126018524,7.179806232452393,3.260816097259521,5.800498962402344
1757088120749140000,0.538139892578125,0.195250004529953,-1.6134250164031982,0.1339250057935714,-6.017141819000244,-9.951348304748535,-2.629473924636841,7.135376930236816,3.2839291095733643,5.849491119384766
1757088120758693400,0.547693359375,0.4835875034332275,-1.7307125329971311,0.2402125000953674,-7.8521199226379395,-9.64671230316162,-3.314445972442627,7.095483779907227,3.2959370613098145,5.894752025604248
1757088120768246500,0.55724658203125,0.7023500204086304,-1.5793249607086182,0.2879250049591064,-7.305890083312988,-9.268900871276855,-1.9939830303192136,7.059622764587402,3.2971351146698,5.937777042388916
1757088120777800000,0.566800048828125,0.757349967956543,-1.3398000001907349,0.3684999942779541,-6.131365776062012,-8.016778945922852,0.1557510048151016,7.020806789398193,3.267522096633911,5.9940290451049805
1757088120787353300,0.576353271484375,0.5948249697685242,-1.1187000274658203,0.5102624893188477,-4.881142139434815,-6.801184177398682,2.8395919799804688,6.984088897705078,3.230246067047119,6.050090789794922
1757088120796906500,0.585906494140625,0.3247750103473663,-0.8365499973297119,0.648312509059906,-4.229959011077881,-6.877884864807129,4.554180145263672,6.949089050292969,3.1876680850982666,6.105934143066406
1757088120806460000,0.5954599609375,0.1427250057458877,-0.5347374677658081,0.57378751039505,-5.766790866851807,-7.3757548332214355,3.792306900024414,6.916144847869873,3.140826940536499,6.161156177520752
1757088120816013300,0.605013427734375,0.1293874979019165,-0.0705375000834465,0.4320249855518341,-6.020806789398193,-7.760303974151611,1.802278995513916,6.877862930297852,3.07109808921814,6.228151798248291
1757088120825566500,0.61456640625,0.2612499892711639,0.4182749986648559,0.2414499968290329,-6.140192985534668,-8.29106330871582,-0.2596920132637024,6.837138175964356,2.9744699001312256,6.303981781005859
1757088120835119900,0.624119873046875,0.4787749946117401,0.8104249835014343,0.1168750002980232,-5.736888885498047,-8.466306686401367,-2.087398052215576,6.797130107879639,2.8474199771881104,6.385188102722168
1757088120844673300,0.63367333984375,0.6888750195503235,0.8214250206947327,0.0851124972105026,-5.237668037414551,-8.399892807006836,-3.022559881210327,6.762606143951416,2.7137839794158936,6.46398401260376
1757088120854226400,0.643226318359375,0.8855000138282776,0.4817999899387359,0.1449249982833862,-5.326158046722412,-8.23689079284668,-3.6365110874176025,6.731475830078125,2.573601007461548,6.542107105255127
1757088120863779800,0.65277978515625,1.1225500106811523,0.0028874999843537,0.2414499968290329,-5.525450229644775,-8.28049087524414,-4.380836009979248,6.701332092285156,2.427129030227661,6.621322154998779
1757088120873333200,0.662333251953125,1.4011249542236328,-0.3686375021934509,0.5370749831199646,-3.904850959777832,-8.560626029968262,-4.798998832702637,6.669971942901611,2.275552034378052,6.7028422355651855
1757088120882886400,0.671886474609375,1.5721750259399414,-0.7728874683380127,0.6703125238418579,-4.340259075164795,-9.125152587890623,-2.5582220554351807,6.629353046417236,2.0973360538482666,6.793324947357178
1757088120892439800,0.681439697265625,1.6381750106811523,-0.9183624982833862,0.7545999884605408,-4.421998977661133,-9.430464744567873,-0.8178640007972717,6.578664779663086,1.9222259521484373,6.889977931976318
1757088120901993000,0.690992919921875,1.6906999349594116,-0.6983624696731567,0.7411249876022339,-4.9296979904174805,-8.037148475646973,0.366919994354248,6.518080234527588,1.7520179748535156,6.992002964019775
1757088120911546600,0.700546630859375,1.7602750062942505,-0.2646875083446502,0.5933125019073486,-6.573997020721436,-8.372603416442871,0.4047459959983825,6.451976776123047,1.58412504196167,7.096205234527588
1757088120921099800,0.710099853515625,1.8225624561309812,0.1739374995231628,0.4857875108718872,-5.97216796875,-9.597535133361816,1.5705499649047852,6.3860931396484375,1.4143160581588743,7.1983962059021
1757088120930653200,0.719653076171875,1.8532249927520752,0.7053750157356262,0.3477374911308288,-6.626377105712891,-9.910340309143066,2.1126270294189453,6.32416582107544,1.2622729539871216,7.284794807434082
1757088120940206300,0.729206298828125,1.8519874811172483,1.2588125467300415,0.1168750002980232,-8.884156227111816,-9.076386451721191,2.117003917694092,6.271784782409668,1.103837966918945,7.361481189727783
1757088120949759700,0.738759765625,1.8837499618530276,2.068687438964844,-0.3057999908924103,-10.786048889160156,-8.562056541442871,0.6670629978179932,6.232325077056885,0.9382709860801696,7.425177097320557
1757088120959313200,0.748313232421875,2.0131375789642334,2.3142623901367188,-0.9497125148773192,-15.990215301513672,-6.378488063812256,-3.3468480110168457,6.206000804901123,0.7638220191001892,7.475103855133057
1757088120968866600,0.757866455078125,2.26847505569458,2.3362624645233154,-1.084049940109253,-9.37276554107666,-6.656743049621582,-4.319667816162109,6.186344146728516,0.575747013092041,7.503621101379394
1757088120978419700,0.767419677734375,2.779150009155273,1.8695875406265257,-0.828712522983551,-2.532742977142334,-6.963955879211426,-4.485843181610107,6.17642879486084,0.3534350097179413,7.514340877532959
1757088120987973000,0.77697314453125,3.2777249813079834,1.1732875108718872,-0.5233250260353088,-0.7013180255889893,-7.49706506729126,-4.329599857330322,6.173342227935791,0.1175509989261627,7.514866828918457
1757088120997526300,0.7865263671875,3.705212593078613,0.5183749794960022,-0.3229874968528747,-1.218384027481079,-7.089396953582764,-4.400781154632568,6.173977851867676,-0.1328430026769638,7.507437229156494
1757088121007079700,0.79607958984375,4.165837287902832,-0.3894000053405761,-0.3132250010967254,-2.77768611907959,-5.422062873840332,-5.252354145050049,6.181337833404541,-0.4007149934768677,7.472893238067627
1757088121016632800,0.8056328125,4.80727481842041,-1.6501375436782837,-0.5050374865531921,-4.288021087646484,-4.626707077026367,-6.681149959564209,6.189048767089844,-0.663303017616272,7.424646854400635
1757088121026186200,0.815186279296875,5.744337558746338,-2.945112466812134,-0.6258999705314636,-4.364712238311768,-3.556191921234131,-8.958658218383789,6.189157009124756,-0.9199429750442504,7.367885112762451
1757088121035739400,0.824739501953125,6.528637409210205,-3.888362407684326,-0.5318499803543091,-4.52492618560791,-3.418708086013794,-9.60751247406006,6.173272132873535,-1.1959370374679563,7.31081485748291
1757088121045292800,0.834292724609375,6.876787662506104,-4.831474781036377,-0.2496999949216842,-4.156177043914795,-3.8397529125213614,-8.733078002929688,6.138117790222168,-1.5119249820709229,7.236669063568115
1757088121054846200,0.84384619140625,5.8126749992370605,-5.040337562561035,0.0533500015735626,-4.093413829803467,-2.5526340007781982,-3.7666869163513184,6.079803943634033,-1.8562599420547483,7.152210235595703
1757088121064399400,0.8533994140625,3.267962455749512,-4.279274940490723,0.5603125095367432,-3.678270101547241,-1.9244279861450195,4.185826778411865,6.012688159942627,-2.204948902130127,7.0666608810424805
1757088121073953000,0.862953125,1.9948500394821167,-4.029987335205078,0.9671750068664552,-4.964476108551025,-2.078577041625977,1.6747299432754517,5.943338871002197,-2.5283069610595703,6.977479934692383
1757088121083506200,0.872506103515625,2.5129499435424805,-4.372087478637695,1.0612249374389648,-7.949993133544922,-0.5910189747810364,-5.873208999633789,5.868217945098877,-2.85260009765625,6.887505054473877
1757088121093059300,0.882059326171875,3.052912473678589,-3.049062490463257,1.007462501525879,-10.336051940917969,0.6003140211105347,-6.461136817932129,5.790166854858398,-3.1792449951171875,6.792549133300781
1757088121102612700,0.89161279296875,3.166487455368042,-0.7460749745368958,0.9121749997138976,-10.27267360687256,1.9140510559082031,-4.723227024078369,5.713883876800537,-3.5078999996185303,6.688488006591797
1757088121112166100,0.901166259765625,3.151774883270264,1.196387529373169,0.7178875207901001,-8.601482391357422,3.290596008300781,-3.876982927322388,5.642434120178223,-3.838057041168213,6.572391033172607
1757088121121719300,0.91071923828125,3.2153000831604004,2.437737464904785,0.4992625117301941,-6.833290100097656,4.3208842277526855,-4.281075954437256,5.576162815093994,-4.169404983520508,6.442668914794922
1757088121131272700,0.920272705078125,3.256962537765503,3.038749933242798,0.3172124922275543,-5.63956880569458,5.086938858032227,-4.216124057769775,5.513535022735596,-4.501308917999268,6.2991437911987305
1757088121140825900,0.929825927734375,3.27153754234314,3.2220375537872314,0.1351625025272369,-5.2454938888549805,5.548664093017578,-3.914761066436768,5.451035976409912,-4.83237886428833,6.143473148345947
1757088121150379300,0.939379150390625,3.286249876022339,3.028987407684326,-0.0541750006377697,-5.161503791809082,5.8095221519470215,-3.747256994247437,5.386541843414307,-5.160211086273193,5.976738929748535
1757088121159932400,0.948932373046875,3.3252999782562256,2.66254997253418,-0.2740375101566314,-5.605038166046143,4.8308210372924805,-3.942142963409424,5.330201148986816,-5.459125995635986,5.793614864349365
1757088121169486000,0.958486083984375,3.344825029373169,2.131112575531006,-0.4085125029087066,-4.974827766418457,4.408565998077393,-3.854435920715332,5.270459175109863,-5.730143070220947,5.606776237487793
1757088121179039200,0.968039306640625,3.437774896621704,1.839062452316284,-0.4830375015735626,-4.863842964172363,3.5629589557647705,-4.38261604309082,5.208390235900879,-5.994991779327393,5.409982204437256
1757088121188592600,0.977592529296875,3.484112501144409,1.5642000436782837,-0.610087513923645,-5.660731792449951,3.125643014907837,-4.026072978973389,5.144868850708008,-6.252906799316406,5.202456951141357
1757088121198145800,0.987145751953125,3.5696375370025635,0.9582374691963196,-0.3364624977111816,-3.544271945953369,-3.532996892929077,-4.268995761871338,5.083954811096191,-6.480841159820557,4.9923930168151855
1757088121207699200,0.99669921875,4.473700046539307,0.2838000059127807,0.0166375003755092,-1.1308469772338867,-16.178016662597656,-12.541924476623535,5.029409885406494,-6.69686222076416,4.767666816711426
1757088121217252600,1.006252685546875,5.152949810028076,0.0566499978303909,-0.463512510061264,-5.22370195388794,-33.101318359375,-20.991924285888672,4.98341178894043,-6.898838996887207,4.52486515045166
1757088121226806000,1.015805908203125,2.085325002670288,0.4255625009536743,-1.1463375091552734,-5.496782779693604,-38.24140167236328,-8.828951835632324,4.9462890625,-7.0835490226745605,4.275239944458008
1757088121236359200,1.025359130859375,-0.8016250133514404,-1.3422750234603882,-1.018049955368042,-4.039793968200684,-34.686302185058594,-1.6953259706497192,4.921794891357422,-7.227398872375488,4.050128936767578
1757088121245912600,1.03491259765625,-0.8626750111579895,-3.079587459564209,-0.5966125130653381,-3.0100131034851074,-24.474369049072266,-10.65376091003418,4.915750026702881,-7.340307235717773,3.845592975616455
1757088121255465500,1.044465576171875,-0.3079999983310699,-4.021462440490723,-0.34375,-3.4376440048217773,-13.419031143188477,-10.324210166931152,4.9150919914245605,-7.445913791656494,3.651089906692505
1757088121265019100,1.05401904296875,-0.0283249989151954,-4.069174766540527,-0.0969374999403953,-3.011882066726685,-5.741477012634277,-6.753136157989502,4.918500900268555,-7.548286914825439,3.462778091430664
1757088121274572300,1.063572265625,0.0303875003010034,-3.807650089263916,0.1681624948978424,-2.45032811164856,-0.8898550271987915,-3.991985082626343,4.922092914581299,-7.651503086090088,3.2699520587921143
1757088121284125700,1.073125732421875,0.0401500016450881,-3.703837394714356,0.2952125072479248,-3.679861068725586,2.0288310050964355,-3.387501001358032,4.928554058074951,-7.747590065002441,3.087898015975952
1757088121293679000,1.08267919921875,-0.0514249987900257,-3.438737392425537,0.171875,-5.788228988647461,4.213513851165772,-2.573482036590576,4.931070804595947,-7.83634614944458,2.921751022338867
1757088121303232300,1.092232177734375,-0.166374996304512,-2.962300062179565,-0.1299374997615814,-7.529388904571533,5.87664794921875,-2.021651029586792,4.92403507232666,-7.91824197769165,2.775113105773926
1757088121312785700,1.10178564453125,-0.2139499932527542,-2.2451000213623047,-0.5257999897003174,-9.200450897216797,6.994300842285156,-2.1934409141540527,4.904242038726807,-7.993852138519287,2.6497809886932373
1757088121322339000,1.111339111328125,-0.1223749965429306,-1.4436124563217163,-0.6906625032424927,-8.257553100585938,7.461862087249756,-3.180763959884644,4.8714919090271,-8.063634872436523,2.5455780029296875
1757088121331892200,1.120892333984375,0.1146750003099441,-0.5187875032424927,-0.47079998254776,-5.009550094604492,6.03014087677002,-5.097858905792236,4.828569889068604,-8.127573013305664,2.460597038269043
1757088121341445600,1.130445556640625,0.2685374915599823,0.3583250045776367,-0.146987497806549,-3.350142002105713,3.315825939178467,-5.957503795623779,4.779541969299316,-8.185334205627441,2.392496109008789
1757088121350998800,1.139998779296875,0.2172500044107437,1.030287504196167,0.0655874982476234,-3.654803991317749,0.9771980047225952,-5.3510050773620605,4.728120803833008,-8.236391067504883,2.3397529125213623
1757088121360552000,1.149552001953125,0.1207249984145164,1.6044875383377075,0.2023999989032745,-3.577518939971924,-1.0685160160064695,-5.177105903625488,4.66926908493042,-8.288398742675781,2.2867701053619385
1757088121370105600,1.159105712890625,0.0376750007271766,1.9611624479293823,0.3086875081062317,-3.604660987854004,-3.232163906097412,-5.480852127075195,4.612774848937988,-8.333403587341309,2.24698805809021
1757088121379658800,1.16865869140625,-0.0416624993085861,2.0028250217437744,0.3892624974250793,-3.846115112304688,-4.673029899597168,-5.421847820281982,4.560112953186035,-8.371330261230469,2.220287084579468
1757088121389212200,1.178212158203125,-0.0771375000476837,1.800012469291687,0.4075500071048736,-4.315805912017822,-5.05731201171875,-5.547313213348389,4.5110578536987305,-8.403216361999512,2.206149101257324
1757088121398765600,1.187765625,-0.0526624992489814,1.496962547302246,0.3562625050544739,-4.7359161376953125,-4.3258819580078125,-5.531195163726807,4.464571952819824,-8.429694175720215,2.206974029541016
1757088121408318700,1.197318603515625,-0.0428999997675418,1.239150047302246,0.2524499893188476,-5.02448320388794,-2.730570077896118,-4.887309074401856,4.422049045562744,-8.450005531311035,2.2254979610443115
1757088121417872100,1.2068720703125,-0.0514249987900257,1.0815750360488892,0.1388749927282333,-4.766462802886963,-1.2312259674072266,-4.187853813171387,4.373801231384277,-8.473673820495605,2.240055084228516
1757088121427425300,1.21642529296875,-0.0526624992489814,1.0034749507904053,0.0435874983668327,-4.331243991851807,-0.1630119979381561,-3.855531930923462,4.320734977722168,-8.502289772033691,2.2352941036224365
1757088121436978700,1.225978759765625,-0.0478499978780746,0.9350000023841858,-0.0175999999046325,-3.871826887130737,0.4866839945316314,-3.69312596321106,4.263266086578369,-8.536079406738281,2.206899881362915
1757088121446532000,1.235531982421875,-0.0404249988496303,0.8347625136375427,-0.0383624993264675,-3.6146080493927,0.5905629992485046,-3.82691502571106,4.211060047149658,-8.569391250610352,2.166595935821533
1757088121456085200,1.245085205078125,-0.0160875003784894,0.7016624808311462,-0.0248875003308057,-3.2020339965820312,0.3368380069732666,-3.9086289405822754,4.155561923980713,-8.607181549072266,2.1037418842315674
1757088121465638700,1.254638671875,-0.0026124999858438,0.5428500175476074,-0.0016499999910593,-2.929651021957397,-0.0880640000104904,-3.837412118911743,4.101833820343018,-8.643200874328613,2.031126976013184
1757088121475191800,1.26419189453125,-0.0050874999724328,0.3656125068664551,0.017875000834465,-2.7746739387512207,-0.4432199895381927,-3.591837882995605,4.043645858764648,-8.683128356933594,1.9397070407867432
1757088121484745200,1.2737451171875,-0.0038499999791383,0.194700002670288,0.0276375003159046,-2.6645290851593018,-0.6421740055084229,-3.36797308921814,3.981555938720703,-8.726340293884277,1.830865979194641
1757088121494298600,1.283298583984375,0.0034374999813735,0.0382249988615512,0.0215875003486871,-2.599756956100464,-0.6084640026092529,-3.075567960739136,3.9164419174194336,-8.772001266479492,1.7062649726867676
1757088121503852000,1.29285205078125,-0.0001374999992549,-0.0875874981284141,0.0081124994903802,-2.530669927597046,-0.3984540104866028,-2.672236919403076,3.84919810295105,-8.819089889526367,1.5684709548950195
1757088121513405200,1.3024052734375,-0.0038499999791383,-0.171875,0.0056374999694526,-2.3167519569396973,-0.1650529950857162,-2.441739082336426,3.78009295463562,-8.866801261901855,1.4201849699020386
1757088121522958600,1.31195849609375,-0.0038499999791383,-0.232924997806549,0.0191124994307756,-2.1334569454193115,0.001388999982737,-2.3385729789733887,3.7076380252838135,-8.91493034362793,1.264503002166748
1757088121532511700,1.32151171875,-0.0050874999724328,-0.2964499890804291,0.0423500016331672,-2.016375064849853,0.0568379983305931,-2.269184112548828,3.629816055297852,-8.96363639831543,1.1040300130844116
1757088121542065200,1.331065185546875,-0.0063249999657273,-0.3697375059127807,0.0703999996185302,-1.9134999513626096,0.0136770000681281,-2.24127197265625,3.5453848838806152,-9.013147354125977,0.9401630163192748
1757088121551618300,1.340618408203125,-0.0050874999724328,-0.4577375054359436,0.0899249985814094,-1.9337669610977173,-0.0631470009684562,-2.190908908843994,3.4612820148468018,-9.05587387084961,0.7878599762916565
1757088121561171700,1.350171630859375,-0.0050874999724328,-0.5554999709129333,0.0911625027656555,-2.005745887756348,-0.1648329943418502,-2.0902578830718994,3.3686459064483643,-9.09994125366211,0.6340129971504211
1757088121570724900,1.359724853515625,-0.0026124999858438,-0.6495500206947327,0.0776875019073486,-2.073676109313965,-0.2097930014133453,-1.9995529651641848,3.266976118087769,-9.145566940307615,0.4788199961185455
1757088121580278500,1.369278564453125,-0.0001374999992549,-0.7265499830245972,0.050875000655651,-2.109365940093994,-0.2147450000047683,-1.878528952598572,3.15629506111145,-9.19279956817627,0.3221969902515411
1757088121589831700,1.378831787109375,-0.0013749999925494,-0.766837477684021,0.0141624994575977,-2.167736053466797,-0.1743060052394867,-1.7388440370559692,3.0368640422821045,-9.24151611328125,0.1640650033950805
1757088121599384800,1.388384765625,-0.0013749999925494,-0.7607874870300293,-0.0224124994128942,-2.206199884414673,-0.1388919949531555,-1.585073947906494,2.909118890762329,-9.29149055480957,0.0043399999849498
1757088121608938500,1.3979384765625,-0.0013749999925494,-0.7106000185012817,-0.0481249988079071,-2.142371892929077,-0.0574860014021396,-1.4801440238952637,2.785217046737671,-9.334375381469728,-0.1460089981555938
1757088121618491600,1.40749169921875,-0.0026124999858438,-0.6287875175476074,-0.0493624992668628,-2.0016229152679443,0.0070310002192854,-1.3421779870986938,2.665383100509644,-9.370889663696287,-0.2870000004768371
1757088121628045000,1.417045166015625,-0.0098999999463558,-0.504212498664856,-0.0334125012159347,-1.8751729726791384,0.0715700015425682,-1.2297450304031372,2.5493900775909424,-9.401850700378418,-0.4184289872646332
1757088121637598200,1.42659814453125,-0.0136124994605779,-0.3306874930858612,-0.0126499999314546,-1.7551310062408447,0.1027730032801628,-1.1411800384521484,2.4280428886413574,-9.433009147644045,-0.5517579913139343
1757088121647151400,1.4361513671875,-0.0196624994277954,-0.129112496972084,0.009349999949336,-1.670217990875244,0.0867339968681335,-1.080610990524292,2.3095529079437256,-9.459650993347168,-0.6750829815864563
1757088121656704800,1.445704833984375,-0.0221375003457069,0.0664125010371208,0.0325874984264373,-1.5688480138778689,0.0352619998157024,-1.0516990423202517,2.1937460899353027,-9.48245906829834,-0.7892280220985413
1757088121666258200,1.455258056640625,-0.0246124994009733,0.2202749997377395,0.0558249987661838,-1.4094890356063845,-0.0353889986872673,-1.0652029514312744,2.080952882766724,-9.50189208984375,-0.8955680131912231
1757088121675811300,1.464811279296875,-0.0221375003457069,0.3302749991416931,0.0741124972701072,-1.2450979948043823,-0.0863559991121292,-1.0417020320892334,1.9715529680252075,-9.518310546875,-0.9951210021972656
1757088121685364700,1.47436474609375,-0.0208999998867511,0.4096125066280365,0.0826374962925911,-1.114382028579712,-0.1240189969539642,-0.9951189756393432,1.8659199476242063,-9.531997680664062,-1.0887290239334106
1757088121694918100,1.483918212890625,-0.0185624994337558,0.4633750021457672,0.0776875019073486,-1.0073699951171875,-0.1332830041646957,-0.9124559760093688,1.7642550468444824,-9.543221473693848,-1.1773159503936768
1757088121704471300,1.49347119140625,-0.0160875003784894,0.495137482881546,0.0668250024318695,-0.8976879715919495,-0.1284970045089721,-0.8432310223579407,1.666247010231018,-9.552350997924805,-1.2613120079040527
1757088121714024700,1.503024658203125,-0.0173249989748001,0.5000874996185303,0.0533500015735626,-0.7654160261154175,-0.1259499937295913,-0.7442179918289185,1.5716270208358765,-9.5597505569458,-1.3406699895858765
1757088121723577900,1.512577880859375,-0.0173249989748001,0.479324996471405,0.0423500016331672,-0.6487619876861572,-0.11404699832201,-0.6917049884796143,1.480262041091919,-9.565690994262695,-1.4154740571975708
1757088121733131300,1.52213134765625,-0.0148499999195337,0.4377999901771545,0.0325874984264373,-0.5496829748153687,-0.0998350009322166,-0.6376820206642151,1.3919589519500732,-9.57043170928955,-1.4858369827270508
1757088121742684400,1.531684326171875,-0.0123749999329447,0.3888500034809112,0.0215875003486871,-0.4740799963474273,-0.0786800011992454,-0.6092960238456726,1.3068829774856567,-9.57408332824707,-1.5519880056381226
1757088121752237800,1.54123779296875,-0.0111375004053115,0.332749992609024,0.006874999962747,-0.4182380139827728,-0.0380479991436004,-0.5437350273132324,1.2253530025482178,-9.576711654663086,-1.614230036735535
1757088121761791000,1.550791015625,-0.0075624999590218,0.2715624868869781,-0.0076999999582767,-0.3744060099124908,-0.0118110002949833,-0.5132060050964355,1.1476919651031494,-9.578351974487305,-1.6728650331497192
1757088121771344600,1.5603447265625,-0.0063249999657273,0.2067999988794326,-0.0175999999046325,-0.3086000084877014,0.01664499938488,-0.4910820126533508,1.0742939710617063,-9.57902717590332,-1.7282309532165527
1757088121780897800,1.569897705078125,-0.0026124999858438,0.1384624987840652,-0.02364999987185,-0.2405319958925247,-0.0001420000044163,-0.4456070065498352,1.005707025527954,-9.57875633239746,-1.7805620431900024
1757088121790451000,1.579450927734375,-0.0013749999925494,0.0651749968528747,-0.02364999987185,-0.1777749955654144,-0.0332529991865158,-0.3965980112552643,0.9424750208854676,-9.577573776245115,-1.830049991607666
1757088121800004400,1.58900439453125,-0.0038499999791383,0.0004124999977648,-0.0211750008165836,-0.1222679987549781,-0.1040859967470169,-0.3563629984855652,0.8848059773445129,-9.575602531433104,-1.876662015914917
1757088121809557800,1.598557861328125,-0.0111375004053115,-0.0472999997437,-0.0151249999180436,-0.0804039984941482,-0.1526000052690506,-0.3085570037364959,0.8325610160827637,-9.573007583618164,-1.92044198513031
1757088121819111200,1.608111083984375,-0.0173249989748001,-0.0803000032901763,-0.0089375004172325,-0.0421210005879402,-0.1698240041732788,-0.2982900142669678,0.7855619788169861,-9.569916725158691,-1.96150803565979
1757088121828664300,1.617664306640625,-0.025849999859929,-0.097350001335144,-0.0016499999910593,-0.0273299999535083,-0.1799149960279464,-0.312267005443573,0.743586003780365,-9.566436767578123,-1.999959945678711
1757088121838217700,1.6272177734375,-0.034375000745058,-0.1095874980092048,0.0043999999761581,-0.0459210015833377,-0.1424760073423385,-0.3439520001411438,0.7064260244369507,-9.56263828277588,-2.0359549522399902
1757088121847771000,1.63677099609375,-0.0416624993085861,-0.1193500012159347,0.009349999949336,-0.059664998203516,-0.1150790005922317,-0.3833509981632232,0.6738240122795105,-9.558592796325684,-2.0696120262146
1757088121857324300,1.64632421875,-0.0453750006854534,-0.1376374959945678,0.011824999935925,-0.0959139987826347,-0.0882640033960342,-0.429744005203247,0.6452569961547852,-9.554391860961914,-2.101026058197021
1757088121866877400,1.65587744140625,-0.0490874983370304,-0.160874992609024,0.0130624994635581,-0.1262740045785904,-0.0691109970211982,-0.469294011592865,0.6202020049095154,-9.550107955932615,-2.130364894866944
1757088121876430800,1.665430908203125,-0.0466125011444091,-0.1828749924898147,0.0130624994635581,-0.1599839925765991,-0.0439900010824203,-0.5493339896202087,0.5982210040092468,-9.545729637145996,-2.158041000366211
1757088121885984300,1.674984375,-0.0404249988496303,-0.201162502169609,0.006874999962747,-0.2029729932546615,-0.050510000437498,-0.5839560031890869,0.5789510011672974,-9.54124927520752,-2.1844019889831543
1757088121895537400,1.684537353515625,-0.0368499979376792,-0.2109249979257583,-0.0053624999709427,-0.2426680028438568,-0.0764990001916885,-0.6146219968795776,0.5620020031929016,-9.536664962768556,-2.2097198963165283
1757088121905090800,1.6940908203125,-0.0283249989151954,-0.208587497472763,-0.0211750008165836,-0.274167001247406,-0.0928570032119751,-0.6045759916305542,0.5468969941139221,-9.531975746154783,-2.234299898147583
1757088121914644200,1.703644287109375,-0.0185624994337558,-0.1951124966144561,-0.0346499979496002,-0.2775740027427673,-0.0833500027656555,-0.6143879890441895,0.5332459807395935,-9.527165412902832,-2.258397102355957
1757088121924197400,1.713197265625,-0.0098999999463558,-0.1731124967336654,-0.0444125011563301,-0.2545840144157409,-0.0834129974246025,-0.5887969732284546,0.520766019821167,-9.522239685058594,-2.282150983810425
1757088121933750500,1.72275048828125,-0.0001374999992549,-0.1413500010967254,-0.0468874983489513,-0.2139090001583099,-0.0526590012013912,-0.567579984664917,0.5093140006065369,-9.51719570159912,-2.3056650161743164
1757088121943304000,1.732303955078125,0.0096249999478459,-0.0985874980688095,-0.0431750006973743,-0.1771139949560165,-0.059638999402523,-0.4988900125026703,0.4988139867782593,-9.512045860290527,-2.328977108001709
1757088121952857300,1.741857421875,0.0131999999284744,-0.0533500015735626,-0.0371249988675117,-0.1441310048103332,-0.0635259971022605,-0.4333629906177521,0.4892149865627289,-9.506826400756836,-2.352004051208496
1757088121962410800,1.75141064453125,0.0131999999284744,-0.0081124994903802,-0.0261249989271163,-0.1196440011262893,-0.1020060032606124,-0.3467670083045959,0.4803659915924072,-9.501611709594728,-2.3745429515838623
1757088121971964000,1.7609638671875,0.0108624994754791,0.0334125012159347,-0.0151249999180436,-0.1190769970417022,-0.1273519992828369,-0.2765159904956817,0.4720189869403839,-9.496447563171388,-2.3965249061584477
1757088121981517300,1.770517333984375,0.0083875004202127,0.0664125010371208,-0.0028874999843537,-0.1165639981627464,-0.1395989954471588,-0.2056989967823028,0.4639300107955932,-9.49137020111084,-2.417922019958496
1757088121991070700,1.78007080078125,0.0096249999478459,0.0859375,0.0081124994903802,-0.1259849965572357,-0.1489710062742233,-0.1725929975509643,0.4558559954166412,-9.486371994018556,-2.4388420581817627
1757088122000623900,1.789623779296875,0.0083875004202127,0.0919874981045723,0.0166375003755092,-0.126473993062973,-0.1432809978723526,-0.125352993607521,0.447623997926712,-9.481451034545898,-2.4593749046325684
1757088122010177300,1.79917724609375,0.0120999999344348,0.0956999957561492,0.0228249989449977,-0.1364679932594299,-0.1179559975862503,-0.079873003065586,0.439054012298584,-9.476622581481934,-2.4795138835906982
1757088122019730400,1.80873046875,0.0108624994754791,0.1005124971270561,0.0228249989449977,-0.1435309946537017,-0.1086789965629577,-0.034485001116991,0.4300189912319183,-9.471924781799316,-2.499150037765503
1757088122029283800,1.818283935546875,0.0120999999344348,0.1029874980449676,0.0203499998897314,-0.1340840011835098,-0.1254699975252151,-0.0188560001552104,0.4205400049686432,-9.467388153076172,-2.518157958984375
1757088122038837200,1.827837158203125,0.0108624994754791,0.0956999957561492,0.0191124994307756,-0.1071709990501403,-0.1370700001716613,0.0046919998712837,0.4107050001621246,-9.463056564331056,-2.536362886428833
1757088122048390400,1.837390380859375,0.0083875004202127,0.0749375000596046,0.0191124994307756,-0.0935709998011589,-0.1606200039386749,-0.0031280000694096,0.4006510078907013,-9.458959579467772,-2.553623914718628
1757088122057943600,1.846943603515625,0.0059124999679625,0.0456499978899955,0.0191124994307756,-0.0927120000123977,-0.2153429985046386,-0.0252620000392198,0.3904730081558227,-9.455120086669922,-2.5698399543762207
1757088122067497200,1.856497314453125,0.0059124999679625,0.0039874999783933,0.0191124994307756,-0.0997269973158836,-0.2132109999656677,-0.064480997622013,0.3802779912948608,-9.451566696166992,-2.5848639011383057
1757088122077050400,1.86605029296875,0.0083875004202127,-0.0423500016331672,0.017875000834465,-0.1232250034809112,-0.2256380021572113,-0.0790460035204887,0.370184987783432,-9.448317527770996,-2.5986170768737797
1757088122086603800,1.875603759765625,0.0156750008463859,-0.0813999995589256,0.0141624994575977,-0.1619170010089874,-0.1880989968776703,-0.080374002456665,0.3602809906005859,-9.445371627807615,-2.611083030700684
1757088122096157000,1.885156982421875,0.0181499999016523,-0.1058750003576278,0.0056374999694526,-0.2005520015954971,-0.1883759945631027,-0.049695998430252,0.350614994764328,-9.442749977111816,-2.6221868991851807
1757088122105710000,1.8947099609375,0.0218624994158744,-0.1181124970316886,-0.0028874999843537,-0.1981440037488937,-0.180989995598793,-0.0111379995942115,0.3412559926509857,-9.440503120422363,-2.63175892829895
1757088122115263500,1.904263427734375,0.0218624994158744,-0.1218250021338462,-0.0114124994724988,-0.2132730036973953,-0.1750960052013397,0.0458960011601448,0.3321279883384704,-9.438671112060549,-2.639669895172119
1757088122124817000,1.91381689453125,0.0193875003606081,-0.1218250021338462,-0.0151249999180436,-0.2091369926929474,-0.1924629956483841,0.0813179984688758,0.3231500089168548,-9.437307357788086,-2.645777940750122
1757088122134370000,1.9233701171875,0.0144375003874301,-0.1205874979496002,-0.0163624994456768,-0.2005639970302581,-0.1997449994087219,0.1052640005946159,0.3142659962177276,-9.436407089233398,-2.65012788772583
1757088122143923500,1.93292333984375,0.0120999999344348,-0.1193500012159347,-0.0114124994724988,-0.1793140023946762,-0.2190939933061599,0.0934360027313232,0.3054910004138946,-9.435932159423828,-2.652884006500244
1757088122153476900,1.942476806640625,0.0071499999612569,-0.1181124970316886,-0.0065999999642372,-0.1777350008487701,-0.2316090017557144,0.0612040013074874,0.2967830002307892,-9.435796737670898,-2.6543679237365723
1757088122163030000,1.952030029296875,0.004674999974668,-0.1120624989271164,-0.0028874999843537,-0.1854500025510788,-0.2398300021886825,0.0235430002212524,0.288129985332489,-9.435918807983398,-2.654885053634644
1757088122172583400,1.96158349609375,0.002199999988079,-0.0936374962329864,-0.0016499999910593,-0.2014189958572387,-0.2172189950942993,0.0061519998125731,0.279444009065628,-9.436227798461914,-2.65470290184021
1757088122182136600,1.971136474609375,-0.0001374999992549,-0.0655874982476234,-0.0028874999843537,-0.1953330039978027,-0.1877530068159103,-0.0100699998438358,0.2707000076770782,-9.436681747436523,-2.653970956802368
1757088122191690000,1.98068994140625,-0.0050874999724328,-0.0362999998033046,-0.0004124999977648,-0.1596959978342056,-0.1802420020103454,-0.0393409989774227,0.2619459927082062,-9.437228202819824,-2.652884006500244
1757088122201243400,1.990243408203125,-0.0075624999590218,-0.0130624994635581,0.0020624999888241,-0.1279670000076294,-0.1660529971122741,-0.0693290010094642,0.253260999917984,-9.437817573547363,-2.6516149044036865
1757088122210796500,1.999796630859375,-0.0086624994874,0.0004124999977648,0.0056374999694526,-0.0934970006346702,-0.1713429987430572,-0.0911149978637695,0.2447730004787445,-9.438394546508787,-2.6503400802612305
1757088122220350000,2.009349853515625,-0.0098999999463558,0.0052249999716877,0.0081124994903802,-0.0836569964885711,-0.1653749942779541,-0.1367380023002624,0.2365060001611709,-9.438913345336914,-2.6492350101470947
1757088122229903000,2.018903076171875,-0.0086624994874,0.0039874999783933,0.0081124994903802,-0.0856940001249313,-0.178749993443489,-0.1505739986896515,0.2283689975738525,-9.43934440612793,-2.6484150886535645
1757088122239456800,2.028456787109375,-0.0063249999657273,0.0004124999977648,0.0081124994903802,-0.0764020010828971,-0.1903800070285797,-0.1908909976482391,0.2203270047903061,-9.439650535583496,-2.648005962371826
1757088122249010200,2.03801025390625,-0.0026124999858438,-0.004537499975413,0.006874999962747,-0.0699170008301734,-0.1637379974126815,-0.1784480065107345,0.2123640030622482,-9.439838409423828,-2.648008108139038
1757088122258563000,2.04756298828125,-0.0013749999925494,-0.0008249999955296,0.0056374999694526,-0.0568160004913806,-0.1679619997739792,-0.1598020046949386,0.204472005367279,-9.439946174621582,-2.648269891738892
1757088122268116700,2.05711669921875,0.0010999999940395,0.0101749999448657,0.0043999999761581,-0.0327740013599395,-0.1529079973697662,-0.1416700035333633,0.1967169940471649,-9.439990997314451,-2.6487300395965576
1757088122277670000,2.066669921875,0.002199999988079,0.0199375003576278,0.0043999999761581,-0.0369540005922317,-0.147254005074501,-0.1265469938516616,0.1891520023345947,-9.4399995803833,-2.649293899536133
1757088122287223000,2.07622314453125,0.002199999988079,0.0259875003248453,0.0043999999761581,-0.0294560007750988,-0.1340799927711486,-0.1006650030612945,0.1819140017032623,-9.439959526062012,-2.649977922439575
1757088122296776400,2.0857763671875,0.004674999974668,0.0284624993801116,0.0020624999888241,-0.0333949998021125,-0.135229006409645,-0.0940850004553794,0.1749940067529678,-9.43985366821289,-2.6508591175079346
1757088122306329900,2.095329833984375,0.004674999974668,0.0248875003308057,0.0043999999761581,-0.0148120000958442,-0.1767490059137344,-0.0839499980211258,0.1685419976711273,-9.439650535583496,-2.652028083801269
1757088122315883000,2.104883056640625,0.004674999974668,0.0174624994397163,0.006874999962747,0.0136219998821616,-0.1915619969367981,-0.0632359981536865,0.1626719981431961,-9.439336776733398,-2.6535398960113525
1757088122325436400,2.1144365234375,0.002199999988079,0.0174624994397163,0.006874999962747,0.0336849987506866,-0.1990540027618408,-0.0598260015249252,0.1574240028858184,-9.43889045715332,-2.655461072921753
1757088122334989600,2.123989501953125,0.0010999999940395,0.0186999998986721,0.0043999999761581,0.0280290003865957,-0.2205200046300888,-0.0434040017426013,0.1526830047369003,-9.43834114074707,-2.657716989517212
1757088122344543000,2.13354296875,-0.0026124999858438,0.0162249989807605,0.0008249999955296,0.031980000436306,-0.2080309987068176,-0.0189149994403123,0.1484230011701584,-9.437724113464355,-2.660176038742065
1757088122354096000,2.14309619140625,-0.0063249999657273,0.0114124994724988,-0.0016499999910593,0.0403259992599487,-0.2143940031528473,-0.0074820001609623,0.144675999879837,-9.437081336975098,-2.662694931030273
1757088122363649500,2.1526494140625,-0.0086624994874,0.0076999999582767,-0.0028874999843537,0.0414259992539882,-0.2017100006341934,-0.0148409996181726,0.1415120065212249,-9.436418533325195,-2.665235996246338
1757088122373203000,2.162202880859375,-0.0111375004053115,0.0016499999910593,-0.0004124999977648,0.0737380012869834,-0.2016060054302215,-0.0560869984328746,0.1390720009803772,-9.435728073120115,-2.66784405708313
1757088122382756000,2.171756103515625,-0.0123749999329447,-0.011824999935925,0.0031624999828636,0.0899989977478981,-0.1855539977550506,-0.1041499972343444,0.137362003326416,-9.434983253479004,-2.670588970184326
1757088122392309200,2.181309326171875,-0.0111375004053115,-0.0252999998629093,0.0056374999694526,0.0754060000181198,-0.1794890016317367,-0.1268270015716552,0.1362909972667694,-9.43419075012207,-2.673460960388184
1757088122401862700,2.190862548828125,-0.0098999999463558,-0.0375375002622604,0.006874999962747,0.0611919984221458,-0.1573760062456131,-0.163778007030487,0.1357399970293045,-9.43333339691162,-2.6765310764312744
1757088122411415800,2.200415771484375,-0.0063249999657273,-0.0460624992847442,0.0081124994903802,0.0496900007128715,-0.1309799998998642,-0.1821849942207336,0.1356559991836547,-9.432418823242188,-2.6797659397125244
1757088122420969200,2.20996923828125,-0.0038499999791383,-0.0485375002026557,0.006874999962747,0.0275720003992319,-0.1261630058288574,-0.1789139956235885,0.1359789967536926,-9.431458473205566,-2.683137893676758
1757088122430522600,2.219522705078125,0.0010999999940395,-0.0485375002026557,0.0043999999761581,0.0024089999496936,-0.1310259997844696,-0.1799830049276352,0.136586993932724,-9.430474281311035,-2.686556100845337
1757088122440076000,2.229075927734375,0.004674999974668,-0.0411125011742115,0.0043999999761581,-0.0053280000574886,-0.1361269950866699,-0.1898169964551925,0.1374280005693435,-9.429460525512695,-2.6900579929351807
1757088122449629200,2.238629150390625,0.0108624994754791,-0.0325874984264373,0.0056374999694526,-0.0079889995977282,-0.1574809998273849,-0.1535169929265976,0.1384589970111847,-9.428428649902344,-2.6936049461364746
1757088122459182600,2.2481826171875,0.0108624994754791,-0.0215875003486871,0.0081124994903802,-0.00140199996531,-0.1704410016536712,-0.0807100012898445,0.1396429985761642,-9.4274320602417,-2.697011947631836
1757088122468735700,2.25773583984375,0.0096249999478459,-0.0057749999687075,0.0081124994903802,-0.0173610001802444,-0.1896030008792877,-0.0279610008001327,0.1409379988908767,-9.426511764526367,-2.7001450061798096
1757088122478289000,2.267288818359375,0.0071499999612569,0.0101749999448657,0.009349999949336,-0.0298459995537996,-0.2199500054121017,0.0077740000560879,0.1422750055789947,-9.425689697265623,-2.70293402671814
1757088122487842300,2.27684228515625,0.0034374999813735,0.0284624993801116,0.0081124994903802,-0.0432979986071586,-0.2327229976654052,0.0479650013148784,0.1436080038547516,-9.425004959106444,-2.7052481174468994
1757088122497395700,2.286395751953125,-0.0026124999858438,0.0492249988019466,0.0056374999694526,-0.0439319983124733,-0.2452539950609207,0.0490450002253055,0.1448239982128143,-9.424452781677246,-2.707108974456787
1757088122506948900,2.295948974609375,-0.0038499999791383,0.0712250024080276,0.0008249999955296,-0.0412710011005401,-0.227193996310234,0.0184760000556707,0.1457729935646057,-9.423988342285156,-2.7086799144744877
1757088122516502300,2.305502197265625,-0.0038499999791383,0.0847000032663345,-0.0004124999977648,-0.0224970001727342,-0.1907889991998672,-0.0212939996272325,0.1464280039072036,-9.42356300354004,-2.71012806892395
1757088122526055700,2.3150556640625,-0.0013749999925494,0.0847000032663345,0.0031624999828636,0.0129319997504353,-0.1457400023937225,-0.0603669993579387,0.1469430029392242,-9.42311191558838,-2.7116739749908447
1757088122535608800,2.32460888671875,0.0010999999940395,0.0809874981641769,0.006874999962747,0.0414040014147758,-0.1274659931659698,-0.0764880031347274,0.1474300026893615,-9.42259120941162,-2.713464975357056
1757088122545162200,2.334162353515625,0.004674999974668,0.0797500014305114,0.0081124994903802,0.0568489991128444,-0.1405059993267059,-0.0848309993743896,0.1479199975728988,-9.42197608947754,-2.715583086013794
1757088122554715400,2.34371533203125,0.0071499999612569,0.0847000032663345,0.0056374999694526,0.0446729995310306,-0.1604959964752197,-0.072393998503685,0.1483560055494308,-9.421284675598145,-2.717972993850708
1757088122564268800,2.353268798828125,0.0096249999478459,0.0847000032663345,0.0043999999761581,0.0672250017523765,-0.2037629932165146,-0.0383500009775161,0.1486819982528686,-9.420578002929688,-2.7204160690307617
1757088122573822200,2.362822265625,0.0096249999478459,0.0809874981641769,0.0031624999828636,0.0840170010924339,-0.2226160019636154,-0.0131769999861717,0.1488620042800903,-9.419921875,-2.7226901054382324
1757088122583375400,2.372375244140625,0.0083875004202127,0.0712250024080276,0.0056374999694526,0.0881099998950958,-0.2503060102462768,0.0237709991633892,0.14894500374794,-9.419374465942385,-2.724592924118042
1757088122592928800,2.3819287109375,0.0034374999813735,0.0566499978303909,0.0081124994903802,0.104882001876831,-0.229433998465538,0.0654380023479461,0.1490350067615509,-9.419002532958984,-2.7258780002593994
1757088122602482200,2.391482177734375,-0.0013749999925494,0.0419375002384185,0.0105875004082918,0.0997190028429031,-0.1917079985141754,0.0732399970293045,0.149167001247406,-9.418840408325195,-2.7264389991760254
1757088122612035300,2.401035400390625,-0.0050874999724328,0.0272249989211559,0.009349999949336,0.0674339979887008,-0.1661870032548904,0.0579699985682964,0.1493290066719055,-9.41887378692627,-2.7263119220733643
1757088122621588700,2.410588623046875,-0.0063249999657273,0.0114124994724988,0.009349999949336,0.0636679977178573,-0.1487360000610351,0.0050590001046657,0.149617999792099,-9.419066429138184,-2.725626945495605
1757088122631142000,2.420141845703125,-0.0038499999791383,-0.0130624994635581,0.0081124994903802,0.0438279993832111,-0.1752160042524337,-0.0520909987390041,0.1500329971313476,-9.419384956359863,-2.7244930267333984
1757088122640695000,2.429695068359375,-0.0026124999858438,-0.0387750007212162,0.0043999999761581,0.0202869996428489,-0.1974560022354126,-0.092908002436161,0.1505350023508072,-9.419779777526855,-2.7230939865112305
1757088122650248700,2.439248779296875,0.0010999999940395,-0.0570624992251396,-0.0004124999977648,-0.0109710004180669,-0.2294760048389434,-0.1113499999046325,0.1510130017995834,-9.420180320739746,-2.721682071685791
1757088122659801900,2.4488017578125,0.0034374999813735,-0.0643500015139579,-0.0053624999709427,-0.0221420004963874,-0.2400799989700317,-0.1197080016136169,0.1514919996261596,-9.420530319213867,-2.7204461097717285
1757088122669355000,2.45835498046875,0.0071499999612569,-0.0631124973297119,-0.0089375004172325,-0.0300849992781877,-0.2173279970884323,-0.1178719997406005,0.1519819945096969,-9.420781135559082,-2.719551086425781
1757088122678908700,2.46790869140625,0.0083875004202127,-0.0570624992251396,-0.0101749999448657,-0.0441219992935657,-0.1895049959421157,-0.0906170010566711,0.1525020003318786,-9.420907020568848,-2.7190868854522705
1757088122688461800,2.4774619140625,0.0108624994754791,-0.0472999997437,-0.0114124994724988,-0.0570250004529953,-0.1639750003814697,-0.073232002556324,0.1530369967222213,-9.420900344848633,-2.719078063964844
1757088122698015000,2.487014892578125,0.0131999999284744,-0.0387750007212162,-0.0101749999448657,-0.0713519975543022,-0.1621869951486587,-0.0564909987151622,0.1535840034484863,-9.42080020904541,-2.719399929046631
1757088122707568400,2.496568359375,0.0108624994754791,-0.0301124993711709,-0.0076999999582767,-0.0690480023622512,-0.1858900040388107,-0.0139600001275539,0.154116004705429,-9.42068576812744,-2.719765901565552
1757088122717121500,2.50612158203125,0.0096249999478459,-0.0155375003814697,-0.0016499999910593,-0.060258999466896,-0.2088370025157928,0.0259160008281469,0.1545429974794387,-9.42064380645752,-2.71989107131958
1757088122726675000,2.515675048828125,0.0071499999612569,0.0089375004172325,0.0008249999955296,-0.0538129992783069,-0.2167720049619674,0.0611310005187988,0.1547549962997436,-9.42072868347168,-2.719588041305542
1757088122736228400,2.525228271484375,0.0059124999679625,0.03575000166893,0.0008249999955296,-0.0741529986262321,-0.1978649944067001,0.0947009995579719,0.1546009927988052,-9.420971870422363,-2.718749046325684
1757088122745781500,2.534781494140625,0.002199999988079,0.0614624992012977,-0.0004124999977648,-0.0745100006461143,-0.1930049955844879,0.1103900000452995,0.1540960073471069,-9.421380996704102,-2.717353105545044
1757088122755335000,2.5443349609375,-0.0001374999992549,0.0724624991416931,-0.0016499999910593,-0.067671000957489,-0.2077080011367797,0.0771920010447502,0.1531790047883987,-9.421902656555176,-2.7155890464782715
1757088122764888000,2.55388818359375,-0.0026124999858438,0.0664125010371208,-0.0004124999977648,-0.0366329997777938,-0.2182269990444183,0.0339989997446537,0.1519089937210083,-9.422480583190918,-2.7136380672454834
1757088122774441200,2.563441162109375,-0.0001374999992549,0.0504624992609024,0.0020624999888241,-0.0102230003103613,-0.2128790020942688,-0.0157360006123781,0.1503610014915466,-9.423035621643066,-2.7117819786071777
1757088122783994600,2.57299462890625,-0.0001374999992549,0.0369874984025955,-0.0004124999977648,-0.0125449998304247,-0.2097820043563842,-0.0061139999888837,0.1484510004520416,-9.423539161682127,-2.7101199626922607
1757088122793548000,2.582548095703125,-0.0001374999992549,0.0296999998390674,-0.0065999999642372,-0.0143780000507831,-0.2116059958934784,-0.0151850003749132,0.146135002374649,-9.42398166656494,-2.708690881729126
1757088122803101200,2.59210107421875,-0.0013749999925494,0.0248875003308057,-0.0114124994724988,1.29999998534e-05,-0.1942750066518783,-0.0123009998351335,0.1435199975967407,-9.424372673034668,-2.7074520587921143
1757088122812654600,2.601654541015625,-0.0026124999858438,0.0174624994397163,-0.0114124994724988,0.0359980016946792,-0.1914130002260208,-0.0187260005623102,0.1407140046358108,-9.424753189086914,-2.7062630653381348
1757088122822208000,2.6112080078125,-0.0026124999858438,0.0052249999716877,-0.0065999999642372,0.0556580014526844,-0.2030570060014724,-0.0295410007238388,0.1378480046987533,-9.425155639648438,-2.704996109008789
1757088122831761200,2.62076123046875,-0.0026124999858438,-0.0057749999687075,-0.0053624999709427,0.0331399999558925,-0.1932670027017593,-0.0351159982383251,0.1349299997091293,-9.425603866577148,-2.70357608795166
1757088122841314300,2.630314208984375,-0.0013749999925494,-0.0105875004082918,-0.0076999999582767,0.0097249997779726,-0.1932229995727539,-0.0448269993066787,0.1319800019264221,-9.42609977722168,-2.701993942260742
1757088122850867700,2.63986767578125,-0.0013749999925494,-0.0155375003814697,-0.0101749999448657,0.001276999944821,-0.1863400042057037,-0.0652789995074272,0.1290130019187927,-9.426631927490234,-2.7002859115600586
1757088122860420900,2.6494208984375,-0.0013749999925494,-0.0191124994307756,-0.0126499999314546,-0.0178730003535747,-0.1768220067024231,-0.0482150018215179,0.126008003950119,-9.427221298217772,-2.698381900787353
1757088122869974300,2.658974365234375,-0.0001374999992549,-0.0167750008404254,-0.0138875003904104,0.0003710000019054,-0.163001999258995,-0.0725689977407455,0.1230650022625923,-9.427827835083008,-2.696410894393921
1757088122879527700,2.668527587890625,0.002199999988079,-0.0155375003814697,-0.0114124994724988,0.0264330003410577,-0.1498270034790039,-0.1043090000748634,0.1203290000557899,-9.428415298461914,-2.694498062133789
1757088122889080800,2.678080810546875,0.004674999974668,-0.0105875004082918,-0.0089375004172325,0.035105001181364,-0.1482850015163421,-0.0774170011281967,0.1178790032863617,-9.428991317749023,-2.6926140785217285
1757088122898634200,2.68763427734375,0.0059124999679625,-0.006874999962747,-0.0065999999642372,0.0228279996663332,-0.1513559967279434,-0.0654769986867904,0.1156800016760826,-9.429521560668944,-2.690876007080078
1757088122908187400,2.6971875,0.0083875004202127,-0.0057749999687075,-0.0053624999709427,0.0156929995864629,-0.1686020046472549,-0.0541989989578723,0.1136780008673667,-9.429976463317873,-2.6893839836120605
1757088122917740800,2.70674072265625,0.0059124999679625,-0.0032999999821186,-0.0053624999709427,0.0248460005968809,-0.1899250000715255,-0.019090000540018,0.1119000017642974,-9.430360794067385,-2.6881260871887207
1757088122927294000,2.7162939453125,0.002199999988079,0.0101749999448657,-0.0065999999642372,0.0339520014822483,-0.2108660042285919,-0.0068669999018311,0.110445000231266,-9.430668830871582,-2.6871180534362797
1757088122936847400,2.725847412109375,-0.0013749999925494,0.0211750008165836,-0.0089375004172325,0.0272400006651878,-0.2200150042772293,-0.0275049991905689,0.1093079969286918,-9.430875778198242,-2.686448097229004
1757088122946400500,2.735400390625,-0.0013749999925494,0.0162249989807605,-0.0089375004172325,0.034341000020504,-0.2221399992704391,-0.038026999682188,0.1085169985890388,-9.430991172790527,-2.6860740184783936
1757088122955954200,2.7449541015625,-0.0038499999791383,0.0076999999582767,-0.0076999999582767,0.0452079996466636,-0.1887740045785904,-0.0590850003063678,0.1080159991979599,-9.431026458740234,-2.685969114303589
1757088122965507300,2.75450732421875,-0.0038499999791383,-0.0020624999888241,-0.0076999999582767,0.0506840012967586,-0.1725170016288757,-0.0765400007367134,0.1077240034937858,-9.431010246276855,-2.686042070388794
1757088122975060500,2.764060546875,-0.0026124999858438,-0.0081124994903802,-0.0089375004172325,0.051265001296997,-0.1402540057897567,-0.1129119992256164,0.1076460033655166,-9.43089485168457,-2.686448097229004
1757088122984614000,2.77361376953125,-0.0001374999992549,-0.011824999935925,-0.0089375004172325,0.0562239997088909,-0.1296290010213852,-0.1106989979743957,0.1078270003199577,-9.430684089660645,-2.6871790885925293
1757088122994167000,2.7831669921875,0.0034374999813735,-0.0203499998897314,-0.0076999999582767,0.0718770027160644,-0.1382669955492019,-0.1129549965262413,0.1083040013909339,-9.43037223815918,-2.6882519721984863
1757088123003720400,2.792720458984375,0.0071499999612569,-0.0362999998033046,-0.0065999999642372,0.0477569997310638,-0.1758369952440261,-0.1312420070171356,0.1089140027761459,-9.42995262145996,-2.6896889209747314
1757088123013273900,2.80227392578125,0.0083875004202127,-0.0533500015735626,-0.0065999999642372,0.0268019996583461,-0.1795590072870254,-0.1099610030651092,0.1095179989933967,-9.429452896118164,-2.6914150714874268
1757088123022827000,2.811826904296875,0.0071499999612569,-0.0606375001370906,-0.0089375004172325,0.00705899996683,-0.1920730024576187,-0.0673979967832565,0.110104002058506,-9.428914070129396,-2.693272113800049
1757088123032380400,2.82138037109375,0.0071499999612569,-0.054587498307228,-0.0175999999046325,-0.0196920000016689,-0.1897049993276596,-0.0360869988799095,0.110616996884346,-9.428370475769045,-2.695146083831787
1757088123041933600,2.83093359375,0.0059124999679625,-0.0460624992847442,-0.0224124994128942,-0.0148989995941519,-0.1923319995403289,-0.0519380010664463,0.111066997051239,-9.427831649780272,-2.697010040283203
1757088123051486700,2.84048681640625,0.0034374999813735,-0.0398750007152557,-0.0211750008165836,0.0145129999145865,-0.1780599951744079,-0.0420049987733364,0.1116029992699623,-9.427290916442873,-2.6988770961761475
1757088123061040000,2.8500400390625,0.0034374999813735,-0.0398750007152557,-0.0163624994456768,0.0147010004147887,-0.1614670008420944,-0.0414189994335174,0.1122030019760131,-9.42676830291748,-2.700674057006836
1757088123070593500,2.859593505859375,0.002199999988079,-0.0387750007212162,-0.0101749999448657,0.0143699999898672,-0.1735199987888336,-0.0411540009081363,0.112805999815464,-9.426301956176758,-2.702275037765503
1757088123080146700,2.869146728515625,0.002199999988079,-0.0350624993443489,-0.0065999999642372,-0.0132830003276467,-0.1809120029211044,-0.0523520000278949,0.1133100017905235,-9.425868034362791,-2.703768014907837
1757088123089700000,2.8787001953125,0.0034374999813735,-0.0313500016927719,-0.0076999999582767,-0.0482119992375373,-0.1860630065202713,-0.0629220008850097,0.1136299967765808,-9.42544937133789,-2.7052130699157715
1757088123099253200,2.888253173828125,0.004674999974668,-0.0252999998629093,-0.0101749999448657,-0.0627219974994659,-0.181874006986618,-0.0750299990177154,0.1137199997901916,-9.42502498626709,-2.7066850662231445
1757088123108806700,2.897806640625,0.0059124999679625,-0.0142999999225139,-0.0138875003904104,-0.0509429983794689,-0.1968120038509369,-0.0752660036087036,0.1135590001940727,-9.424562454223633,-2.708306074142456
1757088123118360000,2.907360107421875,0.0071499999612569,-0.0057749999687075,-0.0138875003904104,-0.0396080017089843,-0.1901320070028305,-0.0661950036883354,0.1131659969687461,-9.424041748046877,-2.71012806892395
1757088123127913200,2.916913330078125,0.0059124999679625,0.0028874999843537,-0.0126499999314546,-0.0039479997940361,-0.183226004242897,-0.0507929995656013,0.1126910001039505,-9.423486709594728,-2.71207594871521
1757088123137466600,2.926466552734375,0.0034374999813735,0.0162249989807605,-0.0065999999642372,0.0227230004966259,-0.1947509944438934,-0.0116189997643232,0.1121940016746521,-9.422941207885742,-2.7139949798583984
1757088123147019800,2.936019775390625,-0.0013749999925494,0.03575000166893,-0.0016499999910593,0.0366650000214576,-0.2032829970121383,0.0158789996057748,0.1116639971733093,-9.422455787658691,-2.715708017349243
1757088123156573200,2.9455732421875,-0.0038499999791383,0.0504624992609024,0.0008249999955296,0.0454710014164447,-0.2072619944810867,-0.003709000069648,0.1110860034823417,-9.42203426361084,-2.7171950340271
1757088123166126600,2.955126708984375,-0.0063249999657273,0.0516999997198581,0.0020624999888241,0.0446639992296695,-0.2022069990634918,-0.0405759997665882,0.1104589998722076,-9.421690940856934,-2.718416929244995
1757088123175679700,2.9646796875,-0.0075624999590218,0.0444125011563301,-0.0004124999977648,0.0371490009129047,-0.1903200000524521,-0.0618419982492923,0.1097360029816627,-9.421409606933594,-2.719423055648804
1757088123185233000,2.97423291015625,-0.0050874999724328,0.0321750007569789,-0.0041249999776482,0.0255440007895231,-0.1767259985208511,-0.0974700003862381,0.1088209971785545,-9.42116355895996,-2.7203168869018555
1757088123194786600,2.98378662109375,-0.0013749999925494,0.0199375003576278,-0.0101749999448657,0.0170690007507801,-0.1445609927177429,-0.1190769970417022,0.1077210009098053,-9.420930862426758,-2.72116494178772
1757088123204339700,2.993339599609375,0.0010999999940395,0.0076999999582767,-0.0126499999314546,0.0270479992032051,-0.1484390050172805,-0.1235259994864463,0.106512002646923,-9.420692443847656,-2.722043037414551
1757088123213893000,3.00289306640625,0.0034374999813735,-0.004537499975413,-0.0114124994724988,0.0631479993462562,-0.1521629989147186,-0.1094420030713081,0.1053839996457099,-9.42041301727295,-2.7230539321899414
1757088123223446300,3.0124462890625,0.0059124999679625,-0.0155375003814697,-0.0065999999642372,0.0784090012311935,-0.1648779958486557,-0.0711190029978752,0.1045489981770515,-9.42009735107422,-2.724174976348877
1757088123232999400,3.02199951171875,0.0059124999679625,-0.0240624994039535,-0.0016499999910593,0.0672869980335235,-0.1582860052585601,-0.0596669986844062,0.1040309965610504,-9.41976547241211,-2.7253448963165283
1757088123252106200,3.041106201171875,0.0096249999478459,-0.0301124993711709,-0.0016499999910593,0.0065210000611841,-0.1851229965686798,-0.0413179993629455,0.1033800020813942,-9.419078826904297,-2.727739095687866
1757088123261659400,3.050659423828125,0.0096249999478459,-0.0277750007808208,-0.0065999999642372,-0.0318230018019676,-0.1922480016946792,-0.027055999264121,0.1029359996318817,-9.418740272521973,-2.728923082351685
1757088123271212800,3.060212890625,0.0083875004202127,-0.0252999998629093,-0.0089375004172325,-0.0406140014529228,-0.1989060044288635,-0.0023990001063793,0.1023870036005973,-9.418438911437988,-2.7299840450286865
1757088123280766000,3.069765869140625,0.0071499999612569,-0.0288750007748603,-0.0089375004172325,-0.0422209985554218,-0.21943399310112,0.0205540005117654,0.1018479987978935,-9.418207168579102,-2.7308061122894287
1757088123290319000,3.079319091796875,0.0034374999813735,-0.0362999998033046,-0.0041249999776482,-0.030809000134468,-0.232477992773056,0.0304310005158185,0.1014489978551864,-9.418070793151855,-2.7312910556793213
1757088123299872500,3.08887255859375,-0.0001374999992549,-0.0350624993443489,0.0008249999955296,-0.0407840013504028,-0.2309180051088333,0.0394879989326,0.1011810004711151,-9.418042182922363,-2.7314019203186035
1757088123309426000,3.098426025390625,-0.0050874999724328,-0.0203499998897314,0.0008249999955296,-0.0633739978075027,-0.2198420017957687,0.0296560004353523,0.1009330004453659,-9.41811180114746,-2.731165885925293
1757088123318979000,3.10797900390625,-0.0050874999724328,0.0004124999977648,-0.0041249999776482,-0.0927539989352226,-0.2020460069179535,0.0047360002063214,0.1004649996757507,-9.418248176574709,-2.730710029602051
1757088123328532500,3.117532470703125,-0.0026124999858438,0.0138875003904104,-0.0089375004172325,-0.0790219977498054,-0.1948820054531097,-0.0548559986054897,0.0996859967708587,-9.418362617492676,-2.73034405708313
1757088123338085600,3.127085693359375,-0.0001374999992549,0.0162249989807605,-0.0101749999448657,-0.0455499999225139,-0.2096029967069625,-0.0750370025634765,0.0986490026116371,-9.418405532836914,-2.7302279472351074
1757088123347639000,3.13663916015625,-0.0001374999992549,0.0174624994397163,-0.0101749999448657,-0.0320100001990795,-0.1907649934291839,-0.0666489973664283,0.0973749980330467,-9.418392181396484,-2.7303130626678467
1757088123357192200,3.146192138671875,-0.0001374999992549,0.0259875003248453,-0.0101749999448657,-0.0280549991875886,-0.1859019994735717,-0.0404670014977455,0.0958639979362487,-9.418370246887209,-2.730437994003296
1757088123366745600,3.15574560546875,-0.0050874999724328,0.0382249988615512,-0.0089375004172325,0.0029869999270886,-0.1662130057811737,-0.0135289998725056,0.0942199975252151,-9.418378829956056,-2.730459928512573
1757088123376298800,3.165298828125,-0.0075624999590218,0.0504624992609024,-0.0065999999642372,0.0414079986512661,-0.1586879938840866,-0.0266779996454715,0.0925889983773231,-9.418441772460938,-2.7302889823913574
1757088123385852200,3.17485205078125,-0.0086624994874,0.0577500015497207,-0.0065999999642372,0.0484980009496212,-0.1826090067625045,-0.0554899983108043,0.0910170003771781,-9.418575286865234,-2.729876041412353
1757088123395405300,3.1844052734375,-0.0086624994874,0.0566499978303909,-0.0053624999709427,0.0460119992494583,-0.1829459965229034,-0.0782660022377967,0.0894699990749359,-9.4187650680542,-2.7292659282684326
1757088123404958700,3.193958740234375,-0.0075624999590218,0.0431750006973743,-0.0053624999709427,0.0568940006196498,-0.2075690031051635,-0.1046700030565261,0.0878679975867271,-9.418987274169922,-2.7285470962524414
1757088123414512000,3.20351220703125,-0.0063249999657273,0.0272249989211559,-0.0053624999709427,0.0531900003552436,-0.2105199992656707,-0.0955990031361579,0.0861359983682632,-9.419219017028809,-2.727802038192749
1757088123424065300,3.213065185546875,-0.0026124999858438,0.0149875003844499,-0.0076999999582767,0.051851000636816,-0.2083590030670166,-0.0684849992394447,0.0842740014195442,-9.419468879699709,-2.727001905441284
1757088123433618400,3.222618408203125,-0.0001374999992549,0.0126499999314546,-0.0076999999582767,0.0640569999814033,-0.1775539964437484,-0.0602560006082057,0.0823780000209808,-9.419716835021973,-2.726213932037353
1757088123443172000,3.232172119140625,-0.0001374999992549,0.0149875003844499,-0.0076999999582767,0.073352999985218,-0.1535889953374862,-0.0316729992628097,0.0805929973721504,-9.419977188110352,-2.72537899017334
1757088123452725200,3.241725341796875,-0.0001374999992549,0.0199375003576278,-0.0053624999709427,0.0955820009112358,-0.1511610001325607,-0.0295069999992847,0.0791309997439384,-9.42023468017578,-2.7245380878448486
1757088123462278400,3.2512783203125,-0.0001374999992549,0.0248875003308057,-0.0016499999910593,0.1027840003371238,-0.1368730068206787,-0.0317739993333816,0.0780659988522529,-9.420462608337402,-2.7237870693206787
1757088123471831800,3.260831787109375,-0.0013749999925494,0.0224124994128942,0.0020624999888241,0.1024219989776611,-0.1513710021972656,-0.0410609990358352,0.0774179995059967,-9.42063331604004,-2.723221063613892
1757088123481385000,3.270385009765625,-0.0026124999858438,0.0174624994397163,0.0031624999828636,0.0815109983086586,-0.1446309983730316,-0.0612160004675388,0.0770699977874755,-9.420716285705566,-2.7229480743408203
1757088123490938400,3.2799384765625,-0.0013749999925494,0.0101749999448657,0.0031624999828636,0.0683899968862533,-0.1690230071544647,-0.0669689998030662,0.0769980028271675,-9.420698165893556,-2.723012924194336
1757088123500491500,3.289491455078125,0.0010999999940395,-0.0020624999888241,0.0031624999828636,0.0579419992864131,-0.1555690020322799,-0.0878920033574104,0.0772769972681999,-9.420560836791992,-2.723479986190796
1757088123510045000,3.299044921875,0.0034374999813735,-0.0155375003814697,0.0043999999761581,0.0453709997236728,-0.1681900024414062,-0.0713969990611076,0.0780330002307891,-9.420336723327637,-2.7242228984832764
1757088123519598000,3.30859814453125,0.004674999974668,-0.0240624994039535,0.0031624999828636,0.0356509983539581,-0.1755110025405883,-0.039886999875307,0.0792419984936714,-9.420108795166016,-2.724971055984497
1757088123529151700,3.31815185546875,0.004674999974668,-0.0191124994307756,0.0008249999955296,0.001981999957934,-0.1944019943475723,-0.0216419994831085,0.0806960016489029,-9.41991138458252,-2.7256059646606445
1757088123538705000,3.327704833984375,0.0034374999813735,-0.0130624994635581,-0.0065999999642372,-0.0108979996293783,-0.1915069967508316,-0.0089490003883838,0.0822750031948089,-9.419754028320312,-2.7260971069335938
1757088123548258000,3.337258056640625,0.002199999988079,-0.0142999999225139,-0.0076999999582767,-0.0026330000255256,-0.2078749984502792,-0.0222379993647336,0.0839959979057312,-9.419612884521484,-2.7265288829803467
1757088123557811200,3.346811279296875,0.002199999988079,-0.0155375003814697,-0.0065999999642372,-0.0017669999506324,-0.1835210025310516,-0.0140469996258616,0.0857900008559227,-9.419466018676758,-2.7269821166992188
1757088123567364600,3.356364501953125,-0.0001374999992549,-0.011824999935925,-0.0053624999709427,-0.0009689999860711,-0.1759539991617202,-0.0177359990775585,0.0875499993562698,-9.419321060180664,-2.727428913116455
1757088123576917800,3.365917724609375,-0.0026124999858438,-0.0008249999955296,-0.0041249999776482,-0.0271419994533061,-0.1923100054264068,-0.0262209996581077,0.0891769975423812,-9.419195175170898,-2.7278149127960205
1757088123586471200,3.37547119140625,-0.0001374999992549,0.0076999999582767,-0.0041249999776482,-0.0357969999313354,-0.2091400027275085,-0.0569810010492801,0.0906340032815933,-9.419082641601562,-2.728161096572876
1757088123596024600,3.385024658203125,0.002199999988079,0.0089375004172325,-0.0065999999642372,-0.0550119988620281,-0.2143850028514862,-0.0791890025138855,0.0917999967932701,-9.418981552124023,-2.728477954864502
1757088123605577700,3.39457763671875,0.0071499999612569,0.0138875003904104,-0.0101749999448657,-0.0591420009732246,-0.1793249994516372,-0.0856460034847259,0.092628002166748,-9.418865203857422,-2.728854894638061
1757088123615131100,3.404131103515625,0.0108624994754791,0.0224124994128942,-0.0163624994456768,-0.0464509986340999,-0.1659960001707077,-0.0866890028119087,0.0931140035390853,-9.418708801269531,-2.729382038116455
1757088123624684300,3.413684326171875,0.0131999999284744,0.02364999987185,-0.0175999999046325,-0.0207899995148181,-0.1475850045680999,-0.0576810017228126,0.0932860001921653,-9.418530464172363,-2.729990005493164
1757088123634237400,3.423237548828125,0.0131999999284744,0.0284624993801116,-0.0151249999180436,0.0055740000680089,-0.1285759955644607,-0.0140230003744363,0.0932030007243156,-9.418343544006348,-2.730633020401001
1757088123643790800,3.432790771484375,0.0120999999344348,0.0382249988615512,-0.0114124994724988,0.0235949996858835,-0.1422989964485168,0.029296999797225,0.0928519964218139,-9.418188095092772,-2.731178045272827
1757088123653344300,3.44234423828125,0.0096249999478459,0.0479874983429908,-0.0041249999776482,0.0515000000596046,-0.1700370013713836,0.0402209982275962,0.0923030003905296,-9.41808795928955,-2.731545925140381
1757088123662897400,3.4518974609375,0.0059124999679625,0.0479874983429908,0.0020624999888241,0.0569670014083385,-0.204812005162239,0.0338470004498958,0.0915829986333847,-9.418048858642578,-2.7316999435424805
1757088123672450600,3.461450439453125,0.0034374999813735,0.0431750006973743,0.006874999962747,0.041227001696825,-0.2064169943332672,0.007137999869883,0.0907239988446235,-9.418072700500488,-2.7316460609436035
1757088123682004000,3.47100390625,0.002199999988079,0.02364999987185,0.0081124994903802,0.0167210008949041,-0.2108660042285919,-0.0251739993691444,0.0897160023450851,-9.418135643005373,-2.731462001800537
1757088123691557000,3.48055712890625,0.0034374999813735,-0.0020624999888241,0.006874999962747,-0.0114890001714229,-0.1895779967308044,-0.0553879998624324,0.0885189995169639,-9.418231010437012,-2.731170892715454
1757088123701110800,3.49011083984375,0.004674999974668,-0.0288750007748603,0.0008249999955296,-0.0495619997382164,-0.1922149956226349,-0.0544699989259243,0.0870409980416297,-9.418347358703612,-2.7308199405670166
1757088123710664000,3.499663818359375,0.004674999974668,-0.0460624992847442,-0.0065999999642372,-0.0739820003509521,-0.2044579982757568,-0.0606009997427463,0.0852200016379356,-9.418456077575684,-2.73050308227539
1757088123720217000,3.509217041015625,0.0059124999679625,-0.0521125011146068,-0.0101749999448657,-0.0652249976992607,-0.2227790057659149,0.0060439999215304,0.0831929966807365,-9.418593406677246,-2.730091094970703
1757088123729770500,3.5187705078125,0.002199999988079,-0.0521125011146068,-0.0089375004172325,-0.0389880016446113,-0.2406940013170242,0.0209619998931884,0.0811259970068931,-9.418767929077148,-2.7295520305633545
1757088123739323600,3.52832373046875,-0.0013749999925494,-0.0485375002026557,-0.0053624999709427,-0.0302770007401704,-0.2272620052099228,0.0326990000903606,0.079035997390747,-9.41899585723877,-2.728826999664306
1757088123748877000,3.537876953125,-0.0038499999791383,-0.0448249988257885,-0.0004124999977648,-0.0223970003426074,-0.2260790020227432,0.0118519999086856,0.076954998075962,-9.41926097869873,-2.7279670238494877
1757088123758430200,3.54743017578125,-0.0075624999590218,-0.0375375002622604,0.0031624999828636,-0.0489990003407001,-0.1916639953851699,-0.0031870000530034,0.0748080015182495,-9.419553756713867,-2.727018117904663
1757088123767983600,3.556983642578125,-0.0075624999590218,-0.0252999998629093,0.0031624999828636,-0.078305996954441,-0.2059720009565353,-0.060759998857975,0.0725769996643066,-9.419829368591309,-2.7261300086975098
1757088123777536800,3.566536865234375,-0.0063249999657273,-0.0130624994635581,-0.0004124999977648,-0.1008040010929107,-0.1967999935150146,-0.0855730026960372,0.070201002061367,-9.420086860656738,-2.7252979278564453
1757088123787090200,3.576090087890625,-0.0038499999791383,0.0039874999783933,-0.0076999999582767,-0.1164129972457885,-0.1852509975433349,-0.0791859999299049,0.0676449984312057,-9.420345306396484,-2.724461078643799
1757088123796643300,3.585643310546875,-0.0026124999858438,0.0211750008165836,-0.0126499999314546,-0.0963649973273277,-0.1832309961318969,-0.0729890018701553,0.0649570003151893,-9.42063045501709,-2.723536968231201
1757088123806196700,3.59519677734375,-0.0026124999858438,0.0369874984025955,-0.0163624994456768,-0.0541100017726421,-0.178289994597435,-0.0375409983098506,0.0622269995510578,-9.42097282409668,-2.722403049468994
1757088123815750100,3.604750244140625,-0.0038499999791383,0.0479874983429908,-0.0126499999314546,0.0015330000314861,-0.1758459955453872,-0.0448659993708133,0.059553999453783,-9.421354293823242,-2.7211289405822754
1757088123825303300,3.61430322265625,-0.0038499999791383,0.0541750006377697,-0.0076999999582767,0.0605349987745285,-0.1757729947566986,-0.0427309982478618,0.0570459999144077,-9.421748161315918,-2.719813108444214
1757088123834856700,3.623856689453125,-0.0050874999724328,0.0566499978303909,-0.0016499999910593,0.0863490030169487,-0.1735479980707168,-0.0589400008320808,0.0547459982335567,-9.422101974487305,-2.718632936477661
1757088123844409900,3.633409912109375,-0.0013749999925494,0.0577500015497207,-0.0016499999910593,0.0700839981436729,-0.1835480034351349,-0.0718500018119812,0.0524999983608722,-9.422383308410645,-2.717698097229004
1757088123853963000,3.642962890625,-0.0013749999925494,0.0566499978303909,-0.0028874999843537,0.061583999544382,-0.1811680048704147,-0.0454710014164447,0.0502340011298656,-9.422607421875,-2.7169649600982666
1757088123863516700,3.6525166015625,-0.0001374999992549,0.0516999997198581,-0.0089375004172325,0.0743120014667511,-0.1763039976358413,-0.0361739993095397,0.0479810014367103,-9.422796249389648,-2.716355085372925
1757088123873069800,3.66206982421875,0.0010999999940395,0.0382249988615512,-0.0089375004172325,0.0927589982748031,-0.1949480026960373,-0.0116499997675418,0.0458550006151199,-9.42299461364746,-2.715714931488037
1757088123882623000,3.671623046875,-0.0001374999992549,0.0186999998986721,-0.0076999999582767,0.1162889972329139,-0.1559000015258789,0.0120479995384812,0.0440159998834133,-9.42324161529541,-2.71489691734314
1757088123892176400,3.68117626953125,-0.0026124999858438,-0.0020624999888241,-0.0053624999709427,0.1354939937591552,-0.1744749993085861,-0.0068379999138414,0.042663998901844,-9.423529624938965,-2.713926076889038
1757088123901729500,3.6907294921875,-0.0026124999858438,-0.0203499998897314,-0.0053624999709427,0.1079690009355545,-0.1905460059642791,-0.0045619998127222,0.0418270006775856,-9.423867225646973,-2.712778091430664
1757088123911283000,3.700282958984375,-0.0063249999657273,-0.0350624993443489,-0.0076999999582767,0.0886159986257553,-0.1944220066070556,0.0017350000562146,0.0414370000362396,-9.42420768737793,-2.7116050720214844
1757088123920836400,3.70983642578125,-0.0050874999724328,-0.0448249988257885,-0.0114124994724988,0.0750119984149932,-0.2633750140666961,-0.0431310012936592,0.0413639992475509,-9.42451000213623,-2.710555076599121
1757088123930389500,3.719389404296875,-0.0050874999724328,-0.0618750005960464,-0.0126499999314546,0.0618389993906021,-0.2607460021972656,-0.0584000013768672,0.0415459983050823,-9.42475128173828,-2.7097110748291016
1757088123939942700,3.728942626953125,-0.0026124999858438,-0.0790624991059303,-0.0126499999314546,0.0557300001382827,-0.2413010001182556,-0.0451419986784458,0.0419499985873699,-9.42494773864746,-2.7090160846710205
1757088123949496000,3.73849609375,-0.0013749999925494,-0.0875874981284141,-0.0138875003904104,0.0317410007119178,-0.1882410049438476,-0.0226089991629123,0.0425809994339942,-9.425118446350098,-2.708404064178467
1757088123959049500,3.748049560546875,-0.0026124999858438,-0.0826374962925911,-0.0199375003576278,-0.021849000826478,-0.2040829956531524,0.0029470000881701,0.0433499999344348,-9.425332069396973,-2.70763897895813
1757088123968602600,3.7576025390625,-0.0050874999724328,-0.0705375000834465,-0.0273624993860721,-0.0330310016870498,-0.2174530029296875,-0.0004649999900721,0.0442709997296333,-9.425615310668944,-2.706626892089844
1757088123978155800,3.76715576171875,-0.0063249999657273,-0.0570624992251396,-0.0296999998390674,-0.0068589998409152,-0.2283760011196136,-0.001691999961622,0.0454970002174377,-9.425973892211914,-2.7053539752960205
1757088123987709200,3.776709228515625,-0.0111375004053115,-0.0411125011742115,-0.0273624993860721,0.008988999761641,-0.2178740054368972,-0.0144800003618001,0.0470530018210411,-9.426397323608398,-2.703850030899048
1757088123997262300,3.786262451171875,-0.0123749999329447,-0.0277750007808208,-0.0273624993860721,0.0130070000886917,-0.2462929934263229,-0.0634329989552497,0.048845000565052,-9.426827430725098,-2.7023160457611084
1757088124006815700,3.795815673828125,-0.0148499999195337,-0.0105875004082918,-0.0273624993860721,0.0081660002470016,-0.1671099960803985,-0.0544020012021064,0.0506680011749267,-9.427264213562012,-2.700761079788208
1757088124016369000,3.805368896484375,-0.0148499999195337,0.0126499999314546,-0.0273624993860721,0.0177219994366168,-0.0961790010333061,-0.1014750003814697,0.0523299984633922,-9.427652359008787,-2.6993799209594727
1757088124035475500,3.824475341796875,-0.0160875003784894,0.0664125010371208,-0.0371249988675117,0.045389000326395,-0.1513459980487823,-0.1548700034618377,0.0548119992017746,-9.42829132080078,-2.697118043899536
1757088124045028900,3.83402880859375,-0.0136124994605779,0.0809874981641769,-0.0383624993264675,0.0827199965715408,-0.1292430013418197,-0.1675599962472915,0.05579100176692,-9.428492546081545,-2.696400880813598
1757088124054582000,3.84358203125,-0.0136124994605779,0.0956999957561492,-0.0406999997794628,0.1118159964680671,-0.1813659965991974,-0.1826730072498321,0.0566690005362033,-9.42859935760498,-2.696018934249878
1757088124064135400,3.853135498046875,-0.0136124994605779,0.1091749966144561,-0.0493624992668628,0.1201459988951683,-0.2742890119552612,-0.216617003083229,0.0573350004851818,-9.428583145141602,-2.696065902709961
1757088124073688600,3.8626884765625,-0.0148499999195337,0.115225002169609,-0.0504624992609024,0.1576430052518844,-0.244935005903244,-0.198511004447937,0.0577809996902942,-9.42844009399414,-2.696552038192749
1757088124083241700,3.87224169921875,-0.0123749999329447,0.115225002169609,-0.0468874983489513,0.2175579965114593,-0.2092339992523193,-0.2350690066814422,0.0581069998443126,-9.428138732910156,-2.6975910663604736
1757088124092795100,3.881795166015625,-0.0098999999463558,0.113987497985363,-0.039462499320507,0.2236540019512176,-0.1806170046329498,-0.2145700007677078,0.0584280006587505,-9.427679061889648,-2.6991820335388184
1757088124102348500,3.8913486328125,-0.0111375004053115,0.11769999563694,-0.0371249988675117,0.2224009931087494,-0.125229999423027,-0.1716589927673339,0.0588020011782646,-9.427067756652832,-2.7012860774993896
1757088124111901700,3.900901611328125,-0.0111375004053115,0.1249874979257583,-0.0383624993264675,0.1988950073719024,-0.0919499993324279,-0.196259006857872,0.0591930001974105,-9.426301956176758,-2.7039248943328857
1757088124121454800,3.910454833984375,-0.0098999999463558,0.1322750002145767,-0.0431750006973743,0.1864009946584701,-0.1017670035362243,-0.1969210058450698,0.0595490001142025,-9.425390243530272,-2.70705509185791
1757088124131008300,3.92000830078125,-0.0098999999463558,0.1372250020503997,-0.0516999997198581,0.1777990013360977,-0.1257379949092865,-0.1911219954490661,0.0597900003194808,-9.424345016479492,-2.7106499671936035
1757088124140561400,3.9295615234375,-0.0086624994874,0.1347499936819076,-0.0603624992072582,0.1636620014905929,-0.1617379933595657,-0.204256996512413,0.0598980002105236,-9.42315673828125,-2.714735984802246
1757088124150114800,3.93911474609375,-0.0063249999657273,0.1237500011920929,-0.0664125010371208,0.179977998137474,-0.178630992770195,-0.2076980024576187,0.0601020008325576,-9.421795845031738,-2.7194080352783203
1757088124159668200,3.948668212890625,-0.0063249999657273,0.1091749966144561,-0.0712250024080276,0.1841530054807663,-0.2022850066423416,-0.1886460036039352,0.0604959987103939,-9.420278549194336,-2.7246038913726807
1757088124169221400,3.958221435546875,-0.0026124999858438,0.0884125009179115,-0.0749375000596046,0.1878229975700378,-0.175706997513771,-0.1766519993543625,0.0610570013523101,-9.41860294342041,-2.7303409576416016
1757088124178774500,3.9677744140625,-0.0001374999992549,0.0724624991416931,-0.0811249986290931,0.1642850041389465,-0.182339996099472,-0.1560920029878616,0.0616730004549026,-9.416787147521973,-2.736548900604248
1757088124188328000,3.977327880859375,-0.0013749999925494,0.0664125010371208,-0.089649997651577,0.1539890021085739,-0.2122700065374374,-0.1280999928712844,0.0622849985957145,-9.414896965026855,-2.7430129051208496
1757088124197881000,3.986881103515625,-0.0026124999858438,0.0699874982237815,-0.1006499975919723,0.1317970007658004,-0.229773998260498,-0.1087469980120658,0.0628079995512962,-9.41296100616455,-2.7496330738067627
1757088124207434500,3.9964345703125,-0.0013749999925494,0.0712250024080276,-0.1128875017166137,0.1029559969902038,-0.2642250061035156,-0.1294299960136413,0.0630950033664703,-9.411023139953612,-2.756256103515625
1757088124216988000,4.00598779296875,-0.0013749999925494,0.0712250024080276,-0.1274625062942505,0.0860859975218772,-0.2911179959774017,-0.1154029965400695,0.0630579963326454,-9.409110069274902,-2.7627980709075928
1757088124226541000,4.015541015625,-0.0050874999724328,0.0749375000596046,-0.1421750038862228,0.0489509999752044,-0.334179013967514,-0.0985490009188652,0.0625210031867027,-9.407271385192873,-2.7690858840942383
1757088124236094500,4.025094482421875,-0.0086624994874,0.0871749967336654,-0.1592250019311905,0.0383340008556842,-0.3720439970493316,-0.0902839973568916,0.061268001794815,-9.405546188354492,-2.7749838829040527
1757088124245647600,4.034647705078125,-0.0173249989748001,0.1042250022292137,-0.1824624985456466,-0.01668700017035,-0.3880189955234527,-0.0880059972405433,0.0589540004730224,-9.403952598571776,-2.7804360389709477
1757088124255201000,4.044200927734375,-0.0246124994009733,0.1299374997615814,-0.2032250016927719,-0.0322390012443065,-0.3779639899730682,-0.113646000623703,0.0554400011897087,-9.402480125427246,-2.7854650020599365
1757088124264754200,4.053754150390625,-0.0318999998271465,0.1629374921321869,-0.2239875048398971,-0.0170789994299411,-0.3606570065021515,-0.1134219989180564,0.0505289994180202,-9.401124954223633,-2.790079116821289
1757088124274307300,4.063307373046875,-0.0368499979376792,0.2044624984264373,-0.2411749958992004,0.0021100000012665,-0.3104070127010345,-0.137935996055603,0.0439429990947246,-9.399896621704102,-2.794217109680176
1757088124283860500,4.072860595703125,-0.0368499979376792,0.2495625019073486,-0.2594625055789947,0.0160319991409778,-0.2391410022974014,-0.1562349945306778,0.0355280004441738,-9.398765563964844,-2.7979719638824463
1757088124293414000,4.082413818359375,-0.0318999998271465,0.2923249900341034,-0.28022500872612,0.0389709994196891,-0.161421000957489,-0.1629520058631897,0.025187000632286,-9.39767360687256,-2.80151891708374
1757088124302967300,4.09196728515625,-0.0221375003457069,0.3363249897956848,-0.3022249937057495,0.0750690028071403,-0.1200539991259574,-0.1543010026216507,0.0129420002922415,-9.396629333496094,-2.804814100265503
1757088124312520700,4.101520751953125,-0.0208999998867511,0.3876124918460846,-0.3254624903202057,0.1284089982509613,-0.0800879970192909,-0.0751719996333122,-0.0011569999624043,-9.39567756652832,-2.8076701164245605
1757088124322073900,4.111073974609375,-0.0246124994009733,0.4511374831199646,-0.3497999906539917,0.1984259933233261,-0.0394399985671043,-0.0250620003789663,-0.0170329995453357,-9.394845008850098,-2.809987068176269
1757088124331627000,4.120626953125,-0.0246124994009733,0.5293750166893005,-0.3682250082492828,0.3472110033035278,-0.0451369993388652,-0.0845530033111572,-0.034350998699665,-9.394089698791504,-2.8119020462036133
1757088124341180700,4.1301806640625,-0.025849999859929,0.6111875176429749,-0.3792249858379364,0.4975259900093078,-0.0564510002732276,-0.1505790054798126,-0.052861999720335,-9.3933744430542,-2.813560962677002
1757088124350733600,4.139733642578125,-0.0306624993681907,0.6881874799728394,-0.3852750062942505,0.6240339875221252,-0.1254139989614486,-0.2036740034818649,-0.072342000901699,-9.39266872406006,-2.8150839805603027
1757088124360287000,4.149286865234375,-0.038087498396635,0.7591375112533569,-0.3902249932289123,0.7210429906845093,-0.1701660007238388,-0.2239090055227279,-0.0926579982042312,-9.391987800598145,-2.816431999206543
1757088124369840400,4.15884033203125,-0.0416624993085861,0.8177124857902527,-0.3925625085830688,0.7849389910697937,-0.1031130030751228,-0.2607400119304657,-0.1136350035667419,-9.391280174255373,-2.8177831172943115
1757088124379393500,4.1683935546875,-0.0393249988555908,0.8629499673843384,-0.396274983882904,0.81495201587677,0.0176079999655485,-0.3049629926681518,-0.1351899951696396,-9.390443801879885,-2.819474935531616
1757088124388947200,4.177947265625,-0.0283249989151954,0.8959500193595886,-0.4023250043392181,0.8333230018615723,0.1311060041189193,-0.3940159976482391,-0.1572179943323135,-9.389333724975586,-2.821971893310547
1757088124398500000,4.1875,-0.0246124994009733,0.9105250239372252,-0.4170374870300293,0.7733650207519531,0.1587599962949752,-0.3438960015773773,-0.1798440068960189,-9.38797664642334,-2.8251349925994877
1757088124408053200,4.19705322265625,-0.0196624994277954,0.903237521648407,-0.4402749836444855,0.7119439840316772,0.2407590001821518,-0.333184003829956,-0.2032359987497329,-9.386319160461426,-2.8290910720825195
1757088124417606700,4.206606689453125,-0.0136124994605779,0.8690000176429749,-0.4817999899387359,0.5441529750823975,0.3669109940528869,-0.3157669901847839,-0.2278759926557541,-9.384262084960938,-2.8340320587158203
1757088124427160000,4.21616015625,-0.0026124999858438,0.8629499673843384,-0.5380374789237976,0.4138259887695312,0.4228309988975525,-0.2772069871425628,-0.2543129920959472,-9.381746292114258,-2.840009927749634
1757088124436713200,4.225713134765625,0.0169124994426965,0.8885250091552734,-0.6137999892234802,0.2901790142059326,0.5788339972496033,-0.286421000957489,-0.2830640077590942,-9.37861156463623,-2.847327947616577
1757088124446266400,4.235266357421875,0.0438624992966651,0.9325249791145324,-0.7126625180244446,0.1017030030488967,0.7325670123100281,-0.2069479972124099,-0.3151409924030304,-9.374759674072266,-2.8559510707855225
1757088124455819800,4.24481982421875,0.1049124971032142,1.038812518119812,-0.8311874866485596,-0.0381180010735988,0.8880079984664917,-0.3376219868659973,-0.3516789972782135,-9.369793891906738,-2.8666489124298096
1757088124465373000,4.254373046875,0.1097249984741211,1.1402875185012815,-0.9789999723434448,-0.2666389942169189,0.8594949841499329,0.0156759992241859,-0.3942680060863495,-9.363883018493652,-2.878159999847412
1757088124474926300,4.26392626953125,0.1403875052928924,1.2770999670028689,-1.1780999898910522,-0.6593040227890015,0.8609099984169006,-0.0139739997684955,-0.4452590048313141,-9.356634140014648,-2.890420913696289
1757088124484479700,4.273479736328125,0.1744875013828277,1.3576749563217163,-1.4396250247955322,-1.0161139965057373,0.6990180015563965,0.0864399969577789,-0.5069509744644165,-9.347700119018556,-2.90277099609375
1757088124494033000,4.283032958984375,0.2380124926567077,1.4151500463485718,-1.720537543296814,-1.1215020418167114,0.5371310114860535,0.0588870011270046,-0.580843985080719,-9.336503982543944,-2.915107011795044
1757088124503586300,4.29258642578125,0.2869625091552734,1.2025749683380127,-1.9540125131607056,-0.9523159861564636,0.305851012468338,0.289095014333725,-0.6669930219650269,-9.322760581970217,-2.926975011825561
1757088124513139500,4.302139404296875,0.3297249972820282,0.5135625004768372,-2.041874885559082,-0.5558810234069824,-0.1613570004701614,0.549422025680542,-0.7632380127906799,-9.306608200073242,-2.938220977783203
1757088124522692600,4.311692626953125,0.3577750027179718,-0.0826374962925911,-2.0076375007629395,0.3797740042209625,-0.4588469862937927,0.8002520203590393,-0.8659049868583679,-9.288795471191406,-2.948702096939087
1757088124532246000,4.32124609375,0.2807750105857849,-0.254925012588501,-1.967350006103516,0.6130409836769104,-0.5327939987182617,1.6904079914093018,-0.9742760062217712,-9.27036476135254,-2.955635070800781
1757088124541799200,4.330799072265625,0.1391499936580658,-0.1438249945640564,-2.013824939727783,-0.0554060004651546,-0.6287339925765991,2.26782488822937,-1.090904951095581,-9.251304626464844,-2.9565019607543945
1757088124551352600,4.3403525390625,0.0571999996900558,-0.0398750007152557,-2.1151623725891118,-0.6775760054588318,-0.756667971611023,1.630627989768982,-1.217903971672058,-9.23036003112793,-2.952500104904175
1757088124560906000,4.349906005859375,0.0376750007271766,-0.0912999957799911,-2.15435004234314,-0.0964960008859634,-0.6710109710693359,0.834758996963501,-1.353762984275818,-9.207112312316896,-2.945741891860962
1757088124570459100,4.359459228515625,0.0536249987781047,-0.1498750001192093,-2.144587516784668,0.4843260049819946,-0.1955710053443908,0.0396750010550022,-1.4969300031661987,-9.181129455566406,-2.938791990280152
1757088124580012300,4.36901220703125,0.0987249985337257,-0.357637494802475,-2.0553500652313232,1.157623052597046,0.3280079960823059,-0.7799339890480042,-1.6449509859085083,-9.152186393737791,-2.934818983078003
1757088124589565700,4.378565673828125,0.1929125040769577,-0.4944500029087066,-1.9943000078201292,0.7797409892082214,0.5411940217018127,-1.7095619440078735,-1.7980250120162964,-9.118874549865724,-2.937166929244995
1757088124599118800,4.388118896484375,0.2649624943733215,-0.4345000088214874,-1.9685875177383425,0.3049499988555908,0.5809820294380188,-2.0844900608062744,-1.95688796043396,-9.080219268798828,-2.946690082550049
1757088124608672000,4.397672119140625,0.3199625015258789,-0.2073500007390976,-2.008874893188477,-0.4257540106773376,0.4562700092792511,-2.050616979598999,-2.1229209899902344,-9.035364151000977,-2.962423086166382
1757088124618225700,4.4072255859375,0.4175874888896942,0.0419375002384185,-2.038300037384033,-0.588703989982605,0.0401900000870227,-2.495069026947021,-2.2946250438690186,-8.986543655395508,-2.978785991668701
1757088124627778800,4.41677880859375,0.4054875075817108,0.1640374958515167,-1.997874975204468,-0.1350249946117401,-0.3844529986381531,-1.7340949773788452,-2.471132040023804,-8.933829307556152,-2.9952309131622314
1757088124637332000,4.42633203125,0.3529624938964844,0.3656125068664551,-1.9820624589920044,-0.1983789950609207,-0.3617610037326813,-0.6463239789009094,-2.651741981506348,-8.876599311828613,-3.0124080181121826
1757088124646885400,4.435885498046875,0.2331999987363815,0.4292750060558319,-1.8904874324798584,0.7331470251083374,-0.7346410155296326,0.9494659900665284,-2.8328850269317627,-8.81821346282959,-3.02480697631836
1757088124656438500,4.4454384765625,0.0841500014066696,0.4683249890804291,-1.7804875373840332,0.757752001285553,-1.503844976425171,1.9012030363082888,-3.0120790004730225,-8.760261535644531,-3.0300159454345703
1757088124665991700,4.45499169921875,-0.0331375002861022,0.5135625004768372,-1.628962516784668,0.7664719820022583,-1.6584420204162598,2.152070999145508,-3.186202049255371,-8.703848838806152,-3.0267438888549805
1757088124675545000,4.464545166015625,-0.158950001001358,0.4853749871253967,-1.4774374961853027,0.6797590255737305,-1.7135319709777832,2.504455089569092,-3.3524019718170166,-8.64990234375,-3.0141639709472656
1757088124685098500,4.474098388671875,-0.2849000096321106,0.5721374750137329,-1.313812494277954,0.7726349830627441,-1.6561989784240725,2.737060070037842,-3.5084030628204346,-8.599614143371582,-2.991007089614868
1757088124694651600,4.483651611328125,-0.3630000054836273,0.6576625108718872,-1.2282874584197998,0.2852550148963928,-1.3330949544906616,2.769305944442749,-3.655158042907715,-8.55250358581543,-2.9572339057922363
1757088124704204800,4.493204833984375,-0.3202374875545501,0.6736124753952026,-1.2600499391555786,-0.1229360029101371,-0.8676530122756958,1.7878270149230957,-3.795921087265015,-8.506653785705566,-2.915839910507202
1757088124713758200,4.50275830078125,-0.2567124962806701,0.4426124989986419,-1.4066250324249268,-0.4565039873123169,-0.5625219941139221,1.511023998260498,-3.9358339309692383,-8.459929466247559,-2.8684170246124268
1757088124723311400,4.512311279296875,-0.2261874973773956,0.1347499936819076,-1.6106749773025513,-0.5009520053863525,-0.1651010066270828,1.5731240510940552,-4.076944828033447,-8.410195350646973,-2.81837797164917
1757088124732864800,4.52186474609375,-0.1639000028371811,-0.0203499998897314,-1.818300008773804,-0.3052560091018677,0.1141439974308013,1.0053479671478271,-4.217328071594238,-8.356355667114258,-2.770577907562256
1757088124742418000,4.53141796875,-0.158950001001358,-0.0301124993711709,-1.966112494468689,0.2742129862308502,0.4038470089435577,0.5831599831581116,-4.354582786560059,-8.299337387084961,-2.7253870964050293
1757088124751971000,4.54097119140625,-0.158950001001358,-0.1181124970316886,-2.0468249320983887,0.6371709704399109,0.8245030045509338,0.0893450006842613,-4.489791870117188,-8.239315032958984,-2.682369947433472
1757088124761524500,4.5505244140625,-0.1369500011205673,-0.2646875083446502,-2.060299873352051,0.759335994720459,1.2722519636154177,-0.6050459742546082,-4.62433385848999,-8.176591873168945,-2.639240026473999
1757088124771078000,4.560077880859375,-0.116187497973442,-0.3783999979496002,-2.024825096130371,0.3000650107860565,1.6518189907073977,-1.1137609481811523,-4.760310173034668,-8.111454963684082,-2.592859983444214
1757088124780631000,4.569631103515625,-0.0979000031948089,-0.3673999905586242,-1.930775046348572,-0.2352260053157806,1.8478749990463257,-1.444012999534607,-4.899907112121582,-8.041391372680664,-2.5454421043396
1757088124790184200,4.57918408203125,-0.0808499976992607,-0.2316875010728836,-1.7597249746322632,-0.2096419930458068,1.7925339937210083,-1.6801209449768066,-5.0410590171813965,-7.967648983001709,-2.496345996856689
1757088124799737600,4.588737548828125,-0.0686125010251998,-0.0167750008404254,-1.5654374361038208,-0.0864270031452179,1.3671870231628418,-1.6378840208053589,-5.1801347732543945,-7.8924031257629395,-2.4453930854797363
1757088124809290800,4.598290771484375,-0.0600874982774257,0.1982749998569488,-1.400575041770935,-0.2133460044860839,0.8703190088272095,-1.527938961982727,-5.316940784454346,-7.814554214477539,-2.3966619968414307
1757088124818844400,4.607844482421875,-0.0893749967217445,0.3290374875068664,-1.267337441444397,-0.0520199984312057,0.3453739881515503,-0.9511160254478456,-5.450382232666016,-7.735880851745605,-2.348059892654419
1757088124828397300,4.617397216796875,-0.127187505364418,0.4573250114917755,-1.1952874660491943,-0.0538370013236999,-0.0387249998748302,-0.5267750024795532,-5.579477787017822,-7.658175945281982,-2.296933889389038
1757088124837950700,4.62695068359375,-0.1601874977350235,0.5819000005722046,-1.196524977684021,0.0475950017571449,-0.1736250072717666,0.022741999477148,-5.706575870513916,-7.579083919525146,-2.245929002761841
1757088124847504000,4.63650390625,-0.1651374995708465,0.5758500099182129,-1.2318625450134275,0.3993090093135834,-0.1483799964189529,0.3458310067653656,-5.832190990447998,-7.497332096099853,-2.197849035263061
1757088124857057300,4.646057373046875,-0.1406625062227249,0.4230875074863434,-1.3076249361038208,0.5362610220909119,0.0319930016994476,0.4948650002479553,-5.957155227661133,-7.41185998916626,-2.154254913330078
1757088124866610400,4.6556103515625,-0.116187497973442,0.2410375028848648,-1.428624987602234,0.1001729965209961,0.3418950140476227,0.7649369835853577,-6.0833258628845215,-7.320454120635986,-2.1163620948791504
1757088124876163800,4.665163818359375,-0.0808499976992607,0.1237500011920929,-1.4774374961853027,0.069752998650074,0.6295679807662964,0.9379130005836488,-6.211950778961182,-7.221650123596191,-2.0855441093444824
1757088124885717000,4.674717041015625,-0.0478499978780746,0.1079374998807907,-1.4530999660491943,0.5013840198516846,0.4580810070037842,1.0909169912338257,-6.341034889221191,-7.117153167724609,-2.0622000694274902
1757088124895270100,4.684270263671875,-0.0306624993681907,0.0981749966740608,-1.4421000480651855,0.66771399974823,0.1651930063962936,1.0533920526504517,-6.468677043914795,-7.00945520401001,-2.0437939167022705
1757088124904823600,4.693823486328125,-0.0538999997079372,0.0589874982833862,-1.471387505531311,0.726934015750885,0.1832939982414245,0.7159759998321533,-6.59345293045044,-6.89973783493042,-2.029900074005127
1757088124914376700,4.703376708984375,-0.0893749967217445,-0.0105875004082918,-1.5043874979019165,0.7507500052452087,0.5476559996604919,0.1772989928722381,-6.714578151702881,-6.788008213043213,-2.021761894226074
1757088124923930000,4.71293017578125,-0.1051874980330467,-0.0375375002622604,-1.5178624391555786,0.588886022567749,0.9279890060424804,-0.4791199862957001,-6.832071781158447,-6.673909187316895,-2.019247055053711
1757088124933483300,4.722483154296875,-0.0404249988496303,-0.0155375003814697,-1.5031499862670898,0.2511259913444519,1.175495982170105,-1.2700899839401243,-6.946560859680176,-6.556385040283203,-2.0231940746307373
1757088124943036700,4.73203662109375,0.0181499999016523,0.0406999997794628,-1.4616249799728394,0.0743269994854927,1.279708981513977,-1.1430360078811646,-7.058722972869873,-6.435247898101807,-2.031249046325684
1757088124952589800,4.74158984375,0.1171500012278556,0.0956999957561492,-1.4273874759674072,0.1636299937963485,1.449341058731079,-1.184736967086792,-7.168644905090332,-6.310260772705078,-2.0432069301605225
1757088124962143200,4.751143310546875,0.2039124965667724,0.0919874981045723,-1.4126750230789185,0.3285619914531708,1.2941720485687256,-1.0447319746017456,-7.276136875152588,-6.181882858276367,-2.058510065078736
1757088124971696400,4.7606962890625,0.2612499892711639,0.0321750007569789,-1.424912452697754,0.1689250022172927,1.183732986450195,-0.5907419919967651,-7.3785881996154785,-6.053981781005859,-2.0705270767211914
1757088124981249500,4.77024951171875,0.3212000131607055,0.0284624993801116,-1.4396250247955322,-0.0294070001691579,0.6374509930610657,-0.46772301197052,-7.476428031921387,-5.927271842956543,-2.0783519744873047
1757088124990803000,4.779802978515625,0.3297249972820282,0.0602249987423419,-1.4115749597549438,0.1033779978752136,0.1922399997711181,0.1285859942436218,-7.570795059204102,-5.801962852478027,-2.0810799598693848
1757088125000356400,4.7893564453125,0.2942500114440918,0.1677500009536743,-1.366337537765503,0.2512440085411072,-0.451772004365921,0.7605760097503662,-7.662141799926758,-5.679113864898682,-2.077707052230835
1757088125009909500,4.798909423828125,0.2527250051498413,0.269225001335144,-1.305287480354309,0.6903719902038574,-0.72502601146698,0.7390559911727905,-7.750858783721924,-5.558554172515869,-2.070275068283081
1757088125019463000,4.808462890625,0.2149125039577484,0.3180375099182129,-1.2575750350952148,0.8240969777107239,-0.5628160238265991,0.6333810091018677,-7.837374210357666,-5.439211845397949,-2.0608839988708496
1757088125029016000,4.81801611328125,0.195250004529953,0.332749992609024,-1.2465749979019165,0.528901994228363,-0.7648919820785522,0.2298280000686645,-7.92141580581665,-5.320460796356201,-2.052562952041626
1757088125038569200,4.8275693359375,0.1879625022411346,0.3302749991416931,-1.2515250444412231,0.3240160048007965,-0.6140140295028687,-0.1621900051832199,-8.00336742401123,-5.201048851013184,-2.047153949737549
1757088125048122600,4.83712255859375,0.1819124966859817,0.3290374875068664,-1.284387469291687,0.0274899993091821,-0.3629499971866607,-0.0506989993155002,-8.083637237548828,-5.080263137817383,-2.043937921524048
1757088125057675800,4.84667578125,0.1024374961853027,0.359562486410141,-1.284387469291687,0.3324379920959472,0.3542569875717163,0.8581429719924927,-8.161931037902832,-4.958532810211182,-2.0403380393981934
1757088125067229000,4.85622900390625,0.1146750003099441,0.2985124886035919,-1.2820500135421753,0.4200429916381836,0.3238250017166137,0.3084630072116852,-8.23714828491211,-4.836700916290283,-2.0383150577545166
1757088125076782300,4.8657822265625,0.1159124970436096,0.2997500002384186,-1.2515250444412231,0.4863060116767883,-0.209999993443489,-0.042298998683691,-8.309300422668457,-4.715305805206299,-2.0391170978546143
1757088125086335700,4.875335693359375,0.1269125044345855,0.3363249897956848,-1.205049991607666,-0.0038459999486804,-0.3135530054569244,-0.2807680070400238,-8.379156112670898,-4.593441963195801,-2.042802095413208
1757088125095889000,4.884888916015625,0.0889625027775764,0.3840374946594238,-1.1440000534057615,-0.0126799996942281,-0.5165960192680359,0.0805329978466034,-8.446805000305176,-4.47225284576416,-2.0468239784240723
1757088125105442000,4.894442138671875,0.0511500015854835,0.4718999862670898,-1.0987625122070312,0.1232979968190193,-0.5999760031700134,0.0949570015072822,-8.511802673339844,-4.353457927703857,-2.0486929416656494
1757088125114995200,4.9039951171875,0.0071499999612569,0.4743750095367431,-1.117050051689148,-0.0584650002419948,-0.431988000869751,-0.0753609985113143,-8.573888778686523,-4.2378129959106445,-2.046494007110596
1757088125124548600,4.913548583984375,0.0059124999679625,0.4598000049591064,-1.135337471961975,-0.0563649982213974,-0.8046119809150696,-0.6335480213165283,-8.632257461547852,-4.127435207366943,-2.039413928985596
1757088125134101800,4.923101806640625,0.0059124999679625,0.4413749873638153,-1.1452374458312988,-0.1023920029401779,-0.5410850048065186,-0.6089810132980347,-8.686990737915039,-4.022028923034668,-2.028048038482666
1757088125143655200,4.9326552734375,0.002199999988079,0.4145624935626983,-1.1330000162124634,0.0765779986977577,-0.4720200002193451,-0.3953500092029571,-8.73818588256836,-3.922130107879639,-2.0117299556732178
1757088125153208600,4.94220849609375,-0.0075624999590218,0.4390375018119812,-1.0938124656677246,0.1305720061063766,-0.2850649952888489,-0.0770459994673729,-8.786587715148926,-3.827126026153565,-1.989603042602539
1757088125162761500,4.951761474609375,-0.0098999999463558,0.4182749986648559,-1.0707124471664429,-0.0742850005626678,-0.3687840104103088,-0.1728100031614303,-8.832009315490723,-3.737169981002808,-1.9630919694900515
1757088125172315100,4.961315185546875,0.0279124993830919,0.4108499884605407,-1.0707124471664429,-0.1575679928064346,-1.016731023788452,-0.6684830188751221,-8.8743257522583,-3.652785062789917,-1.9341390132904053
1757088125181868300,4.970868408203125,0.0364375002682209,0.3790875077247619,-1.0938124656677246,-0.1396870017051696,-0.8341950178146362,-0.3266200125217438,-8.9142484664917,-3.5720129013061523,-1.9039570093154907
1757088125191421400,4.98042138671875,0.0340999998152256,0.368087500333786,-1.12681245803833,-0.3049699962139129,-0.5540390014648438,-0.0186550002545118,-8.952759742736816,-3.491719007492065,-1.8742129802703855
1757088125200974800,4.989974853515625,0.0426249988377094,0.3583250045776367,-1.1500500440597534,-0.4531489908695221,-0.4884639978408813,-0.1419419944286346,-8.990635871887207,-3.4099299907684326,-1.845605969429016
1757088125210528000,4.999528076171875,0.0584375001490116,0.3803249895572662,-1.1562374830245972,-0.3958190083503723,-0.4035559892654419,-0.2210340052843094,-9.027924537658691,-3.3264319896698,-1.8182090520858765
1757088125220081200,5.0090810546875,0.0646250024437904,0.4108499884605407,-1.1415250301361084,-0.1756670027971267,-0.3521789908409118,-0.0427550002932548,-9.064885139465332,-3.2413599491119385,-1.790573000907898
1757088125229634600,5.018634521484375,0.0559624992311,0.4328500032424927,-1.1255749464035034,-0.0353659987449646,-0.233814999461174,0.1654530018568039,-9.1015043258667,-3.1553800106048584,-1.760985016822815
1757088125239188000,5.02818798828125,-0.0185624994337558,0.4621374905109405,-1.1109999418258667,-0.1276389956474304,0.7589799761772156,1.171368956565857,-9.138280868530272,-3.066862106323242,-1.7266759872436523
1757088125248740900,5.037740966796875,-0.0246124994009733,0.4426124989986419,-1.0889999866485596,-0.1148649975657463,0.212801992893219,0.147024005651474,-9.173139572143556,-2.978622913360596,-1.6935149431228638
1757088125258294300,5.047294189453125,-0.0185624994337558,0.5318499803543091,-1.0327625274658203,-0.069921001791954,-0.5827670097351074,-0.4338780045509338,-9.205865859985352,-2.893188953399658,-1.6607069969177246
1757088125267847700,5.05684765625,-0.0466125011444091,0.645425021648407,-0.947237491607666,-0.4903729856014251,0.2141759991645813,0.1043390035629272,-9.238078117370604,-2.807013988494873,-1.6250619888305664
1757088125277400800,5.06640087890625,-0.0808499976992607,0.7211874723434448,-0.8471375107765198,-0.328929990530014,0.5396919846534729,0.4277690052986145,-9.269948959350586,-2.7199060916900635,-1.5850679874420166
1757088125286954000,5.0759541015625,-0.1113749966025352,0.737137496471405,-0.7786625027656555,-0.7029250264167786,0.4868080019950866,0.3431229889392853,-9.301401138305664,-2.631326913833618,-1.5421710014343262
1757088125296507400,5.08550732421875,-0.147949993610382,0.7174749970436096,-0.72861248254776,-0.8864870071411133,0.1953440010547638,0.3044300079345703,-9.332315444946287,-2.541682004928589,-1.4969780445098877
1757088125306060500,5.095060546875,-0.1993750035762787,0.6784250140190125,-0.6931374669075012,-0.7262470126152039,0.1055240035057067,0.3733470141887665,-9.362375259399414,-2.452194929122925,-1.449141025543213
1757088125315614000,5.104614013671875,-0.2432374954223632,0.6589000225067139,-0.6576625108718872,-0.3605549931526184,0.1240409985184669,0.3139989972114563,-9.392059326171877,-2.362392902374268,-1.3973950147628784
1757088125325167000,5.1141669921875,-0.281187504529953,0.6271374821662903,-0.6491374969482422,-0.1525160074234008,0.1437959969043731,0.2542450129985809,-9.421037673950195,-2.273092031478882,-1.3420310020446775
1757088125334720300,5.12372021484375,-0.3422375023365021,0.4060375094413757,-0.7664250135421753,-0.9217259883880616,0.2379540055990219,0.7107610106468201,-9.449416160583496,-2.1831300258636475,-1.2831289768218994
1757088125344273700,5.133273681640625,-0.3642374873161316,0.2825624942779541,-0.8263750076293945,-0.7250699996948242,-0.0198470000177621,0.610526978969574,-9.476786613464355,-2.0931971073150635,-1.2225749492645264
1757088125353826800,5.142826904296875,-0.3947624862194061,0.2997500002384186,-0.7836124897003174,0.0149090001359581,-0.4012700021266937,0.5952020287513733,-9.503034591674805,-2.0047800540924072,-1.1600559949874878
1757088125363380000,5.1523798828125,-0.4412375092506408,0.3155624866485595,-0.7078499794006348,0.1570789963006973,-0.4367220103740692,0.7366899847984314,-9.528823852539062,-1.9169399738311768,-1.0937210321426392
1757088125372933600,5.16193359375,-0.464475005865097,0.3705624938011169,-0.6125624775886536,0.1967020034790039,-0.0167389996349811,0.3413169980049133,-9.553903579711914,-1.829357981681824,-1.0252410173416138
1757088125382486800,5.17148681640625,-0.4485250115394592,0.4303750097751617,-0.5282750129699707,-0.0938149988651275,0.4191119968891144,-0.4363040030002594,-9.577868461608888,-1.7420209646224976,-0.9575499892234802
1757088125392040000,5.1810400390625,-0.4204750061035156,0.4756124913692474,-0.4427500069141388,-0.3461959958076477,0.7023950219154358,-0.743520975112915,-9.60069465637207,-1.6549129486083984,-0.8909580111503601
1757088125401593300,5.19059326171875,-0.3679499924182892,0.5086125135421753,-0.3792249858379364,-0.9547119736671448,0.9384340047836304,-1.0622700452804563,-9.6221923828125,-1.57081401348114,-0.8231580257415771
1757088125411146500,5.200146484375,-0.3019500076770782,0.5391374826431274,-0.2899875044822693,-1.1356960535049438,0.9717820286750792,-1.4670339822769165,-9.64230728149414,-1.490002989768982,-0.7545779943466187
1757088125420699600,5.20969970703125,-0.2529999911785126,0.48785001039505,-0.2069374918937683,-1.0831019878387451,0.7492939829826355,-1.0285630226135254,-9.660911560058594,-1.412979006767273,-0.6861379742622375
1757088125430253000,5.219253173828125,-0.2079000025987625,0.5013250112533569,-0.1372250020503997,-1.0289069414138794,0.4254029989242553,-0.7489830255508423,-9.676902770996094,-1.3427879810333252,-0.6210060119628906
1757088125439806500,5.228806396484375,-0.1687124967575073,0.4658499956130981,-0.0956999957561492,-1.0231740474700928,0.0885210037231445,-0.3125419914722442,-9.691225051879885,-1.278033971786499,-0.5562469959259033
1757088125449359400,5.238359375,-0.1211374998092651,0.4218499958515167,-0.082225002348423,-1.0105600357055664,-0.2040790021419525,-0.1637170016765594,-9.7046480178833,-1.2162810564041138,-0.4908640086650848
1757088125458913000,5.2479130859375,-0.0661375001072883,0.3143250048160553,-0.090887501835823,-0.974045991897583,-0.3346909880638122,0.000358999997843,-9.716498374938965,-1.1595070362091064,-0.427603006362915
1757088125468466200,5.257466064453125,-0.0098999999463558,0.2019875049591064,-0.1104125007987022,-0.9202029705047609,-0.5108699798583984,0.0996550023555755,-9.72655963897705,-1.1091339588165283,-0.3679809868335724
1757088125478019300,5.267019287109375,0.0351999998092651,0.0834624990820884,-0.1249874979257583,-0.8594650030136108,-0.5881100296974182,0.2120430022478103,-9.735013961791992,-1.064965009689331,-0.3122240006923675
1757088125487572500,5.276572509765625,0.0877249985933303,-0.0240624994039535,-0.1079374998807907,-0.821744978427887,-0.3712309896945953,0.1769870072603225,-9.742201805114746,-1.0255030393600464,-0.2608389854431152
1757088125497126000,5.2861259765625,0.1451999992132187,-0.0595375001430511,-0.0736999958753585,-0.7586349844932556,-0.0215550009161233,0.025034999474883,-9.74836254119873,-0.989459991455078,-0.2144529968500137
1757088125506679000,5.295678955078125,0.1806749999523162,-0.0375375002622604,-0.0406999997794628,-0.6016370058059692,0.1613329946994781,0.0107420003041625,-9.753667831420898,-0.9562479853630066,-0.1727139949798584
1757088125516232400,5.305232421875,0.1867250055074691,0.0174624994397163,-0.0126499999314546,-0.4424430131912231,0.1902939975261688,-0.0351240001618862,-9.758206367492676,-0.9258909821510316,-0.1351400017738342
1757088125525785600,5.31478564453125,0.1757249981164932,0.0346499979496002,0.0203499998897314,-0.3000620007514953,0.2438050061464309,-0.0847020000219345,-9.761874198913574,-0.8994870185852051,-0.10207100212574
1757088125535338800,5.3243388671875,0.1549624949693679,0.039462499320507,0.0593999996781349,-0.1770649999380111,0.2531110048294067,-0.2789550125598907,-9.764852523803713,-0.8767420053482056,-0.0731600001454353
1757088125544892000,5.333891845703125,0.1207249984145164,0.0602249987423419,0.0996875017881393,-0.1358509957790374,0.2431389987468719,-0.3536790013313293,-9.76737117767334,-0.8562880158424377,-0.0485810004174709
1757088125554445600,5.343445556640625,0.076724998652935,0.0969374999403953,0.12168750166893,-0.0927079990506172,0.1884360015392303,-0.4278259873390198,-9.769487380981444,-0.8378649950027466,-0.0289030000567436
1757088125563998700,5.352998779296875,0.0340999998152256,0.118937499821186,0.1106875017285347,0.0766270011663436,0.0393540002405643,-0.4477730095386505,-9.77114486694336,-0.8227120041847229,-0.0131519995629787
1757088125573551900,5.3625517578125,-0.0098999999463558,0.1299374997615814,0.0533500015735626,0.1805119961500167,-0.2007389962673187,-0.4654070138931274,-9.77229118347168,-0.812309980392456,0.0007520000217482
1757088125583105000,5.37210498046875,-0.0356125012040138,0.0797500014305114,-0.0248875003308057,0.3106510043144226,-0.3160420060157776,-0.3847570121288299,-9.772931098937988,-0.8071190118789673,0.0134610002860426
1757088125592658400,5.381658447265625,-0.0416624993085861,0.0149875003844499,-0.0956999957561492,0.3380759954452514,-0.3678480088710785,-0.2847520112991333,-9.77328395843506,-0.8044160008430481,0.0228300001472234
1757088125602211600,5.391211669921875,-0.0306624993681907,0.0138875003904104,-0.1457500010728836,0.1770260035991668,-0.3322249948978424,-0.2560290098190307,-9.773436546325684,-0.8033819794654846,0.0288410000503063
1757088125611765000,5.400764892578125,-0.034375000745058,0.0309375002980232,-0.1641750037670135,0.2032929956912994,-0.2595390081405639,-0.0253619998693466,-9.773469924926758,-0.8033400177955627,0.0325520001351833
1757088125621318100,5.410318115234375,-0.0600874982774257,0.0554125010967254,-0.157987505197525,0.3208900094032287,-0.1829719990491867,0.2522909939289093,-9.77344036102295,-0.8038079738616943,0.0349229983985424
1757088125630871300,5.419871337890625,-0.0856624990701675,0.0627000033855438,-0.122649997472763,0.4361760020256042,-0.0889090001583099,0.3388589918613434,-9.773382186889648,-0.8045129776000977,0.0364720001816749
1757088125640424700,5.4294248046875,-0.1076624989509582,0.0785124972462654,-0.0712250024080276,0.4082300066947937,0.0852330029010772,0.321738988161087,-9.77333164215088,-0.8050919771194458,0.0374590009450912
1757088125649978000,5.43897802734375,-0.1101374998688697,0.1005124971270561,-0.0199375003576278,0.2854720056056976,0.3547039926052093,0.2113810032606125,-9.773337364196776,-0.8049650192260742,0.0381609983742237
1757088125659531300,5.44853125,-0.1113749966025352,0.1201749965548515,0.017875000834465,0.1916539967060089,0.4718700051307678,0.1463589966297149,-9.773503303527832,-0.8028640151023865,0.0386990010738372
1757088125669084400,5.45808447265625,-0.1113749966025352,0.1212750002741813,0.0350624993443489,0.0910390019416809,0.5903800129890442,0.0400299988687038,-9.773859977722168,-0.7983400225639343,0.0390390008687973
1757088125678637800,5.467637939453125,-0.116187497973442,0.1005124971270561,0.0240624994039535,-0.071392998099327,0.6851339936256409,-0.0130030000582337,-9.774386405944824,-0.7915409803390503,0.0395600013434886
1757088125688191000,5.47719091796875,-0.1126125007867813,0.0712250024080276,-0.0004124999977648,-0.2984640002250671,0.6389439702033997,-0.2613349854946136,-9.77500820159912,-0.7832639813423157,0.0399920009076595
1757088125697744100,5.486744140625,-0.116187497973442,0.0492249988019466,-0.0138875003904104,-0.3674460053443908,0.6800370216369629,-0.215715005993843,-9.775704383850098,-0.773643970489502,0.0403009988367557
1757088125707297500,5.496297607421875,-0.1248499974608421,0.0504624992609024,-0.0076999999582767,-0.4150010049343109,0.719510018825531,-0.175025999546051,-9.776477813720703,-0.7625150084495544,0.040472999215126
1757088125716850700,5.5058505859375,-0.1321374922990799,0.0847000032663345,0.0105875004082918,-0.4632709920406341,0.5934100151062012,-0.2099319994449615,-9.77729606628418,-0.7503060102462769,0.0406289994716644
1757088125726404000,5.515404052734375,-0.1369500011205673,0.1212750002741813,0.0423500016331672,-0.3660539984703064,0.5111740231513977,-0.2078000009059906,-9.778141021728516,-0.7372310161590576,0.0414999984204769
1757088125735957200,5.524957275390625,-0.1394249945878982,0.1507000029087066,0.0776875019073486,-0.2310999929904937,0.40973100066185,-0.2197110056877136,-9.77900505065918,-0.7235329747200012,0.0433019995689392
1757088125745510400,5.534510498046875,-0.1394249945878982,0.1727000027894973,0.1033999994397163,-0.0799439996480941,0.2826299965381622,-0.1989900022745132,-9.779882431030272,-0.709447979927063,0.0462259985506534
1757088125755063800,5.544063720703125,-0.1419000029563903,0.1872749924659729,0.1193500012159347,0.0660049989819526,0.193814992904663,-0.1288609951734542,-9.78078842163086,-0.6949040293693542,0.0505120009183883
1757088125764617000,5.553616943359375,-0.1394249945878982,0.1885125041007995,0.1241625025868415,0.2092570066452026,0.1063779965043068,-0.157601997256279,-9.781746864318848,-0.6797320246696472,0.0560709983110427
1757088125774170400,5.56317041015625,-0.1369500011205673,0.1824624985456466,0.1181124970316886,0.2804189920425415,0.0079180002212524,-0.2020879983901977,-9.782750129699709,-0.6642060279846191,0.0627399981021881
1757088125783723800,5.572723876953125,-0.1369500011205673,0.1665125042200088,0.0985874980688095,0.306082010269165,-0.0256350003182888,-0.195152997970581,-9.783783912658691,-0.648514986038208,0.0704710036516189
1757088125793277000,5.58227685546875,-0.1284250020980835,0.1335124969482422,0.0643500015139579,0.2623080015182495,-0.0965920016169548,-0.2305980026721954,-9.784814834594728,-0.6331220269203186,0.0788969993591308
