time,seconds_elapsed,z,y,x
1757088120319240700,0.10824072265625,0.9741874933242798,-3.796375036239624,1.3239874839782715
1757088120328794000,0.117794189453125,1.0817124843597412,-4.09089994430542,1.299649953842163
1757088120338347300,0.12734716796875,1.2245750427246094,-4.443862438201904,1.3056999444961548
1757088120347900700,0.136900634765625,1.4689124822616577,-4.834912300109863,1.3972749710083008
1757088120357454000,0.1464541015625,1.7474875450134277,-5.278349876403809,1.535325050354004
1757088120367007200,0.15600732421875,2.0553500652313232,-5.741312503814697,1.7137999534606934
1757088120376560600,0.165560546875,2.592974901199341,-6.557512283325195,1.7748500108718872
1757088120386113800,0.17511376953125,3.2342748641967773,-7.774250030517578,1.8603750467300415
1757088120395667200,0.184667236328125,3.84271240234375,-8.14330005645752,2.1132373809814453
1757088120405220600,0.194220703125,4.432862281799316,-8.374162673950195,2.2635250091552734
1757088120414773800,0.203773681640625,4.877537250518799,-8.288637161254883,2.3478124141693115
1757088120424327200,0.2133271484375,5.1743998527526855,-7.859775066375732,2.4846251010894775
1757088120433880600,0.222880615234375,5.298974990844727,-7.252574920654297,2.764437437057495
1757088120443433700,0.232433837890625,5.344212532043457,-6.553800106048584,3.121112585067749
1757088120452987100,0.241987060546875,5.303925037384033,-5.990600109100342,3.4559249877929688
1757088120462540300,0.251540283203125,5.19997501373291,-5.4444499015808105,3.8065500259399414
1757088120472093700,0.26109375,5.02287483215332,-4.834912300109863,4.136412620544434
1757088120481647000,0.270647216796875,4.837249755859375,-4.2374749183654785,4.402750015258789
1757088120491200300,0.2802001953125,4.649012565612793,-3.784137487411499,4.561562538146973
1757088120510306800,0.299306884765625,4.5036749839782715,-3.114650011062622,4.579850196838379
1757088120519860200,0.308860107421875,4.488962650299072,-2.921599864959717,4.567612648010254
1757088120529413600,0.31841357421875,4.3008623123168945,-2.8605499267578125,4.593325138092041
1757088120538967000,0.327967041015625,3.9880499839782715,-2.7664999961853027,4.692325115203857
1757088120548520200,0.337520263671875,3.580087423324585,-2.6162123680114746,4.770424842834473
1757088120558073600,0.347073486328125,3.1231749057769775,-2.3218250274658203,4.753375053405762
1757088120567626800,0.356626708984375,2.641787528991699,-1.9027249813079834,4.5358500480651855
1757088120577180400,0.366180419921875,2.1164000034332275,-1.5680500268936157,4.111937522888184
1757088120586733600,0.375733642578125,1.625249981880188,-1.1514250040054321,3.612262487411499
1757088120596286700,0.38528662109375,1.222100019454956,-0.7567999958992004,3.0172998905181885
1757088120605840100,0.394840087890625,0.9020000100135803,-0.5392749905586243,2.5139124393463135
1757088120615393500,0.4043935546875,0.6870874762535095,-0.40741249918937683,2.1792376041412354
1757088120624946700,0.41394677734375,0.4805625081062317,-0.37070000171661377,1.9409500360488892
1757088120634500000,0.4235,0.2521750032901764,-0.39393749833106995,1.7223249673843384
1757088120644053500,0.433053466796875,0.057887498289346695,-0.3133625090122223,1.4999874830245972
1757088120653606700,0.442606689453125,-0.07039999961853027,-0.1373624950647354,1.2556500434875488
1757088120663160000,0.45216015625,-0.18039999902248383,0.009212499484419823,0.9965999722480774
1757088120672713500,0.46171337890625,-0.26840001344680786,0.043449997901916504,0.6716874837875366
1757088120682266600,0.4712666015625,-0.29768750071525574,0.03849999979138374,0.2391124963760376
1757088120691820000,0.480820068359375,-0.17063750326633453,0.5541250109672546,-0.7992874979972839
1757088120701373200,0.490373291015625,0.14093749225139618,1.1013749837875366,-1.9966374635696411
1757088120710926600,0.499926513671875,0.34622499346733093,1.1539000272750854,-2.4083125591278076
1757088120720480000,0.50947998046875,0.2532750070095062,0.534600019454956,-1.900112509727478
1757088120730033200,0.519033203125,0.021175000816583633,-0.40369999408721924,-1.0033375024795532
1757088120739586600,0.528586669921875,-0.016637500375509262,-1.1636625528335571,-0.22384999692440033
1757088120749140000,0.538139892578125,0.19717499613761902,-1.6143875122070312,0.13282500207424164
1757088120758693400,0.547693359375,0.48551249504089355,-1.7316750288009644,0.2391124963760376
1757088120768246500,0.55724658203125,0.7041375041007996,-1.5802874565124512,0.2868250012397766
1757088120777800000,0.566800048828125,0.7591375112533569,-1.3407624959945679,0.36739999055862427
1757088120787353300,0.576353271484375,0.5966125130653381,-1.1196625232696533,0.5091624855995178
1757088120796906500,0.585906494140625,0.32670000195503235,-0.8373749852180481,0.6472125053405762
1757088120806460000,0.5954599609375,0.14464999735355377,-0.5357000231742859,0.5726875066757202
1757088120816013300,0.605013427734375,0.1311749964952469,-0.07136250287294388,0.43092501163482666
1757088120825566500,0.61456640625,0.2630375027656555,0.41731250286102295,0.24034999310970306
1757088120835119900,0.624119873046875,0.4805625081062317,0.8094624876976013,0.11577499657869339
1757088120844673300,0.63367333984375,0.6906625032424927,0.8204625248908997,0.08401250094175339
1757088120854226400,0.643226318359375,0.8874250054359436,0.48083749413490295,0.1438249945640564
1757088120863779800,0.65277978515625,1.1244750022888184,0.0019249999895691872,0.24034999310970306
1757088120873333200,0.662333251953125,1.4029124975204468,-0.3694624900817871,0.5359749794006348
1757088120882886400,0.671886474609375,1.5739624500274658,-0.7738500237464905,0.6692125201225281
1757088120892439800,0.681439697265625,1.6399624347686768,-0.9193249940872192,0.7534999847412109
1757088120901993000,0.690992919921875,1.6924874782562256,-0.6993250250816345,0.740024983882904
1757088120911546600,0.700546630859375,1.7621999979019165,-0.2656500041484833,0.5922124981880188
1757088120921099800,0.710099853515625,1.8244874477386475,0.17297500371932983,0.4846875071525574
1757088120930653200,0.719653076171875,1.8550125360488892,0.7044125199317932,0.346637487411499
1757088120940206300,0.729206298828125,1.8537750244140625,1.2578500509262085,0.11577499657869339
1757088120949759700,0.738759765625,1.8855375051498413,2.0678625106811523,-0.3068999946117401
1757088120959313200,0.748313232421875,2.0150625705718994,2.3132998943328857,-0.9508125185966492
1757088120968866600,0.757866455078125,2.270400047302246,2.3352999687194824,-1.0851500034332275
1757088120978419700,0.767419677734375,2.7810750007629395,1.8686250448226929,-0.8298124670982361
1757088120987973000,0.77697314453125,3.279512405395508,1.1723250150680542,-0.5244249701499939
1757088120997526300,0.7865263671875,3.7071375846862793,0.5174124836921692,-0.3240875005722046
1757088121007079700,0.79607958984375,4.1676249504089355,-0.39022499322891235,-0.3143250048160553
1757088121016632800,0.8056328125,4.809062480926514,-1.6511000394821167,-0.506137490272522
1757088121026186200,0.815186279296875,5.746124744415283,-2.946074962615967,-0.6269999742507935
1757088121035739400,0.824739501953125,6.530425071716309,-3.889324903488159,-0.5329499840736389
1757088121045292800,0.834292724609375,6.8787126541137695,-4.832437515258789,-0.2508000135421753
1757088121054846200,0.84384619140625,5.814599990844727,-5.041299819946289,0.05224999785423279
1757088121064399400,0.8533994140625,3.269749879837036,-4.280237674713135,0.5592125058174133
1757088121073953000,0.862953125,1.9967750310897827,-4.03095006942749,0.9660750031471252
1757088121083506200,0.872506103515625,2.514737367630005,-4.373050212860107,1.0601249933242798
1757088121093059300,0.882059326171875,3.0546998977661133,-3.0498874187469482,1.0063624382019043
1757088121102612700,0.89161279296875,3.1682748794555664,-0.7470374703407288,0.9110749959945679
1757088121112166100,0.901166259765625,3.1536998748779297,1.195562481880188,0.7167875170707703
1757088121121719300,0.91071923828125,3.2172250747680664,2.436774969100952,0.49816250801086426
1757088121131272700,0.920272705078125,3.2587499618530273,3.037787437438965,0.3161124885082245
1757088121140825900,0.929825927734375,3.2734625339508057,3.2210750579833984,0.1340624988079071
1757088121150379300,0.939379150390625,3.2880375385284424,3.028024911880493,-0.055275000631809235
1757088121159932400,0.948932373046875,3.32708740234375,2.6615874767303467,-0.2751374840736389
1757088121169486000,0.958486083984375,3.346750020980835,2.130150079727173,-0.4096125066280365
1757088121179039200,0.968039306640625,3.4395625591278076,1.8380999565124512,-0.48413750529289246
1757088121188592600,0.977592529296875,3.486037492752075,1.5632375478744507,-0.6111875176429749
1757088121198145800,0.987145751953125,3.5715625286102295,0.9572749733924866,-0.3375625014305115
1757088121207699200,0.99669921875,4.475625038146973,0.28283751010894775,0.015537500381469727
1757088121217252600,1.006252685546875,5.154874801635742,0.055687498301267624,-0.4646124839782715
1757088121226806000,1.015805908203125,2.0871124267578125,0.4246000051498413,-1.1474374532699585
1757088121236359200,1.025359130859375,-0.7998374700546265,-1.3432375192642212,-1.0191500186920166
1757088121245912600,1.03491259765625,-0.8608874678611755,-3.080549955368042,-0.597712516784668
1757088121255465500,1.044465576171875,-0.30621248483657837,-4.022425174713135,-0.34485000371932983
1757088121265019100,1.05401904296875,-0.026399999856948853,-4.0701375007629395,-0.09803749620914459
1757088121274572300,1.063572265625,0.03217500075697899,-3.808612585067749,0.16706250607967377
1757088121284125700,1.073125732421875,0.04193750023841858,-3.7047998905181885,0.29411250352859497
1757088121293679000,1.08267919921875,-0.04963750019669533,-3.43969988822937,0.17077499628067017
1757088121303232300,1.092232177734375,-0.164450004696846,-2.9632625579833984,-0.13103750348091125
1757088121312785700,1.10178564453125,-0.21216249465942383,-2.2460625171661377,-0.5268999934196472
1757088121322339000,1.111339111328125,-0.12044999748468399,-1.4445749521255493,-0.6917625069618225
1757088121331892200,1.120892333984375,0.11646249890327454,-0.5197499990463257,-0.47189998626708984
1757088121341445600,1.130445556640625,0.2704625129699707,0.3573625087738037,-0.1480875015258789
1757088121350998800,1.139998779296875,0.21917499601840973,1.029325008392334,0.0644875019788742
1757088121360552000,1.149552001953125,0.12264999747276306,1.6035250425338745,0.2012999951839447
1757088121370105600,1.159105712890625,0.03959999978542328,1.960337519645691,0.30758750438690186
1757088121379658800,1.16865869140625,-0.03987500071525574,2.0018625259399414,0.3881624937057495
1757088121389212200,1.178212158203125,-0.07535000145435333,1.799049973487854,0.40658751130104065
1757088121398765600,1.187765625,-0.05087500065565109,1.496000051498413,0.35516250133514404
1757088121408318700,1.197318603515625,-0.0411125011742115,1.238187551498413,0.2513499855995178
1757088121417872100,1.2068720703125,-0.04963750019669533,1.0806125402450562,0.1377750039100647
1757088121427425300,1.21642529296875,-0.05087500065565109,1.0025124549865723,0.0424874983727932
1757088121436978700,1.225978759765625,-0.04592499881982803,0.9340375065803528,-0.018699999898672104
1757088121446532000,1.235531982421875,-0.03863750025629997,0.8338000178337097,-0.03946249932050705
1757088121456085200,1.245085205078125,-0.014162499457597733,0.7006999850273132,-0.025987500324845314
1757088121465638700,1.254638671875,-0.0008249999955296516,0.5418875217437744,-0.002749999985098839
1757088121475191800,1.26419189453125,-0.0031624999828636646,0.3647874891757965,0.01677500084042549
1757088121484745200,1.2737451171875,-0.002062499988824129,0.19373749196529388,0.026537500321865082
1757088121494298600,1.283298583984375,0.005362499970942736,0.03726249933242798,0.020487500354647636
1757088121503852000,1.29285205078125,0.0016499999910593033,-0.08855000138282776,0.007012499962002039
1757088121513405200,1.3024052734375,-0.002062499988824129,-0.172837495803833,0.004537499975413084
1757088121522958600,1.31195849609375,-0.002062499988824129,-0.23388749361038208,0.018012499436736107
1757088121532511700,1.32151171875,-0.0031624999828636646,-0.2974124848842621,0.04124999791383743
1757088121542065200,1.331065185546875,-0.004399999976158142,-0.37070000171661377,0.06929999589920044
1757088121551618300,1.340618408203125,-0.0031624999828636646,-0.4587000012397766,0.08882500231266022
1757088121561171700,1.350171630859375,-0.0031624999828636646,-0.5564625263214111,0.09006249904632568
1757088121570724900,1.359724853515625,-0.0008249999955296516,-0.6505125164985657,0.07672499865293503
1757088121580278500,1.369278564453125,0.0016499999910593033,-0.7275124788284302,0.04977500066161156
1757088121589831700,1.378831787109375,0.0004124999977648258,-0.767799973487854,0.013062499463558197
1757088121599384800,1.388384765625,0.0004124999977648258,-0.7617499828338623,-0.023512499406933784
1757088121608938500,1.3979384765625,0.0004124999977648258,-0.7115625143051147,-0.04922499880194664
1757088121618491600,1.40749169921875,-0.0008249999955296516,-0.6297500133514404,-0.050462499260902405
1757088121628045000,1.417045166015625,-0.008112499490380287,-0.505174994468689,-0.03451250120997429
1757088121637598200,1.42659814453125,-0.011824999935925007,-0.3316499888896942,-0.013749999925494194
1757088121647151400,1.4361513671875,-0.017875000834465027,-0.13007499277591705,0.008249999955296516
1757088121656704800,1.445704833984375,-0.020349999889731407,0.06544999778270721,0.03148749843239784
1757088121666258200,1.455258056640625,-0.022824998944997787,0.21931250393390656,0.05472499877214432
1757088121675811300,1.464811279296875,-0.020349999889731407,0.3293125033378601,0.07301250100135803
1757088121685364700,1.47436474609375,-0.019112499430775642,0.4086500108242035,0.08153750002384186
1757088121694918100,1.483918212890625,-0.016637500375509262,0.4624125063419342,0.07672499865293503
1757088121704471300,1.49347119140625,-0.014162499457597733,0.494174987077713,0.06572499871253967
1757088121714024700,1.503024658203125,-0.015399999916553497,0.49912500381469727,0.05224999785423279
1757088121723577900,1.512577880859375,-0.015399999916553497,0.478362500667572,0.04124999791383743
1757088121733131300,1.52213134765625,-0.013062499463558197,0.43683749437332153,0.03148749843239784
1757088121742684400,1.531684326171875,-0.010587500408291817,0.38788750767707825,0.020487500354647636
1757088121752237800,1.54123779296875,-0.009349999949336052,0.33178749680519104,0.0057749999687075615
1757088121761791000,1.550791015625,-0.0056374999694526196,0.27059999108314514,-0.008799999952316284
1757088121771344600,1.5603447265625,-0.004399999976158142,0.2059749960899353,-0.018699999898672104
1757088121780897800,1.569897705078125,-0.0008249999955296516,0.13750000298023224,-0.02474999986588955
1757088121790451000,1.579450927734375,0.0004124999977648258,0.06421250104904175,-0.02474999986588955
1757088121800004400,1.58900439453125,-0.002062499988824129,-0.0005499999970197678,-0.02227500081062317
1757088121809557800,1.598557861328125,-0.009349999949336052,-0.048262499272823334,-0.016224998980760574
1757088121819111200,1.608111083984375,-0.015399999916553497,-0.08112499862909317,-0.010037500411272049
1757088121828664300,1.617664306640625,-0.024062499403953552,-0.09831249713897705,-0.002749999985098839
1757088121838217700,1.6272177734375,-0.03258749842643738,-0.11055000126361847,0.0032999999821186066
1757088121847771000,1.63677099609375,-0.03987500071525574,-0.12031249701976776,0.008249999955296516
1757088121857324300,1.64632421875,-0.04358749836683273,-0.13859999179840088,0.010724999941885471
1757088121866877400,1.65587744140625,-0.0471624992787838,-0.16183750331401825,0.011962499469518661
1757088121876430800,1.665430908203125,-0.0448249988257885,-0.18383750319480896,0.011962499469518661
1757088121885984300,1.674984375,-0.03863750025629997,-0.20212499797344208,0.0057749999687075615
1757088121895537400,1.684537353515625,-0.03492499887943268,-0.21188749372959137,-0.006462499964982271
1757088121905090800,1.6940908203125,-0.026399999856948853,-0.20941250026226044,-0.02227500081062317
1757088121914644200,1.703644287109375,-0.016637500375509262,-0.19607499241828918,-0.035750001668930054
1757088121924197400,1.713197265625,-0.008112499490380287,-0.17407499253749847,-0.045512501150369644
1757088121933750500,1.72275048828125,0.0016499999910593033,-0.14231249690055847,-0.047987498342990875
1757088121943304000,1.732303955078125,0.011412499472498894,-0.09955000132322311,-0.04427500069141388
1757088121952857300,1.741857421875,0.015124999918043613,-0.05431250110268593,-0.038224998861551285
1757088121962410800,1.75141064453125,0.015124999918043613,-0.009074999950826168,-0.02722499892115593
1757088121971964000,1.7609638671875,0.012649999931454659,0.03244999796152115,-0.016224998980760574
1757088121981517300,1.770517333984375,0.010174999944865704,0.06544999778270721,-0.003987499978393316
1757088121991070700,1.78007080078125,0.011412499472498894,0.0849749967455864,0.007012499962002039
1757088122000623900,1.789623779296875,0.010174999944865704,0.09102500230073929,0.015537500381469727
1757088122010177300,1.79917724609375,0.013887500390410423,0.09473749995231628,0.021724998950958252
1757088122019730400,1.80873046875,0.012649999931454659,0.09968750178813934,0.021724998950958252
1757088122029283800,1.818283935546875,0.013887500390410423,0.10202500224113464,0.01924999989569187
1757088122038837200,1.827837158203125,0.012649999931454659,0.09473749995231628,0.018012499436736107
1757088122048390400,1.837390380859375,0.010174999944865704,0.07397499680519104,0.018012499436736107
1757088122057943600,1.846943603515625,0.007699999958276749,0.04468749836087227,0.018012499436736107
1757088122067497200,1.856497314453125,0.007699999958276749,0.0031624999828636646,0.018012499436736107
1757088122077050400,1.86605029296875,0.010174999944865704,-0.04331250116229057,0.01677500084042549
1757088122086603800,1.875603759765625,0.01759999990463257,-0.08236250281333923,0.013062499463558197
1757088122096157000,1.885156982421875,0.01993750035762787,-0.10683749616146088,0.004537499975413084
1757088122105710000,1.8947099609375,0.023649999871850014,-0.1190750002861023,-0.003987499978393316
1757088122115263500,1.904263427734375,0.023649999871850014,-0.12278749793767929,-0.01251249946653843
1757088122124817000,1.91381689453125,0.021175000816583633,-0.12278749793767929,-0.016224998980760574
1757088122134370000,1.9233701171875,0.016362499445676804,-0.12155000120401382,-0.01746249943971634
1757088122143923500,1.93292333984375,0.013887500390410423,-0.12031249701976776,-0.01251249946653843
1757088122153476900,1.942476806640625,0.008937500417232513,-0.1190750002861023,-0.007699999958276749
1757088122163030000,1.952030029296875,0.006599999964237213,-0.11288750171661377,-0.003987499978393316
1757088122172583400,1.96158349609375,0.004124999977648258,-0.09459999948740005,-0.002749999985098839
1757088122182136600,1.971136474609375,0.0016499999910593033,-0.06655000150203705,-0.003987499978393316
1757088122191690000,1.98068994140625,-0.0031624999828636646,-0.03726249933242798,-0.0015124999918043613
1757088122201243400,1.990243408203125,-0.0056374999694526196,-0.014024999924004078,0.0009624999947845936
1757088122210796500,1.999796630859375,-0.006874999962747097,-0.0005499999970197678,0.004537499975413084
1757088122220350000,2.009349853515625,-0.008112499490380287,0.0042624999769032,0.007012499962002039
1757088122229903000,2.018903076171875,-0.006874999962747097,0.0031624999828636646,0.007012499962002039
1757088122239456800,2.028456787109375,-0.004399999976158142,-0.0005499999970197678,0.007012499962002039
1757088122249010200,2.03801025390625,-0.0008249999955296516,-0.005499999970197678,0.0057749999687075615
1757088122258563000,2.04756298828125,0.0004124999977648258,-0.0017874999903142452,0.004537499975413084
1757088122268116700,2.05711669921875,0.0028874999843537807,0.009212499484419823,0.0032999999821186066
1757088122277670000,2.066669921875,0.004124999977648258,0.018975000828504562,0.0032999999821186066
1757088122287223000,2.07622314453125,0.004124999977648258,0.025162499397993088,0.0032999999821186066
1757088122296776400,2.0857763671875,0.006599999964237213,0.027499999850988388,0.0009624999947845936
1757088122306329900,2.095329833984375,0.006599999964237213,0.023924998939037323,0.0032999999821186066
1757088122315883000,2.104883056640625,0.006599999964237213,0.016499999910593033,0.0057749999687075615
1757088122325436400,2.1144365234375,0.004124999977648258,0.016499999910593033,0.0057749999687075615
1757088122334989600,2.123989501953125,0.0028874999843537807,0.017737500369548798,0.0032999999821186066
1757088122344543000,2.13354296875,-0.0008249999955296516,0.015262499451637268,-0.0002749999985098839
1757088122354096000,2.14309619140625,-0.004399999976158142,0.010449999943375587,-0.002749999985098839
1757088122363649500,2.1526494140625,-0.006874999962747097,0.006737499963492155,-0.003987499978393316
1757088122373203000,2.162202880859375,-0.009349999949336052,0.0006874999962747097,-0.0015124999918043613
1757088122382756000,2.171756103515625,-0.010587500408291817,-0.012787500396370888,0.002199999988079071
1757088122392309200,2.181309326171875,-0.009349999949336052,-0.026262499392032623,0.004537499975413084
1757088122401862700,2.190862548828125,-0.008112499490380287,-0.03849999979138374,0.0057749999687075615
1757088122411415800,2.200415771484375,-0.004399999976158142,-0.04702499881386757,0.007012499962002039
1757088122420969200,2.20996923828125,-0.002062499988824129,-0.04936249926686287,0.0057749999687075615
1757088122430522600,2.219522705078125,0.0028874999843537807,-0.04936249926686287,0.0032999999821186066
1757088122440076000,2.229075927734375,0.006599999964237213,-0.04207500070333481,0.0032999999821186066
1757088122449629200,2.238629150390625,0.012649999931454659,-0.03355000168085098,0.004537499975413084
1757088122459182600,2.2481826171875,0.012649999931454659,-0.022549999877810478,0.007012499962002039
1757088122468735700,2.25773583984375,0.011412499472498894,-0.006599999964237213,0.007012499962002039
1757088122478289000,2.267288818359375,0.008937500417232513,0.009212499484419823,0.008249999955296516
1757088122487842300,2.27684228515625,0.005362499970942736,0.027499999850988388,0.007012499962002039
1757088122497395700,2.286395751953125,-0.0008249999955296516,0.048262499272823334,0.004537499975413084
1757088122506948900,2.295948974609375,-0.002062499988824129,0.07026249915361404,-0.0002749999985098839
1757088122516502300,2.305502197265625,-0.002062499988824129,0.08373750001192093,-0.0015124999918043613
1757088122526055700,2.3150556640625,0.0004124999977648258,0.08373750001192093,0.002199999988079071
1757088122535608800,2.32460888671875,0.0028874999843537807,0.08002500236034393,0.0057749999687075615
1757088122545162200,2.334162353515625,0.006599999964237213,0.07878749817609787,0.007012499962002039
1757088122554715400,2.34371533203125,0.008937500417232513,0.08373750001192093,0.004537499975413084
1757088122564268800,2.353268798828125,0.011412499472498894,0.08373750001192093,0.0032999999821186066
1757088122573822200,2.362822265625,0.011412499472498894,0.08002500236034393,0.002199999988079071
1757088122583375400,2.372375244140625,0.010174999944865704,0.07026249915361404,0.004537499975413084
1757088122592928800,2.3819287109375,0.005362499970942736,0.055687498301267624,0.007012499962002039
1757088122602482200,2.391482177734375,0.0004124999977648258,0.04097500070929527,0.009487500414252281
1757088122612035300,2.401035400390625,-0.0031624999828636646,0.026262499392032623,0.008249999955296516
1757088122621588700,2.410588623046875,-0.004399999976158142,0.010449999943375587,0.008249999955296516
1757088122631142000,2.420141845703125,-0.002062499988824129,-0.014024999924004078,0.007012499962002039
1757088122640695000,2.429695068359375,-0.0008249999955296516,-0.03959999978542328,0.0032999999821186066
1757088122650248700,2.439248779296875,0.0028874999843537807,-0.058024998754262924,-0.0015124999918043613
1757088122659801900,2.4488017578125,0.005362499970942736,-0.06531249731779099,-0.006462499964982271
1757088122669355000,2.45835498046875,0.008937500417232513,-0.06407500058412552,-0.010037500411272049
1757088122678908700,2.46790869140625,0.010174999944865704,-0.058024998754262924,-0.011274999938905239
1757088122688461800,2.4774619140625,0.012649999931454659,-0.048262499272823334,-0.01251249946653843
1757088122698015000,2.487014892578125,0.015124999918043613,-0.03959999978542328,-0.011274999938905239
1757088122707568400,2.496568359375,0.012649999931454659,-0.031075000762939453,-0.008799999952316284
1757088122717121500,2.50612158203125,0.011412499472498894,-0.016499999910593033,-0.002749999985098839
1757088122726675000,2.515675048828125,0.008937500417232513,0.007974999956786633,-0.0002749999985098839
1757088122736228400,2.525228271484375,0.007699999958276749,0.03492499887943268,-0.0002749999985098839
1757088122745781500,2.534781494140625,0.004124999977648258,0.060499999672174454,-0.0015124999918043613
1757088122755335000,2.5443349609375,0.0016499999910593033,0.07150000333786011,-0.002749999985098839
1757088122764888000,2.55388818359375,-0.0008249999955296516,0.06544999778270721,-0.0015124999918043613
1757088122774441200,2.563441162109375,0.0016499999910593033,0.0494999997317791,0.0009624999947845936
1757088122783994600,2.57299462890625,0.0016499999910593033,0.036024998873472214,-0.0015124999918043613
1757088122793548000,2.582548095703125,0.0016499999910593033,0.028737500309944153,-0.007699999958276749
1757088122803101200,2.59210107421875,0.0004124999977648258,0.023924998939037323,-0.01251249946653843
1757088122812654600,2.601654541015625,-0.0008249999955296516,0.016499999910593033,-0.01251249946653843
1757088122822208000,2.6112080078125,-0.0008249999955296516,0.0042624999769032,-0.007699999958276749
1757088122831761200,2.62076123046875,-0.0008249999955296516,-0.006599999964237213,-0.006462499964982271
1757088122841314300,2.630314208984375,0.0004124999977648258,-0.011549999937415123,-0.008799999952316284
1757088122850867700,2.63986767578125,0.0004124999977648258,-0.016499999910593033,-0.011274999938905239
1757088122860420900,2.6494208984375,0.0004124999977648258,-0.020075000822544098,-0.013749999925494194
1757088122869974300,2.658974365234375,0.0016499999910593033,-0.01759999990463257,-0.014987500384449959
1757088122879527700,2.668527587890625,0.004124999977648258,-0.016499999910593033,-0.01251249946653843
1757088122889080800,2.678080810546875,0.006599999964237213,-0.011549999937415123,-0.010037500411272049
1757088122898634200,2.68763427734375,0.007699999958276749,-0.007837500423192978,-0.007699999958276749
1757088122908187400,2.6971875,0.010174999944865704,-0.006599999964237213,-0.006462499964982271
1757088122917740800,2.70674072265625,0.007699999958276749,-0.0042624999769032,-0.006462499964982271
1757088122927294000,2.7162939453125,0.004124999977648258,0.009212499484419823,-0.007699999958276749
1757088122936847400,2.725847412109375,0.0004124999977648258,0.020212499424815178,-0.010037500411272049
1757088122946400500,2.735400390625,0.0004124999977648258,0.015262499451637268,-0.010037500411272049
1757088122955954200,2.7449541015625,-0.002062499988824129,0.006737499963492155,-0.008799999952316284
1757088122965507300,2.75450732421875,-0.002062499988824129,-0.0030249999836087227,-0.008799999952316284
1757088122975060500,2.764060546875,-0.0008249999955296516,-0.009074999950826168,-0.010037500411272049
1757088122984614000,2.77361376953125,0.0016499999910593033,-0.012787500396370888,-0.010037500411272049
1757088122994167000,2.7831669921875,0.005362499970942736,-0.021312499418854713,-0.008799999952316284
1757088123003720400,2.792720458984375,0.008937500417232513,-0.03726249933242798,-0.007699999958276749
1757088123013273900,2.80227392578125,0.010174999944865704,-0.05431250110268593,-0.007699999958276749
1757088123022827000,2.811826904296875,0.008937500417232513,-0.06159999966621399,-0.010037500411272049
1757088123032380400,2.82138037109375,0.008937500417232513,-0.05555000156164169,-0.018699999898672104
1757088123041933600,2.83093359375,0.007699999958276749,-0.04702499881386757,-0.023512499406933784
1757088123051486700,2.84048681640625,0.005362499970942736,-0.040837500244379044,-0.02227500081062317
1757088123061040000,2.8500400390625,0.005362499970942736,-0.040837500244379044,-0.01746249943971634
1757088123070593500,2.859593505859375,0.004124999977648258,-0.03959999978542328,-0.011274999938905239
1757088123080146700,2.869146728515625,0.004124999977648258,-0.036024998873472214,-0.007699999958276749
1757088123089700000,2.8787001953125,0.005362499970942736,-0.03231250122189522,-0.008799999952316284
1757088123099253200,2.888253173828125,0.006599999964237213,-0.026262499392032623,-0.011274999938905239
1757088123108806700,2.897806640625,0.007699999958276749,-0.015262499451637268,-0.014987500384449959
1757088123118360000,2.907360107421875,0.008937500417232513,-0.006599999964237213,-0.014987500384449959
1757088123127913200,2.916913330078125,0.007699999958276749,0.0019249999895691872,-0.013749999925494194
1757088123137466600,2.926466552734375,0.005362499970942736,0.015262499451637268,-0.007699999958276749
1757088123147019800,2.936019775390625,0.0004124999977648258,0.03492499887943268,-0.002749999985098839
1757088123156573200,2.9455732421875,-0.002062499988824129,0.0494999997317791,-0.0002749999985098839
1757088123166126600,2.955126708984375,-0.004399999976158142,0.05073750019073486,0.0009624999947845936
1757088123175679700,2.9646796875,-0.0056374999694526196,0.043449997901916504,-0.0015124999918043613
1757088123185233000,2.97423291015625,-0.0031624999828636646,0.031212499365210533,-0.005224999971687794
1757088123194786600,2.98378662109375,0.0004124999977648258,0.018975000828504562,-0.011274999938905239
1757088123204339700,2.993339599609375,0.0028874999843537807,0.006737499963492155,-0.013749999925494194
1757088123213893000,3.00289306640625,0.005362499970942736,-0.005499999970197678,-0.01251249946653843
1757088123223446300,3.0124462890625,0.007699999958276749,-0.016499999910593033,-0.007699999958276749
1757088123232999400,3.02199951171875,0.007699999958276749,-0.02502499893307686,-0.002749999985098839
1757088123242553000,3.031552978515625,0.008937500417232513,-0.02983750030398369,-0.0002749999985098839
1757088123252106200,3.041106201171875,0.011412499472498894,-0.031075000762939453,-0.002749999985098839
1757088123261659400,3.050659423828125,0.011412499472498894,-0.028599999845027924,-0.007699999958276749
1757088123271212800,3.060212890625,0.010174999944865704,-0.026262499392032623,-0.010037500411272049
1757088123280766000,3.069765869140625,0.008937500417232513,-0.02983750030398369,-0.010037500411272049
1757088123290319000,3.079319091796875,0.005362499970942736,-0.03726249933242798,-0.005224999971687794
1757088123299872500,3.08887255859375,0.0016499999910593033,-0.036024998873472214,-0.0002749999985098839
1757088123309426000,3.098426025390625,-0.0031624999828636646,-0.021312499418854713,-0.0002749999985098839
1757088123318979000,3.10797900390625,-0.0031624999828636646,-0.0005499999970197678,-0.005224999971687794
1757088123328532500,3.117532470703125,-0.0008249999955296516,0.012924999929964542,-0.010037500411272049
1757088123338085600,3.127085693359375,0.0016499999910593033,0.015262499451637268,-0.011274999938905239
1757088123347639000,3.13663916015625,0.0016499999910593033,0.016499999910593033,-0.011274999938905239
1757088123357192200,3.146192138671875,0.0016499999910593033,0.025162499397993088,-0.011274999938905239
1757088123366745600,3.15574560546875,-0.0031624999828636646,0.03726249933242798,-0.010037500411272049
1757088123376298800,3.165298828125,-0.0056374999694526196,0.0494999997317791,-0.007699999958276749
1757088123385852200,3.17485205078125,-0.006874999962747097,0.05692499876022339,-0.007699999958276749
1757088123395405300,3.1844052734375,-0.006874999962747097,0.055687498301267624,-0.006462499964982271
1757088123404958700,3.193958740234375,-0.0056374999694526196,0.04221250116825104,-0.006462499964982271
1757088123414512000,3.20351220703125,-0.004399999976158142,0.026262499392032623,-0.006462499964982271
1757088123424065300,3.213065185546875,-0.0008249999955296516,0.014162499457597733,-0.008799999952316284
1757088123433618400,3.222618408203125,0.0016499999910593033,0.011687500402331352,-0.008799999952316284
1757088123443172000,3.232172119140625,0.0016499999910593033,0.014162499457597733,-0.008799999952316284
1757088123452725200,3.241725341796875,0.0016499999910593033,0.018975000828504562,-0.006462499964982271
1757088123462278400,3.2512783203125,0.0016499999910593033,0.023924998939037323,-0.002749999985098839
1757088123471831800,3.260831787109375,0.0004124999977648258,0.021449999883770943,0.0009624999947845936
1757088123481385000,3.270385009765625,-0.0008249999955296516,0.016499999910593033,0.002199999988079071
1757088123490938400,3.2799384765625,0.0004124999977648258,0.009212499484419823,0.002199999988079071
1757088123500491500,3.289491455078125,0.0028874999843537807,-0.0030249999836087227,0.002199999988079071
1757088123510045000,3.299044921875,0.005362499970942736,-0.016499999910593033,0.0032999999821186066
1757088123529151700,3.31815185546875,0.006599999964237213,-0.020075000822544098,-0.0002749999985098839
1757088123538705000,3.327704833984375,0.005362499970942736,-0.014024999924004078,-0.007699999958276749
1757088123548258000,3.337258056640625,0.004124999977648258,-0.015262499451637268,-0.008799999952316284
1757088123557811200,3.346811279296875,0.004124999977648258,-0.016499999910593033,-0.007699999958276749
1757088123567364600,3.356364501953125,0.0016499999910593033,-0.012787500396370888,-0.006462499964982271
1757088123576917800,3.365917724609375,-0.0008249999955296516,-0.0017874999903142452,-0.005224999971687794
1757088123586471200,3.37547119140625,0.0016499999910593033,0.006737499963492155,-0.005224999971687794
1757088123596024600,3.385024658203125,0.004124999977648258,0.007974999956786633,-0.007699999958276749
1757088123605577700,3.39457763671875,0.008937500417232513,0.012924999929964542,-0.011274999938905239
1757088123615131100,3.404131103515625,0.012649999931454659,0.021449999883770943,-0.01746249943971634
1757088123624684300,3.413684326171875,0.015124999918043613,0.022687500342726707,-0.018699999898672104
1757088123634237400,3.423237548828125,0.015124999918043613,0.027499999850988388,-0.016224998980760574
1757088123643790800,3.432790771484375,0.013887500390410423,0.03726249933242798,-0.01251249946653843
1757088123653344300,3.44234423828125,0.011412499472498894,0.04702499881386757,-0.005224999971687794
1757088123662897400,3.4518974609375,0.007699999958276749,0.04702499881386757,0.0009624999947845936
1757088123672450600,3.461450439453125,0.005362499970942736,0.04221250116825104,0.0057749999687075615
1757088123682004000,3.47100390625,0.004124999977648258,0.022687500342726707,0.007012499962002039
1757088123691557000,3.48055712890625,0.005362499970942736,-0.0030249999836087227,0.0057749999687075615
1757088123701110800,3.49011083984375,0.006599999964237213,-0.02983750030398369,-0.0002749999985098839
1757088123710664000,3.499663818359375,0.006599999964237213,-0.04702499881386757,-0.007699999958276749
1757088123720217000,3.509217041015625,0.007699999958276749,-0.053075000643730164,-0.011274999938905239
1757088123729770500,3.5187705078125,0.004124999977648258,-0.053075000643730164,-0.010037500411272049
1757088123739323600,3.52832373046875,0.0004124999977648258,-0.04936249926686287,-0.006462499964982271
1757088123748877000,3.537876953125,-0.002062499988824129,-0.045787498354911804,-0.0015124999918043613
1757088123758430200,3.54743017578125,-0.0056374999694526196,-0.03849999979138374,0.002199999988079071
1757088123767983600,3.556983642578125,-0.0056374999694526196,-0.026262499392032623,0.002199999988079071
1757088123777536800,3.566536865234375,-0.004399999976158142,-0.014024999924004078,-0.0015124999918043613
1757088123787090200,3.576090087890625,-0.002062499988824129,0.0031624999828636646,-0.008799999952316284
1757088123796643300,3.585643310546875,-0.0008249999955296516,0.020212499424815178,-0.013749999925494194
1757088123806196700,3.59519677734375,-0.0008249999955296516,0.036024998873472214,-0.01746249943971634
1757088123815750100,3.604750244140625,-0.002062499988824129,0.04702499881386757,-0.013749999925494194
1757088123825303300,3.61430322265625,-0.002062499988824129,0.05321250110864639,-0.008799999952316284
1757088123834856700,3.623856689453125,-0.0031624999828636646,0.055687498301267624,-0.002749999985098839
1757088123844409900,3.633409912109375,0.0004124999977648258,0.05692499876022339,-0.002749999985098839
1757088123853963000,3.642962890625,0.0004124999977648258,0.055687498301267624,-0.003987499978393316
1757088123863516700,3.6525166015625,0.0016499999910593033,0.05073750019073486,-0.010037500411272049
1757088123873069800,3.66206982421875,0.0028874999843537807,0.03726249933242798,-0.010037500411272049
1757088123882623000,3.671623046875,0.0016499999910593033,0.017737500369548798,-0.008799999952316284
1757088123892176400,3.68117626953125,-0.0008249999955296516,-0.0030249999836087227,-0.006462499964982271
1757088123901729500,3.6907294921875,-0.0008249999955296516,-0.021312499418854713,-0.006462499964982271
1757088123911283000,3.700282958984375,-0.004399999976158142,-0.036024998873472214,-0.008799999952316284
1757088123920836400,3.70983642578125,-0.0031624999828636646,-0.045787498354911804,-0.01251249946653843
1757088123930389500,3.719389404296875,-0.0031624999828636646,-0.06283749639987946,-0.013749999925494194
1757088123939942700,3.728942626953125,-0.0008249999955296516,-0.08002500236034393,-0.013749999925494194
1757088123949496000,3.73849609375,0.0004124999977648258,-0.08855000138282776,-0.014987500384449959
1757088123959049500,3.748049560546875,-0.0008249999955296516,-0.0835999995470047,-0.021037500351667404
1757088123968602600,3.7576025390625,-0.0031624999828636646,-0.07136250287294388,-0.028462499380111694
1757088123978155800,3.76715576171875,-0.004399999976158142,-0.058024998754262924,-0.030799999833106995
1757088123987709200,3.776709228515625,-0.009349999949336052,-0.04207500070333481,-0.028462499380111694
1757088123997262300,3.786262451171875,-0.010587500408291817,-0.028599999845027924,-0.028462499380111694
1757088124006815700,3.795815673828125,-0.013062499463558197,-0.011549999937415123,-0.028462499380111694
1757088124016369000,3.805368896484375,-0.013062499463558197,0.011687500402331352,-0.028462499380111694
1757088124025922000,3.814922119140625,-0.015399999916553497,0.03849999979138374,-0.03203750029206276
1757088124035475500,3.824475341796875,-0.014162499457597733,0.06544999778270721,-0.038224998861551285
1757088124045028900,3.83402880859375,-0.011824999935925007,0.08002500236034393,-0.03946249932050705
1757088124054582000,3.84358203125,-0.011824999935925007,0.09473749995231628,-0.04179999977350235
1757088124064135400,3.853135498046875,-0.011824999935925007,0.10821250081062317,-0.050462499260902405
1757088124073688600,3.8626884765625,-0.013062499463558197,0.11426249891519547,-0.05156249925494194
1757088124083241700,3.87224169921875,-0.010587500408291817,0.11426249891519547,-0.047987498342990875
1757088124092795100,3.881795166015625,-0.008112499490380287,0.11302500218153,-0.040562499314546585
1757088124102348500,3.8913486328125,-0.009349999949336052,0.116737499833107,-0.038224998861551285
1757088124111901700,3.900901611328125,-0.009349999949336052,0.12402500212192535,-0.03946249932050705
1757088124121454800,3.910454833984375,-0.008112499490380287,0.13144999742507935,-0.04427500069141388
1757088124131008300,3.92000830078125,-0.008112499490380287,0.13626250624656677,-0.052799999713897705
1757088124140561400,3.9295615234375,-0.006874999962747097,0.13378749787807465,-0.06132499873638153
1757088124150114800,3.93911474609375,-0.004399999976158142,0.12278749793767929,-0.06751249730587006
1757088124159668200,3.948668212890625,-0.004399999976158142,0.10821250081062317,-0.07232499867677689
1757088124169221400,3.958221435546875,-0.0008249999955296516,0.08744999766349792,-0.07603749632835388
1757088124178774500,3.9677744140625,0.0016499999910593033,0.07150000333786011,-0.082225002348423
1757088124188328000,3.977327880859375,0.0004124999977648258,0.06544999778270721,-0.09075000137090683
1757088124197881000,3.986881103515625,-0.0008249999955296516,0.06902500241994858,-0.10175000131130219
1757088124207434500,3.9964345703125,0.0004124999977648258,0.07026249915361404,-0.113987497985363
1757088124216988000,4.00598779296875,0.0004124999977648258,0.07026249915361404,-0.12856249511241913
1757088124226541000,4.015541015625,-0.0031624999828636646,0.07397499680519104,-0.14327499270439148
1757088124236094500,4.025094482421875,-0.006874999962747097,0.08621250092983246,-0.16032500565052032
1757088124245647600,4.034647705078125,-0.015399999916553497,0.10326249897480011,-0.1835625022649765
1757088124255201000,4.044200927734375,-0.022824998944997787,0.1289750039577484,-0.20432500541210175
1757088124264754200,4.053754150390625,-0.030112499371170998,0.16197499632835388,-0.2250874936580658
1757088124274307300,4.063307373046875,-0.03492499887943268,0.20350000262260437,-0.24213749170303345
1757088124283860500,4.072860595703125,-0.03492499887943268,0.24873749911785126,-0.2605625092983246
1757088124293414000,4.082413818359375,-0.030112499371170998,0.2913624942302704,-0.28132501244544983
1757088124302967300,4.09196728515625,-0.020349999889731407,0.3353624939918518,-0.30332499742507935
1757088124312520700,4.101520751953125,-0.019112499430775642,0.3867875039577484,-0.3265624940395355
1757088124322073900,4.111073974609375,-0.022824998944997787,0.4503124952316284,-0.35089999437332153
1757088124331627000,4.120626953125,-0.022824998944997787,0.5284125208854675,-0.36932501196861267
1757088124341180700,4.1301806640625,-0.024062499403953552,0.6103624701499939,-0.38032498955726624
1757088124350733600,4.139733642578125,-0.028875000774860382,0.6872249841690063,-0.3863750100135803
1757088124360287000,4.149286865234375,-0.03616249933838844,0.7581750154495239,-0.39118748903274536
1757088124369840400,4.15884033203125,-0.03987500071525574,0.8167499899864197,-0.3936625123023987
1757088124379393500,4.1683935546875,-0.03739999979734421,0.8619874715805054,-0.3973749876022339
1757088124388947200,4.177947265625,-0.026399999856948853,0.8949875235557556,-0.403425008058548
1757088124398500000,4.1875,-0.022824998944997787,0.9095624685287476,-0.41813749074935913
1757088124408053200,4.19705322265625,-0.017875000834465027,0.9022749662399292,-0.4413749873638153
1757088124417606700,4.206606689453125,-0.011824999935925007,0.8680375218391418,-0.4828999936580658
1757088124427160000,4.21616015625,-0.0008249999955296516,0.8619874715805054,-0.5391374826431274
1757088124436713200,4.225713134765625,0.018699999898672104,0.8875625133514404,-0.6147624850273132
1757088124446266400,4.235266357421875,0.045649997889995575,0.9315624833106995,-0.7137625217437744
1757088124455819800,4.24481982421875,0.10670000314712524,1.037850022315979,-0.8322874903678894
1757088124465373000,4.254373046875,0.1116499975323677,1.1393250226974487,-0.9800999760627747
1757088124474926300,4.26392626953125,0.14217500388622284,1.2761374711990356,-1.1791999340057373
1757088124484479700,4.273479736328125,0.17641249299049377,1.3567124605178833,-1.4407249689102173
1757088124494033000,4.283032958984375,0.23993749916553497,1.4141875505447388,-1.721637487411499
1757088124503586300,4.29258642578125,0.2887499928474426,1.2016124725341797,-1.9549750089645386
1757088124513139500,4.302139404296875,0.3315125107765198,0.5126000046730042,-2.0429749488830566
1757088124522692600,4.311692626953125,0.359562486410141,-0.0835999995470047,-2.008737564086914
1757088124532246000,4.32124609375,0.2827000021934509,-0.255887508392334,-1.9684499502182007
1757088124541799200,4.330799072265625,0.14093749225139618,-0.1447875052690506,-2.014925003051758
1757088124551352600,4.3403525390625,0.05912499874830246,-0.040837500244379044,-2.116262435913086
1757088124560906000,4.349906005859375,0.03959999978542328,-0.09212499856948853,-2.1554501056671143
1757088124570459100,4.359459228515625,0.055412501096725464,-0.1508374959230423,-2.1456875801086426
1757088124580012300,4.36901220703125,0.10064999759197235,-0.35846251249313354,-2.0564498901367188
1757088124589565700,4.378565673828125,0.19470000267028809,-0.4954124987125397,-1.9953999519348145
1757088124599118800,4.388118896484375,0.2667500078678131,-0.43546250462532043,-1.9696874618530273
1757088124608672000,4.397672119140625,0.3217499852180481,-0.2083124965429306,-2.009974956512451
1757088124618225700,4.4072255859375,0.4195125102996826,0.04097500070929527,-2.039400100708008
1757088124627778800,4.41677880859375,0.40727499127388,0.16321249306201935,-1.9989750385284424
1757088124637332000,4.42633203125,0.35475000739097595,0.3647874891757965,-1.983162522315979
1757088124646885400,4.435885498046875,0.23498749732971191,0.4283125102519989,-1.891450047492981
1757088124656438500,4.4454384765625,0.0859375,0.46736249327659607,-1.7815874814987183
1757088124665991700,4.45499169921875,-0.03135000169277191,0.5126000046730042,-1.630062460899353
1757088124675545000,4.464545166015625,-0.15716250240802765,0.4844124913215637,-1.4785374402999878
1757088124685098500,4.474098388671875,-0.2829749882221222,0.5711749792098999,-1.3149124383926392
1757088124694651600,4.483651611328125,-0.36121249198913574,0.6567000150680542,-1.2293875217437744
1757088124704204800,4.493204833984375,-0.318450003862381,0.6726499795913696,-1.2611500024795532
1757088124713758200,4.50275830078125,-0.254925012588501,0.44165000319480896,-1.4077249765396118
1757088124723311400,4.512311279296875,-0.22439999878406525,0.13378749787807465,-1.6117750406265259
1757088124732864800,4.52186474609375,-0.1621125042438507,-0.021312499418854713,-1.8193999528884888
1757088124742418000,4.53141796875,-0.15716250240802765,-0.031075000762939453,-1.967212438583374
1757088124751971000,4.54097119140625,-0.15716250240802765,-0.1190750002861023,-2.0479249954223633
1757088124761524500,4.5505244140625,-0.13516250252723694,-0.2656500041484833,-2.0613999366760254
1757088124771078000,4.560077880859375,-0.1143999993801117,-0.3792249858379364,-2.0259249210357666
1757088124780631000,4.569631103515625,-0.09611249715089798,-0.3683624863624573,-1.9318749904632568
1757088124790184200,4.57918408203125,-0.0789249986410141,-0.2326499968767166,-1.7608250379562378
1757088124799737600,4.588737548828125,-0.06668750196695328,-0.01759999990463257,-1.5665374994277954
1757088124809290800,4.598290771484375,-0.05816249921917915,0.19731250405311584,-1.4016749858856201
1757088124818844400,4.607844482421875,-0.08758749812841415,0.32807499170303345,-1.2684375047683716
1757088124828397300,4.617397216796875,-0.12540000677108765,0.4563624858856201,-1.196387529373169
1757088124837950700,4.62695068359375,-0.15839999914169312,0.5809375047683716,-1.1976250410079956
1757088124847504000,4.63650390625,-0.16321249306201935,0.5748875141143799,-1.2329624891281128
1757088124857057300,4.646057373046875,-0.13887499272823334,0.4221250116825104,-1.3087249994277954
1757088124866610400,4.6556103515625,-0.1143999993801117,0.2400749921798706,-1.4297250509262085
1757088124876163800,4.665163818359375,-0.0789249986410141,0.12278749793767929,-1.4785374402999878
1757088124885717000,4.674717041015625,-0.04592499881982803,0.1069749966263771,-1.454200029373169
1757088124895270100,4.684270263671875,-0.028875000774860382,0.09721250087022781,-1.4431999921798706
1757088124904823600,4.693823486328125,-0.05211250111460686,0.058024998754262924,-1.472487449645996
1757088124914376700,4.703376708984375,-0.08758749812841415,-0.011549999937415123,-1.5054874420166016
1757088124923930000,4.71293017578125,-0.10339999943971634,-0.03849999979138374,-1.5188249349594116
1757088124933483300,4.722483154296875,-0.03863750025629997,-0.016499999910593033,-1.5042500495910645
1757088124943036700,4.73203662109375,0.01993750035762787,0.03973750025033951,-1.462725043296814
1757088124952589800,4.74158984375,0.11893749982118607,0.09473749995231628,-1.4284875392913818
1757088124962143200,4.751143310546875,0.20569999516010284,0.09102500230073929,-1.4137749671936035
1757088124971696400,4.7606962890625,0.2630375027656555,0.031212499365210533,-1.4260125160217285
1757088124981249500,4.77024951171875,0.32298749685287476,0.027499999850988388,-1.4407249689102173
1757088124990803000,4.779802978515625,0.3315125107765198,0.05926249921321869,-1.4125374555587769
1757088125000356400,4.7893564453125,0.296037495136261,0.1667875051498413,-1.367437481880188
1757088125009909500,4.798909423828125,0.2545124888420105,0.26826250553131104,-1.306249976158142
1757088125019463000,4.808462890625,0.2167000025510788,0.3170749843120575,-1.2586749792099
1757088125029016000,4.81801611328125,0.19717499613761902,0.33178749680519104,-1.2476749420166016
1757088125038569200,4.8275693359375,0.18975000083446503,0.3293125033378601,-1.2526249885559082
1757088125048122600,4.83712255859375,0.18369999527931213,0.32807499170303345,-1.2854875326156616
1757088125057675800,4.84667578125,0.10422500222921371,0.358599990606308,-1.2854875326156616
1757088125067229000,4.85622900390625,0.11646249890327454,0.2975499927997589,-1.2831499576568604
1757088125076782300,4.8657822265625,0.11769999563694,0.29878750443458557,-1.2526249885559082
1757088125086335700,4.875335693359375,0.12870000302791595,0.3353624939918518,-1.206149935722351
1757088125095889000,4.884888916015625,0.09088750183582306,0.3830749988555908,-1.1450999975204468
1757088125105442000,4.894442138671875,0.052937500178813934,0.47107499837875366,-1.0998624563217163
1757088125114995200,4.9039951171875,0.008937500417232513,0.47341248393058777,-1.118149995803833
1757088125124548600,4.913548583984375,0.007699999958276749,0.45883750915527344,-1.1364375352859497
1757088125134101800,4.923101806640625,0.007699999958276749,0.4404124915599823,-1.1463375091552734
1757088125143655200,4.9326552734375,0.004124999977648258,0.41359999775886536,-1.1340999603271484
1757088125153208600,4.94220849609375,-0.0056374999694526196,0.4380750060081482,-1.0949125289916992
1757088125162761500,4.951761474609375,-0.008112499490380287,0.41731250286102295,-1.0718125104904175
1757088125172315100,4.961315185546875,0.02969999983906746,0.40988749265670776,-1.0718125104904175
1757088125181868300,4.970868408203125,0.038362499326467514,0.37812501192092896,-1.0949125289916992
1757088125191421400,4.98042138671875,0.035887498408555984,0.367125004529953,-1.1279125213623047
1757088125200974800,4.989974853515625,0.04441250115633011,0.3573625087738037,-1.1511499881744385
1757088125210528000,4.999528076171875,0.060362499207258224,0.3793624937534332,-1.1571999788284302
1757088125220081200,5.0090810546875,0.06641250103712082,0.40988749265670776,-1.1426249742507935
1757088125229634600,5.018634521484375,0.057887498289346695,0.43188750743865967,-1.126675009727478
1757088125239188000,5.02818798828125,-0.016637500375509262,0.46131250262260437,-1.1121000051498413
1757088125248740900,5.037740966796875,-0.022824998944997787,0.44165000319480896,-1.0901000499725342
1757088125258294300,5.047294189453125,-0.016637500375509262,0.5308874845504761,-1.0338624715805054
1757088125267847700,5.05684765625,-0.0448249988257885,0.644462525844574,-0.9483374953269958
1757088125277400800,5.06640087890625,-0.0789249986410141,0.7202249765396118,-0.8482375144958496
1757088125286954000,5.0759541015625,-0.10944999754428864,0.736175000667572,-0.7797625064849854
1757088125296507400,5.08550732421875,-0.1461624950170517,0.7166500091552734,-0.7297124862670898
1757088125306060500,5.095060546875,-0.19744999706745148,0.6774625182151794,-0.694237470626831
1757088125315614000,5.104614013671875,-0.2414499968290329,0.6579374670982361,-0.658762514591217
1757088125325167000,5.1141669921875,-0.2793999910354614,0.6261749863624573,-0.650237500667572
1757088125334720300,5.12372021484375,-0.3404499888420105,0.40507498383522034,-0.7675250172615051
1757088125344273700,5.133273681640625,-0.3624500036239624,0.2815999984741211,-0.8273375034332275
1757088125353826800,5.142826904296875,-0.39297500252723694,0.29878750443458557,-0.7847124934196472
1757088125363380000,5.1523798828125,-0.43931248784065247,0.31459999084472656,-0.7089499831199646
1757088125372933600,5.16193359375,-0.46254998445510864,0.36959999799728394,-0.6136624813079834
1757088125382486800,5.17148681640625,-0.44673749804496765,0.4295499920845032,-0.5293750166893005
1757088125392040000,5.1810400390625,-0.4185499846935272,0.47464999556541443,-0.44385001063346863
1757088125401593300,5.19059326171875,-0.36602500081062317,0.5076500177383423,-0.38032498955726624
1757088125411146500,5.200146484375,-0.30016249418258667,0.5381749868392944,-0.2910875082015991
1757088125420699600,5.20969970703125,-0.2512125074863434,0.48688748478889465,-0.20803749561309814
1757088125430253000,5.219253173828125,-0.2059749960899353,0.5003625154495239,-0.13832500576972961
1757088125439806500,5.228806396484375,-0.16692499816417694,0.46488749980926514,-0.09679999947547913
1757088125449359400,5.238359375,-0.11935000121593475,0.4208875000476837,-0.08332499861717224
1757088125458913000,5.2479130859375,-0.06435000151395798,0.3133625090122223,-0.0919874981045723
1757088125468466200,5.257466064453125,-0.008112499490380287,0.20102499425411224,-0.11151249706745148
1757088125478019300,5.267019287109375,0.03712499886751175,0.08249999582767487,-0.1260875016450882
1757088125487572500,5.276572509765625,0.089649997651577,-0.02502499893307686,-0.10903749614953995
1757088125497126000,5.2861259765625,0.14698749780654907,-0.060362499207258224,-0.07479999959468842
1757088125506679000,5.295678955078125,0.18246249854564667,-0.03849999979138374,-0.04179999977350235
1757088125516232400,5.305232421875,0.1886499971151352,0.016499999910593033,-0.013749999925494194
1757088125525785600,5.31478564453125,0.17765000462532043,0.03368749842047691,0.01924999989569187
1757088125535338800,5.3243388671875,0.15674999356269836,0.03849999979138374,0.05829999968409538
1757088125544892000,5.333891845703125,0.12264999747276306,0.05926249921321869,0.09858749806880951
1757088125554445600,5.343445556640625,0.07864999771118164,0.09597499668598175,0.12058749794960022
1757088125563998700,5.352998779296875,0.035887498408555984,0.11797499656677246,0.10958749800920486
1757088125573551900,5.3625517578125,-0.008112499490380287,0.1289750039577484,0.05224999785423279
1757088125583105000,5.37210498046875,-0.03382499888539314,0.07878749817609787,-0.025987500324845314
1757088125592658400,5.381658447265625,-0.03987500071525574,0.014162499457597733,-0.09679999947547913
1757088125602211600,5.391211669921875,-0.028875000774860382,0.012924999929964542,-0.14685000479221344
1757088125611765000,5.400764892578125,-0.03258749842643738,0.029975000768899918,-0.1652749925851822
1757088125621318100,5.410318115234375,-0.05816249921917915,0.05444999784231186,-0.15908749401569366
1757088125630871300,5.419871337890625,-0.08387500047683716,0.06173750013113022,-0.1237500011920929
1757088125640424700,5.4294248046875,-0.10587500035762787,0.07768750190734863,-0.07232499867677689
1757088125649978000,5.43897802734375,-0.1083500012755394,0.09968750178813934,-0.021037500351667404
1757088125659531300,5.44853125,-0.10944999754428864,0.11921250075101852,0.01677500084042549
1757088125669084400,5.45808447265625,-0.10944999754428864,0.12044999748468399,0.03396249935030937
1757088125678637800,5.467637939453125,-0.1143999993801117,0.09968750178813934,0.022962499409914017
1757088125688191000,5.47719091796875,-0.1106875017285347,0.07026249915361404,-0.0015124999918043613
1757088125697744100,5.486744140625,-0.1143999993801117,0.048262499272823334,-0.014987500384449959
1757088125707297500,5.496297607421875,-0.12292499840259552,0.0494999997317791,-0.008799999952316284
1757088125716850700,5.5058505859375,-0.1303499937057495,0.08373750001192093,0.009487500414252281
1757088125726404000,5.515404052734375,-0.13516250252723694,0.12044999748468399,0.04124999791383743
1757088125735957200,5.524957275390625,-0.13763749599456787,0.14973749220371246,0.07672499865293503
1757088125745510400,5.534510498046875,-0.13763749599456787,0.17173749208450317,0.1023000031709671
1757088125755063800,5.544063720703125,-0.14011250436306,0.1863124966621399,0.11824999749660492
1757088125764617000,5.553616943359375,-0.13763749599456787,0.18754999339580536,0.12306249886751175
1757088125774170400,5.56317041015625,-0.13516250252723694,0.18150000274181366,0.11701250076293945
1757088125783723800,5.572723876953125,-0.13516250252723694,0.16554999351501465,0.09748750180006027
1757088125793277000,5.58227685546875,-0.1266375035047531,0.13255000114440918,0.06324999779462814
1757088125802830000,5.591830078125,-0.11316250264644623,0.0849749967455864,0.0387750007212162
1757088125812383500,5.601383544921875,-0.10092499852180481,0.058024998754262924,0.01924999989569187
1757088125821936600,5.6109365234375,-0.09239999949932098,0.060499999672174454,0.010724999941885471
1757088125831489800,5.62048974609375,-0.08511249721050262,0.08249999582767487,0.009487500414252281
1757088125841043200,5.630043212890625,-0.06435000151395798,0.09968750178813934,0.015537500381469727
1757088125850596400,5.639596435546875,-0.0411125011742115,0.10326249897480011,0.022962499409914017
1757088125860149500,5.6491494140625,-0.004399999976158142,0.116737499833107,0.024062499403953552
1757088125869703000,5.658702880859375,0.013887500390410423,0.14973749220371246,0.024062499403953552
1757088125879256000,5.668256103515625,-0.017875000834465027,0.148499995470047,0.022962499409914017
1757088125888809200,5.677809326171875,-0.0448249988257885,0.0849749967455864,0.015537500381469727
1757088125898363000,5.68736279296875,-0.03258749842643738,0.07768750190734863,-0.0002749999985098839
1757088125907916000,5.696916015625,-0.03987500071525574,0.08978749811649323,-0.005224999971687794
1757088125917469200,5.70646923828125,-0.020349999889731407,0.03973750025033951,-0.010037500411272049
1757088125927022300,5.716022216796875,0.008937500417232513,-0.03231250122189522,-0.01746249943971634
1757088125936575700,5.72557568359375,0.02969999983906746,-0.06902500241994858,-0.023512499406933784
1757088125946129000,5.73512890625,0.050462499260902405,-0.08607500046491623,-0.013749999925494194
1757088125955682000,5.74468212890625,0.06764999777078629,-0.09831249713897705,0.004537499975413084
1757088125965235200,5.754235107421875,0.07741250097751617,-0.07878749817609787,0.01924999989569187
1757088125974788600,5.76378857421875,0.0798875018954277,-0.04455000162124634,0.03506249934434891
1757088125984341800,5.773341796875,0.06888750195503235,-0.015262499451637268,0.0424874983727932
1757088125993895200,5.782895263671875,0.04936249926686287,-0.009074999950826168,0.03753750026226044
1757088126003448300,5.7924482421875,0.03341250121593475,-0.028599999845027924,0.014299999922513962
1757088126013001500,5.80200146484375,0.021175000816583633,-0.060362499207258224,-0.013749999925494194
1757088126022555000,5.811554931640625,0.02241249941289425,-0.08112499862909317,-0.025987500324845314
1757088126032108300,5.8211083984375,0.038362499326467514,-0.06902500241994858,-0.01746249943971634
1757088126041661400,5.830661376953125,0.05912499874830246,-0.048262499272823334,0.008249999955296516
1757088126051214600,5.840214599609375,0.07617499679327011,-0.028599999845027924,0.03506249934434891
1757088126060768000,5.84976806640625,0.0859375,-0.005499999970197678,0.04853750020265579
1757088126070321200,5.859321044921875,0.0859375,0.015262499451637268,0.0387750007212162
1757088126079874600,5.86887451171875,0.0798875018954277,0.0019249999895691872,0.014299999922513962
1757088126089427700,5.878427734375,0.07012499868869781,-0.04331250116229057,0.002199999988079071
1757088126098981000,5.887981201171875,0.06146249920129776,-0.07136250287294388,-0.002749999985098839
1757088126108534000,5.897533935546875,0.055412501096725464,-0.07383749634027481,0.0057749999687075615
1757088126118087400,5.90708740234375,0.04688749834895134,-0.040837500244379044,0.011962499469518661
1757088126127640600,5.916640625,0.04441250115633011,-0.015262499451637268,0.011962499469518661
1757088126137193700,5.92619384765625,0.05169999971985817,-0.010312499478459358,0.011962499469518661
1757088126146747100,5.9357470703125,0.057887498289346695,-0.009074999950826168,0.0057749999687075615
1757088126156300300,5.94530029296875,0.06146249920129776,-0.010312499478459358,-0.011274999938905239
1757088126165853700,5.954853759765625,0.07493750005960464,0.015262499451637268,-0.005224999971687794
1757088126175407000,5.964406982421875,0.08841250091791153,0.029975000768899918,0.014299999922513962
1757088126184960300,5.973960205078125,0.09817499667406082,0.028737500309944153,0.029012499377131462
1757088126194513400,5.983513427734375,0.09322500228881836,0.031212499365210533,0.027775000780820847
1757088126204066800,5.99306689453125,0.06764999777078629,-0.0005499999970197678,-0.0002749999985098839
1757088126213620000,6.002619873046875,0.07012499868869781,-0.031075000762939453,-0.03203750029206276
1757088126223173000,6.012173095703125,0.06393750011920929,-0.036024998873472214,-0.052799999713897705
1757088126232726300,6.021726318359375,0.050462499260902405,-0.016499999910593033,-0.06627500057220459
1757088126242279700,6.03127978515625,0.04193750023841858,0.006737499963492155,-0.07603749632835388
1757088126251832800,6.040832763671875,0.040699999779462814,0.021449999883770943,-0.08098749816417694
1757088126261386200,6.05038623046875,0.04688749834895134,0.020212499424815178,-0.08703749626874924
1757088126270939400,6.059939453125,0.052937500178813934,0.010449999943375587,-0.09322500228881836
1757088126280492500,6.069492431640625,0.050462499260902405,-0.0017874999903142452,-0.09556250274181366
1757088126290046000,6.0790458984375,0.05169999971985817,-0.007837500423192978,-0.09075000137090683
1757088126299599000,6.08859912109375,0.04936249926686287,0.0019249999895691872,-0.08098749816417694
1757088126309152500,6.098152587890625,0.043175000697374344,0.012924999929964542,-0.07122500240802765
1757088126318705700,6.10770556640625,0.03712499886751175,0.021449999883770943,-0.05898749828338623
1757088126328259000,6.117259033203125,0.03341250121593475,0.036024998873472214,-0.045512501150369644
1757088126337812200,6.126812255859375,0.030937500298023224,0.04592499881982803,-0.02474999986588955
1757088126347365400,6.136365478515625,0.030937500298023224,0.055687498301267624,-0.011274999938905239
1757088126356918500,6.14591845703125,0.035887498408555984,0.05444999784231186,-0.005224999971687794
1757088126366472000,6.155471923828125,0.03712499886751175,0.04702499881386757,-0.002749999985098839
1757088126376025000,6.165025146484375,0.03464999794960022,0.04097500070929527,0.0009624999947845936
1757088126385578500,6.17457861328125,0.03464999794960022,0.043449997901916504,0.008249999955296516
1757088126395131600,6.184131591796875,0.03712499886751175,0.031212499365210533,0.008249999955296516
1757088126404684800,6.193684814453125,0.038362499326467514,0.020212499424815178,0.0057749999687075615
1757088126414238200,6.20323828125,0.03712499886751175,0.016499999910593033,0.004537499975413084
1757088126423791400,6.212791259765625,0.03464999794960022,0.012924999929964542,0.004537499975413084
1757088126433344800,6.2223447265625,0.03217500075697899,0.006737499963492155,0.0032999999821186066
1757088126442898000,6.23189794921875,0.028599999845027924,0.007974999956786633,0.002199999988079071
1757088126452451000,6.241451171875,0.02488750033080578,0.015262499451637268,0.004537499975413084
1757088126462004200,6.251004150390625,0.021175000816583633,0.029975000768899918,0.011962499469518661
1757088126471557600,6.2605576171875,0.023649999871850014,0.022687500342726707,0.013062499463558197
1757088126481110800,6.27011083984375,0.021175000816583633,0.011687500402331352,0.009487500414252281
1757088126490664000,6.279663818359375,0.016362499445676804,0.009212499484419823,0.0057749999687075615
1757088126500217600,6.289217529296875,0.010174999944865704,0.011687500402331352,0.004537499975413084
1757088126509770500,6.2987705078125,0.006599999964237213,0.015262499451637268,0.0032999999821186066
1757088126519324000,6.308323974609375,0.0016499999910593033,0.021449999883770943,0.0032999999821186066
1757088126528877000,6.317876953125,-0.0056374999694526196,0.022687500342726707,0.0032999999821186066
1757088126538430500,6.327430419921875,-0.013062499463558197,0.020212499424815178,0.004537499975413084
1757088126547983600,6.336983642578125,-0.016637500375509262,0.023924998939037323,0.007012499962002039
1757088126557536800,6.346536865234375,-0.019112499430775642,0.022687500342726707,0.009487500414252281
1757088126567090200,6.356090087890625,-0.024062499403953552,0.021449999883770943,0.008249999955296516
1757088126576643300,6.365643310546875,-0.025162499397993088,0.021449999883770943,0.008249999955296516
1757088126586196500,6.375196533203125,-0.024062499403953552,0.018975000828504562,0.008249999955296516
1757088126595750000,6.38475,-0.024062499403953552,0.016499999910593033,0.008249999955296516
1757088126605303000,6.394302978515625,-0.022824998944997787,0.014162499457597733,0.007012499962002039
1757088126614856200,6.403856201171875,-0.019112499430775642,0.011687500402331352,0.0057749999687075615
1757088126624409300,6.413409423828125,-0.016637500375509262,0.011687500402331352,0.007012499962002039
1757088126633962800,6.422962646484375,-0.013062499463558197,0.010449999943375587,0.008249999955296516
1757088126643516000,6.432515869140625,-0.010587500408291817,0.010449999943375587,0.007012499962002039
1757088126653069300,6.4420693359375,-0.0056374999694526196,0.009212499484419823,0.007012499962002039
1757088126662622500,6.45162255859375,-0.002062499988824129,0.006737499963492155,0.007012499962002039
1757088126672175600,6.461175537109375,0.0028874999843537807,0.006737499963492155,0.004537499975413084
1757088126681729000,6.47072900390625,0.007699999958276749,0.005499999970197678,0.0032999999821186066
1757088126691282200,6.4802822265625,0.011412499472498894,0.0042624999769032,0.0009624999947845936
1757088126700835600,6.489835693359375,0.015124999918043613,0.0019249999895691872,-0.0015124999918043613
1757088126710388700,6.499388671875,0.015124999918043613,0.0006874999962747097,-0.002749999985098839
1757088126719942000,6.50894189453125,0.01759999990463257,-0.0005499999970197678,-0.003987499978393316
1757088126729495300,6.518495361328125,0.01759999990463257,-0.0017874999903142452,-0.005224999971687794
1757088126739048700,6.528048583984375,0.01759999990463257,-0.0017874999903142452,-0.005224999971687794
1757088126748601900,6.537601806640625,0.01759999990463257,-0.0017874999903142452,-0.003987499978393316
1757088126758155000,6.547155029296875,0.016362499445676804,0.0006874999962747097,-0.003987499978393316
1757088126767708400,6.55670849609375,0.015124999918043613,0.0006874999962747097,-0.002749999985098839
1757088126777261600,6.566261474609375,0.011412499472498894,0.0019249999895691872,-0.002749999985098839
1757088126786814700,6.575814697265625,0.010174999944865704,0.0031624999828636646,-0.002749999985098839
1757088126796368100,6.5853681640625,0.007699999958276749,0.0031624999828636646,-0.002749999985098839
1757088126805921300,6.59492138671875,0.006599999964237213,0.0019249999895691872,-0.002749999985098839
1757088126815474400,6.604474365234375,0.005362499970942736,0.0019249999895691872,-0.002749999985098839
1757088126825027600,6.614027587890625,0.0028874999843537807,-0.0005499999970197678,-0.005224999971687794
1757088126834581000,6.6235810546875,0.0004124999977648258,0.0006874999962747097,-0.005224999971687794
1757088126844134100,6.633134033203125,-0.002062499988824129,0.0006874999962747097,-0.003987499978393316
1757088126853687600,6.6426875,-0.0031624999828636646,0.0031624999828636646,-0.003987499978393316
1757088126863240700,6.65224072265625,-0.0031624999828636646,0.0042624999769032,-0.0015124999918043613
1757088126872793900,6.6617939453125,-0.0056374999694526196,0.005499999970197678,-0.0002749999985098839
1757088126882347000,6.671346923828125,-0.0056374999694526196,0.0042624999769032,0.0009624999947845936
1757088126891900400,6.680900390625,-0.0056374999694526196,0.0042624999769032,0.0009624999947845936
1757088126901453600,6.69045361328125,-0.0056374999694526196,0.0031624999828636646,-0.0015124999918043613
1757088126911006700,6.7000068359375,-0.0056374999694526196,0.0042624999769032,-0.0015124999918043613
1757088126920560000,6.70956005859375,-0.006874999962747097,0.0042624999769032,-0.0015124999918043613
1757088126930113300,6.71911328125,-0.0056374999694526196,0.0042624999769032,-0.0015124999918043613
1757088126939666400,6.72866650390625,-0.0056374999694526196,0.0042624999769032,-0.0015124999918043613
1757088126949219800,6.7382197265625,-0.0056374999694526196,0.0042624999769032,-0.0015124999918043613
1757088126958773000,6.74777294921875,-0.004399999976158142,0.005499999970197678,0.0009624999947845936
1757088126968326100,6.757326171875,-0.004399999976158142,0.005499999970197678,-0.0015124999918043613
1757088126977879300,6.76687939453125,-0.0031624999828636646,0.005499999970197678,0.0009624999947845936
1757088126987432700,6.7764326171875,-0.002062499988824129,0.005499999970197678,0.0009624999947845936
1757088126996985900,6.78598583984375,-0.0008249999955296516,0.0042624999769032,0.0009624999947845936
1757088127006539000,6.7955390625,-0.0008249999955296516,0.0031624999828636646,-0.0015124999918043613
1757088127016092400,6.805092529296875,0.0004124999977648258,0.0006874999962747097,-0.0015124999918043613
1757088127025645600,6.8146455078125,0.0028874999843537807,0.0006874999962747097,-0.002749999985098839
1757088127035198700,6.82419873046875,0.0028874999843537807,0.0006874999962747097,-0.002749999985098839
1757088127044752100,6.833752197265625,0.004124999977648258,0.0006874999962747097,-0.003987499978393316
1757088127054305500,6.843305419921875,0.005362499970942736,-0.0005499999970197678,-0.002749999985098839
1757088127063858700,6.852858642578125,0.006599999964237213,0.0006874999962747097,-0.002749999985098839
1757088127073411800,6.862411865234375,0.006599999964237213,0.0006874999962747097,-0.0015124999918043613
1757088127082965000,6.871965087890625,0.006599999964237213,0.0006874999962747097,0.0009624999947845936
1757088127092518400,6.881518310546875,0.006599999964237213,0.0006874999962747097,0.002199999988079071
1757088127102071600,6.891071533203125,0.005362499970942736,0.0031624999828636646,0.002199999988079071
1757088127111625000,6.900625,0.005362499970942736,0.0042624999769032,0.0009624999947845936
1757088127121178000,6.91017822265625,0.004124999977648258,0.0042624999769032,-0.0015124999918043613
1757088127130731300,6.919731201171875,0.0028874999843537807,0.0019249999895691872,-0.002749999985098839
1757088127140284700,6.92928466796875,0.0028874999843537807,-0.0005499999970197678,-0.003987499978393316
1757088127149837800,6.938837890625,0.0028874999843537807,-0.0030249999836087227,-0.003987499978393316
1757088127159391000,6.948390869140625,0.0028874999843537807,-0.005499999970197678,-0.003987499978393316
1757088127168944400,6.9579443359375,0.0028874999843537807,-0.005499999970197678,-0.002749999985098839
1757088127178497500,6.96749755859375,0.0016499999910593033,-0.0017874999903142452,-0.0002749999985098839
1757088127188050700,6.97705078125,0.0004124999977648258,0.0019249999895691872,0.002199999988079071
1757088127197603800,6.986603759765625,0.0004124999977648258,0.0031624999828636646,0.002199999988079071
1757088127207157200,6.9961572265625,-0.0008249999955296516,0.0042624999769032,0.0032999999821186066
1757088127216710400,7.00571044921875,-0.002062499988824129,0.0042624999769032,0.0009624999947845936
1757088127226263800,7.015263916015625,-0.0031624999828636646,0.0019249999895691872,-0.002749999985098839
1757088127235817000,7.02481689453125,-0.0031624999828636646,0.0006874999962747097,-0.003987499978393316
1757088127245370000,7.0343701171875,-0.002062499988824129,-0.0030249999836087227,-0.005224999971687794
1757088127254923300,7.04392333984375,-0.0008249999955296516,-0.0042624999769032,-0.005224999971687794
1757088127264476700,7.0534765625,0.0004124999977648258,-0.0030249999836087227,-0.002749999985098839
1757088127274029800,7.06302978515625,0.0004124999977648258,-0.0017874999903142452,-0.0002749999985098839
1757088127283583000,7.0725830078125,0.0016499999910593033,0.0006874999962747097,0.002199999988079071
1757088127293136100,7.08213623046875,0.0016499999910593033,0.0019249999895691872,0.002199999988079071
1757088127302689500,7.091689453125,0.0016499999910593033,0.0031624999828636646,0.0009624999947845936
1757088127312242700,7.10124267578125,0.0016499999910593033,0.0031624999828636646,-0.0002749999985098839
1757088127321796000,7.110796142578125,0.0016499999910593033,0.0019249999895691872,-0.0002749999985098839
1757088127331349200,7.120349365234375,0.0016499999910593033,0.0006874999962747097,-0.0002749999985098839
1757088127340902400,7.12990234375,0.0028874999843537807,-0.0005499999970197678,-0.0015124999918043613
1757088127350455800,7.139455810546875,0.0028874999843537807,-0.0005499999970197678,-0.0002749999985098839
1757088127360009000,7.149009033203125,0.0028874999843537807,-0.0017874999903142452,-0.0002749999985098839
1757088127369562000,7.15856201171875,0.0028874999843537807,-0.0005499999970197678,0.0009624999947845936
1757088127379115300,7.168115234375,0.0016499999910593033,0.0006874999962747097,0.0009624999947845936
1757088127388668700,7.177668701171875,0.0016499999910593033,0.0019249999895691872,-0.0002749999985098839
1757088127398221800,7.187221923828125,0.0016499999910593033,0.0031624999828636646,-0.0015124999918043613
1757088127407775200,7.196775146484375,0.0004124999977648258,0.0019249999895691872,-0.002749999985098839
1757088127417328600,7.20632861328125,0.0004124999977648258,0.0006874999962747097,-0.002749999985098839
1757088127426881500,7.215881591796875,0.0016499999910593033,0.0006874999962747097,-0.002749999985098839
1757088127436435000,7.22543505859375,0.0004124999977648258,0.0006874999962747097,-0.0015124999918043613
1757088127445988000,7.234988037109375,0.0016499999910593033,-0.0005499999970197678,-0.002749999985098839
1757088127455541200,7.244541259765625,0.0016499999910593033,0.0006874999962747097,-0.0002749999985098839
1757088127465094700,7.2540947265625,0.0016499999910593033,-0.0005499999970197678,-0.0015124999918043613
1757088127474647800,7.263647705078125,0.0016499999910593033,0.0006874999962747097,-0.0015124999918043613
1757088127484201000,7.273200927734375,0.0016499999910593033,-0.0017874999903142452,-0.002749999985098839
1757088127493754000,7.282754150390625,0.0004124999977648258,-0.0017874999903142452,-0.002749999985098839
1757088127503307500,7.2923076171875,0.0016499999910593033,-0.0030249999836087227,-0.003987499978393316
1757088127512860700,7.301860595703125,0.0028874999843537807,-0.0042624999769032,-0.003987499978393316
1757088127522413800,7.311413818359375,0.0028874999843537807,-0.0030249999836087227,-0.002749999985098839
1757088127531967200,7.32096728515625,0.0016499999910593033,-0.0017874999903142452,-0.002749999985098839
1757088127541520400,7.330520263671875,0.0028874999843537807,-0.0005499999970197678,-0.0015124999918043613
1757088127551073500,7.340073486328125,0.0016499999910593033,-0.0005499999970197678,-0.0015124999918043613
1757088127560627000,7.349626953125,0.0016499999910593033,-0.0017874999903142452,-0.002749999985098839
1757088127570180000,7.35918017578125,0.0016499999910593033,-0.0017874999903142452,-0.002749999985098839
1757088127579733200,7.368733154296875,0.0016499999910593033,-0.0017874999903142452,-0.002749999985098839
1757088127589286700,7.37828662109375,0.0016499999910593033,-0.0017874999903142452,-0.002749999985098839
1757088127598840000,7.387840087890625,0.0028874999843537807,-0.0005499999970197678,-0.0015124999918043613
1757088127608393000,7.39739306640625,0.0016499999910593033,-0.0005499999970197678,-0.0015124999918043613
1757088127617946400,7.4069462890625,0.0004124999977648258,-0.0005499999970197678,-0.0002749999985098839
1757088127627499500,7.41649951171875,0.0016499999910593033,0.0006874999962747097,-0.0015124999918043613
1757088127637052700,7.426052734375,0.0016499999910593033,-0.0017874999903142452,-0.0015124999918043613
1757088127646606000,7.435606201171875,0.0016499999910593033,0.0006874999962747097,-0.0015124999918043613
1757088127656159200,7.4451591796875,0.0016499999910593033,0.0006874999962747097,-0.0015124999918043613
1757088127665712400,7.45471240234375,0.0016499999910593033,0.0006874999962747097,-0.0002749999985098839
1757088127675265500,7.464265625,0.0016499999910593033,0.0006874999962747097,-0.0002749999985098839
1757088127684819000,7.47381884765625,0.0028874999843537807,-0.0005499999970197678,-0.0015124999918043613
1757088127694372000,7.4833720703125,0.0016499999910593033,-0.0005499999970197678,-0.0015124999918043613
1757088127703925200,7.49292529296875,0.0028874999843537807,-0.0005499999970197678,-0.002749999985098839
1757088127713478700,7.502478759765625,0.0028874999843537807,-0.0005499999970197678,-0.002749999985098839
1757088127723031800,7.51203173828125,0.0004124999977648258,0.0006874999962747097,-0.0015124999918043613
1757088127732585000,7.5215849609375,0.0016499999910593033,-0.0005499999970197678,-0.002749999985098839
1757088127742138000,7.53113818359375,0.0028874999843537807,-0.0005499999970197678,-0.002749999985098839
1757088127751691800,7.54069189453125,0.0016499999910593033,-0.0005499999970197678,-0.0015124999918043613
1757088127761244700,7.55024462890625,0.0004124999977648258,-0.0017874999903142452,-0.0015124999918043613
1757088127770797800,7.5597978515625,0.0016499999910593033,-0.0017874999903142452,-0.002749999985098839
1757088127780351000,7.56935107421875,0.0016499999910593033,-0.0017874999903142452,-0.002749999985098839
1757088127789904400,7.578904296875,0.0016499999910593033,-0.0030249999836087227,-0.002749999985098839
1757088127799457800,7.588457763671875,0.0016499999910593033,-0.0030249999836087227,-0.003987499978393316
1757088127809011000,7.598010986328125,0.0028874999843537807,-0.0017874999903142452,-0.003987499978393316
1757088127818564000,7.607564208984375,0.0028874999843537807,-0.0017874999903142452,-0.003987499978393316
1757088127828117200,7.6171171875,0.0028874999843537807,-0.0017874999903142452,-0.002749999985098839
1757088127837670400,7.62667041015625,0.0028874999843537807,-0.0017874999903142452,-0.002749999985098839
1757088127847223800,7.636223876953125,0.0016499999910593033,-0.0017874999903142452,-0.003987499978393316
1757088127856777000,7.64577685546875,0.0028874999843537807,-0.0030249999836087227,-0.003987499978393316
1757088127866330000,7.655330078125,0.0016499999910593033,-0.0030249999836087227,-0.005224999971687794
1757088127875883300,7.66488330078125,0.0016499999910593033,-0.0030249999836087227,-0.005224999971687794
1757088127885436700,7.674436767578125,0.0004124999977648258,-0.0017874999903142452,-0.005224999971687794
1757088127894989800,7.68398974609375,0.0004124999977648258,-0.0017874999903142452,-0.003987499978393316
1757088127904543000,7.69354296875,0.0004124999977648258,-0.0017874999903142452,-0.0015124999918043613
1757088127914096400,7.703096435546875,-0.0008249999955296516,-0.0005499999970197678,-0.0015124999918043613
1757088127923649500,7.7126494140625,-0.0008249999955296516,0.0006874999962747097,-0.0015124999918043613
1757088127933203000,7.722202880859375,0.0004124999977648258,-0.0017874999903142452,-0.002749999985098839
1757088127942756000,7.731756103515625,0.0004124999977648258,-0.005499999970197678,-0.006462499964982271
1757088127952309200,7.741309326171875,0.0016499999910593033,-0.006599999964237213,-0.010037500411272049
1757088127961862400,7.7508623046875,0.0028874999843537807,-0.010312499478459358,-0.013749999925494194
1757088127971415800,7.760415771484375,0.005362499970942736,-0.014024999924004078,-0.01746249943971634
1757088127980969000,7.769968994140625,0.006599999964237213,-0.01759999990463257,-0.023512499406933784
1757088127990522000,7.779522216796875,0.007699999958276749,-0.020075000822544098,-0.02722499892115593
1757088128000075500,7.789075439453125,0.006599999964237213,-0.01759999990463257,-0.028462499380111694
1757088128009628700,7.798628662109375,0.006599999964237213,-0.015262499451637268,-0.02956249937415123
1757088128019181800,7.808181884765625,0.004124999977648258,-0.016499999910593033,-0.02956249937415123
1757088128028735200,7.8177353515625,0.004124999977648258,-0.01759999990463257,-0.033275000751018524
1757088128038288400,7.827288330078125,0.0028874999843537807,-0.022549999877810478,-0.038224998861551285
1757088128047841500,7.836841552734375,0.0028874999843537807,-0.028599999845027924,-0.04427500069141388
1757088128057395000,7.84639501953125,-0.0056374999694526196,-0.031075000762939453,-0.045512501150369644
1757088128066948000,7.855947998046875,-0.008112499490380287,-0.014024999924004078,-0.02956249937415123
1757088128076501200,7.865501220703125,-0.008112499490380287,-0.006599999964237213,-0.021037500351667404
1757088128086054400,7.875054443359375,-0.009349999949336052,0.0006874999962747097,-0.010037500411272049
1757088128095607600,7.884607666015625,-0.009349999949336052,0.006737499963492155,-0.003987499978393316
1757088128105161000,7.894160888671875,-0.013062499463558197,0.0019249999895691872,-0.006462499964982271
1757088128114714000,7.903714111328125,-0.013062499463558197,0.0006874999962747097,-0.007699999958276749
1757088128124267300,7.913267333984375,-0.016637500375509262,-0.005499999970197678,-0.011274999938905239
1757088128133820400,7.9228203125,-0.014162499457597733,-0.009074999950826168,-0.013749999925494194
1757088128143373800,7.932373779296875,-0.017875000834465027,-0.014024999924004078,-0.01746249943971634
1757088128152927000,7.941927001953125,-0.014162499457597733,-0.009074999950826168,-0.014987500384449959
1757088128162480400,7.95148046875,-0.013062499463558197,-0.009074999950826168,-0.014987500384449959
1757088128172033500,7.961033447265625,-0.011824999935925007,-0.011549999937415123,-0.014987500384449959
1757088128181586700,7.970586669921875,-0.009349999949336052,-0.012787500396370888,-0.01746249943971634
1757088128191139800,7.980139892578125,-0.008112499490380287,-0.015262499451637268,-0.018699999898672104
1757088128200693200,7.989693359375,-0.009349999949336052,-0.016499999910593033,-0.018699999898672104
1757088128210246400,7.999246337890625,-0.013062499463558197,-0.018837500363588333,-0.01746249943971634
1757088128219799600,8.008799560546874,-0.014162499457597733,-0.018837500363588333,-0.016224998980760574
1757088128229353000,8.01835302734375,-0.015399999916553497,-0.016499999910593033,-0.016224998980760574
1757088128238906000,8.027906005859375,-0.015399999916553497,-0.018837500363588333,-0.016224998980760574
1757088128248459500,8.03745947265625,-0.015399999916553497,-0.016499999910593033,-0.016224998980760574
1757088128258012700,8.0470126953125,-0.016637500375509262,-0.015262499451637268,-0.014987500384449959
1757088128267565800,8.05656591796875,-0.019112499430775642,-0.012787500396370888,-0.01251249946653843
1757088128277119000,8.066118896484374,-0.022824998944997787,-0.007837500423192978,-0.011274999938905239
1757088128286672100,8.075672119140625,-0.025162499397993088,-0.0042624999769032,-0.008799999952316284
1757088128296225300,8.085225341796875,-0.025162499397993088,-0.0030249999836087227,-0.008799999952316284
1757088128305778700,8.09477880859375,-0.024062499403953552,-0.0042624999769032,-0.010037500411272049
1757088128315331800,8.104331787109375,-0.025162499397993088,-0.006599999964237213,-0.011274999938905239
1757088128324885000,8.113885009765625,-0.025162499397993088,-0.0030249999836087227,-0.010037500411272049
1757088128334438100,8.123438232421876,-0.025162499397993088,-0.0017874999903142452,-0.008799999952316284
1757088128343991600,8.132991455078125,-0.021587500348687172,-0.0017874999903142452,-0.005224999971687794
1757088128353544700,8.142544677734374,-0.017875000834465027,0.0042624999769032,-0.003987499978393316
1757088128363098000,8.15209814453125,-0.015399999916553497,0.006737499963492155,-0.005224999971687794
1757088128372651300,8.1616513671875,-0.013062499463558197,0.010449999943375587,-0.003987499978393316
1757088128382204400,8.171204345703124,-0.009349999949336052,0.009212499484419823,-0.003987499978393316
1757088128391757600,8.180757568359375,-0.004399999976158142,0.007974999956786633,-0.005224999971687794
1757088128401310700,8.190310791015625,-0.0008249999955296516,0.006737499963492155,-0.005224999971687794
1757088128410864000,8.199864013671874,0.0016499999910593033,0.006737499963492155,-0.005224999971687794
1757088128420417300,8.209417236328125,0.004124999977648258,0.006737499963492155,-0.003987499978393316
1757088128429970400,8.218970458984375,0.007699999958276749,0.006737499963492155,-0.0015124999918043613
1757088128439523800,8.22852392578125,0.021175000816583633,0.012924999929964542,-0.002749999985098839
1757088128449077000,8.238076904296875,0.018699999898672104,0.011687500402331352,-0.0015124999918043613
1757088128458630100,8.247630126953124,0.008937500417232513,-0.0017874999903142452,0.007012499962002039
1757088128468183600,8.25718359375,0.012649999931454659,0.010449999943375587,0.010724999941885471
1757088128477736700,8.26673681640625,0.02488750033080578,0.0031624999828636646,0.002199999988079071
1757088128487289900,8.276289794921874,0.030937500298023224,0.0042624999769032,-0.0002749999985098839
1757088128496843000,8.285843017578125,0.023649999871850014,0.0006874999962747097,-0.003987499978393316
1757088128506396400,8.295396484375,0.026124998927116394,-0.014024999924004078,-0.006462499964982271
1757088128515949600,8.304949462890624,0.01759999990463257,-0.005499999970197678,-0.008799999952316284
1757088128525502700,8.314502685546875,0.013887500390410423,-0.021312499418854713,-0.006462499964982271
1757088128535056000,8.324055908203125,0.01993750035762787,-0.005499999970197678,-0.0002749999985098839
1757088128544609300,8.333609375,0.021175000816583633,-0.0042624999769032,0.013062499463558197
1757088128554162400,8.343162353515625,0.026124998927116394,0.0019249999895691872,0.024062499403953552
1757088128563715300,8.35271533203125,0.03217500075697899,0.005499999970197678,0.026537500321865082
1757088128573269000,8.36226904296875,0.035887498408555984,0.0031624999828636646,0.022962499409914017
1757088128582822100,8.371822265625,0.038362499326467514,0.0019249999895691872,0.01677500084042549
1757088128592375300,8.381375244140624,0.028599999845027924,0.0006874999962747097,0.015537500381469727
1757088128601928700,8.3909287109375,0.011412499472498894,-0.0042624999769032,0.011962499469518661
1757088128611481600,8.400481689453125,0.015124999918043613,-0.0017874999903142452,0.0009624999947845936
1757088128621035000,8.410034912109374,0.03712499886751175,-0.007837500423192978,-0.007699999958276749
1757088128630588200,8.419588134765625,0.03341250121593475,-0.02502499893307686,-0.008799999952316284
1757088128640141600,8.4291416015625,0.035887498408555984,-0.026262499392032623,-0.008799999952316284
1757088128649694500,8.438694580078124,0.03712499886751175,-0.012787500396370888,-0.008799999952316284
1757088128659247900,8.448247802734375,0.03464999794960022,-0.0017874999903142452,-0.014987500384449959
1757088128668801000,8.457801025390625,0.035887498408555984,0.0031624999828636646,-0.014987500384449959
1757088128678354200,8.467354248046876,0.043175000697374344,-0.005499999970197678,-0.014987500384449959
1757088128687907300,8.4769072265625,0.04688749834895134,-0.006599999964237213,-0.02227500081062317
1757088128697460500,8.48646044921875,0.048124998807907104,-0.011549999937415123,-0.02474999986588955
1757088128707014000,8.496013916015626,0.0541750006377697,-0.007837500423192978,-0.025987500324845314
1757088128716567000,8.505567138671875,0.05664999783039093,-0.0017874999903142452,-0.02227500081062317
1757088128726120400,8.515120361328124,0.060362499207258224,0.0006874999962747097,-0.021037500351667404
1757088128735673600,8.524673583984375,0.06764999777078629,0.0006874999962747097,-0.01746249943971634
1757088128745226800,8.534226806640625,0.06888750195503235,-0.0005499999970197678,-0.008799999952316284
1757088128754780000,8.54377978515625,0.052937500178813934,-0.0017874999903142452,0.002199999988079071
1757088128764333300,8.553333251953125,0.035887498408555984,-0.0017874999903142452,0.015537500381469727
1757088128773886500,8.562886474609375,0.023649999871850014,0.005499999970197678,0.01924999989569187
1757088128783439600,8.572439697265626,0.02488750033080578,0.0042624999769032,0.021724998950958252
1757088128792993000,8.581992919921875,0.03712499886751175,0.009212499484419823,0.01924999989569187
1757088128802546200,8.591546142578125,0.04688749834895134,0.010449999943375587,0.018012499436736107
1757088128812099300,8.601099365234376,0.05169999971985817,0.011687500402331352,0.015537500381469727
1757088128821652500,8.610652587890625,0.057887498289346695,0.0006874999962747097,0.013062499463558197
1757088128831206000,8.620205810546874,0.05912499874830246,-0.006599999964237213,0.007012499962002039
1757088128840759000,8.629759033203126,0.05664999783039093,-0.0030249999836087227,0.0057749999687075615
1757088128850312200,8.639312255859375,0.05169999971985817,0.007974999956786633,0.009487500414252281
1757088128859865300,8.648865234375,0.03712499886751175,0.016499999910593033,0.01677500084042549
1757088128869418800,8.658418701171875,0.03341250121593475,0.026262499392032623,0.030249999836087227
1757088128878972000,8.667971923828125,0.02969999983906746,0.027499999850988388,0.0387750007212162
1757088128888525000,8.677525146484374,0.030937500298023224,0.018975000828504562,0.03506249934434891
1757088128898078200,8.687078125,0.03464999794960022,0.014162499457597733,0.01924999989569187
1757088128907631400,8.69663134765625,0.03464999794960022,0.016499999910593033,-0.0002749999985098839
1757088128917184800,8.706184814453126,0.035887498408555984,0.015262499451637268,-0.021037500351667404
1757088128926738000,8.715738037109375,0.038362499326467514,0.009212499484419823,-0.033275000751018524
1757088128936291000,8.725291015625,0.030937500298023224,0.014162499457597733,-0.025987500324845314
1757088128945844200,8.73484423828125,0.02241249941289425,0.012924999929964542,-0.0015124999918043613
1757088128955397400,8.7443974609375,0.010174999944865704,0.007974999956786633,0.025299999862909317
1757088128964950800,8.75395068359375,-0.004399999976158142,0.006737499963492155,0.04606249928474426
1757088128974504000,8.76350390625,-0.014162499457597733,0.006737499963492155,0.05706249922513962
1757088128984057000,8.77305712890625,-0.019112499430775642,0.015262499451637268,0.05829999968409538
1757088128993610500,8.782610595703124,-0.021587500348687172,0.023924998939037323,0.05348749831318855
1757088129003163600,8.79216357421875,-0.022824998944997787,0.027499999850988388,0.04496249929070473
1757088129012716800,8.801716796875,-0.024062499403953552,0.03492499887943268,0.0387750007212162
1757088129022270200,8.811270263671876,-0.022824998944997787,0.027499999850988388,0.04729999974370003
1757088129031823400,8.8208232421875,-0.0008249999955296516,0.014162499457597733,0.0705375000834465
1757088129041376500,8.83037646484375,0.008937500417232513,0.023924998939037323,0.08648750185966492
1757088129050929700,8.8399296875,0.006599999964237213,0.03492499887943268,0.08153750002384186
1757088129060482800,8.84948291015625,0.006599999964237213,0.03726249933242798,0.05953750014305115
1757088129070036000,8.859035888671874,0.006599999964237213,0.028737500309944153,0.03396249935030937
1757088129079589000,8.868589111328125,-0.004399999976158142,0.028737500309944153,0.020487500354647636
1757088129089142500,8.878142578125,-0.010587500408291817,0.016499999910593033,0.018012499436736107
1757088129098695700,8.88769580078125,-0.013062499463558197,0.010449999943375587,0.021724998950958252
1757088129108248800,8.897248779296875,-0.016637500375509262,0.010449999943375587,0.03272499889135361
1757088129117802200,8.90680224609375,-0.019112499430775642,0.015262499451637268,0.04124999791383743
1757088129127355400,8.91635546875,-0.022824998944997787,0.012924999929964542,0.05101250112056732
1757088129136908500,8.925908447265625,-0.025162499397993088,0.026262499392032623,0.05582499876618385
1757088129146461700,8.935461669921875,-0.04592499881982803,0.060499999672174454,0.05829999968409538
1757088129156015000,8.94501513671875,-0.1046374961733818,0.11178749799728394,0.05472499877214432
1757088129165568300,8.954568359375,-0.14492499828338623,0.16321249306201935,0.04372499883174896
1757088129175121400,8.964121337890624,-0.2316875010728836,0.18507499992847443,-0.016224998980760574
1757088129184674800,8.9736748046875,-0.14863750338554382,0.08249999582767487,-0.02722499892115593
1757088129194228000,8.98322802734375,-0.08868750184774399,-0.050599999725818634,-0.028462499380111694
1757088129203781000,8.992781005859374,-0.0765874981880188,0.05692499876022339,0.0387750007212162
1757088129213334300,9.002334228515625,-0.08868750184774399,0.07878749817609787,0.0705375000834465
1757088129222887400,9.011887451171875,-0.11563749611377716,0.11302500218153,0.0705375000834465
1757088129232440600,9.021440673828126,-0.14121249318122864,0.048262499272823334,0.04496249929070473
1757088129241994000,9.030993896484375,-0.14492499828338623,0.04468749836087227,-0.0015124999918043613
1757088129251547100,9.040547119140625,-0.09735000133514404,0.03492499887943268,-0.07479999959468842
1757088129261100300,9.050100341796876,-0.013062499463558197,0.0031624999828636646,-0.07851249724626541
1757088129270653400,9.0596533203125,0.016362499445676804,-0.027499999850988388,0.022962499409914017
1757088129280206800,9.069206787109374,0.03217500075697899,0.08002500236034393,0.05829999968409538
1757088129289760000,9.078760009765626,0.04936249926686287,0.07768750190734863,0.05706249922513962
1757088129299313200,9.088313232421875,0.04936249926686287,0.06544999778270721,0.026537500321865082
1757088129308866600,9.097866455078124,0.050462499260902405,0.06421250104904175,-0.02722499892115593
1757088129318419700,9.107419677734375,0.050462499260902405,0.05321250110864639,-0.08579999953508377
1757088129327972900,9.116972900390625,-0.028875000774860382,0.09473749995231628,-0.0919874981045723
1757088129337526000,9.126526123046874,-0.06792499870061874,-0.015262499451637268,-0.08579999953508377
1757088129347079400,9.136079345703125,-0.1083500012755394,-0.027499999850988388,-0.0943249985575676
1757088129356632600,9.145632568359375,-0.10944999754428864,-0.07878749817609787,-0.13227500021457672
1757088129366185700,9.155185791015626,-0.19497500360012054,-0.08236250281333923,-0.09075000137090683
1757088129375739100,9.1647392578125,-0.22673749923706055,-0.06283749639987946,-0.03698749840259552
1757088129385292300,9.174292236328125,-0.25244998931884766,-0.03726249933242798,0.010724999941885471
1757088129394845400,9.183845458984376,-0.3172124922275543,-0.020075000822544098,0.05582499876618385
1757088129404398600,9.193398681640625,-0.31226250529289246,-0.016499999910593033,0.08153750002384186
1757088129413951700,9.20295166015625,-0.24873749911785126,-0.03478749841451645,0.06572499871253967
1757088129423505000,9.2125048828125,-0.24021250009536743,-0.018837500363588333,0.06572499871253967
1757088129433058300,9.222058349609375,-0.2829749882221222,-0.010312499478459358,0.07782500237226486
1757088129442611500,9.231611572265624,-0.30621248483657837,-0.006599999964237213,0.07672499865293503
1757088129452164600,9.24116455078125,-0.3465000092983246,0.018975000828504562,0.06929999589920044
1757088129461718000,9.250718017578125,-0.3232625126838684,-0.011549999937415123,0.07301250100135803
1757088129471271200,9.260271240234376,-0.27197501063346863,0.027499999850988388,0.09006249904632568
1757088129480824300,9.26982421875,-0.27073749899864197,0.11426249891519547,0.07548750191926956
1757088129490377500,9.27937744140625,-0.21463750302791595,0.08002500236034393,0.013062499463558197
1757088129499930600,9.2889306640625,-0.08992499858140945,-0.007837500423192978,-0.05156249925494194
1757088129509484000,9.298484130859375,-0.020349999889731407,-0.005499999970197678,-0.05898749828338623
1757088129519037200,9.308037109375,-0.017875000834465027,0.03244999796152115,-0.01979999989271164
1757088129528590300,9.31759033203125,-0.05939999967813492,0.015262499451637268,0.014299999922513962
1757088129538143700,9.327143798828125,-0.12416250258684158,0.03368749842047691,0.04977500066161156
1757088129547696600,9.336696533203124,-0.20116250216960907,0.05073750019073486,0.07177499681711197
1757088129557249800,9.346249755859375,-0.259737491607666,0.06297499686479568,0.05953750014305115
1757088129566803200,9.35580322265625,-0.2989250123500824,0.07644999772310257,0.03506249934434891
1757088129576356400,9.3653564453125,-0.30744999647140503,0.11921250075101852,-0.002749999985098839
1757088129585909500,9.374909423828125,-0.33550000190734863,0.19002500176429749,-0.016224998980760574
1757088129595462700,9.384462646484375,-0.3722124993801117,0.15578749775886536,-0.014987500384449959
1757088129605016000,9.39401611328125,-0.3770250082015991,0.19731250405311584,-0.01746249943971634
1757088129614569200,9.4035693359375,-0.3867875039577484,0.23526249825954437,-0.01746249943971634
1757088129624122400,9.413122314453124,-0.39902499318122864,0.21326249837875366,-0.0015124999918043613
1757088129633675500,9.422675537109376,-0.32573750615119934,0.2437874972820282,0.011962499469518661
1757088129643229000,9.43222900390625,-0.517549991607666,0.3550249934196472,0.05348749831318855
1757088129652782000,9.441781982421874,-0.6335999965667725,0.3073124885559082,0.0424874983727932
1757088129662335200,9.451335205078125,-0.7106000185012817,0.18754999339580536,0.015537500381469727
1757088129671888400,9.460888427734375,-0.7790749669075012,0.06668750196695328,0.020487500354647636
1757088129681441800,9.47044189453125,-0.8034124970436096,0.027499999850988388,0.007012499962002039
1757088129690994700,9.47999462890625,-0.792412519454956,0.0849749967455864,-0.04427500069141388
1757088129700548000,9.489548095703125,-0.8718875050544739,0.116737499833107,-0.013749999925494194
1757088129710101200,9.499101318359376,-1.1724624633789062,0.2890250086784363,0.03396249935030937
1757088129719654400,9.508654296875,-1.2897499799728394,0.303600013256073,0.06201250106096268
1757088129729207800,9.518207763671874,-1.3153250217437744,0.3451249897480011,0.08153750002384186
1757088129738761000,9.527760986328126,-1.3336124420166016,0.43312498927116394,-0.005224999971687794
1757088129748314000,9.537314208984375,-1.3215124607086182,0.5284125208854675,-0.11027500033378601
1757088129757867300,9.5468671875,-1.0441750288009644,0.3940750062465668,-0.1457500010728836
1757088129767420700,9.556420654296875,-0.8303624987602234,0.3305499851703644,-0.14932499825954437
1757088129776973800,9.565973876953125,-0.6018375158309937,0.44165000319480896,-0.06998749822378159
1757088129786527000,9.57552685546875,-0.5444999933242798,0.4160749912261963,-0.040562499314546585
1757088129796080000,9.585080078125,-0.3807374835014343,0.3268375098705292,-0.005224999971687794
1757088129805633500,9.594633544921875,-0.1046374961733818,0.07768750190734863,0.04001250118017197
1757088129815186400,9.6041865234375,0.10064999759197235,-0.04455000162124634,0.09624999761581421
1757088129824739600,9.613739501953125,0.07246249914169312,0.05073750019073486,0.17077499628067017
1757088129834293000,9.62329296875,-0.0448249988257885,0.27431249618530273,0.20858749747276306
1757088129843846100,9.63284619140625,-0.17544999718666077,0.494174987077713,0.1621125042438507
1757088129853399600,9.642399658203125,-0.27197501063346863,0.8204625248908997,0.12058749794960022
1757088129862952700,9.65195263671875,-0.24639999866485596,1.0806125402450562,0.0387750007212162
1757088129872505900,9.661505859375,0.06888750195503235,0.522362470626831,-0.35089999437332153
1757088129882059000,9.67105908203125,0.20941250026226044,0.04468749836087227,-0.31308749318122864
1757088129891612200,9.680612060546874,0.08346249908208847,0.04702499881386757,-0.09075000137090683
1757088129901165600,9.69016552734375,0.05664999783039093,0.03849999979138374,0.018012499436736107
1757088129910718700,9.69971875,0.10917499661445618,0.1264999955892563,0.09982500225305557
1757088129920272000,9.70927197265625,0.021175000816583633,0.2535499930381775,0.26963749527931213
1757088129929825300,9.7188251953125,0.018699999898672104,0.31226250529289246,0.32106250524520874
1757088129939378400,9.72837841796875,0.06146249920129776,0.21931250393390656,0.20982499420642853
1757088129948931600,9.737931640625,0.10793749988079071,0.08621250092983246,0.06806249916553497
1757088129958484700,9.747484619140625,0.11893749982118607,0.0849749967455864,-0.04427500069141388
1757088129968038000,9.757037841796874,0.1274625062942505,0.04221250116825104,-0.12732499837875366
1757088129977591000,9.766591064453126,0.1214125007390976,-0.03959999978542328,-0.1872749924659729
1757088129987144400,9.77614453125,0.06146249920129776,0.060499999672174454,-0.16885000467300415
1757088129996697600,9.785697509765624,-0.0031624999828636646,0.2180749922990799,-0.07975000143051147
1757088130006250800,9.795250732421875,0.03959999978542328,0.13626250624656677,-0.035750001668930054
1757088130015804000,9.804803955078125,0.12870000302791595,-0.0017874999903142452,-0.03698749840259552
1757088130025357000,9.814357177734376,0.12870000302791595,-0.16788749396800995,-0.06875000149011612
1757088130034910500,9.823910400390625,0.057887498289346695,-0.1825999915599823,-0.05898749828338623
1757088130044463400,9.83346337890625,0.011412499472498894,-0.3011249899864197,-0.06627500057220459
1757088130054016800,9.843016845703126,-0.03135000169277191,-0.36465001106262207,-0.04427500069141388
1757088130063570200,9.852570068359375,-0.26221248507499695,-0.3414124846458435,-0.050462499260902405
1757088130073123000,9.862123046875,-0.4894999861717224,-0.4342249929904938,-0.06751249730587006
1757088130082676200,9.87167626953125,-0.7900750041007996,-0.5112249851226807,-0.07232499867677689
1757088130092229600,9.881229736328125,-1.1369874477386475,-0.5014625191688538,-0.1237500011920929
1757088130101782800,9.89078271484375,-1.3580875396728516,-0.47341248393058777,-0.18232500553131104
1757088130111336000,9.9003359375,-1.4473249912261963,-0.30236250162124634,-0.17008750140666962
1757088130120889000,9.90988916015625,-1.4033249616622925,-0.053075000643730164,-0.13103750348091125
1757088130130442500,9.9194423828125,-1.3763749599456787,0.09597499668598175,-0.12498749792575836
1757088130139995600,9.92899560546875,-1.5413750410079956,0.22055000066757202,-0.06379999965429306
1757088130149548800,9.938548828125,-1.648900032043457,0.5076500177383423,0.030249999836087227
1757088130159102000,9.94810205078125,-1.4948999881744385,0.7812749743461609,0.06806249916553497
1757088130168655400,9.9576552734375,-1.182224988937378,1.1063250303268433,0.12925000488758087
1757088130178208500,9.96720849609375,-0.8229374885559082,1.7720999717712402,0.2563000023365021
1757088130187761400,9.976761474609376,-0.7178875207901001,2.28401255607605,0.3723500072956085
1757088130197314800,9.986314697265625,-0.9378874897956848,2.653062582015991,0.5139750242233276
1757088130206868000,9.995867919921874,-1.2885124683380127,2.8802125453948975,0.6362124681472778
1757088130216421000,10.005421142578125,-1.3715624809265137,3.1745998859405518,0.7962625026702881
1757088130225974300,10.014974365234375,-1.129699945449829,2.5808749198913574,0.81454998254776
1757088130235527700,10.024527587890624,-0.910937488079071,1.5900499820709229,0.7339749932289124
1757088130245080800,10.034080810546875,-0.7166500091552734,0.6224625110626221,0.7987374663352966
1757088130254634000,10.043634033203125,-0.8181250095367432,0.6456999778747559,1.0491249561309814
1757088130264187400,10.0531875,-0.8754624724388123,0.8424624800682068,1.21646249294281
1757088130273740500,10.062740478515625,-0.766837477684021,0.898562490940094,1.5329874753952026
1757088130283293400,10.07229345703125,-0.6275500059127808,0.9255124926567078,1.8004249334335327
1757088130292846800,10.081846923828126,-0.7350749969482422,0.7997000217437744,1.8371374607086182
1757088130302400000,10.09139990234375,-0.9426999688148499,1.1527999639511108,1.4412750005722046
1757088130311953200,10.100953125,-0.9696499705314636,2.2595374584198,1.1481250524520874
1757088130321506300,10.11050634765625,-0.8621249794960022,3.2931249141693115,1.041837453842163
1757088130331059500,10.1200595703125,-0.6848874688148499,3.6304125785827637,1.0771750211715698
1757088130340612900,10.12961279296875,-0.46997499465942383,3.803799867630005,1.094362497329712
1757088130350166000,10.139166015625,-0.17063750326633453,4.100662708282471,1.1529375314712524
1757088130359719200,10.14871923828125,-0.027637500315904617,3.366412401199341,1.697849988937378
1757088130369272300,10.158272216796876,0.1311749964952469,2.016437530517578,2.735150098800659
1757088130378825700,10.16782568359375,-0.1461624950170517,2.243725061416626,2.955012559890747
1757088130388379000,10.17737890625,-0.40755000710487366,2.4305875301361084,3.227400064468384
1757088130397932000,10.18693212890625,-0.4100250005722046,1.9175750017166138,3.457162380218506
1757088130407485200,10.196485107421875,-0.35997501015663147,1.3591874837875366,3.361875057220459
1757088130417038600,10.20603857421875,-0.16692499816417694,1.146612524986267,3.408212423324585
1757088130426591700,10.215591796875,0.4402749836444855,1.2113749980926514,3.9568374156951904
1757088130436145000,10.225144775390625,0.5075125098228455,1.816100001335144,3.6404500007629395
1757088130445698000,10.234697998046874,1.13052499294281,1.9296749830245972,3.0025875568389893
1757088130455251500,10.24425146484375,1.4554375410079956,3.475174903869629,2.818199872970581
1757088130464804600,10.2538046875,0.4390375018119812,4.128849983215332,3.3984498977661133
1757088130474357800,10.263357666015626,0.49527499079704285,3.4299373626708984,3.1003499031066895
1757088130483911000,10.272910888671875,-0.8963624835014343,2.9217374324798584,3.321587562561035
1757088130493464000,10.282464111328125,-0.9488874673843384,0.8399875164031982,3.3324499130249023
1757088130503017200,10.292017333984376,-1.195562481880188,0.07273750007152557,3.121112585067749
1757088130512570600,10.301570556640625,-0.993987500667572,0.871749997138977,2.823012590408325
1757088130522123800,10.311123779296874,-0.6153125166893005,1.4434750080108643,2.542099952697754
1757088130531677000,10.320677001953126,-0.17063750326633453,1.6352875232696533,1.623324990272522
1757088130541230000,10.33022998046875,0.0028874999843537807,2.177725076675415,0.9318374991416931
1757088130550783500,10.339783447265624,0.089649997651577,2.573587417602539,0.504212498664856
1757088130560336600,10.349336669921875,0.07493750005960464,2.830162525177002,0.3320625126361847
1757088130569889800,10.358889892578125,0.11769999563694,2.7971625328063965,0.17201249301433563
1757088130579443200,10.368443115234374,0.1494625061750412,2.843637466430664,0.009487500414252281
1757088130588996400,10.377996337890625,0.15070000290870667,2.9754998683929443,-0.19951249659061432
1757088130598549200,10.38754931640625,0.05664999783039093,3.1099750995635986,-0.4511374831199646
1757088130608102400,10.397102294921876,-0.16087499260902405,3.0989749431610107,-0.7235249876976013
1757088130617655800,10.40665576171875,-0.521262526512146,2.9620249271392822,-0.9398124814033508
1757088130627209000,10.416208984375,-0.9268875122070312,2.7911124229431152,-1.0913374423980713
1757088130636762000,10.42576220703125,-1.2762750387191772,2.662824869155884,-1.188962459564209
1757088130646315300,10.435315185546875,-1.5511374473571777,2.6761624813079834,-1.2659624814987183
1757088130655868700,10.44486865234375,-1.790524959564209,2.7911124229431152,-1.4064874649047852
1757088130665421800,10.454421875,-2.030050039291382,2.937687397003174,-1.6642999649047852
1757088130674975000,10.46397509765625,-2.324437379837036,3.1380250453948975,-2.014925003051758
1757088130684528000,10.473528076171876,-2.659250020980835,3.356649875640869,-2.4668874740600586
1757088130694081500,10.48308154296875,-2.981687545776367,3.5754125118255615,-2.9654624462127686
1757088130703634400,10.492634521484375,-3.2737374305725098,3.8502750396728516,-3.4369499683380127
1757088130713187800,10.502187744140626,-3.5560250282287598,4.176424980163574,-3.8168625831604004
1757088130722741000,10.511740966796875,-3.825937509536743,4.451287269592285,-4.11386251449585
1757088130732294100,10.521294189453124,-4.072750091552734,4.681049823760986,-4.3092498779296875
1757088130741847300,10.530847412109376,-4.304850101470947,4.908337593078613,-4.404537677764893
1757088130751400400,10.540400390625,-4.600474834442139,5.33101224899292,-4.476587295532227
1757088130760953900,10.549953857421874,-4.8802876472473145,5.603399753570557,-4.397250175476074
1757088130770507000,10.559507080078125,-5.12214994430542,5.729212284088135,-4.229912281036377
1757088130780060200,10.56906005859375,-5.276149749755859,5.987024784088135,-3.959862470626831
1757088130789613600,10.578613525390624,-5.213862419128418,6.2716498374938965,-3.3233749866485596
1757088130799166700,10.588166748046875,-4.797237396240234,6.028550148010254,-2.3007874488830566
1757088130808719600,10.5977197265625,-4.183849811553955,5.411587238311768,-1.2427250146865845
1757088130818273000,10.60727294921875,-3.6671249866485596,4.876574993133545,-0.38513749837875366
1757088130827826200,10.616826171875,-3.399549961090088,4.4952874183654785,0.3123999834060669
1757088130837379300,10.62637939453125,-3.316499948501587,3.918750047683716,0.8390250205993652
1757088130846932500,10.635932373046876,-3.2614998817443848,3.3188374042510986,1.1591249704360962
1757088130856486000,10.64548583984375,-3.234687566757202,2.927924871444702,1.3534125089645386
1757088130866039000,10.6550390625,-3.2480249404907227,2.5943500995635986,1.4425125122070312
1757088130875592000,10.664592041015625,-3.289687395095825,2.2339625358581543,1.4792250394821167
1757088130885145300,10.674145263671875,-3.3312125205993652,1.9896249771118164,1.5280375480651855
1757088130894698500,10.683698486328124,-3.3642125129699707,1.8173375129699707,1.5757499933242798
1757088130904251600,10.693251708984375,-3.3752124309539795,1.6755750179290771,1.5670875310897827
1757088130913804800,10.7028046875,-3.3445498943328857,1.5754749774932861,1.5390374660491943
1757088130923358200,10.712358154296876,-3.288450002670288,1.4691874980926514,1.4804625511169434
1757088130932911400,10.721911376953125,-3.208975076675415,1.4264249801635742,1.3887499570846558
1757088130942464500,10.731464599609374,-3.1711623668670654,1.4569499492645264,1.2336499691009521
1757088130952018000,10.741017822265626,-3.035449981689453,1.4434750080108643,1.1798875331878662
1757088130961570800,10.75057080078125,-2.757012367248535,1.5472874641418457,1.1309374570846558
1757088130971124200,10.760124267578124,-2.4063875675201416,1.807574987411499,1.066312551498413
1757088130980677400,10.769677490234375,-2.0410499572753906,2.2522499561309814,0.9281250238418579
1757088130990230500,10.77923046875,-1.8614749908447266,3.7537500858306885,0.7864999771118164
1757088130999783700,10.78878369140625,-1.6268999576568604,4.572287559509277,0.5665000081062317
1757088131009337000,10.798337158203125,-1.3385624885559082,5.757400035858154,0.41868749260902405
1757088131018890200,10.80789013671875,-1.2175624370574951,7.263712406158447,0.405349999666214
1757088131028443400,10.817443359375,-1.2885124683380127,8.309537887573242,0.40658751130104065
1757088131037996500,10.82699658203125,-1.5181374549865723,9.064550399780273,0.46392500400543213
1757088131047549700,10.8365498046875,-1.7502374649047852,9.62651252746582,0.6104999780654907
1757088131057102800,10.846102783203126,-1.8125250339508057,9.924612045288086,0.740024983882904
1757088131066656000,10.855656005859375,-1.6159000396728516,9.344362258911133,0.8010749816894531
1757088131076209400,10.86520947265625,-1.1662750244140625,5.675449848175049,0.3856875002384186
1757088131085762600,10.874762451171875,-0.7374125123023987,1.8050999641418457,-0.40466248989105225
1757088131095315700,10.884315673828125,-0.30744999647140503,-1.3945250511169434,-1.055862545967102
1757088131104868900,10.893868896484374,0.02736249938607216,-2.852025032043457,-1.3074874877929688
1757088131114422300,10.90342236328125,0.20198750495910645,-2.836212396621704,-1.267199993133545
1757088131123975400,10.912975341796875,0.34375,-2.19958758354187,-1.0608124732971191
1757088131133528600,10.922528564453126,0.4768500030040741,-1.4018124341964722,-0.8420500159263611
1757088131143081700,10.932081787109375,0.6051374673843384,-0.5869874954223633,-0.7577624917030334
1757088131152635000,10.941634765625,0.6943749785423279,-0.1313125044107437,-0.6905249953269958
1757088131162188000,10.95118798828125,0.7053750157356262,0.2877874970436096,-0.7052375078201294
1757088131171741200,10.9607412109375,0.6833750009536743,0.5748875141143799,-0.724762499332428
1757088131181294300,10.97029443359375,0.6418499946594238,0.7825124859809875,-0.724762499332428
1757088131190847700,10.97984765625,0.6028000116348267,0.9890375137329102,-0.7419499754905701
1757088131200401000,10.98940087890625,0.5928999781608582,1.0880374908447266,-0.7552874684333801
1757088131209954000,10.9989541015625,0.5928999781608582,1.10013747215271,-0.7638124823570251
1757088131219507500,11.008507568359375,0.5611374974250793,1.046512484550476,-0.772475004196167
1757088131229060600,11.018060546875,0.5013250112533569,0.9657999873161316,-0.7627124786376953
1757088131238613500,11.027613525390626,0.4353249967098236,0.8925125002861023,-0.6575250029563904
1757088131248167000,11.0371669921875,0.3302749991416931,0.8998000025749207,-0.4877125024795532
1757088131257720000,11.046719970703125,0.18617500364780426,0.9230374693870544,-0.34966251254081726
1757088131267273200,11.056273193359376,0.06641250103712082,0.8864625096321106,-0.2433750033378601
1757088131276826400,11.065826416015625,0.007699999958276749,0.7752249836921692,-0.1775124967098236
1757088131295933000,11.084932861328125,0.007699999958276749,0.609125018119812,-0.08703749626874924
1757088131305485800,11.09448583984375,0.060362499207258224,0.5541250109672546,-0.028462499380111694
1757088131315039200,11.104039306640624,0.09941250085830688,0.5138375163078308,0.05829999968409538
1757088131324592400,11.11359228515625,0.1116499975323677,0.44288748502731323,0.1597750037908554
1757088131334145500,11.1231455078125,0.03712499886751175,0.5088874697685242,0.36616250872612
1757088131343698700,11.13269873046875,-0.21697500348091125,0.7519875168800354,0.6667374968528748
1757088131353252000,11.142252197265625,-0.4503124952316284,0.284074991941452,0.6289250254631042
1757088131362805200,11.15180517578125,-0.5420249700546265,-0.1373624950647354,0.4456374943256378
1757088131372358400,11.1613583984375,-0.4174500107765198,-0.35241249203681946,0.22206249833106995
1757088131381911300,11.170911376953125,-0.25616249442100525,-0.2815999984741211,-0.030799999833106995
1757088131391464700,11.180464599609374,-0.14368750154972076,-0.0518375001847744,-0.24584999680519104
1757088131401017900,11.190017822265625,-0.10587500035762787,0.28283751010894775,-0.29356250166893005
