time,seconds_elapsed,z,y,x
1757088773415138300,0.02413818359375,0.7729699933558702,0.4372939774170518,1.626655299284309
1757088773425093000,0.034093017578125,0.8398615093678236,-0.055622080109268425,1.1427698126927017
1757088773435048400,0.04404833984375,0.8593646667391062,-0.25028803538009525,0.5260581564106047
1757088773445002200,0.054002197265625,0.694317312401533,-0.22445991277098654,0.13737915681973098
1757088773454957300,0.063957275390625,0.6024252106457948,-0.11798486665040255,-0.03481339309737086
1757088773464912100,0.073912109375,0.3632593116521835,-0.1390149413280189,-0.07625088050961494
1757088773474867500,0.083867431640625,-0.12352584190368651,-0.39395197155773637,-0.17330357989892362
1757088773484821200,0.0938212890625,-0.7324386610031127,-0.6672687080867589,-0.3772315767727792
1757088773494776300,0.1037763671875,-1.6286825673282146,-0.8640057705432176,-0.5544758571214974
1757088773504731100,0.113731201171875,-2.2036153754144907,-0.8534297237321734,-0.6302227336317301
1757088773514686500,0.1236865234375,-2.185081939858198,-0.4787114449545741,-0.5388868044540286
1757088773524640300,0.13364013671875,-1.6364853500336407,0.0543169888600707,0.01767024285569787
1757088773534595300,0.14359521484375,-0.9818301859349012,0.7854206018671392,0.7752721328184008
1757088773544550100,0.153550048828125,-0.12739829942286013,1.7615452696368097,1.0763776245050132
1757088773554505500,0.16350537109375,0.26815058593749996,3.9589726040661333,0.34763255732282994
1757088773564459300,0.173459228515625,-0.2957639845281839,6.2213049568653105,-1.9352260122850535
1757088773574414300,0.183414306640625,-1.311336281067133,1.3800032823190092,2.6499621355980634
1757088773584369200,0.193369140625,-2.394157236492634,-1.0202914340153335,5.936579668223858
1757088773594324200,0.20332421875,-2.5845582277953625,0.5164122300565243,4.024639254458249
1757088773604278300,0.2132783203125,-1.6976900525808334,3.3914255223169922,1.3329185828000307
1757088773614233300,0.2232333984375,-0.4248199880301952,3.7956498815640805,-0.5788818379729986
1757088773624188200,0.233188232421875,0.5884112983405589,2.64913825199455,-0.6677610216483474
1757088773634143200,0.243143310546875,1.122884670266509,1.6308420834496615,-0.756877228949964
1757088773644097300,0.25309716796875,1.1199626453399658,0.8652651229545474,-1.58508717122972
1757088773654052400,0.26305224609375,1.2082821493059397,0.3006231149971485,-1.3665069641470908
1757088773664007200,0.273007080078125,1.1215040295630694,-0.008704992242157459,-0.9002125176951289
1757088773673962200,0.282962158203125,0.889949190095067,0.28400632671713827,-0.19561434203684328
1757088773683916300,0.292916259765625,0.355947527334094,0.8213754200845956,0.8228887472569942
1757088773693871400,0.302871337890625,-0.3358317910224199,1.2573919249117373,1.5862544614434242
1757088773703826200,0.312826171875,-0.7271820556491613,1.5490119415029882,1.9290356332123277
1757088773713781200,0.32278125,-0.8405337095409631,1.2421978629112242,1.6267174047350883
1757088773723735300,0.3327353515625,0.5374930120080709,0.2594590376988053,0.8143614496693015
1757088773733690400,0.3426904296875,1.4511229374200105,0.5262640542462468,3.077274232704937
1757088773743645200,0.352645263671875,2.1375269924789664,-1.3686808010548352,7.276810035341978
1757088773753600300,0.362600341796875,2.697128960442543,-1.5493644082024693,5.660612271055579
1757088773763554300,0.37255419921875,3.377814637854695,0.5769368413850665,1.3787433453857898
1757088773773509400,0.38250927734375,3.024584552785754,1.4692831557497381,0.37704350685477256
1757088773783464200,0.392464111328125,2.5125685118615624,1.4324354803457855,-0.03892535846084356
1757088773793419300,0.402419189453125,1.7383657618403434,1.053693060618639,1.3280205816254018
1757088773803374300,0.412374267578125,0.7673650129556655,0.7340604169860482,2.060807325413823
1757088773813328400,0.422328369140625,-0.19659633881151675,0.7309931383699179,1.7647794292524457
1757088773823283200,0.432283203125,-0.9756254860758781,0.9762063547037542,1.3743176378980277
1757088773833238300,0.44223828125,-1.5083891314744948,1.2505083028778432,1.52633015409559
1757088773843193300,0.452193359375,-1.5033394468694925,1.7175930229246614,1.5583999475732444
1757088773853147400,0.4621474609375,-1.4235241518765687,1.9490559463255106,1.2105907185092568
1757088773863102200,0.472102294921875,-1.2740934688657521,1.928291244585812,1.3606231668055058
1757088773873057300,0.482057373046875,-0.9312240342915058,1.9829446257933974,2.002194392925501
1757088773883012400,0.492012451171875,-0.23890169509947298,1.9987747937403617,2.264865086147189
1757088773892966100,0.501966064453125,0.7739128271639346,1.944760733349621,2.2875813603460786
1757088773902921200,0.511921142578125,0.6428069053947926,1.5199632494121789,1.7898831831097601
1757088773912876300,0.521876220703125,-0.4778285246402025,0.9710645348358898,0.740789725241065
1757088773922831400,0.531831298828125,-1.7416309011161326,0.574648292056471,-0.25560002418309447
1757088773932785200,0.54178515625,-2.2857798638820648,0.33441987839788195,-1.0858908643901348
1757088773942740200,0.551740234375,-2.130046281334758,0.1155171613626182,-1.5867916370600461
1757088773952695300,0.5616953125,-2.075530262771249,-0.1609870826287195,-1.9245701782360671
1757088773962650400,0.571650390625,-2.070766993892193,-0.2811495490465313,-1.9418258489415048
1757088773972604200,0.581604248046875,-2.015659439176321,-0.27722382697016,-1.6526833283796905
1757088773982559200,0.591559326171875,-1.7759499348253012,-0.19026932774707675,-1.3618003938913346
1757088773992514300,0.601514404296875,-1.5679589262962341,-0.24849428383111952,-1.2250424377098679
1757088774002469400,0.611469482421875,-1.363757373178005,-0.36344650478735563,-1.1038736803263425
1757088774012423200,0.621423095703125,-1.1464596071213484,-0.47909942135885353,-1.030206971091032
1757088774022378200,0.631378173828125,-1.0069581974506379,-0.741185154299438,-1.082307452945411
1757088774032333000,0.6413330078125,-0.9713134680956601,-0.9398010162398218,-1.0265317897096276
1757088774042288400,0.651288330078125,-0.9724205525547266,-1.0741570258460937,-0.9743409992232919
1757088774052242200,0.6612421875,-1.0586118123203516,-1.1366834785163402,-0.9811892576828598
1757088774062196700,0.67119677734375,-1.1908943766534328,-0.9908156025536358,-1.0658063999995588
1757088774072151600,0.681151611328125,-1.7581302004963157,-0.8566779118731618,-1.2995584572508931
1757088774082107000,0.69110693359375,-2.3790175350278613,-0.5877887825280428,-1.4501023622006177
1757088774092061000,0.70106103515625,-2.7618139063209295,-0.3449874496415257,-1.2446402876272797
1757088774102015700,0.711015625,-2.699433730253577,-0.17019027018398045,-0.9588888708084821
1757088774111970600,0.720970458984375,-2.2914678463906046,0.04520779973119497,-0.6188765792310238
1757088774121926000,0.73092578125,-1.8130752581268548,0.20496143157482147,-0.27297932126820085
1757088774131880700,0.740880615234375,-1.2789695504695175,0.2533729957833886,-0.10897037006765603
1757088774141834800,0.750834716796875,-0.835550660431385,0.2867448117703199,0.022453823870420456
1757088774151789600,0.76078955078125,-0.584235473960638,0.5086299056172371,0.14990151539295912
1757088774161745000,0.770744873046875,-0.22481354851424692,0.7408212894231081,0.2471899232342839
1757088774171699700,0.78069970703125,-0.020440730482339856,0.7914297791540622,0.6774892194584011
1757088774181653800,0.79065380859375,0.0038058220237493514,0.7877861619547009,1.3119184648692608
1757088774191608600,0.800608642578125,-0.320025734603405,0.3570315231785178,2.012268919955194
1757088774201564000,0.81056396484375,-0.9842290637701749,-0.05032558113634586,2.169616951961815
1757088774211518700,0.820518798828125,-1.578595471122861,-0.09968991602510213,1.0525678559809923
1757088774221472800,0.83047265625,-2.0375269875913857,-0.03140197721868753,0.10514029038548468
1757088774231427600,0.840427490234375,-1.9851129097431897,0.011036503929644823,-0.019123218142986297
1757088774241383000,0.8503828125,-1.4030740690439938,0.07523088981211185,0.1547343423768878
1757088774251337700,0.860337646484375,-0.793849115255475,0.18748817259594797,0.4343596775308251
1757088774261291800,0.870291748046875,-0.30073943485319615,0.3678516078785062,0.4280933106124401
1757088774271246600,0.88024658203125,0.5562152481347322,0.5589480340994895,0.46176586311161516
1757088774281202000,0.890201904296875,1.3203537002593277,0.539476148649305,0.6029957040101289
1757088774291156700,0.90015673828125,1.9721055441319941,0.38890082564800976,0.3964671692490577
1757088774301110800,0.91011083984375,2.6833587937653065,0.31723508097156883,-0.20969021366238594
1757088774311065600,0.920065673828125,3.1718805618554353,0.24570187663361429,-0.9894558585077523
1757088774321021000,0.93002099609375,3.3838954190731045,0.07996040255203843,-1.4744658190846442
1757088774330975700,0.939975830078125,3.510121752107143,-0.10911153210401535,-1.6892191613554954
1757088774340929800,0.9499296875,3.5491537858128543,-0.3643921150743961,-1.9477292277663945
1757088774350884600,0.959884521484375,3.582719955328107,-0.6988213458225131,-2.031976367726922
1757088774360840000,0.96983984375,3.5212457881897685,-0.9637813190251588,-2.189298680770397
1757088774370794800,0.979794677734375,3.3499341127604243,-1.0969741300709546,-2.3945137948453423
1757088774380749800,0.989749755859375,3.0851217313349246,-1.0309966601639986,-2.2820447690069674
1757088774390703600,0.99970361328125,2.6802035446047783,-0.7292818044073879,-2.0097493383497
1757088774400659000,1.009658935546875,2.156540320506692,-0.2637105576634407,-1.6801827452018856
1757088774410613800,1.01961376953125,1.3844541242480277,0.017204963431507347,-1.2694266460984944
1757088774420568800,1.02956884765625,0.599517214244604,0.1812241437651217,-0.9866258957788347
1757088774430522600,1.039522705078125,-0.030931729358434676,0.26279636542797086,-0.7308440852880478
1757088774440478000,1.04947802734375,-0.3663432491421699,0.24419673276767134,-0.5777595559448003
1757088774450432800,1.059432861328125,-0.4598901323676109,0.13607596526667476,-0.4674792723223567
1757088774460387600,1.0693876953125,-0.45806642407178877,-0.11263503005504608,-0.22292554281055926
1757088774470341600,1.079341552734375,-0.49025136836171146,-0.4091726293042302,0.10172726707160472
1757088774480297000,1.089296875,-0.526949990683794,-0.5877054881587624,0.3872849148839712
1757088774490251800,1.099251708984375,-0.5487912356138229,-0.6441597813084721,0.5211848512858152
1757088774500206600,1.10920654296875,-0.5421130730241537,-0.6741387399867177,0.6652654054403304
1757088774510160600,1.11916064453125,-0.7002765130668878,-0.7186188099652528,0.740054981225729
1757088774520116000,1.129115966796875,-1.3208990591824055,-1.0033590039148925,0.8558236331313848
1757088774530070800,1.13907080078125,-2.318379818713665,-0.37927141203731296,1.2444219687014817
1757088774540025600,1.149025634765625,-3.571960660904646,1.5985599623955786,1.664934030404687
1757088774549980700,1.158980712890625,-4.865152797994018,0.43472514984235167,0.08685060045719147
1757088774559935000,1.16893505859375,-4.945427527192234,-0.13168547522276638,-0.28421967720687386
1757088774569889800,1.178889892578125,-3.747082834532857,0.9025522126890718,1.0385580353289843
1757088774579844600,1.1888447265625,-2.300257302045822,2.791585651989281,2.2422809138953683
1757088774589799700,1.198799560546875,-0.9218190770864486,0.38801907437741756,0.8177788568973541
1757088774599754000,1.20875390625,0.5490624537706374,-2.058637434028834,-0.1727829170256853
1757088774609708800,1.218708740234375,1.974067784115672,-3.2932764059931037,-0.3308767989635467
1757088774619663600,1.22866357421875,2.5498002181470394,-3.055284226953983,-0.3149707893013954
1757088774629618700,1.23861865234375,2.4402152233123777,-1.8408596293702721,-0.3104477589190006
1757088774639572700,1.24857275390625,1.644936952036619,-0.8558825237117708,-0.4339741853445768
1757088774649527800,1.25852783203125,0.5337532409578561,-0.5486527039259672,-0.6973597488373517
1757088774659482600,1.268482666015625,-0.42687925864756104,-0.55814972332865,-0.9674299046605825
1757088774669437700,1.278437744140625,-1.1301964545845984,-0.5610727711685002,-1.1679793650120496
1757088774679391700,1.288391845703125,-1.3895079005062578,-0.3387495781652629,-1.127431666046381
1757088774689346800,1.298346923828125,-1.3330559454441069,-0.019736381605267524,-0.865131559702754
1757088774699301600,1.308301513671875,-1.1328279721319674,0.25746698709875343,-0.34849195063114163
1757088774709256700,1.318256591796875,-0.9054992259263992,0.4667895364925265,-0.013813421297073364
1757088774719210800,1.328210693359375,-0.7632575776368379,0.64168316206187,0.24821254428029058
1757088774729165800,1.338165771484375,-0.36768531140089034,0.8007854903899133,0.4594990872234106
1757088774739120600,1.34812060546875,-0.08892097699046135,0.8120033422358334,0.1980716720610857
1757088774749075700,1.35807568359375,-0.07637187654078006,0.6358075480267406,-0.10987784030139446
1757088774759030800,1.36803076171875,-0.22990298060774803,0.42436318417340513,-0.37557168073654174
1757088774768984800,1.37798486328125,-0.41993806120753285,0.3594932371169329,-0.5243085362643003
1757088774778939600,1.387939697265625,-0.5514367816865444,0.390135043618083,-0.5561462745517491
1757088774788894700,1.397894775390625,-0.6305179171860218,0.5161727222122252,-0.5197825832724571
1757088774798849800,1.407849853515625,-0.6083382340818643,0.7140352815672755,-0.4203974954128265
1757088774808803800,1.417803955078125,-0.256969851231575,0.8213720590837299,-0.19392916542887687
1757088774818758700,1.427758544921875,0.2080231572329998,0.787867995019257,0.021378303593397138
1757088774828713700,1.437713623046875,0.5048036253273487,0.6179756848685443,0.1658463957607746
1757088774838668800,1.447668701171875,1.0752180792063475,0.7089839895270764,0.7275292616516351
1757088774848622800,1.457622802734375,1.9400842659711837,1.0412569190241396,1.3220575815677642
1757088774858577700,1.46757763671875,2.1164754366219043,1.2939279040180145,1.324198685249686
1757088774868532700,1.47753271484375,1.535330329892039,1.2454843372359872,0.6940612918138503
1757088774878487800,1.48748779296875,0.8442875091165304,0.886500803206861,-0.1636415791928768
1757088774888443000,1.49744287109375,0.1561655442237854,0.36823286228105423,-1.1860539508849381
1757088774898396700,1.507396728515625,0.9562275426447391,0.07376417826041579,-1.6657722347944974
1757088774908351700,1.517351806640625,1.7926351121664046,-0.22777517479881643,-1.5970412283957003
1757088774918306800,1.527306884765625,2.085695682954788,-0.6124282798744738,-1.9856015700429677
1757088774928261600,1.53726171875,1.9798527972579,-0.7326185476146638,-1.9439076236516235
1757088774938215700,1.547215576171875,1.78180801320374,-0.5396257862530648,-2.052918617990613
1757088774948170800,1.557170654296875,1.3750024052917957,-1.5116319127880036,-1.1803104387968777
1757088774958125800,1.567125732421875,0.6126648651093244,-1.9129234334535896,-0.9132733670592308
1757088774968080600,1.57708056640625,-0.6315723946750164,-1.1154035207308828,-0.7290332364737987
1757088774978034700,1.58703466796875,-1.7385107232689856,-0.4517376594416797,-0.07007482222318649
1757088774987989800,1.59698974609375,-2.3289397911727425,-0.1360208740785718,0.2578846279889345
1757088774997944800,1.60694482421875,-2.4280425549596547,0.0453754113830626,0.48310325017273426
1757088775007899600,1.616899658203125,-1.9346908824950455,-0.01538344709277153,1.0974281574487685
1757088775017853700,1.626853759765625,-1.3377461490869522,-0.025707711099833247,1.4781331094205379
1757088775027808800,1.636808837890625,-1.1150754578202962,0.07731894813254475,1.2669511958956718
1757088775037763800,1.646763916015625,-1.8823183057010173,0.7825991147056222,0.6884452054977417
1757088775047718700,1.65671875,-1.9489310047715902,1.4000157043866812,0.6520476119488477
1757088775057673700,1.666673828125,-0.5212696069598197,0.16528817735612392,0.3443026822477579
1757088775067628000,1.6766279296875,-0.30495208411216734,-0.6209595229849219,-0.24445406852960586
1757088775077583000,1.6865830078125,-0.7650462146192789,-0.8015989987298846,-0.8462965108513831
1757088775087538200,1.6965380859375,-0.9391969128668308,-0.5160905968867242,-0.6695891138583421
1757088775097493200,1.7064931640625,-0.8324725681602955,0.030880875954031942,-0.04271919778585434
1757088775107447000,1.716447021484375,-0.5097767375648021,0.39067704154029487,0.3734685709774494
1757088775117402000,1.726402099609375,-0.1231038170993328,0.44967298199683425,0.592833206436038
1757088775127357200,1.736357177734375,0.3131365596115589,0.32654870663136243,0.840080705076456
1757088775137312300,1.746312255859375,0.5491600689262152,0.19143851765692232,0.929957375356555
1757088775147267000,1.75626708984375,0.4340981039851904,0.13143968376815318,0.6124404087036848
1757088775157221000,1.76622119140625,0.24441373651921747,0.06378536669015884,0.19561200394928455
1757088775167176200,1.77617626953125,0.11503390789031982,0.0854939251512289,-0.04767945054173469
1757088775177131300,1.78613134765625,0.034302667096257206,0.15445406413078308,-0.09458908575475215
1757088775187086000,1.796086181640625,0.13190554771423338,0.08132511503398418,-0.18429215303361415
1757088775197040000,1.8060400390625,0.160291684243083,0.04052227226346731,-0.3433791376620531
1757088775206995000,1.815994873046875,-0.039702480313181875,-0.059852118894457816,-0.4661597141563892
1757088775216950300,1.8259501953125,-0.42167701382935047,0.006818447843194008,-0.4497650441944599
1757088775226905000,1.835905029296875,-2.4010166008681058,0.44668958227187394,-0.9352338544547557
1757088775236859100,1.845859130859375,0.31082945171296594,0.024623276863992214,-0.2693219678044319
1757088775246814000,1.85581396484375,0.9688029465794563,-0.8681286956921219,0.43057548281699415
1757088775256769300,1.865769287109375,0.37017829726040363,-1.2689756874606013,-0.07049392441809177
1757088775266724000,1.87572412109375,1.2232289585471152,-0.9164785928413272,0.16799042205214498
1757088775276679000,1.885678955078125,1.153276885920763,-0.545812804324925,0.4015180228978395
1757088775286633000,1.895633056640625,0.9774024326205253,-0.3402285646766424,0.4592231928914785
1757088775296588300,1.90558837890625,0.8457599197566509,-0.21433277877122162,0.16250702220499513
1757088775306543000,1.915543212890625,0.5547288089692592,-0.41597383375167846,-0.16004092435240744
1757088775316498000,1.925497802734375,-0.1669838753581047,-0.2785395857438445,-0.15394436104297637
1757088775326452000,1.935451904296875,-0.5096265154391527,0.11843933241963386,-0.17160919707119465
1757088775336407300,1.9454072265625,-0.3798953891545534,0.09005319589078425,-0.26501579504311085
1757088775346362000,1.955362060546875,-0.7153232755511999,-0.17257541175484656,-0.009620645782351493
1757088775356317000,1.96531689453125,-1.0096475826650857,0.07321984225064515,0.2609340786874294
1757088775366272300,1.975272216796875,-0.9514660273313522,0.5159118793189525,0.5911053597301245
1757088775376226300,1.985226318359375,-1.0265192224889994,0.6632686786651611,0.9202420370280742
1757088775386181000,1.99518115234375,-1.3676175557374954,0.5657119752764701,0.6704518681675196
1757088775396136000,2.005135986328125,-1.6266519382834435,0.48665305160880085,0.04860065703988075
1757088775406091300,2.01509130859375,-1.4851882886290548,0.6083282972097397,-0.3723918816566467
1757088775416045300,2.02504541015625,-1.1418857233345507,0.6056508946940302,-0.42299744877815243
1757088775426000100,2.035000244140625,-0.6660393124222755,0.46375060718804595,-0.3621574878901243
1757088775435955000,2.044954833984375,-0.1261883391112089,0.3485910270914435,-0.37842882373332976
1757088775445910300,2.05491015625,0.2982347585558891,0.22976561796367168,-0.4108119209438562
1757088775455865000,2.064864990234375,0.6336351724237204,0.18855916282832622,-0.05311141246259212
1757088775465819100,2.074819091796875,0.8081248933672904,0.12973054176270962,-0.011728431716561316
1757088775475774000,2.08477392578125,0.912743205705285,-0.1240361295133829,-0.3755886318713426
1757088775485729300,2.094729248046875,1.2277584186702966,-0.3142760850355029,-0.41671851463913917
1757088775495684000,2.10468408203125,1.3795757045567034,-0.4696855501949787,-0.35080490374863144
1757088775505638100,2.11463818359375,0.9968751948535441,-0.30054741941243407,-0.35965398063659665
1757088775515593000,2.124593017578125,0.3892278656452894,0.05804331590682268,-0.009535305586457252
1757088775525548300,2.13454833984375,0.2471750179260969,0.3731999831691384,0.761028795671463
1757088775535503000,2.144503173828125,1.0216343730568884,1.51999832072556,0.4327431822448969
1757088775545458200,2.154458251953125,0.6198503926992416,0.868538737797737,2.443458150756359
1757088775555412000,2.164411865234375,-0.4053104009181261,0.11239245347082615,3.839118144151568
1757088775565367300,2.1743671875,-1.0261761081397534,0.3118871440723538,2.195235085082054
1757088775575322000,2.184322021484375,-1.4143693700402975,0.38485096573531624,0.6874345671504736
1757088775585277200,2.194277099609375,-1.3652116636395453,0.24388211386054753,0.27091946612894535
1757088775595231000,2.20423095703125,-1.0524380921214818,-0.25664339575618506,0.34293197841644285
1757088775605186300,2.214186279296875,-0.6183569392710924,-0.6536915797635913,0.18019816171824932
1757088775615141000,2.22414111328125,-0.21578969958126543,-0.683750325679779,-0.27815818521082397
1757088775625096200,2.23409619140625,-0.003584872749447822,-0.5729778746262192,-0.6744990977317095
1757088775635051000,2.244051025390625,-0.0021779285609722135,-0.31863311120122667,-0.7028560081660747
1757088775645005300,2.25400537109375,-0.09727437931597233,-0.12516191867291926,-0.5653606776207685
1757088775654960000,2.263960205078125,-0.05658288796544075,-0.026415128716826438,-0.45086979056596754
1757088775664915200,2.273915283203125,0.107849549344182,-0.012737608759105205,-0.4225467824012041
1757088775674870000,2.2838701171875,0.30222353593111034,-0.13710486992299556,-0.5006622877389192
1757088775684824300,2.29382421875,0.5818383496910333,-0.34906565886586904,-0.7026742218583821
1757088775694779100,2.303779052734375,0.8592658825397491,-0.5915136482700705,-1.1716612683951855
1757088775704734200,2.313734130859375,1.1861702707409858,-0.7918541420459747,-1.6829752985298632
1757088775714689000,2.32368896484375,1.4989643005251883,-0.8839879436030983,-1.9552993707597255
1757088775724644000,2.33364404296875,1.6906851422548292,-0.8221560490682721,-1.839923517563939
1757088775734598100,2.34359814453125,1.691713316258788,-0.7404319978445768,-1.483418356347084
1757088775744553200,2.35355322265625,1.309726507782936,-0.4426023129582405,-0.9692898533135652
1757088775754508000,2.363508056640625,0.9427028751611709,0.01337999831587076,-0.2127975320279598
1757088775764463000,2.373463134765625,0.6372025095164775,0.45582390584200616,0.3743231419801712
1757088775774418200,2.383418212890625,0.13949205732047557,0.7040218370750546,0.517919712010026
1757088775784372000,2.3933720703125,-0.5418704964399338,0.712057259492576,0.6370943729668855
1757088775794327000,2.4033271484375,-1.3612410064429044,0.6244418121427298,0.7272282328784465
1757088775804282000,2.4132822265625,-2.3652941301018,0.6771352914541959,0.8313444409132004
1757088775814237200,2.4232373046875,-3.3879578462064264,0.9611889644443988,0.8881675673753022
1757088775824191000,2.43319091796875,-4.050347403949499,1.138686927293241,0.7981108643531799
1757088775834146000,2.44314599609375,-4.383470520535111,1.0516212227806447,0.675570526355505
1757088775844101000,2.45310107421875,-4.082632886004448,1.0375812992513178,0.3752846804887056
1757088775854056200,2.46305615234375,-3.551137653106451,0.9997913745611905,-0.07948445560336112
1757088775864011000,2.473010986328125,-2.8259850574582814,1.040389926931262,-0.34358956554234027
1757088775873965000,2.482965087890625,-1.9908102446019649,0.6502493303552269,-0.8452385262310504
1757088775883920100,2.492920166015625,-1.29832365475893,0.013960720813274383,-1.4766086763322352
1757088775893875200,2.502875244140625,-0.7057020452469587,-0.52756344640702,-2.1419377946585416
1757088775903830000,2.512830078125,-0.2188414883673191,-0.810813109537959,-2.429566988047957
1757088775913785300,2.522785400390625,0.1704182337209582,-0.9770137255638838,-2.119365312844515
1757088775923739100,2.5327392578125,0.5242237805902957,-1.1065586816266177,-1.5413596731841563
1757088775933694200,2.542694091796875,0.852621037697792,-1.1475234369605778,-0.8935995292961597
1757088775943649000,2.55264892578125,1.1973615268409252,-1.0966183023706078,-0.3295587021023035
1757088775953604000,2.56260400390625,2.0535218445807693,-1.163553073002398,0.011674655702710151
1757088775963559200,2.57255908203125,2.43331026622951,-1.4109656990766524,0.7457388720810413
1757088775973513200,2.58251318359375,2.4083076346591112,-1.4005828367501496,1.4481220020383596
1757088775983468000,2.592468017578125,2.5401123523473736,-1.2480346062406897,1.7519658326476812
1757088775993423000,2.602423095703125,2.226966732646525,-1.2807307149231433,1.9101397940844296
1757088776003378200,2.612378173828125,1.81578860873878,-1.3284984282702206,1.8684885177910326
1757088776013333000,2.6223330078125,1.803577946463227,-1.171212647844851,1.8783219295412301
1757088776023287000,2.632287109375,1.754621900114417,-1.021963751141727,1.95868550606668
1757088776033242000,2.6422421875,1.3181196575969456,-0.9469900509610771,1.5978051985055208
1757088776043197200,2.652197265625,0.6118441963762045,-0.9033172057121992,0.7494710443466901
1757088776053152000,2.662152099609375,-0.46281683346927166,-0.9570134323254227,0.47665831181704993
1757088776063107300,2.672107421875,-0.8550017953544855,-0.8783905619874596,0.7110451598405838
1757088776073061000,2.68206103515625,-0.3200190126016736,-0.5181383231967688,1.2477490672975777
1757088776083016200,2.69201611328125,0.34095600216835736,-0.08878829052150249,1.8667729460448026
1757088776092971000,2.701970947265625,0.5490925566479563,0.26224282319843767,2.1549784780174495
1757088776102926300,2.71192626953125,0.22062632595747708,0.5552320823162794,1.7189812624126672
1757088776112881200,2.721881103515625,-0.22686551260799168,0.6073720193982124,0.8286457033485174
1757088776122835200,2.731835205078125,-0.9150827545687555,0.47621933587789533,0.08834873006045818
1757088776132790000,2.7417900390625,-0.9058025927871465,0.15079612614512442,-0.4835708676844835
1757088776142745300,2.751745361328125,-0.4534177214831114,-0.03207797678411007,-0.8374784136235713
1757088776152700200,2.7617001953125,0.18530892886072395,-0.04471709360480308,-1.0576350762426852
1757088776162655200,2.7716552734375,1.0766668167099356,-0.12668167558610438,-1.257187342250347
1757088776172609000,2.781609130859375,1.1846598661780356,0.001359013393521309,-1.0273387221783399
1757088776182564400,2.791564453125,0.3455138116031885,0.33585575641989707,-0.7644950104773044
1757088776192519200,2.801519287109375,-0.3865200679913163,0.5987631810069084,-0.41674890977740287
1757088776202474200,2.81147412109375,-0.8407517362058162,0.7023954049170017,0.12332418185174464
1757088776212429300,2.82142919921875,-0.7320628134280442,0.7662129203110933,0.4302601332575082
1757088776222384000,2.831384033203125,0.40383346023336053,0.5026216051131487,0.9573889876395464
1757088776232338200,2.841338134765625,3.937520066192746,1.240622576418519,3.184786805179715
1757088776242293000,2.85129296875,3.75608447163403,0.2570136903733015,2.2577935403257605
1757088776252248300,2.861248291015625,4.4828287203878165,-0.7582640071332454,3.2904613485723733
1757088776262203100,2.871203125,-0.06303469445332885,0.10918518186211586,7.843385349449515
1757088776272158200,2.881158203125,-5.739764718225598,3.9732431214809414,4.073683855873346
1757088776282112000,2.891112060546875,-4.243248979896307,3.8010733679175375,0.5885667811632156
1757088776292067300,2.9010673828125,-3.4027100096583363,1.3498662104696035,0.8263871107667684
1757088776302022100,2.911022216796875,-1.7429010671824217,0.5619190127342939,-1.6546441070586442
1757088776311977200,2.920977294921875,-2.091802183136344,-0.14475275432765483,-3.2958822045773264
1757088776321932000,2.93093212890625,-3.2662592197299003,-1.2891256183028221,-3.131217712077498
1757088776331887400,2.940887451171875,-1.4552851716659962,-1.9680869561403989,-4.250755410003662
1757088776341841200,2.950841064453125,1.7233068705268204,-2.4463351674973963,-4.439167857837677
1757088776351796200,2.960796142578125,2.0479431676656006,-2.7063001088917256,-4.660020686027408
1757088776361751000,2.9707509765625,1.8219564837187527,-1.9492998380839823,-3.562690728256106
1757088776371706400,2.980706298828125,1.6200805970691143,-1.0437883371978998,-3.342150619277358
1757088776381661200,2.9906611328125,0.6724624773375689,0.05165186130404472,-3.99096407161057
1757088776391616000,3.000615966796875,1.4185808502554893,1.5354495723575352,-1.2389900067806243
1757088776401570000,3.010570068359375,0.8433417526990175,3.4317753606230017,-0.5114899712234735
1757088776411525400,3.020525390625,-0.3705810328423977,4.460322874069214,-0.04795651391744613
1757088776421480200,3.030480224609375,0.3333352980315685,3.3947236870795487,-0.24752865366935728
1757088776431435000,3.04043505859375,0.7527412981890141,1.666278430750966,-0.6201338858157396
1757088776441390300,3.050390380859375,0.3341939606875181,1.139897179865837,-0.3744514445349574
1757088776451344100,3.06034423828125,-0.2545828099645674,0.7253782210975885,-1.3099658694967626
1757088776461299200,3.07029931640625,-0.9476420851290226,0.271936534217,-2.0540230721011756
1757088776471254000,3.08025390625,-0.6419139020778238,0.005467033234238625,-2.3224872540324926
1757088776481209300,3.090209228515625,0.25333821673095225,-0.058096799659729,-2.1180586141601205
1757088776491164200,3.1001640625,0.7780882131524384,0.16324118169844148,-1.4050497530311346
1757088776501119200,3.110119140625,0.6475790882326662,0.35807226440310475,-0.8411462884813546
1757088776511073000,3.120072998046875,0.5265495931893587,0.3183142545104027,0.6776321350604295
1757088776521028400,3.1300283203125,0.4470756589800119,0.052550855970382684,1.976028270533681
1757088776530983200,3.139983154296875,0.5758851403750479,-0.76334700948596,3.024173633897304
1757088776540938200,3.149938232421875,0.48967912143170833,-1.6785171500772236,3.9954479390263553
1757088776550893000,3.15989306640625,-0.15407631685957313,-2.326559033516049,4.607737541082501
1757088776560848100,3.16984814453125,-0.8511730308465659,-2.7658178812652823,2.1289239993065596
1757088776570802200,3.17980224609375,-1.332265087327361,-3.287606543663144,1.6905694069206714
1757088776580757200,3.18975732421875,-0.48278600091710683,-3.8466783502727746,1.463100959983468
1757088776590712000,3.199712158203125,0.8143781085431575,-4.452760329860449,0.746677614235878
1757088776600667100,3.209667236328125,1.383726394495368,-4.421442231532931,0.9349228888094425
1757088776610622200,3.219622314453125,1.3455876563675702,-3.5919594928383827,1.3719494474619627
1757088776620577000,3.229576904296875,0.9181419960089028,-2.8684909047544003,1.6580904481202363
1757088776630531000,3.239531005859375,0.7150966271884739,-1.8972317971944808,1.45200994938761
1757088776640486100,3.249486083984375,0.40113516106009484,-1.2894453517764806,0.7976464617118239
1757088776650441200,3.259441162109375,0.14311258590519427,-0.577720977500081,-0.04685439789444208
1757088776660396000,3.26939599609375,-0.625884996688366,0.5577402657449245,-0.5144663566857576
1757088776670351400,3.279351318359375,-0.6679378395199775,1.7786632854372262,-1.7694941828146575
1757088776680306200,3.28930615234375,-0.5335333145968616,2.5641250960975883,-2.261488887712359
1757088776690260200,3.29926025390625,0.17339008913859724,3.011488924369216,-2.4982290208637714
1757088776700215000,3.309215087890625,-0.13021058036461472,2.393889525467157,-2.1359575512051583
1757088776710170400,3.31917041015625,0.6814496475219726,1.1197563091129064,-1.8590329994425177
1757088776720125200,3.329125244140625,1.1974105536144226,-0.15174071351885796,-1.3295298171445726
1757088776730080000,3.339080078125,0.7665577151607722,-0.2822211968660354,-0.7379989254787563
1757088776740035000,3.34903515625,0.5657224236052483,-1.570851725128293,-0.7597887324824929
1757088776749989400,3.3589892578125,-2.152394745134562,-9.460033195590972,-1.7925003798708319
1757088776759944200,3.368944091796875,-3.1257348967522383,-4.4586312677204605,0.48843876598179337
1757088776769899000,3.37889892578125,0.39014030431509017,2.9817689088881014,2.018451115721464
1757088776779854000,3.38885400390625,-0.9841548294901847,1.5841419993340968,1.4980743659481406
1757088776789809200,3.39880908203125,0.30546595191843806,-0.28373160142898557,-0.16193126814365386
1757088776799764200,3.40876416015625,0.20085282721221445,2.540574709162116,-0.668177493494749
1757088776809718000,3.418718017578125,-0.6443610029689967,5.6129579549551005,-0.7292270054802298
1757088776819673000,3.428673095703125,-0.5993155541926622,5.063712545832991,-1.7142010423988103
1757088776829628200,3.438628173828125,-0.6168680889528244,5.120974063712358,-2.1817799757033587
1757088776839583200,3.448583251953125,-0.6062614278078079,6.070665482586622,-1.4008520090803502
1757088776849538000,3.4585380859375,-0.3878770355582237,5.440687663626671,-0.7704691164508461
1757088776859493400,3.468493408203125,-0.4594048330686986,2.6263638178676367,-2.6583973709881303
1757088776869447200,3.478447265625,-0.3831184428542852,1.902833854985237,-3.523179094339907
1757088776879402200,3.48840234375,0.8294685640387237,-2.2558710478305817,1.2313082201063632
1757088776889357000,3.498357177734375,2.319814673822373,-0.3347030792534351,2.6828590275496245
1757088776899312400,3.5083125,1.5934055022418498,-3.246502964380383,4.364430012239516
1757088776909267200,3.51826708984375,-0.3958808937937021,-5.175799294355511,1.9735022591874003
1757088776919222000,3.528221923828125,-0.5248971498072147,-2.853575075173378,0.6919596433594822
1757088776929176000,3.538176025390625,-1.156304197852686,-2.4895839421153068,-0.38028468073308463
1757088776939131100,3.548131103515625,-1.4906681813448666,-1.2440630722612143,-0.04395516932159662
1757088776949086200,3.558086181640625,-0.6232944687385111,0.1743991200506687,0.7698162055000662
1757088776959041000,3.568041015625,0.1713672780741006,-0.07345803492069244,0.29635698198527094
1757088776968996400,3.577996337890625,0.6972067502327263,-0.3441086209803819,0.16296061119139194
1757088776978951200,3.587951171875,0.42838798271007833,-1.3346931912571192,-0.025641513995826242
1757088776988905200,3.5979052734375,0.19351196293011308,-1.6842483872056007,-0.10368161600977181
1757088776998860000,3.607860107421875,-0.5077314224075525,-1.1278589515477417,0.35205315024405714
1757088777008815400,3.6178154296875,-0.8369879997581243,-1.0089017327338456,0.4031991078525781
1757088777018770200,3.627770263671875,-0.6209732592493296,-0.9250479760050773,0.42652825325280425
1757088777028725200,3.637725341796875,-0.2145668067228049,-0.8138713280647992,0.580190290223062
1757088777038680000,3.64768017578125,0.20184366488046943,-0.5986936229020356,0.6026327159166336
1757088777048634000,3.657634033203125,0.5874170996714383,-0.05257248328030109,0.48096945301443333
1757088777058589200,3.667589111328125,0.6921769393719732,-0.4170195434123277,0.6489297721892595
1757088777068543700,3.677543701171875,0.90411047498174,-2.604105808830261,1.1472374596260488
1757088777078498600,3.68749853515625,0.6501315491944551,-5.290455016583204,1.6574945280537008
1757088777088453600,3.69745361328125,0.017231741840578615,-6.2854205784231425,1.6669605677962303
1757088777098408700,3.70740869140625,0.21560024142377077,-5.83398204805851,1.476064486452937
1757088777108362800,3.71736279296875,-0.02708908245563507,-5.531484371361136,0.8620815244823694
1757088777118317600,3.727317626953125,1.0497282486408948,-2.7072131320834156,0.3077523823551833
1757088777128272600,3.737272705078125,4.170954143536091,2.0185639284461736,0.5906527936570346
1757088777138227700,3.747227783203125,2.0522481713831424,0.594056610751152,0.3176975839167833
1757088777148182500,3.7571826171875,-1.197055821892619,-0.574140196403861,0.6147109839841723
1757088777158137600,3.7671376953125,-0.9058926091581583,-1.1959084054231643,1.702401591272652
1757088777168092700,3.7770927734375,2.412107903724909,0.027093174108862875,1.5560666823200882
1757088777178046700,3.787046630859375,0.7005354562640189,-2.3434429482996464,1.0241917293895035
1757088777188001500,3.79700146484375,-3.0238451325953006,-3.082433515164256,1.3854033877968788
1757088777197956600,3.80695654296875,-2.838760952401161,0.04052782522141933,1.0528866396065801
1757088777207911700,3.81691162109375,-0.9420902962207793,1.7009814953416584,0.1415532276339829
1757088777217866800,3.82686669921875,-0.8255529980301857,7.589991018617153,-0.698508042089641
1757088777227821600,3.836821533203125,-0.7022375840067863,21.047026981461048,0.7903791741225868
1757088777237775600,3.846775634765625,1.9007354214012622,8.179668975892662,-3.87171517637372
1757088777247730700,3.856730712890625,0.5241839600365609,-1.0636655885785817,-9.31527518056631
1757088777257685800,3.866685791015625,-0.38085590474978087,4.346829765880107,-7.940283881190418
1757088777267640600,3.876640625,0.7933505180835724,4.29581854056716,-6.053028119087219
1757088777277595600,3.886595703125,0.8824702325165271,3.361516414004564,-4.560985726779699
1757088777287550700,3.89655078125,0.2967990997295826,1.2135101130872965,-1.1851885662272572
1757088777297505500,3.906505615234375,0.2504068759867921,-1.0676216327279806,2.4063152917981148
1757088777307459600,3.91645947265625,1.0933949564099312,-1.2748135998338461,4.10467286837697
1757088777317414400,3.926414306640625,1.4132394892275333,0.6142986037909984,3.131301883229613
1757088777327369700,3.93636962890625,1.0723626897752285,0.8833119440376758,1.1529787797570228
1757088777337324500,3.946324462890625,0.018972996017336843,0.5044897370725869,1.5020043988734484
1757088777347279600,3.956279541015625,-1.502629837295413,0.18280922099947927,1.910217243234813
1757088777357234700,3.966234619140625,-2.2716344341516495,1.0746271275758743,1.5717362528778611
1757088777367188700,3.976188720703125,-1.0092541994333266,2.1728899822831154,0.5327579463101924
1757088777377143600,3.9861435546875,0.15469138001799582,1.655782171177864,-0.3399646530434489
1757088777387098600,3.9960986328125,0.002215931616956368,1.2832067496478556,-0.5475463501192629
1757088777397053700,4.0060537109375,-0.5462187547773123,1.1436474723100662,-0.481883937510848
1757088777407008800,4.0160087890625,-0.7821475715458392,0.8802724302113055,-0.15890066827610133
1757088777416963600,4.025963623046875,-0.8165127824842929,0.8392980302661657,0.11041019361242652
1757088777426918700,4.035918701171875,-0.8290870173752307,0.8369739712327718,0.02040127525478601
1757088777436872700,4.045872802734375,-0.7509060455858707,0.7223761166721582,-0.40201530489549037
1757088777446827800,4.055827880859375,-0.6694751320898532,0.3767605982601642,-0.7245555796030908
1757088777456782600,4.065782470703125,-0.191347953296639,-0.4974579387396574,-0.21082732793353498
1757088777466737700,4.075737548828125,0.3120119029631838,-1.816396511504054,0.4350209909837693
1757088777476692700,4.085692626953125,0.8805085039895028,-3.1050679562985897,-0.5811158806353807
1757088777486647600,4.0956474609375,0.7029706475216895,-3.254386995628476,-1.6556503614917397
1757088777496601600,4.1056015625,0.7564519892752171,-1.2428840916097164,-0.22490604910328982
1757088777506556400,4.115556396484375,0.5083937587738037,-1.7586919260323046,0.25657113423757255
1757088777516511700,4.12551171875,0.1233352877676487,-2.6090748294144865,0.4205963059205562
1757088777526466600,4.135466552734375,0.048704665403626855,-1.5736521695017813,0.1709513907495886
1757088777536421600,4.145421630859375,0.008697685718536376,-0.12279811215102672,0.13310549808852373
1757088777546376700,4.155376708984375,0.09183543966505676,-0.5333323851972818,-0.18496859099045396
1757088777556331500,4.16533154296875,0.03891045315265655,-0.0013666121780872343,-0.47940673374235626
1757088777566285600,4.17528564453125,-0.18622863752152768,1.3218483227312563,-0.5146240314655005
1757088777576240600,4.18524072265625,-0.08616086462736129,2.418126141101122,0.043673429770767686
1757088777586195700,4.19519580078125,0.2808826782712713,2.6171336327075956,0.5437229924388229
1757088777596150500,4.205150634765625,-0.4602208986919373,2.0204484270185232,-0.3394648868277669
1757088777606105600,4.215105712890625,-1.556521001958847,0.8645119664996862,-0.3972092197880149
1757088777616060700,4.225060791015625,-0.5708510917305946,0.8599240541875361,0.5482515757791697
1757088777626014700,4.2350146484375,-0.1716192070085555,-0.6404331620007753,-0.9321636532291769
1757088777635969500,4.244969482421875,2.0914988162755965,-1.6863444827020166,-0.5590086782455445
1757088777645924600,4.254924560546875,2.49515443572402,-0.7296709498554468,-0.04362476832345128
1757088777655879700,4.264879638671875,1.0813011985123158,1.1714876653939486,0.5928494269184768
1757088777665834800,4.274834716796875,0.788500155442953,-0.25993103912472726,-1.0376144708685577
1757088777675789600,4.28478955078125,0.6443593955338001,-1.1296826598435639,-0.7909304513297974
1757088777685744600,4.29474462890625,-0.085480444615148,0.22213819182515143,0.23757556106224656
1757088777695698700,4.30469873046875,-0.5800303869536146,0.007783493483066559,-0.47238048836737867
1757088777705653800,4.31465380859375,-0.24377839775774626,0.48121056829392905,-0.28308585087135435
1757088777715608600,4.324608642578125,0.2414671251406893,0.7858247987538576,-0.24900734791979193
1757088777725563600,4.334563720703125,0.33441428890731184,0.41732817097008224,-0.3845090204298496
1757088777735518700,4.344518798828125,0.32538459475543346,0.12986790440678594,-0.09056275284811854
1757088777745473500,4.3544736328125,0.20611290316488592,0.05156827467381954,0.27367256422936914
1757088777755428600,4.3644287109375,-0.0016179565906524658,-0.02426701077222824,0.477738946660608
1757088777765382700,4.374382568359375,-0.23580551918242126,-0.09134498926699161,0.5211369204908609
1757088777775337700,4.384337646484375,-0.3212240775424987,-0.03796528125703334,0.7025013495095074
1757088777785292500,4.39429248046875,-0.3317162089297548,-0.20671382820010184,0.8308191018648445
1757088777795247600,4.40424755859375,-0.5279787492096424,-0.24956395888924598,1.0704884203359484
1757088777805202700,4.41420263671875,-0.593978284817934,-0.1458861422717571,1.155153931839019
1757088777815157800,4.42415771484375,-0.4859727411944419,-0.20883272005021572,1.0933625154450535
1757088777825112600,4.434112548828125,-0.5149812474053352,-0.27784195886850355,1.0359747408375144
1757088777835066600,4.444066650390625,-0.5304022134969011,-0.15127075791954994,1.078931108380109
1757088777845021700,4.454021728515625,-0.3509820138812065,-0.09247194747030735,0.8949779780425131
1757088777854976800,4.463976806640625,-0.3364040379524231,-0.2483072368264198,0.6501352024562657
1757088777864931600,4.473931640625,-0.5350234435567632,-0.15206278508007526,0.6171880416221917
1757088777874886400,4.483886474609375,-0.43491829779427493,-0.07871347123086452,0.4213296616964042
1757088777884841700,4.493841796875,-0.31332236450724305,-0.6030091480135917,0.012763619983196257
1757088777894796500,4.503796630859375,-0.2714741043370217,-0.4703559968024492,-0.007303893272578716
1757088777904750600,4.51375048828125,-0.3582289162695408,-0.1275783321648836,0.02421630349829793
1757088777914705400,4.523705322265625,-0.26147308093495664,0.05054711493253707,-0.057765083487331864
1757088777924660700,4.53366064453125,-0.06038114773724228,0.037573067069053646,-0.27490590541660787
1757088777934615600,4.543615478515625,-0.022587094861268996,-0.003575520399212837,-0.47601752969548106
1757088777944570600,4.553570556640625,0.046178325263783335,0.00911795695722103,-0.5952537115812301
1757088777954525700,4.563525634765625,0.2198690778493881,0.05856441717147827,-0.7228786593668163
1757088777964480500,4.57348046875,0.36906127592921256,0.13165011164844034,-0.8446347151190042
1757088777974434600,4.5834345703125,0.31421566008515656,0.047860067805647846,-1.105712440060824
1757088777984389600,4.5933896484375,0.24293197352886198,0.1571235756009817,-0.9181091166526079
1757088777994344700,4.6033447265625,0.24459906649086624,0.16827391516864298,-1.0214552170976996
1757088778004299500,4.613299560546875,0.2023848225524649,0.18946341819167137,-0.7866871146716177
1757088778014254600,4.623254638671875,0.25863336399700493,0.2829851669758558,-0.47661374202296136
1757088778024209700,4.633209716796875,0.20226791817452758,0.005442483314871788,-0.34322029383853075
1757088778034164700,4.643164794921875,-0.01591192794628441,-0.055904842573404306,-0.09269304287508129
1757088778044118500,4.653118408203125,-0.026014767755009233,-0.007211831074953079,-0.10822364335358142
1757088778054073600,4.663073486328125,-0.20823007798194884,0.08326981936097144,-0.04779197100549936
1757088778064028700,4.673028564453125,-0.46470188003089274,-0.10005787255465984,0.1592959512040019
1757088778073983700,4.682983642578125,-0.6770785197656601,-0.26595745980739594,0.18336042514145373
1757088778083938600,4.6929384765625,-0.33436632157973945,-0.0951011269301176,-0.3509694466605782
1757088778093894000,4.702893798828125,-0.10830964113660156,-0.041355508217215536,-0.39893516679778696
1757088778103848700,4.7128486328125,0.25049210658483206,0.016811434069275856,-0.14941913870349527
1757088778113802800,4.722802734375,0.07656769137382508,-0.15560031155645845,-0.07351195706501602
1757088778123757600,4.732757568359375,-0.022996260184049606,0.0749368753015995,-0.5496702104054391
1757088778133713000,4.742712890625,0.0551122308909893,0.5605564922094345,-1.078476058088988
1757088778143667700,4.752667724609375,-0.2527705729108304,0.4206897563576698,-1.0884155605621635
1757088778153622500,4.76262255859375,-0.4231423371415585,0.3189595666766166,-1.1591199128605425
1757088778163577600,4.77257763671875,-0.7035725589375943,0.48263972431421276,-0.959096083818376
1757088778173532700,4.78253271484375,-0.6152093619603664,0.2537158178716898,-0.07487666954696177
1757088778183487700,4.79248779296875,-0.12698854957818984,-0.024689035576581954,0.8835723485395311
1757088778193441500,4.802441650390625,0.32759536614008244,-0.14189678037464618,0.924033099874109
1757088778203396600,4.812396728515625,0.27789113177247343,0.13679507332146168,0.6259187528274953
1757088778213351700,4.8223515625,-0.03360876654796302,0.394978391996026,0.3483941893450916
1757088778223306800,4.832306640625,-0.31940029618144034,0.4683610235929489,0.25867168671339746
1757088778233261600,4.842261474609375,-0.5576057526450604,0.21907997329831122,0.04281900489851832
1757088778243216600,4.852216552734375,-0.6692213765244931,0.1649006393432617,-0.2889185025475919
1757088778253171700,4.862171630859375,-0.485873299407959,0.3196288442403078,-0.7489115107677876
1757088778263125800,4.872125732421875,-0.5078210734523833,0.24910335564017294,-1.0433451234750448
1757088778273080600,4.88208056640625,-0.3513865030288696,0.23922552022635934,-1.063035254785791
1757088778283035600,4.89203564453125,-0.024740473502874373,0.103906949198246,-0.9520113862544297
1757088778292990700,4.90199072265625,0.17641345554776489,0.00957329950928688,-0.6641715457890183
1757088778302945500,4.911945556640625,0.2344914774417877,-0.06080488957464695,-0.47301418316103516
1757088778312900900,4.92190087890625,-0.1673018552660942,-0.09783844293951988,-0.15250629106387495
1757088778322855700,4.931855712890625,-0.5538041684050112,-0.05605448017716407,0.2030958568986505
1757088778332810800,4.941810791015625,-0.6809189747113734,-0.10282675274610519,0.4517478885747492
1757088778342764500,4.9517646484375,-0.6134803462106734,-0.09137012370824814,0.6893473419692366
1757088778352720000,4.961719970703125,-0.5703799670875073,-0.15664368312954902,0.7689660184115171
1757088778362674700,4.9716748046875,-0.6551053920842707,-0.18413959282040596,0.7645256978765129
1757088778372629800,4.981629638671875,-0.7294283002059906,-0.25068039569854733,0.8183839831836521
1757088778382584600,4.99158447265625,-0.015639540745690465,-0.13088380345106124,0.3863903771970421
1757088778392539600,5.00153955078125,-0.4290251115698367,-0.17640987535119057,0.32746165675781663
1757088778402494700,5.01149462890625,-0.5641173995614052,-0.23059330095946787,0.29430457950010896
1757088778412448800,5.02144873046875,-0.3349729822359979,-0.15063421358168125,0.2007808579545468
1757088778422403600,5.031403564453125,-0.4056162519969046,-0.09655424834787844,0.2125321590900421
1757088778432358700,5.041358642578125,-0.5069898102600127,-0.11371698007285594,0.3161941205512732
1757088778442313700,5.051313720703125,-0.429988330578804,-0.09176116885244846,0.4297636549774557
1757088778452268500,5.0612685546875,-0.30929398577399553,-0.06655190879404545,0.5585685332626104
1757088778462224000,5.071223876953125,-0.16371405990719795,-0.11123802273869514,0.48680239695161576
1757088778472178700,5.0811787109375,-0.21879940279126167,-0.04215396511852741,0.3991887762326747
1757088778482133500,5.091133544921875,-0.21427169623374936,0.058448681837320327,0.20309856031239032
1757088778492087600,5.101087646484375,-0.14529562903270124,0.10204524697959423,-0.004270370795577764
1757088778502043000,5.11104296875,-0.09162395233884453,0.13116378943622112,-0.15224625188820062
1757088778511997700,5.120997802734375,-0.00578092148900032,0.10917582951188087,-0.2994350742563605
1757088778521952500,5.130952392578125,0.00666238049864769,0.11812193703353405,-0.3995907811623066
1757088778531907600,5.140907470703125,-0.006920885304361582,0.09969079280793666,-0.36228206411786373
1757088778541862700,5.150862548828125,-0.03441445690765977,0.12230185306668281,-0.2670686359196901
1757088778551817700,5.160817626953125,-0.05346278318352997,0.10171031593680381,-0.10934461020752786
1757088778561771500,5.170771484375,-0.0950011736869812,0.02737491365969181,0.05861000987887382
1757088778571726600,5.1807265625,-0.12074717097058892,-0.054573886230587954,0.20873247454613447
1757088778581681700,5.190681640625,-0.08694083602391182,-0.09831307471394539,0.3523435845579952
1757088778591636700,5.20063671875,-0.009737988551706074,-0.08892506864368915,0.5266564145646989
1757088778601591600,5.210591552734375,-0.06576207359060644,-0.2926625113815069,0.5518358640067279
1757088778611547000,5.220546875,-0.05884484154805541,-0.2861912695407867,0.5777252152837813
1757088778621501700,5.230501708984375,-0.05280921464562416,-0.1736328118532896,0.5211138318762183
1757088778631456500,5.24045654296875,-0.12045732117854058,-0.0955278279095888,0.39836021645404396
1757088778641410600,5.25041064453125,-0.12730901370421052,-0.02455927171707153,0.29625615195930005
1757088778651365600,5.26036572265625,-0.14570157948508858,0.009079378512501715,0.21638328156024217
1757088778661320700,5.27032080078125,-0.12225275322794914,0.03192015587389469,0.19454685893580317
1757088778671275500,5.280275634765625,-0.078496686675027,0.05491407797038555,0.16570209191925822
1757088778681230800,5.29023095703125,-0.02167765186615288,0.061569444206357,0.15714271869286894
1757088778691185700,5.300185546875,-0.008038564222678542,0.057175008639693256,0.11973477905765176
1757088778701140700,5.310140625,-0.004993132112175226,0.035735330247879026,0.08803272291384637
1757088778711095600,5.320095458984375,-0.013554039708524942,0.007495324191451072,0.04249357233643532
1757088778721049900,5.3300498046875,-0.00345591260753572,-0.0068657941162586205,-0.034088732084631916
1757088778731004700,5.340004638671875,0.004761515313386917,-0.01931084966957569,-0.13995149152576922
1757088778740959700,5.349959716796875,0.03509703234434128,-0.014646949511766432,-0.23590156343542037
1757088778750914600,5.35991455078125,0.057154696504026645,-0.002897475007176399,-0.29156492540314793
1757088778760869600,5.36986962890625,0.12363339393138885,0.01075929442346096,-0.38455388248488304
1757088778770824700,5.37982470703125,0.19289689977169036,0.040702597266435624,-0.48486514527872204
1757088778780779500,5.389779541015625,0.2334336389519274,0.04129822507202625,-0.5155378583747894
1757088778790734800,5.39973486328125,0.22231230628304183,0.031335049462318416,-0.5730754167165607
1757088778800688600,5.409688720703125,0.19538104473762213,0.07243219900429249,-0.6306293416712433
1757088778810643700,5.419643798828125,0.1338788936138153,0.08563128779530525,-0.6268197933204471
1757088778820598500,5.4295986328125,0.09239990514740347,0.09868249254822731,-0.5852896591886878
1757088778830553900,5.439553955078125,0.0570456831716001,0.08262567623853682,-0.5313628386899829
1757088778840508700,5.4495087890625,0.07084887533560395,0.046807928404211996,-0.4132077300392091
1757088778850463700,5.459463623046875,0.09126717479042708,0.010207505759596823,-0.33692521228231487
1757088778860418600,5.46941845703125,0.10720124150328338,-0.0236065010368824,-0.28282120858579873
1757088778870373600,5.47937353515625,0.07304170920476317,-0.018770751443505287,-0.2467659987337887
1757088778880327700,5.48932763671875,0.009406126248836516,0.01082768348455429,-0.21998729740157721
1757088778890282800,5.49928271484375,0.005439706835895776,0.03712883043289184,-0.14638050165995956
1757088778900237600,5.509237548828125,0.0175016813557595,0.04355564860999584,-0.06537519316487014
1757088778910192600,5.519192626953125,-0.0016799159109592437,0.005168927070498466,0.0031280688926577566
1757088778920147700,5.529147705078125,-0.03397694227322936,-0.02650163795650005,0.03211516698934137
1757088778930102500,5.5391025390625,-0.07810856414027512,-0.046367783421277994,0.0603657675050199
1757088778940057900,5.549057861328125,-0.09676065764017402,-0.03542378008067608,0.06565123362727462
1757088778950012700,5.5590126953125,-0.17480127111077307,-0.09978373178839683,0.04500811244063079
1757088778959966700,5.568966796875,-0.14466113052144647,-0.05526946727931499,0.07874262426011264
1757088778969921500,5.578921630859375,-0.15155958479829132,-0.05137888958156109,0.05151259896382689
1757088778979876900,5.588876953125,-0.1102056109510362,-0.04125204784274101,0.01770772532187402
1757088778989831700,5.598831787109375,-0.1038461589217186,-0.018192659294605253,0.01646736987195909
1757088778999786500,5.608786376953125,-0.11163915088549256,-0.0026578210324048994,0.035487712162360546
1757088779009741800,5.618741943359375,-0.04496851108260452,0.13942951347827912,0.0809958830796182
1757088779019696600,5.628696533203125,-0.23841727258339523,-0.1000245548069477,-0.010305267045646905
1757088779029651700,5.638651611328125,-0.21453838434591888,-0.01690320400595665,0.04754435291998088
1757088779039605500,5.64860546875,-0.22998569045513867,0.011256138029694556,0.03982851784564555
1757088779049560800,5.658560791015625,-0.23996596333011982,0.02351882275342941,0.06653488459400832
1757088779059515600,5.668515625,-0.1908861444711685,0.017504092508554458,0.0629311610136181
1757088779069470700,5.678470703125,-0.2521440385103226,0.02464695000052452,0.003985562504827976
1757088779079425500,5.688425537109375,-0.2968694615520537,0.04266249916255474,-0.012558014408499001
1757088779089380600,5.698380615234375,-0.2816226464509964,0.04269055621325969,0.012465294623747467
1757088779099335400,5.70833544921875,-0.20341697861179708,0.00828968943953514,0.0558609303664416
1757088779109290500,5.71829052734375,-0.14599033329859376,0.031080197918415067,0.12827099060416222
1757088779119244500,5.72824462890625,-0.1565875690281391,0.11458850221037864,0.09021043227910995
1757088779129199600,5.73819970703125,-0.13334464060664175,0.07041793657243252,-0.08377616144791245
1757088779139154400,5.748154541015625,-0.09428937215581536,0.18884967020750046,-0.2325640895757824
1757088779149109500,5.758109619140625,-0.12676394704207777,0.20345394962131977,-0.34195363490357994
1757088779159064600,5.768064697265625,-0.12611761196255683,0.14251637357771396,-0.4049821188118308
1757088779169019400,5.778019287109375,-0.11028759014606475,0.05500643242895603,-0.4349631963819265
1757088779178974700,5.787974609375,-0.03492532903924584,-0.02553834588229656,-0.38932949938885864
1757088779188929500,5.797929443359375,0.07402735924124718,-0.08922142124176025,-0.3520095302980393
1757088779198883600,5.807883544921875,0.13907280899509786,-0.16641221294999123,-0.30032172089777887
1757088779208838400,5.81783837890625,0.05885434002876282,-0.19545418303906917,-0.234558112937212
1757088779218793700,5.827793701171875,-0.06735328830480575,-0.18788228648006916,-0.13909034465178846
1757088779228748500,5.83774853515625,-0.16285598177313804,-0.1995177792161703,-0.028422157690301535
1757088779238703600,5.84770361328125,-0.22740341887697577,-0.21470891860723496,0.09203998579382897
1757088779248658700,5.85765869140625,-0.25049466386809943,-0.17314415155351162,0.17684103331007062
1757088779258613500,5.867613525390625,-0.23626520911604165,-0.10572715036273002,0.22324549547992645
1757088779268568600,5.877568603515625,-0.10657339192852378,0.026518589091300962,0.23055888723321258
1757088779278522400,5.8875224609375,0.10658274427875876,0.12271043386757373,0.23534392955265937
1757088779288477700,5.897477783203125,0.2153906172610819,0.09628770636618136,0.256898101169616
1757088779298432500,5.9074326171875,0.10308175042048096,0.061630234482884405,0.2523097504660487
1757088779308387600,5.9173876953125,-0.06396773751974105,0.055095864278078076,0.21424385837875307
1757088779318342400,5.92734228515625,-0.18995690079703925,0.04014554790556431,0.20016528333947062
1757088779328297700,5.937297607421875,-0.21878639717921614,0.046771688047051424,0.27006884064897896
1757088779338252500,5.94725244140625,-0.2113115312539041,0.03044014644920826,0.3707392921440303
1757088779348207400,5.957207275390625,-0.22876550101041793,0.05503098234832286,0.35672136125080284
1757088779358161400,5.967161376953125,-0.16468553528785704,0.0945481692224741,0.31030630462169645
1757088779368116700,5.97711669921875,-0.092777506288141,0.08056815918684006,0.3176055947843939
1757088779378071600,5.987071533203125,-0.010744681376218795,0.0023877719193696975,0.3944854208473116
1757088779388026400,5.9970263671875,0.05167641122341156,-0.07419336345791816,0.43703532648086546
1757088779397981700,6.006981689453125,0.11510054338574409,-0.08380056523680686,0.3633051235552877
1757088779407936500,6.0169365234375,0.19371508428677917,-0.048614101043343544,0.2091674318972975
1757088779417891600,6.0268916015625,0.18073402216061948,-0.004437690186500549,0.04618088254705071
1757088779427846400,6.036846435546875,0.12015417351350187,0.07331950323283672,-0.017826967787370085
1757088779437800700,6.04680078125,-0.004727759174257516,0.06796469820141791,-0.00711165863610804
1757088779447755500,6.056755615234375,-0.2159352455317974,0.08732172510027884,-0.02682999312803149
1757088779457710600,6.066710693359375,-0.366185574362427,0.05819090768396854,-0.10060527730435133
1757088779467665400,6.07666552734375,-0.29804888059496876,-0.011519757401943206,-0.1267134589638561
1757088779477620500,6.086620361328125,-0.13971812116131185,-0.12828560365140437,-0.11989340368546544
1757088779487575600,6.096575439453125,-0.08588979260101914,-0.27811551511287685,-0.16643888176120816
1757088779497530400,6.1065302734375,-0.056202948737144466,-0.3330997357100248,-0.2922555380158126
1757088779507485700,6.116485595703125,0.038675475353002545,-0.3285954100281,-0.4149426640730351
1757088779517439500,6.126439453125,0.19593992072939873,-0.26437048287689685,-0.3638650224603712
1757088779527394600,6.13639453125,0.3132582862950861,-0.20527415078580377,-0.1966716690700501
1757088779537349400,6.146349365234375,0.4221532530389726,-0.1313432376563549,0.01848360506519675
1757088779547304700,6.1563046875,0.45722588159441946,-0.10630933416485785,0.16482034064866602
1757088779557259500,6.166259521484375,0.38836204259619117,-0.1230775136142969,0.21963285794071852
1757088779567214600,6.176214599609375,0.21474881222620607,-0.13230360712110995,0.19801767685152588
1757088779577169700,6.186169677734375,0.09682722007036208,-0.0735860452145338,0.12829685569778085
1757088779587124500,6.19612451171875,0.0009178454972803592,-0.03181260384619236,0.08747443144395947
1757088779597078500,6.20607861328125,-0.02637815770730376,0.045342532026767725,0.08441687050424515
1757088779607033600,6.21603369140625,0.10831285600699483,0.10619827500581741,0.21503215921223162
1757088779616988700,6.22598876953125,0.3444072386007756,0.10913199037015438,0.3506771126504987
1757088779626943500,6.235943603515625,0.550309969613701,0.04646598309874534,0.3735610715664923
1757088779636898600,6.245898681640625,0.691760613656044,-0.03503858015537262,0.2664528421089053
1757088779646853400,6.255853271484375,0.6910920667447149,-0.2018044288486242,-0.043919221225380896
1757088779656808700,6.26580859375,0.6654138740003108,-0.38513036719858645,-0.42971250931210814
1757088779666763500,6.275763427734375,0.5941465540569275,-0.459617745167017,-0.7995717306859791
1757088779676717600,6.285717529296875,0.45582551327720283,-0.43989656113088127,-1.1235573088310657
1757088779686672400,6.29567236328125,0.2474794077001512,-0.31606735236644745,-1.405818983837962
1757088779696627700,6.305627685546875,0.1374035606086254,-0.06623626697361469,-1.5005267275363205
1757088779706582500,6.31558251953125,0.10202829584479331,0.23301263706088066,-1.4245897352814674
1757088779716537600,6.32553759765625,0.1536064343255013,0.5720072760283946,-1.2438316015928983
1757088779726492700,6.33549267578125,0.2048537334166467,0.7116010401576757,-1.0195759792223573
1757088779736447500,6.345447509765625,0.233850768385455,0.6607441286236048,-0.7103941485859453
1757088779746401500,6.355401611328125,0.2547895115178078,0.49939270619452,-0.3358947732560336
1757088779756356400,6.3653564453125,0.23734854737333952,0.28811551560163495,-0.015106895173713565
1757088779766311700,6.375311767578125,0.2199553678933531,0.1300064360946417,0.19953166161105035
1757088779776266500,6.3852666015625,0.0869054724495858,0.03896247560083866,0.25917722508274016
1757088779786221600,6.3952216796875,-0.08447641867175698,-0.0675163699120283,0.16841529640071093
1757088779796176400,6.40517626953125,-0.276097818614915,-0.1510942323088646,-0.025846388918161392
1757088779806131700,6.415131591796875,-0.3774725459218025,-0.2157347545236349,-0.22993980548679827
1757088779816086500,6.42508642578125,-0.3964545289631933,-0.19909750797748565,-0.3412269280642271
1757088779826040600,6.43504052734375,-0.41559367532767355,-0.10585574517846107,-0.35246604189388453
1757088779835995400,6.444995361328125,-0.3503601556558162,0.028249942928552627,-0.2627186970818788
1757088779845950700,6.45495068359375,-0.2581013394795358,0.1449152514129877,-0.10104206128641963
1757088779855905500,6.464905517578125,-0.1441523042164743,0.20994097355306146,0.027172230694442984
1757088779865860400,6.4748603515625,-0.1256231795091182,0.17073358328044413,0.07048018815368413
1757088779875815700,6.484815673828125,-0.11807824402227997,0.08616437175869941,0.08610767313539981
1757088779885770500,6.4947705078125,-0.14371975801810621,0.026143326038122177,0.08062931478954852
1757088779895725600,6.5047255859375,-0.2317849949620664,-0.030076573833823204,0.09939838573262094
1757088779905680600,6.5146806640625,-0.29931152094192803,-0.029641105026006698,0.11751702994294463
1757088779915634700,6.524634765625,-0.369790613117069,-0.01737666673660278,0.16097418661452828
1757088779925589500,6.534589599609375,-0.3748971424758434,-0.004838672202825546,0.22513109003081916
1757088779935544600,6.544544677734375,-0.36595300771556794,0.011484686088562011,0.3217597187891602
1757088779945499600,6.554499755859375,-0.35953254621401426,-0.027693478089570997,0.3931817909028381
1757088779955454500,6.564454345703125,-0.3500678947109729,-0.08334405364096165,0.44157333523668346
1757088779965409500,6.574409423828125,-0.38011326968893405,-0.049535892063379286,0.4499670695725828
1757088779975364400,6.5843642578125,-0.45230895652361214,0.016055062744021416,0.4148775629475713
1757088779985319700,6.594319580078125,-0.4502491744495928,0.019717676904797553,0.41059404040947556
1757088779995273500,6.6042734375,-0.44610696007832884,0.04708557630181312,0.4581720033381134
1757088780005228500,6.614228515625,-0.44606268254518505,0.05035539175271988,0.518855823816359
1757088780015183400,6.624183349609375,-0.42485856647491455,0.026043957316875456,0.5400247224427759
1757088780025138700,6.634138671875,-0.3872423909164965,-0.017647884893417357,0.5288168074689805
1757088780035093500,6.644093505859375,-0.3884263400040567,0.023607670080661773,0.45571503864005203
1757088780045048600,6.654048583984375,-0.3548677692733705,0.0634907676577568,0.3330204599287361
1757088780055003600,6.664003662109375,-0.28237667968869207,0.07368658297955989,0.23783808445595203
1757088780064958200,6.673958251953125,-0.2532184628088027,0.134006319385767,0.15269406872093677
1757088780074912000,6.683912109375,-0.25116189560517665,0.13388415431082248,0.052069502194225785
1757088780084867300,6.693867431640625,-0.23550365015901623,0.06093640699982643,-0.028639965159445998
1757088780094822100,6.703822265625,-0.23374913464188574,0.019611293920874594,-0.07856244538761675
1757088780104777200,6.713777099609375,-0.20565335936173795,-0.009988894572854042,-0.12001381519474089
1757088780114732000,6.72373193359375,-0.14494864222593604,0.005039747732877731,-0.16073643233589827
1757088780124687000,6.73368701171875,-0.08340776652693747,0.029684359645843504,-0.20282288517616687
1757088780134642200,6.74364208984375,-0.03361936100721359,0.04338672178387642,-0.2533032184828073
1757088780144597000,6.753596923828125,-0.022888562025874852,0.05541092157661914,-0.29819654543735086
1757088780154552300,6.76355224609375,-0.008565583771467208,0.0447077412545681,-0.31348778420202433
1757088780164506000,6.773506103515625,0.06027458209022879,0.024021511578559872,-0.28297807964794336
1757088780174461200,6.783461181640625,0.08551905959248542,-0.012942483681440353,-0.27172742151096463
1757088780184416000,6.793416015625,0.06684475426077842,-0.04857201546728611,-0.23273447770662603
1757088780194371300,6.803371337890625,0.034487960535287854,-0.046510406762361525,-0.20918686725012955
1757088780204326100,6.813326171875,-0.007132189967483282,-0.04189794453084469,-0.19197357438169418
1757088780214281000,6.823281005859375,-0.055298254982382056,-0.01741173804998398,-0.19139255962334573
1757088780224236000,6.833236083984375,-0.036570027506351466,0.015890812093019485,-0.16374197082743047
1757088780234191000,6.843191162109375,-0.013884732967615127,0.02660451380908489,-0.1172095714289695
1757088780244145200,6.853145263671875,0.002583732882887125,0.04352349990606308,-0.09447451946437359
1757088780254100000,6.863099853515625,0.0725484457951039,0.056305824589729304,-0.11692878172621131
1757088780264055000,6.873054931640625,0.09290405527725815,0.07003039855957031,-0.1225212679710239
1757088780274010000,6.883010009765625,0.0862615485228598,0.08659224178194999,-0.12454597873166202
1757088780283965200,6.892965087890625,0.05514861737862229,0.09850596693754196,-0.1265459934424609
1757088780293920000,6.902919921875,0.04731602405682206,0.06390577819943427,-0.11211232135519385
1757088780303875300,6.912875244140625,0.07310381465554237,0.03205284234285354,-0.10833061085939406
1757088780313830100,6.922830078125,0.07990523829869925,-0.005749941828846931,-0.1293045714356005
1757088780323785000,6.932784912109375,0.08657346401624381,-0.024709493842720982,-0.15495704521685838
1757088780333739000,6.942739013671875,0.06746186324581503,-0.02381342178583145,-0.19606135515198111
1757088780343694300,6.9526943359375,0.04050619791150093,-0.056656537723541255,-0.227409044900164
1757088780353649200,6.962649169921875,-0.004627221409231424,-0.031306992411613464,-0.20899514407031236
1757088780363604000,6.97260400390625,0.014766338107734919,-0.012794599643349646,-0.21085918437652287
1757088780373559300,6.982559326171875,0.02974529605284333,-0.0294318461894989,-0.1827932927779853
1757088780383514000,6.99251416015625,0.030607904231548307,-0.0402460856705904,-0.1712404368240386
1757088780393469200,7.00246923828125,0.02707841493114829,-0.011581132200360297,-0.1715380315311253
1757088780403424000,7.012424072265625,0.01888824034333229,-0.002104278802871704,-0.15818718624450265
1757088780413379000,7.022379150390625,-0.01122632741332054,-0.01092179150879383,-0.13484408538416026
1757088780423333000,7.0323330078125,-0.03193827605247497,-0.013001520392298698,-0.1137977171588689
1757088780433288200,7.0422880859375,-0.06759513423666358,-0.04363222097754478,-0.062206353870406746
1757088780443243000,7.052242919921875,-0.07191964637227356,-0.048337622189521784,-0.06617350393570959
1757088780453198000,7.062197998046875,-0.10119958993569016,-0.011463643300533293,-0.11789572706222534
1757088780463153200,7.072153076171875,-0.10691957501769066,0.0564542931497097,-0.17607552883028982
1757088780473108000,7.08210791015625,-0.08914309530854225,0.08080079889893531,-0.17841098604053257
1757088780483063300,7.092063232421875,-0.02394903086423874,0.07111234857738018,-0.15291414121240376
1757088780493018000,7.10201806640625,0.0224082311630249,0.058175125592947005,-0.09163103966675698
1757088780502972200,7.11197216796875,0.02197327381186187,0.0494306781232357,-0.06048113751299679
1757088780512927000,7.121927001953125,0.02651289000287652,0.04730711009800434,-0.03842617676705122
1757088780522882300,7.13188232421875,0.04113740848712623,0.06468553040027618,-0.02187368589490652
1757088780532837000,7.141837158203125,0.016753566402196884,0.05051204361915588,-0.026688611895963547
1757088780542792200,7.151792236328125,0.00476268435716629,0.015548282265663146,-0.028595322300121188
1757088780552747000,7.1617470703125,-0.024272855991125105,-0.012687632137537002,-0.06789061005190014
1757088780562702000,7.1717021484375,-0.03601107844933867,-0.013595979154109953,-0.12887078312821684
1757088780572657200,7.1816572265625,-0.027055180186033246,-0.03787468036413193,-0.13097710775770247
1757088780582612000,7.191612060546875,-0.011814210303872823,-0.05631751502752304,-0.13742153465673326
1757088780592566000,7.20156591796875,0.022769392625615,-0.016947043147683142,-0.12366641941815613
1757088780602521000,7.21152099609375,0.047612815046310424,-0.012395955714583396,-0.08346424595452845
1757088780612476200,7.22147607421875,0.048068669055029746,0.027930209454894064,-0.08468370474688708
1757088780622431000,7.231430908203125,0.0633935178283602,0.041650107249617575,-0.10194602438881993
1757088780632386300,7.24138623046875,0.0625975451450795,0.024041969844698904,-0.10537665642462671
1757088780642341000,7.251341064453125,0.03184606772437692,0.008743862947821616,-0.10792758301645516
1757088780652296200,7.261296142578125,0.016810849547386167,0.00014963760375976562,-0.1125900218695402
1757088780662251300,7.271251220703125,0.025075989067554472,-0.012171499308943748,-0.08354615208432078
1757088780672206000,7.2812060546875,0.05975581891313195,-0.023965981999039647,-0.04711889404952526
1757088780682160000,7.29116015625,0.05852700777053833,-0.049883098065853115,-0.007629398899897933
1757088780692115000,7.301114990234375,0.049649435440450904,-0.027473113337159155,-0.041053529595956206
1757088780702070300,7.3110703125,0.0212835379820317,0.0005921206742525101,-0.10974888015948235
1757088780712025000,7.321025146484375,0.004491393135115504,0.017124153280258177,-0.142318147591874
1757088780721980200,7.330980224609375,-0.02391965863928199,0.04172258796393871,-0.1491872296437621
1757088780731935000,7.34093505859375,-0.010664163485914467,0.046450201007723804,-0.13665990263447164
1757088780741890300,7.350890380859375,-0.0010908639766275881,0.045370004555582995,-0.10952055129632353
1757088780751845000,7.36084521484375,0.0304383928835392,0.03445288922190666,-0.08709171573668718
1757088780761799200,7.370799072265625,0.07469736745730042,0.002007248169183731,-0.09270641381330788
1757088780771754000,7.38075390625,0.08333755083493888,-0.007411153039336204,-0.12523571456149218
1757088780781709300,7.390709228515625,0.09012874534502625,-0.009654548051953316,-0.15837211435735224
1757088780791664000,7.4006640625,0.10257423928976059,0.016368950998783112,-0.1877246847655624
1757088780801619000,7.410618896484375,0.0960847311399877,0.014693126741051672,-0.1854085167776793
1757088780811574300,7.42057421875,0.07550634575262666,0.020918869388103483,-0.2124032720133662
1757088780821529000,7.430529052734375,0.08590484403967857,0.011881576451659203,-0.2139564928047359
1757088780831484200,7.440484130859375,0.0753344963170588,-0.026417466804385184,-0.18279015097282825
1757088780841439200,7.450439208984375,0.08695829861536622,-0.04007657432258129,-0.16520122972503304
1757088780851393300,7.460393310546875,0.09279277692250906,-0.04110124119520187,-0.12838256121985614
1757088780861348000,7.47034814453125,0.05807575687170028,-0.0190185887247324,-0.08859488684125244
1757088780871303200,7.48030322265625,0.07604154860787093,0.03509703234434128,-0.07030044767260551
1757088780881258000,7.490258056640625,0.057784518840163945,0.021880407896637914,-0.03783529820181429
1757088780891213000,7.500213134765625,0.09032748278751969,0.010476385828852653,-0.02294511451870203
1757088780901168000,7.510168212890625,0.09316928208470344,0.0002829085946083069,-0.015146058140322565
1757088780911123000,7.520123046875,0.07415726923123002,-0.020851064848899842,-0.013296046359464525
1757088780921078300,7.530078369140625,0.037971710997819895,-0.021054478466510772,-0.04884681382067501
1757088780931033000,7.540033203125,0.04933014035820961,-0.02018003371953964,-0.08192461529709398
1757088780940987100,7.549987060546875,0.06769348004460335,-0.02768997095823288,-0.07451463130153715
1757088780950942000,7.55994189453125,0.04789455459713936,-0.02432370939552784,-0.0633307547904551
1757088780960897300,7.569897216796875,0.012551949993893504,-0.018625790014863013,-0.0205881761290133
1757088780970852000,7.57985205078125,0.0024339491486549377,0.0021364275068044662,0.016410744313895703
1757088780980807200,7.58980712890625,-0.002740092488378286,-0.00031388825476169586,0.058096215137839316
1757088780990762200,7.59976220703125,-0.040936259891837835,0.01923719991147518,0.08441869713515043
1757088781000717000,7.609717041015625,-0.04444339122995734,0.0063303720653057095,0.09568930208161473
1757088781010672000,7.619672119140625,-0.04308868868537247,-0.02501461426913738,0.06986074108108878
1757088781020627000,7.629626953125,-0.02901084429845214,-0.07027648227512837,0.011768836792185901
1757088781030581200,7.639581298828125,0.01865910776257515,-0.07558861720860004,-0.04936082775741815
1757088781040536000,7.6495361328125,0.04829802083149552,-0.027695231655240057,-0.15645539401583372
1757088781050491100,7.6594912109375,0.07454056946039199,0.051957566252350804,-0.24753603325821458
1757088781060446000,7.669446044921875,0.014434329674392938,0.08645838626921176,-0.29085407372005284
1757088781070401800,7.67940185546875,-0.008394757249206304,0.06839315274655819,-0.24562340456992388
1757088781080356900,7.68935693359375,-0.000998436452820897,0.023824527701735494,-0.18078056471608578
1757088781090311700,7.699311767578125,-0.005017682031542062,-0.03277063522338867,-0.15217011791206894
1757088781100266800,7.709266845703125,-0.006376987686008214,-0.04692074112892151,-0.14366992752701044
1757088781110221800,7.719221923828125,-0.04125460512600839,-0.04462999984323978,-0.1195825841706246
1757088781120175900,7.72917578125,-0.05301036324091255,-0.048237084424495695,-0.07148498128205537
1757088781130130700,7.739130615234375,-0.06282565481252968,-0.016758242577314376,-0.03818922620601952
1757088781140085800,7.749085693359375,-0.05505027157068252,0.007783493483066559,-0.0520480210147798
1757088781150040800,7.759040771484375,-0.03856799639053642,-0.0022106617867946625,-0.06532485121712088
1757088781159996000,7.768995849609375,-0.030869623907655477,-0.018416531178355216,-0.04191643003560602
1757088781169950700,7.77895068359375,0.017740239351987836,-0.02300561253428459,-0.00854614841863513
1757088781179905500,7.788905517578125,0.05486322456598282,-0.02660451380908489,0.02451645548865199
1757088781189860900,7.79886083984375,0.046967502880096434,-0.02292494851350784,0.06772540955282748
1757088781199815700,7.808815673828125,0.02902173101864755,-0.015420271971821784,0.08354074525684117
1757088781209769700,7.818769775390625,0.01913505471125245,-0.01165595100224018,0.07003821653984486
1757088781219724500,7.828724609375,-0.007028364266827702,-0.0003004442512989044,0.046870837572589516
1757088781229679900,7.838679931640625,-0.04972980720028281,0.020448329266905783,-0.025274215053394434
1757088781239634700,7.848634765625,-0.12429960275515914,0.01945113492310047,-0.04653634492121637
1757088781249589800,7.85858984375,-0.1559340735554695,0.03790858263373375,-0.01302563192024827
1757088781259544800,7.868544921875,-0.14416772098131478,0.05702595555782318,0.054619040546566244
1757088781269500000,7.8785,-0.13298939742818475,0.09407412196993828,0.11630078602097928
1757088781279454700,7.888454833984375,-0.13034260924644767,0.15970073261260986,0.23495310360416768
1757088781289409500,7.898409423828125,-0.12430427893027662,0.18553893822431564,0.35631672597266734
1757088781299364900,7.90836474609375,-0.1062766009390354,0.16593407404422758,0.4644832323115319
1757088781309318700,7.918318603515625,-0.09054368282146752,0.10851999595165251,0.5434975861851126
1757088781319273700,7.928273681640625,-0.11431501903124153,0.0370697937220335,0.5845453436274081
1757088781329228500,7.938228515625,-0.14011091987118124,-0.03920154505372047,0.5926600418262183
1757088781339183900,7.948183837890625,-0.1711106729645282,-0.06650397799909115,0.5482709380667656
1757088781349138700,7.958138671875,-0.20318696924820542,-0.06078852296173572,0.4908605132360011
1757088781359093800,7.96809375,-0.2103098068654537,-0.05263268903493881,0.3933636502757668
1757088781369048800,7.978048828125,-0.18900982920527457,-0.024969021561741828,0.313721592957899
1757088781379003600,7.988003662109375,-0.14191826155409215,-0.015485153901576995,0.21081147277727721
1757088781388958700,7.997958740234375,-0.09648001406788825,-0.0220423204600811,0.11811185403093695
1757088781398912800,8.007912841796875,-0.04563954221196472,-0.034141923576593396,0.012326689870655536
1757088781408867800,8.017867919921875,-0.02325578790307045,-0.021213468420505522,-0.08219393375776708
1757088781418822700,8.02782275390625,0.0014868775568902491,-0.019067104041576386,-0.16879399351999164
1757088781428777700,8.03777783203125,0.0046446109354496,-0.000810147339105606,-0.265213728768006
1757088781438732800,8.04773291015625,0.0003926525793969631,0.014824644166231155,-0.3582975975915789
1757088781448687900,8.05768798828125,-0.0024328531701117754,0.034275779089331625,-0.48250404217056925
1757088781458642700,8.067642578125,-0.06566065904274583,0.013036591705679893,-0.5694617562640458
1757088781468597800,8.07759765625,-0.10572612744942307,0.018774843096733093,-0.6465793366055935
1757088781478552800,8.087552734375,-0.11958265723586081,0.03076806322932243,-0.6803004774868487
1757088781488507000,8.0975068359375,-0.07074220009073615,0.018851415464282036,-0.679341569326818
1757088781498461700,8.107461669921875,-0.018856676161289214,0.022715689677000044,-0.6813429722771048
1757088781508416800,8.117416748046875,0.016734861701726913,0.05132745165526867,-0.7246307637311518
1757088781518371800,8.127371826171874,0.02387749999798834,0.045558220604062075,-0.7558821534980088
1757088781528326700,8.13732666015625,0.0582358428042382,0.07057049678564072,-0.7773075841687619
1757088781538281700,8.14728173828125,0.05310848985314369,0.07997662303447722,-0.7718800792273134
1757088781548236800,8.15723681640625,0.054375879440456625,0.09227028741836547,-0.7643398199155926
1757088781558191900,8.16719189453125,0.033586773911863564,0.11846095972955226,-0.7500983824647962
1757088781568146700,8.177146728515625,-0.003247676684334874,0.12141630240380763,-0.7350042737074196
1757088781578100700,8.187100830078125,-0.046874125508219004,0.13507891705334185,-0.7291856505565345
1757088781588055800,8.197055908203126,-0.10131057602949439,0.1374298640936613,-0.743712042428553
1757088781598011000,8.207010986328125,-0.12895261619277298,0.1282102003276348,-0.7306399410180747
1757088781607965700,8.216965576171875,-0.13262436350807547,0.1204763912051916,-0.7094903316140174
1757088781617920500,8.22692041015625,-0.1237620618123561,0.12276713249087333,-0.6570521422378719
1757088781627875800,8.236875732421876,-0.05491334731802344,0.10749182194769381,-0.5920690901957452
1757088781637830700,8.24683056640625,0.006880991685390472,0.11351999619603156,-0.5293621663920581
1757088781647785700,8.25678564453125,0.12394669766426086,0.10302899731993674,-0.49653497867584223
1757088781657740800,8.26674072265625,0.21125907041430472,0.10597966381907463,-0.4823591538071632
1757088781667694800,8.27669482421875,0.2965899139583111,0.11027765327394008,-0.5021117558948696
1757088781677649700,8.286649658203125,0.37065585164427756,0.156496383613348,-0.5229905855335295
1757088781687604700,8.296604736328124,0.46986550987176595,0.16296762545406818,-0.5663040959507226
1757088781697559800,8.306559814453125,0.5641618232250213,0.22065935144424437,-0.604274930165708
1757088781707515000,8.316514892578125,0.5858417401134968,0.2786538597732782,-0.6300868322923779
1757088781717469700,8.3264697265625,0.6032945408262312,0.29859950021505355,-0.6734589410290122
1757088781727424800,8.3364248046875,0.5959609830677509,0.32729017264842986,-0.6898306685067713
1757088781737379800,8.3463798828125,0.5642495015084743,0.3617389702171087,-0.7117398641064763
1757088781747334700,8.356334716796875,0.5598726015985012,0.37505496338605876,-0.746126556224376
1757088781757289700,8.366289794921874,0.5427918490685523,0.3456412373751402,-0.7906897744417191
1757088781767243800,8.376243896484375,0.5673826849676669,0.2686450914561748,-0.8197485495351254
1757088781777198800,8.38619873046875,0.6761934805594384,0.2327057630687952,-0.8400804128155112
1757088781787153700,8.396153564453124,0.7374351541161537,0.20822949346005915,-0.9498637797664851
1757088781797108700,8.406108642578126,0.8057869519390165,0.24668168145120142,-1.0264447690133005
1757088781807063800,8.416063720703125,0.7246903849638998,0.30584523355960846,-1.0059734241969882
1757088781817018600,8.4260185546875,0.5708602979503572,0.4482528860658407,-0.7554102982025593
1757088781826973700,8.4359736328125,0.720752022601664,0.5477344200372696,-0.4837465165123343
1757088781836928800,8.4459287109375,1.0574410149753093,0.6978454865276813,-0.24357516680322586
1757088781846883800,8.4558837890625,1.2639385700762271,0.8104594737946986,-0.1084961766846478
1757088781856837600,8.465837646484376,1.2987187915563583,0.8472691552758216,0.15878485987670718
1757088781866792700,8.475792724609375,0.6951973101064562,0.6225730956614017,0.7597807683717459
1757088781876747800,8.485747802734375,-0.34437603974491354,0.25166414603888987,1.3650252011567354
1757088781886702800,8.495702880859374,-0.977608184325695,0.05257014519274234,1.4230878062859176
1757088781896657700,8.50565771484375,-0.7857505644738674,0.01969604959487915,0.951392815964669
1757088781906613000,8.515613037109375,-0.17738456560224294,-0.0925917744576931,0.4958879860091954
1757088781916567800,8.52556787109375,0.3075143358156085,-0.5267798948138952,0.5138729208372533
1757088781926522600,8.535522705078124,-0.1248138358876109,-0.8593588215202093,-0.43598888616785403
1757088781936477700,8.545477783203125,0.4891489600777626,-0.22777882806062696,-0.9811163385771214
1757088781946432800,8.555432861328125,1.6684835395798086,0.6896925752103328,-0.9752988114047795
1757088781956386800,8.56538671875,1.4765569461449979,1.1982172668874262,-0.8676283449545502
1757088781966341600,8.575341552734375,0.8260860819935798,1.2060849315226077,-0.36141419524215157
1757088781976296700,8.585296630859375,0.22621698557138442,0.9519529340654611,-0.04317300596795976
1757088781986251800,8.595251708984375,-0.2016997994303703,0.3451736198633909,0.09301496830582619
1757088781996206800,8.605206787109376,-0.41275457944422955,-0.25571312916874883,0.17120580390207468
1757088782006161700,8.61516162109375,-0.37554011655449865,-0.7210024902313947,0.13306662738285957
1757088782016116700,8.62511669921875,-0.2603440038397908,-0.9107529086709022,0.0911585998494178
1757088782026071800,8.63507177734375,-0.08390957856923341,-0.7937392251402139,0.13575550114065407
1757088782036026600,8.645026611328126,-0.05394815554767847,-0.7355243520587682,0.31315643335580823
1757088782045980700,8.654980712890625,0.02153290963321924,-1.7864461943984031,0.4543214288571849
1757088782055935700,8.664935791015624,0.12326836001127958,-1.7613035698354242,0.49651199965905396
1757088782065891000,8.67489111328125,0.0722244014725089,-1.5215917273968458,0.5605340611819177
1757088782075846100,8.68484619140625,0.1727247570976615,-1.425737151750922,0.4193328253233805
1757088782085801200,8.69480126953125,0.19884411773830651,-1.3736913226932286,0.39478016601018606
1757088782095756000,8.704756103515624,0.06513356642872095,-1.2974620694935322,0.4668266901651397
1757088782105711000,8.714711181640626,0.08334668398946524,-1.3721201278537511,0.33888957115784285
1757088782115666200,8.724666259765625,0.09336801952719688,-1.3132950139194726,0.34722631460949777
1757088782125621000,8.73462109375,0.2515644850566983,-1.3229220894426106,0.1295981110220775
1757088782135576300,8.744576416015626,0.11967004325836897,-1.2109417239040137,0.4390528768483549
1757088782145530000,8.754530029296875,0.29759032317250966,-1.357245214805007,0.08511241502035409
1757088782155485200,8.764485107421875,0.3757449914768338,-1.3535948756039142,0.01562182242590934
1757088782165440000,8.77443994140625,0.516511598777771,-1.1668629282027483,-0.044590142756886775
1757088782175395000,8.78439501953125,0.6842530145049095,-0.9642758245438336,-0.015406791435740887
1757088782185350100,8.79435009765625,0.8389885259255766,-0.9730489135861397,-0.011903386424668132
1757088782195305200,8.80430517578125,1.0002443790256976,-0.9694920978873968,-0.13749083703327925
1757088782205260000,8.814260009765626,1.2535437250509858,-0.8703817353159189,-0.3664232555758208
1757088782215215000,8.824215087890625,1.4881132361650466,-0.8126993616759777,-0.6544950781662017
1757088782225170200,8.834170166015625,1.5608686757743357,-0.8619985223740338,-0.8728482715599238
1757088782235125000,8.844125,1.425707341134548,-0.8786497974455356,-1.1260467144940047
1757088782245079000,8.8540791015625,1.31991150944978,-0.8557873927742242,-1.3490142698153853
1757088782255034000,8.8640341796875,1.2263985284939407,-0.6475117220848798,-1.3680895571634173
1757088782264989200,8.8739892578125,1.2724816497549414,-0.5288935259670019,-1.2642527505919336
1757088782274944000,8.883944091796875,1.3058888293161988,-0.3913309754043817,-1.1585111333124338
1757088782284899300,8.8938994140625,1.3153130757436156,-0.37004502626955504,-1.1137193670362233
1757088782294854100,8.903854248046875,1.2506462500438094,-0.4386901079505682,-1.0471582520224154
1757088782304809200,8.913809326171876,1.2026646016851066,-0.6029290685147046,-1.0211541152592747
1757088782314764000,8.923763916015625,1.1486638391673565,-0.6991396179914474,-0.9619212973069399
1757088782324719000,8.933718994140625,1.1951365442678332,-0.7322714877426624,-0.8654162218630314
1757088782334674200,8.943674072265624,1.3551479502648114,-0.7278834819167852,-0.7867351915970444
1757088782344628000,8.9536279296875,1.5655822602927685,-0.8107897286623715,-0.676699676515907
1757088782354583000,8.9635830078125,1.7414578826367855,-0.9116285224616527,-0.5038108148977161
1757088782364538000,8.9735380859375,1.8753321000754832,-1.0680021564781665,-0.4731211141342297
1757088782374493200,8.9834931640625,1.7875372045055031,-1.0975216809511184,-0.03969075334277004
1757088782384448000,8.993447998046875,1.7663327961742876,-1.1346002425014972,0.02323419712577015
1757088782394403300,9.0034033203125,1.675573790101707,-0.984613094651699,0.3674358666844666
1757088782404358100,9.013358154296874,1.3813731093674897,-0.3690057463496923,0.8270164216462522
1757088782414313000,9.02331298828125,1.1665744666501878,0.5078910699486732,0.9038361150197685
1757088782424268300,9.033268310546875,1.124727375523746,1.0828805766582488,0.7417667535796761
1757088782434223000,9.04322314453125,1.101595506261289,1.2857254544705152,0.7333561411742121
1757088782444178200,9.05317822265625,0.89425185572505,1.3818389733135699,0.8700147286344319
1757088782454132000,9.063132080078125,0.7432678057923913,1.596590562018752,0.7823589492741971
1757088782464087300,9.07308740234375,0.7816928135156631,1.7267144870132207,0.54124118556045
1757088782474042000,9.0830419921875,0.9051523121848702,1.9306518362373113,0.3635561026416719
1757088782483997200,9.0929970703125,0.9786755212962627,2.1986060228198765,0.3997882034305483
1757088782493952000,9.102951904296875,1.1057634395956992,2.18218797198236,0.5166553911626338
1757088782503907300,9.1129072265625,1.191873158557713,1.8192215057969092,0.639641865492612
1757088782513862100,9.122862060546876,0.9677788642287254,1.441364344471693,0.9030379503794014
1757088782523817000,9.13281689453125,0.5355939003884792,0.3812719382047653,1.0574341468431054
1757088782533772300,9.142772216796875,-0.03874006502181292,-0.5294885692507029,0.9982303357895463
1757088782543727000,9.15272705078125,-0.4660913250952959,-1.328347037100792,1.2882440131627022
1757088782553681200,9.16268115234375,-0.6140446290299296,-1.740354305309057,1.6109037495315075
1757088782563636000,9.172635986328125,-0.5410676556244493,-1.6019132183462381,1.5915508142858743
1757088782573591300,9.18259130859375,-0.6304170871600508,-1.2822820360183715,1.3724370848484337
1757088782583546000,9.192546142578125,-0.6996916989162564,-0.8139782955706119,1.1939276799347252
1757088782593501200,9.202501220703125,-0.8172595091983675,-0.32697160821855065,0.9694522042684256
1757088782603456000,9.2124560546875,-0.8846841091737151,0.06258592777252196,0.7336012019764632
1757088782613411000,9.2224111328125,-1.0601493971511722,0.18507541236579417,0.34705004472713913
1757088782623366100,9.2323662109375,-1.2093524088859557,0.06997603802382946,0.01375182730294764
1757088782633321000,9.242321044921875,-1.130679415795952,-0.12560907791852952,-0.07664674795940518
1757088782643276300,9.2522763671875,-1.0618050554037093,-0.3365864087820053,0.07633680522739887
1757088782653230000,9.26222998046875,-1.1307529194235801,-0.4887596684992313,0.3234747790787369
1757088782663185200,9.27218505859375,-1.124258881229162,-0.4683937568187713,0.44660862599015233
1757088782673140000,9.282139892578124,-1.0415490338385105,-0.3325590529620647,0.4373546580957249
1757088782683095300,9.29209521484375,-0.8589712835073471,-0.15264789149165153,0.2536143667912111
1757088782693050000,9.302050048828125,-0.6297074775859713,0.08602876268029212,0.09144275055304169
1757088782703005200,9.312005126953125,-0.32947409255877136,0.2830418655991554,-0.06284381152372807
1757088782712960300,9.321960205078126,-0.17065248086825013,0.24062018945515154,-0.1681579971713945
1757088782722915000,9.3319150390625,-0.06248655905127525,0.07163023497164249,-0.24933939288575202
1757088782732870100,9.3418701171875,0.008886047897487879,-0.07933131086826324,-0.12781024122461676
1757088782742825000,9.351824951171874,-0.09174538676142692,-0.26724808413982387,-0.1163008956188336
1757088782752780300,9.3617802734375,-0.3397954339563846,-0.31783728464841843,-0.1741837602669373
1757088782762734000,9.371734130859375,-0.4853869771957397,-0.12612170361578465,-0.22544143462162464
1757088782772689200,9.381689208984374,-0.6336486164271831,0.1508054784953594,-0.39624501439835874
1757088782782644000,9.39164404296875,-0.7099648172579706,0.42388533752858637,-0.5726504693027585
1757088782792599300,9.401599365234375,-0.5567722974956035,0.6334072088867425,-0.898132788811624
1757088782802554000,9.41155419921875,-0.5302269665278494,0.7470470320701599,-0.9629968175839633
1757088782812509200,9.42150927734375,-0.30265272112861275,0.6778332105904817,-1.0697374558381736
1757088782822464300,9.43146435546875,-0.0849275234401226,0.5096984116315841,-0.9219287480060011
1757088782832419000,9.441419189453125,0.022120792523771523,0.09188917914628981,-0.6955210621681064
1757088782842374100,9.4513740234375,-0.06204699859023094,-0.41509062117636203,-0.5131195086540654
1757088782852329000,9.461328857421876,-0.549987313530594,-0.8671025675147771,-0.5411136136580258
1757088782862284300,9.4712841796875,-0.6857587428927421,-0.8903589399397372,-0.3195452210774645
1757088782872238000,9.481238037109375,-0.6406453434467315,-0.8849614648103713,-0.25716449702084065
1757088782882193200,9.491193115234376,-0.6441034480113536,-0.7842530193924904,-0.407033534916304
1757088782892148000,9.50114794921875,-0.6659096216280013,-0.6611462796837091,-0.5317051493216306
1757088782902103300,9.511103271484375,-0.387768314486742,-0.4390846602261066,-0.6499952825289219
1757088782912058000,9.52105810546875,-0.20982348465323447,-0.34024083963632584,-0.652866965507716
1757088782922013000,9.531012939453126,-0.09657119948267937,-0.33989947885274885,-0.579418794393912
1757088782931968300,9.54096826171875,-0.03188910314850509,-0.37684360036849973,-0.3767733116112649
1757088782941923000,9.550923095703125,0.058989912574551995,-0.3953238444328308,-0.25393705940693617
1757088782951878100,9.560878173828126,0.029656266062520444,-0.4134627277135849,-0.3242693635225296
1757088782961833200,9.570833251953125,0.05006309427525848,-0.3626870647221803,-0.4982054691713303
1757088782971788300,9.580788330078125,0.06242573224212974,-0.29520985777676106,-0.714438163279742
1757088782981742000,9.5907421875,0.004428319569956511,-0.21242519158422946,-0.9391468631800264
1757088782991697200,9.600697265625,-0.03627889907266944,-0.21589315995573996,-1.0604458228144793
1757088783001652200,9.61065234375,0.1518108378793113,-0.17157295671403408,-1.1143331880856304
1757088783011607300,9.620607177734374,0.1852911009430885,-0.31905718183219434,-1.0516665962923317
1757088783021562000,9.63056201171875,0.30572365300655363,-0.4393073630660772,-0.9443748269613832
1757088783031517000,9.640516845703125,0.5483084205329418,-0.41324119391739367,-0.7365984840963036
1757088783041472300,9.65047216796875,0.5823112278997897,-0.5290729741871356,-0.5372376490075141
1757088783051427000,9.660427001953124,0.5934335104167461,-0.4202893588632345,-0.5812387032974511
1757088783061382100,9.670382080078125,0.5903326217919588,-0.31379882291257377,-0.6660857819125056
1757088783071336700,9.680336669921875,0.5633090057879686,-0.1704956828713417,-0.8254372626960277
1757088783081291800,9.690291748046874,0.43356735810935493,-0.10968787068724632,-0.9787073777392507
1757088783091245600,9.70024560546875,0.26768534304592756,-0.030757541835308072,-1.155028113502264
1757088783101200600,9.71020068359375,0.0827625274259597,0.07890051823556422,-1.258494917717576
1757088783111155700,9.72015576171875,0.05102876096963882,0.11860066046118735,-1.2124312318094075
1757088783121110800,9.73011083984375,0.29123744701445103,0.2515174310445785,-1.0437830765008926
1757088783131065600,9.740065673828125,0.6709475427299737,0.36761341520845886,-0.7279422263666987
1757088783141020700,9.750020751953125,1.0545388637930153,0.535128036442399,-0.452861695035547
1757088783150975700,9.759975830078124,1.1570511437624693,0.6862386353641748,-0.34798297819569707
1757088783160930600,9.7699306640625,1.0287760615050792,0.7494114231139422,-0.5158816303111613
1757088783170885600,9.7798857421875,0.8827238419514148,0.708629330870509,-0.8885733716972172
1757088783180840700,9.7898408203125,0.9321090734977274,0.6154606333076954,-1.1316050062082708
1757088783190795800,9.799795654296876,1.2510527850180864,0.5926607724785804,-1.2260809869773686
1757088783200749600,9.80974951171875,1.838110915184021,0.5856085158795118,-1.177632597889751
1757088783210704600,9.81970458984375,2.2512948259562253,0.7448176655828952,-0.9620677931055426
1757088783220659700,9.82965966796875,2.297529922908544,1.0816174248546362,-0.7831509033694863
1757088783230614800,9.83961474609375,2.198421898424625,1.682112544220686,-0.7637794095538556
1757088783240569600,9.849569580078125,2.1266730055093763,2.289355968803167,-1.1224499321110546
1757088783250524700,9.859524658203124,1.9083213464856146,2.7268565747082234,-1.6857583533771334
1757088783260479700,9.869479736328126,1.650457761284709,2.860962262815237,-2.1363877593159675
1757088783270434600,9.8794345703125,1.6249597474128008,2.9998996088623997,-2.1989584895193577
1757088783280390000,9.889389892578125,1.9006494966834782,2.8881624044299126,-1.8831379515208302
1757088783290344700,9.8993447265625,2.137443990370631,2.990110620775819,-1.756727055700123
1757088783300299500,9.909299560546875,1.5874106457412243,2.719298122152686,-1.5273611045785247
1757088783310253600,9.919253662109375,0.9605898295074701,2.4945804352283476,-1.405924636169523
1757088783320209000,9.929208984375,0.48263738622665403,2.2735943360477684,-1.2795312760055064
1757088783330163700,9.939163818359376,0.014118541723489761,1.7695909211874008,-1.277879417145252
1757088783340118500,9.949118408203125,-0.22680618363618849,0.9794313080996274,-1.0048149018116295
1757088783350073600,9.959073486328125,0.007488857918046415,0.29580665462613104,-0.49286023568585513
1757088783360028700,9.969028564453126,0.5483936876635999,0.023641572350263595,0.2698746332511306
1757088783369983700,9.978983642578125,1.2355635394632816,0.17781915762722492,1.4474110772900282
1757088783379938600,9.9889384765625,0.8434463090520352,0.7114630929917096,2.2460769451774656
1757088783389894000,9.998893798828124,-0.43483854708895087,1.0113011950910091,2.4915257238328454
1757088783399848700,10.0088486328125,-1.523471988185495,1.2039765610665083,2.2203496525943276
1757088783409803500,10.018803466796875,-2.027295954825729,1.3766115940541028,1.7349357873916624
1757088783419757600,10.028757568359374,-2.0769886448860166,1.4017226544350385,1.1184439113400877
1757088783429713000,10.038712890625,-2.0783236928820608,1.2212182032465935,0.4867502283729613
1757088783439667700,10.048667724609375,-1.8657402419961988,0.8528209441840648,0.017408888505771755
1757088783449622500,10.05862255859375,-1.7991092766165733,0.5024924257755279,-0.7210206834752112
1757088783459577600,10.06857763671875,-1.8072013976573944,0.3148006934314966,-1.0695866491906345
1757088783469532700,10.07853271484375,-1.3037982867777347,0.2906844893068075,-1.1502790192790329
1757088783479487700,10.08848779296875,-0.5449160016156732,0.22027590508460998,-0.8035209797684103
1757088783489442600,10.098442626953124,-0.041865795826911925,0.06147182905077934,-0.006487462323158979
1757088783499397600,10.108397705078126,-0.09390110349059104,-0.15295885713696478,0.8023288473743945
1757088783509352700,10.118352783203125,-0.4530804523527622,-0.29277766219377516,1.3472811624124645
1757088783519307500,10.1283076171875,-0.9560203296348452,-0.4808785598605871,1.523569018819183
1757088783529261600,10.138261474609376,-1.4488476859644055,-0.627356238284707,1.5961296665087341
1757088783539216600,10.148216552734375,-1.5704384681522845,-0.5189356110543012,1.5912116454593837
1757088783549171700,10.158171630859375,-1.5189534878477453,-0.3516016070842743,1.6538086791478097
1757088783559126500,10.16812646484375,-1.429118903143704,-0.24983985322117805,1.7558818370476363
1757088783569081900,10.178081787109376,-1.4391048751071094,-0.06980594215393066,1.6431214270472525
1757088783579036700,10.18803662109375,-1.6548621337234972,0.211639009642601,1.474231133545935
1757088783588991700,10.19799169921875,-1.9751126169934867,0.3571855446964502,1.350809044277668
1757088783598946600,10.207946533203126,-2.1853467282742263,0.279762113276124,1.3473384455576538
1757088783608901600,10.217901611328125,-1.9082655246451496,0.057928457355499265,1.4996896921902894
1757088783618856700,10.227856689453125,-1.864701984989643,-0.32319033611416814,1.4528180509001016
1757088783628811500,10.2378115234375,-1.8547081219807267,-0.7672405097931623,1.5071077133618294
1757088783638765600,10.247765625,-1.7945897533655166,-1.1091811390846966,1.1131659709371626
1757088783648720600,10.257720703125,-1.9742396335512398,-1.1560849290788173,0.30552305240053684
1757088783658675700,10.26767578125,-2.068168209570646,-2.0630916369587182,0.384432922986336
1757088783668630500,10.277630615234376,-2.2058874119997025,-2.5692121901035305,0.2847154978998005
1757088783678585900,10.2875859375,-1.9937977359801529,-2.6255601002693174,0.4033163044914603
1757088783688540700,10.297540771484375,-1.7616627585366367,-2.7976515278995033,0.5162970792442559
1757088783698495700,10.307495849609374,-1.7230875286877154,-2.974576367035508,0.5629260708849877
1757088783708450600,10.317450439453125,-1.6138441868975757,-3.2860844486624,0.5477573625214398
1757088783718405600,10.327405517578125,-1.3947642135992646,-3.480570663452148,0.6297270590692758
1757088783728360700,10.337360595703124,-1.2528458059146999,-3.4853304251998662,0.463273052804172
1757088783738315500,10.3473154296875,-1.0746715512394904,-3.3395547575652595,0.2599915371403098
1757088783748269600,10.35726953125,-0.8622884452313184,-2.9928257249534127,0.10553550024814903
1757088783758224600,10.367224609375,-0.5576420660674571,-2.669454187053442,0.04499992913417518
1757088783768179700,10.3771796875,-0.1866147507622838,-2.406680033457279,-0.18482611377984284
1757088783778134500,10.387134521484375,0.3289364785507321,-2.0300117896556853,-0.40560609592907126
1757088783788089900,10.39708984375,1.0243243427932263,-1.5409990231782198,-0.6405624874688685
1757088783798044700,10.407044677734374,1.697457412868738,-1.130655888789892,-0.9264563084330409
1757088783807999500,10.41699951171875,2.365069965957105,-0.701456662762165,-0.9552733106598258
1757088783817954800,10.426954833984375,3.2044413537204264,0.016335633251070975,-1.1193404948536305
1757088783827909600,10.43690966796875,3.9323496778175233,1.0807044016629457,-1.3198916357055306
1757088783837864700,10.44686474609375,4.447998230025172,1.9985271025896072,-1.582036259226501
1757088783847819500,10.456819580078125,4.697544653257728,2.7639748837471005,-1.7813140922069548
1757088783857773800,10.46677392578125,4.534004196351766,3.5340678603619335,-1.299022596808523
1757088783867728600,10.476728759765624,4.179784223462641,3.8820968696564435,-0.7011976464997977
1757088783877683700,10.48668359375,3.7518463956728576,3.4259178667664525,-0.2794334658436477
1757088783887638500,10.496638427734375,3.2114664300516247,2.5426585296988486,-0.28540435694679617
1757088783897593900,10.50659375,3.004820990912616,1.5447101526558398,-0.5926153259016573
1757088783907548700,10.516548583984376,3.0200092076942324,0.44870296792089936,-0.7950681356564163
1757088783917503500,10.52650341796875,2.9493995479419826,-0.7580208460271358,-0.42187567820660765
1757088783927458800,10.536458740234375,2.4730548321187493,-1.4436007252216339,0.30322613710239527
1757088783937413600,10.54641357421875,1.0770181143656372,-1.2982985203176736,0.9779025641623884
1757088783947368700,10.55636865234375,-0.04019786261469126,-1.014486839389801,0.6797986654445528
1757088783957323800,10.56632373046875,0.33922844772338867,-0.7009241633206605,1.0194891777217387
1757088783967277800,10.57627783203125,0.5218097051858902,0.00846270791888237,1.9174521629244088
1757088783977232600,10.586232666015626,-0.12558131312876938,0.7532020475685596,1.8745444568291305
1757088783987187700,10.596187744140625,-0.8793746045887469,1.357642105168104,1.5329453344516455
1757088783997142500,10.606142578125,-1.5575848317980765,1.6852543493777512,2.0255913428649306
1757088784007097600,10.61609765625,-2.3618799377441406,1.8656740448921918,3.0243229792401194
1757088784017052700,10.626052734375,-2.1791689164221286,1.919413818386197,4.232355829960108
1757088784027007500,10.636007568359375,-0.9040472735524177,2.641369079297781,5.010720375835895
1757088784036962800,10.645962890625,0.29910949556380506,4.0149686320543285,4.6019610035076735
1757088784046917600,10.655917724609376,0.5431386166796088,4.431101455760002,3.6332281995549796
1757088784056872700,10.665872802734375,0.18113281221985816,2.5943881324142217,2.585711197222769
1757088784066827800,10.675827880859375,-0.40141953095942734,-0.09108020085096359,1.872687723046541
1757088784076781600,10.685781494140626,-0.9956398078396915,-1.9267571668863295,1.56555098837167
1757088784086736600,10.695736572265625,-1.9065178041949866,-2.87755508569777,0.9592601883389055
1757088784096691700,10.705691650390625,-3.2021655177429316,-3.310989757338166,0.12392711618095635
1757088784106646500,10.715646484375,-4.721944350498914,-3.3334804060876366,-0.6132666303947567
1757088784116601600,10.7256015625,-5.761888287228346,-2.818559291371703,-1.46024381698668
1757088784126556700,10.735556640625,-6.207602594727278,-1.7696119639754295,-2.133231633372605
1757088784136511500,10.745511474609375,-6.034896250069141,-0.5164759429425001,-2.2085367574647066
1757088784146466800,10.755466796875,-5.026631061673164,0.7582961558371781,-2.3087255629226564
1757088784156421600,10.765421630859375,-3.496425527448952,1.8917881448358296,-2.3296859333649276
1757088784166376700,10.775376708984375,-1.5354010570406913,2.573784320324659,-2.102775704832375
1757088784176331500,10.78533154296875,0.5502525403380394,2.537798230186105,-1.9625978572048246
1757088784186286600,10.79528662109375,1.8319626216873526,1.9876877286672592,-1.329857149402797
1757088784196240600,10.80524072265625,1.9784137043654917,0.8243728483349084,-0.1665147600090131
1757088784206195700,10.81519580078125,0.8366858019411564,-0.3559036881923675,0.8108663010299205
1757088784216150500,10.825150634765626,-0.20408347969651222,-1.3412836755633353,1.5458894255682825
1757088784226105600,10.835105712890625,-0.9634873045146465,-1.8516946193784474,1.8705203158795833
1757088784236060700,10.845060791015625,-1.5460894781850278,-1.7202888378798962,1.8059604576855897
1757088784246015500,10.855015380859374,-1.6260978115320204,-1.101138702404499,1.5421385486021637
1757088784255970800,10.864970703125,-1.7480736475147305,-0.40812662738263605,0.9970765626445413
1757088784265925600,10.874925537109375,-1.9932000623479484,0.23518121327161787,0.19441030000932513
1757088784275880400,10.88488037109375,-2.3762300962664185,0.6755290253013372,-0.40224604491144417
1757088784285835800,10.894835693359376,-1.6547592578709125,0.251208803486824,-1.013906336088106
1757088784295790600,10.90479052734375,-0.7526584422111511,-0.2094002908051014,-1.7999851826682687
1757088784305745700,10.91474560546875,-0.4338568425752222,-0.4404138630032539,-1.9883774644970893
1757088784315699500,10.924699462890626,0.029745003791898487,-0.711678781569004,-1.8322529829360543
1757088784325654800,10.93465478515625,0.36508879210166634,-0.9775123227357864,-1.6277335960403083
1757088784335609600,10.944609619140625,0.20731464363746344,-1.0625982516080141,-1.4096362040385604
1757088784345564700,10.954564697265624,0.4187082271516323,-0.8781208051353693,-0.4297333329044282
1757088784355519500,10.96451953125,-0.020896584491059182,-0.8297270688444376,-0.44829891716465353
1757088784365474800,10.974474853515625,-0.17605908915214238,-0.7809440409749746,-0.36228593657538294
1757088784375429600,10.9844296875,-0.04476034822463989,-0.7380278593122959,-0.23396306965351105
1757088784385384400,10.994384521484376,0.26971242842674253,-0.7691051346212625,-0.2295416730146855
1757088784395339800,11.00433984375,0.6413596291959285,-0.7954290779232979,-0.13421886615790427
1757088784405294600,11.014294677734375,0.9672820206224918,-0.9292331527352332,-0.15860416954755782
1757088784415249700,11.024249755859374,1.1831284188270568,-0.9498545004814862,-0.2144946182694286
1757088784425203500,11.034203369140625,1.3104852171957493,-0.8704688290774821,-0.4680887825228274
1757088784435158800,11.04415869140625,1.314297468960285,-0.7287596802294254,-0.8096510800212621
1757088784445113600,11.054113525390624,1.3046680553495884,-0.4771358662009239,-1.1437523209240288
1757088784455068700,11.064068603515626,1.3513690162479877,-0.2458417234957218,-1.2840987300515174
1757088784465023500,11.0740234375,1.4963567483752964,-0.03994038072228431,-1.3040633674547075
1757088784474978600,11.083978515625,1.5887246509492396,0.0805225664794445,-1.1194384753353892
1757088784484933600,11.09393359375,1.4991472558766603,0.2926964136511087,-1.004677539167553
1757088784494888400,11.103888427734375,1.2099082161378114,0.41466684280633925,-1.0264933573953807
1757088784504843800,11.11384375,0.942745545259118,0.5747200421184301,-0.9882765855953097
1757088784514798600,11.123798583984374,0.8416764498353004,0.7946218531936406,-0.9111630969069897
1757088784524753700,11.133753662109376,0.8032985691893846,0.8657628433436155,-0.8243496135897934
1757088784534708700,11.143708740234375,0.6277320858597755,0.7277332597911358,-0.8459621643304824
1757088784544662800,11.153662841796875,0.3000373509984463,0.47824470422565935,-0.9967710038267076
1757088784554617600,11.16361767578125,0.08980185147821902,0.3696270931184292,-1.3682899020411072
1757088784564572700,11.17357275390625,0.029236031356453893,0.5043371768593787,-1.743117486412078
1757088784574527700,11.18352783203125,0.018006123746559022,0.8389391338258981,-2.0612739200122654
1757088784584482600,11.193482666015624,0.16642383032254873,1.2685744131833314,-2.200400651151687
1757088784594437600,11.203437744140626,0.6296100816261023,1.5717974815458058,-2.0722107629597186
1757088784604392400,11.213392333984375,1.1571738933593034,1.6963257784903047,-1.682284101395309
1757088784614347800,11.22334765625,1.5762088682472706,1.8996248298108576,-1.2665882078021764
1757088784624302600,11.233302490234376,1.8938824867665767,2.3411370094448327,-0.8617037772111594
1757088784634257700,11.243257568359375,2.2428087371617553,2.8483512030452487,-0.7571428941488265
1757088784644212700,11.253212646484375,2.2249860802233217,2.8646190317571163,-1.2001917818307877
1757088784654167600,11.26316748046875,2.105114084652066,2.4200340205490587,-1.6455374021477995
1757088784664121600,11.27312158203125,2.2243004360467196,2.1928490667283533,-2.0135456618927416
1757088784674076700,11.28307666015625,2.421795769524574,2.4377555552005767,-2.365911092956364
1757088784684031700,11.29303173828125,2.0943208879590034,2.7252742739528415,-2.5552403633743523
1757088784693986600,11.302986572265626,1.6370727945327759,2.5545781000733374,-2.5262489544287323
1757088784703941600,11.312941650390625,1.2000000586509705,2.0458102472901345,-2.344025570493191
1757088784713896400,11.322896484375,0.7622808415591716,1.230107612144947,-1.982949740359932
1757088784723851800,11.332851806640624,0.35043022521734235,0.8292495144605636,-1.8081806179530917
1757088784733806600,11.342806640625,-0.23293895077016202,0.5368278260976076,-1.5108331636257468
1757088784743761700,11.35276171875,-0.6907587431371212,0.1962064627110958,-0.8201964394330978
1757088784753716700,11.362716796875,-0.7729519462425262,0.4173439530611038,0.08822393463701009
1757088784763671600,11.372671630859376,-0.39289464452452955,0.5758125135302543,1.2411246807217597
1757088784773626600,11.382626708984375,0.09391513201594352,1.0608949548214672,2.5341765325576064
1757088784783581700,11.392581787109375,-0.05317760956659913,1.7808470592170953,3.7004172372087836
1757088784793535700,11.40253564453125,-0.3959821622110903,2.205496366855502,4.804536124467849
1757088784803490600,11.412490478515625,-0.541346910957247,2.2087533228248355,5.6575265799999235
1757088784813445600,11.422445556640625,-0.707087069864571,2.086788738888502,6.062469316649437
1757088784823400700,11.432400634765624,-1.0253715137585997,1.830885640105605,5.42088289296031
1757088784833355800,11.442355712890626,-0.9037325085148215,1.6946517077982424,4.394929487660527
1757088784843310600,11.452310546875,-1.111868186211586,1.7422499097973108,2.423196576233208
1757088784853265400,11.462265380859375,-1.2687667208850384,1.7746756771057843,0.6754791948102414
1757088784863220700,11.472220703125,-1.5203943343058228,1.9761241321235894,-2.1569936172321436
1757088784873175600,11.482175537109375,-1.911439186245203,2.448821139094233,-3.622703590670228
1757088784883130600,11.492130615234375,-1.5488251867592333,2.499233229470253,-2.8728783260583874
1757088784893085700,11.502085693359374,-0.9226587427809834,1.8452847523361444,-1.2721313750125467
1757088784903040800,11.512040771484376,-0.675096771363914,0.6437228511959314,-0.9872815832085907
1757088784912994600,11.52199462890625,-1.2333870722070335,-0.38473815301060676,-0.25529453843049704
1757088784922949600,11.53194970703125,-1.972493666666746,-1.1571119340389966,0.28642390925288197
1757088784932904700,11.54190478515625,-2.734495691284537,-1.8915578432112932,0.4799151947211474
1757088784942859800,11.55185986328125,-3.0436119093388316,-1.8920196155041455,0.6770135647706687
1757088784952814600,11.561814697265625,-2.8996429988652466,-1.3180243805289267,0.9392986196756362
1757088784962769700,11.571769775390624,-2.7280130512669682,-0.6481248855471611,1.088365803136304
1757088784972724700,11.581724853515626,-2.778023282843828,-0.3758721249878406,1.2954919384643435
1757088784982679600,11.591679443359375,-2.849498327253759,-0.3651373804837465,1.366380122897029
1757088784992634600,11.601634521484375,-2.704785028153658,-0.719991267362237,1.4116503203399478
1757088785002589700,11.611589599609376,-2.6950170828551054,-1.2457879963576792,1.6137956715807318
1757088785012544500,11.62154443359375,-2.771083546708524,-1.7878659980684517,1.679157055415958
1757088785022499600,11.63149951171875,-2.992198532965779,-2.591968211790919,1.3949952458761632
1757088785032454700,11.64145458984375,-3.1173347326755523,-3.0824235782921314,1.236567017417401
1757088785042409700,11.65140966796875,-3.092008568239212,-3.3031548259288073,1.36769266680032
1757088785052363500,11.661363525390625,-2.9553105255514382,-3.3129251093149183,1.372445122024417
1757088785062318600,11.671318603515624,-2.8595862982869145,-3.3538784664720294,1.2534963787779212
1757088785072273400,11.6812734375,-2.857683095014095,-3.426400681847334,1.1623461814306675
1757088785082228500,11.691228515625,-2.496933135834336,-3.6604222036898135,1.192162935284525
1757088785092183300,11.701183349609375,-1.988116767734289,-3.7486966994702815,1.1149974241480232
1757088785102138600,11.711138671875,-1.478315772511065,-3.7490661173045634,1.0918610979061574
1757088785112093400,11.721093505859375,-1.0297978057682513,-3.653120940765738,1.024542588653788
1757088785122048300,11.73104833984375,-0.5590782363504171,-3.502677281320095,0.8104270328298211
1757088785132003300,11.74100341796875,-0.04309153822958469,-3.3032524410843846,0.6100313382679596
1757088785141958400,11.75095849609375,0.4295300654172897,-3.093119744351506,0.4140317597731948
1757088785151913500,11.76091357421875,0.8027215730190277,-2.7619243809580802,0.00563625232130289
1757088785161868300,11.770868408203125,0.9958487744152545,-2.0368097792327404,0.06989036903437226
1757088785171823600,11.78082373046875,1.4303542901575566,-1.0223159255802632,0.052825471660681064
1757088785181778400,11.7907783203125,2.230726085180044,-0.030301614761352538,-0.4030046081937849
1757088785191732500,11.800732421875,3.2122353685975074,1.1278472611099482,-0.6675855920162052
1757088785201687300,11.810687255859374,4.439544289934635,2.8645038809448478,-1.3014520159125327
1757088785211642600,11.820642578125,5.520917969161272,4.989633748665452,-1.656679120017588
1757088785221597400,11.830597412109375,5.716051249682903,6.83767101458013,-1.6921487850666046
1757088785231552300,11.84055224609375,5.2031812222778795,7.589339861232042,-1.7224401706948875
1757088785241507600,11.850507568359374,4.730458788605034,6.195898128408193,-1.819137626905739
1757088785251462400,11.86046240234375,4.337052760492265,4.011954837191104,-1.7698181540720164
1757088785261417500,11.87041748046875,4.1974937754154205,1.7098218044012783,-0.9439520715046673
1757088785271372300,11.880372314453124,3.867783682143688,-0.4503963278353214,-0.017799422193318603
1757088785281327400,11.890327392578126,3.319301950870454,-2.552611183914542,0.3330989319924265
1757088785291282400,11.900282470703125,2.2716017009258267,-3.486268582832813,0.6729805098623037
1757088785301237200,11.9102373046875,0.13421674726605415,-2.810205889046192,0.5526226670028641
1757088785311192600,11.920192626953124,-0.6238909002617001,-1.7499439714312552,-0.10215732905194162
1757088785321147400,11.9301474609375,0.4366021957606077,-0.4892138420075178,0.7190179653506725
1757088785331102500,11.9401025390625,0.6676958474576473,0.45147593976557254,1.0654663543902336
1757088785341056300,11.95005615234375,-0.20232932950556276,1.1873527585238217,0.4721612561261281
1757088785351011600,11.960011474609376,-1.613845355941355,1.7238000608712434,0.24339034828823058
1757088785360966400,11.96996630859375,-3.469835626687109,1.9735604191154241,1.2976511623248457
1757088785370921500,11.97992138671875,-4.337990918125212,1.8250602949529886,3.3887928357258437
1757088785380876300,11.989876220703126,-2.87802153416574,2.2801462419092653,5.347447069871425
1757088785390831400,11.999831298828125,-0.5125596462816,4.479267228513955,5.777772669580578
1757088785400786400,12.009786376953125,1.5520245673224329,6.756735191124677,5.065764802187681
1757088785410741200,12.0197412109375,2.0874597700178623,5.644986831900477,3.4707641397088764
1757088785420696600,12.029696533203126,1.6787594344004988,1.5455103631228209,2.0509430801339446
1757088785430651400,12.0396513671875,0.8313555468291044,-1.247674248495698,1.9197566404744981
1757088785440606500,12.0496064453125,-1.29893915630877,-2.699008782839775,1.1511223382353781
1757088785450561500,12.0595615234375,-3.8640976871073245,-3.5257086128175255,-0.008950491435825825
1757088785460516400,12.069516357421875,-6.178516785496473,-4.012870198470353,-0.7503959041066467
1757088785470471400,12.079471435546875,-7.717654106456041,-3.944547188350558,-1.025215008022636
1757088785480426200,12.08942626953125,-7.8933847673714155,-3.028040830719471,-1.1482014823526143
1757088785490380500,12.099380615234375,-7.228267830491066,-1.4614952783524988,-1.1216430727075786
1757088785500335400,12.10933544921875,-6.36226357960701,0.16975801624655723,-0.8702315131902694
1757088785510290400,12.11929052734375,-5.115845468652248,1.5422709428101777,-1.3461001359343527
1757088785520245200,12.129245361328126,-3.0134535024404525,2.6254198150157926,-1.9396777309969067
1757088785530200600,12.13920068359375,0.7104875259578227,3.453224391365051,-1.7242828759521245
1757088785540155400,12.1491552734375,4.136408023072779,3.234085965877771,-0.6955927391648292
1757088785550110500,12.1591103515625,4.414350227445364,1.7506611797899008,0.7150128213625401
1757088785560065500,12.1690654296875,2.0531582719653843,-0.07949146986603736,1.5612421852618454
1757088785570020400,12.179020263671875,-0.2913108045116067,-1.1541437318831682,1.8113516492046415
1757088785579975400,12.188975341796874,-1.7249641362145542,-1.7122124989300964,1.6277631143957376
1757088785589930500,12.198930419921876,-2.4009876670345665,-1.914367056390643,1.3660317478507757
1757088785599885600,12.208885498046875,-2.361069790405035,-1.5431529863417148,1.2291054493650793
1757088785609840400,12.21884033203125,-2.13684953160882,-0.9750532391458749,0.9741098208159208
1757088785619795200,12.228795166015624,-2.0629098506510255,-0.44144905126988887,0.38596952143646773
1757088785629750500,12.23875048828125,-2.102810630015284,0.13193360476493834,-0.18853154416903853
1757088785639704600,12.24870458984375,-1.8924517233110962,0.25004502040445803,-1.1853915414534508
1757088785649659400,12.258659423828124,-1.0287715314604342,-0.06572890197336673,-1.6716154078647494
1757088785659614200,12.2686142578125,-0.38910453152656554,-0.3627022622913122,-2.0258121460087595
1757088785669569500,12.278569580078125,-0.06209142225384712,-0.5353484011948109,-2.2368730635024607
1757088785679524400,12.2885244140625,0.16144041588678956,-0.5175742595732212,-1.6334025815874338
1757088785689479400,12.2984794921875,0.1294739366531372,-0.6102092886507511,-0.9560121463283896
1757088785699434500,12.3084345703125,-0.037866497057676314,-0.4918664023429155,-0.6965117537058889
1757088785709389600,12.3183896484375,-0.07632102313637733,-0.281787481623888,-0.46615934883020815
1757088785719344400,12.328344482421874,-0.02054828251004219,-0.21513854219615458,-0.38011363501511514
1757088785729299200,12.33829931640625,0.28631643029041587,-0.07557634224891663,-0.33566322952248157
1757088785739254500,12.348254638671875,0.3435843048453331,-0.2188017408788204,-0.4337540397878736
1757088785749209300,12.358209228515625,0.5430827948391437,-0.3797755621671676,-0.45786578693315383
