time,seconds_elapsed,z,y,x
1757088773415138300,0.02413818359375,-9.50118178305924,-1.7927113922730087,-1.6383270323775707
1757088773425093000,0.034093017578125,-9.483377830821276,-1.8708122845634816,-1.6540813586093484
1757088773435048400,0.04404833984375,-9.464424708548188,-1.9510307535298168,-1.6698879995502531
1757088773445002200,0.054002197265625,-9.446320896580815,-2.0274362400792536,-1.6813398062825202
1757088773454957300,0.063957275390625,-9.429696509516239,-2.0978486236937344,-1.6882633219353853
1757088773464912100,0.073912109375,-9.413042311835289,-2.164805752287805,-1.696655448836088
1757088773474867500,0.083867431640625,-9.393276119613647,-2.2377245657652614,-1.711531677059084
1757088773484821200,0.0938212890625,-9.36585502872467,-2.3304214080326258,-1.7378960985019802
1757088773494776300,0.1037763671875,-9.326435457006097,-2.4558538142099975,-1.7767282257214188
1757088773504731100,0.113731201171875,-9.271942819318175,-2.618910871513188,-1.8283232422716915
1757088773514686500,0.1236865234375,-9.202040431052446,-2.814961851401627,-1.8891329541519284
1757088773524640300,0.13364013671875,-9.117370681765674,-3.0321053036794066,-1.962210903713852
1757088773534595300,0.14359521484375,-9.020246524575352,-3.253094325469434,-2.0549729201719162
1757088773544550100,0.153550048828125,-8.913406444534658,-3.4569393202349543,-2.184294442742318
1757088773554505500,0.16350537109375,-8.795997624206542,-3.6261785733044145,-2.377317160850763
1757088773564459300,0.173459228515625,-8.689375570830702,-3.759766082756221,-2.5552488389417527
1757088773574414300,0.183414306640625,-8.604848444885015,-3.868177357636392,-2.6765976290673015
1757088773584369200,0.193369140625,-8.536271167743205,-3.9588998310908674,-2.762167249803245
1757088773594324200,0.20332421875,-8.473361414843797,-4.031249904769659,-2.8498341350793837
1757088773604278300,0.2132783203125,-8.414668987378478,-4.082751251687109,-2.9487057204589244
1757088773614233300,0.2232333984375,-8.3627979303658,-4.116023991213739,-3.048333969424665
1757088773624188200,0.233188232421875,-8.310759115570782,-4.1387805974230165,-3.1578739560738205
1757088773634143200,0.243143310546875,-8.24069656830728,-4.162710046803951,-3.3065319011464713
1757088773644097300,0.25309716796875,-8.13961169079244,-4.197694558684527,-3.506631571903825
1757088773654052400,0.26305224609375,-8.00811413935721,-4.249110565406084,-3.739726626551151
1757088773664007200,0.273007080078125,-7.8610320652991525,-4.317617407660186,-3.9664512693837284
1757088773673962200,0.282962158203125,-7.718211740338802,-4.400237238679826,-4.151806375473737
1757088773683916300,0.292916259765625,-7.597209863954782,-4.492584390726686,-4.274280077975988
1757088773693871400,0.302871337890625,-7.507722485253215,-4.5911680990755555,-4.327315794853866
1757088773703826200,0.312826171875,-7.459191970840096,-4.686762854741514,-4.308722153542935
1757088773713781200,0.32278125,-7.512386385411023,-4.727406999818981,-4.1696585507676005
1757088773723735300,0.3327353515625,-7.5932053044885395,-4.730929913248121,-4.016456532524526
1757088773733690400,0.3426904296875,-7.688018262127041,-4.682149515727162,-3.8913025048971175
1757088773743645200,0.352645263671875,-7.7929305889755485,-4.570585037513077,-3.814494867287576
1757088773753600300,0.362600341796875,-7.906462860131263,-4.40127418051213,-3.779817229399085
1757088773763554300,0.37255419921875,-8.021219120123982,-4.178863601486385,-3.7904526051819323
1757088773773509400,0.38250927734375,-8.128723217031359,-3.9077775466188784,-3.8501319978579875
1757088773783464200,0.392464111328125,-8.224685344704985,-3.595147767485678,-3.949664677494764
1757088773793419300,0.402419189453125,-8.306259466063976,-3.2523183726608753,-4.07416988582462
1757088773803374300,0.412374267578125,-8.372097673630714,-2.8961741537109016,-4.206011720652878
1757088773813328400,0.422328369140625,-8.427018765863776,-2.546695530129969,-4.320888976676762
1757088773823283200,0.432283203125,-8.481470487019418,-2.221041434250772,-4.393405639094114
1757088773833238300,0.44223828125,-8.544863639521598,-1.9279177350983023,-4.408948952923715
1757088773843193300,0.452193359375,-8.616801333007215,-1.6670153667233882,-4.375177908486128
1757088773853147400,0.4621474609375,-8.692126915365456,-1.4308607783749698,-4.309286217166483
1757088773863102200,0.472102294921875,-8.76644010581076,-1.2085343705013394,-4.226033348940312
1757088773873057300,0.482057373046875,-8.834724537485837,-0.9895005744323134,-4.139917200237512
1757088773883012400,0.492012451171875,-8.884503006133437,-0.7608228247705846,-4.081315958186984
1757088773892966100,0.501966064453125,-8.899833261734246,-0.514674081152305,-4.086374995142221
1757088773902921200,0.511921142578125,-8.878860616332291,-0.26315690583605317,-4.155354423344135
1757088773912876300,0.521876220703125,-8.837261947008967,-0.031789332568459214,-4.251138271841406
1757088773922831400,0.531831298828125,-8.79061183951497,0.16381326423166317,-4.343811002580821
1757088773932785200,0.54178515625,-8.745205010080337,0.32787615584284063,-4.425411719685792
1757088773942740200,0.551740234375,-8.700124928382039,0.4733068094320595,-4.500466083887219
1757088773952695300,0.5616953125,-8.658273745602369,0.6107976099327206,-4.564165233598649
1757088773962650400,0.571650390625,-8.626675076767802,0.7466721343431622,-4.603622214718163
1757088773972604200,0.581604248046875,-8.608460790163278,0.8847524982348084,-4.613241691456735
1757088773982559200,0.591559326171875,-8.603662449970841,1.0280902711980044,-4.592429497313499
1757088773992514300,0.601514404296875,-8.609193780612944,1.1783422805290669,-4.545731751285493
1757088774002469400,0.611469482421875,-8.61826789842844,1.3345945531882344,-4.484941474758088
1757088774012423200,0.621423095703125,-8.624725696265697,1.4930438244350253,-4.422138104842603
1757088774022378200,0.631378173828125,-8.625214356565476,1.6502334510095416,-4.364950528982281
1757088774032333000,0.6413330078125,-8.618511644056438,1.804856003575027,-4.316727473083138
1757088774042288400,0.651288330078125,-8.602739489907027,1.9555223658606409,-4.282427728596329
1757088774052242200,0.6612421875,-8.579246970638632,2.0997510963141917,-4.261214552436769
1757088774062196700,0.67119677734375,-8.551860366541147,2.234004668459296,-4.247974547113478
1757088774072151600,0.681151611328125,-8.52257172821462,2.3500611973956227,-4.244215486840903
1757088774082107000,0.69110693359375,-8.494847270464897,2.4406013000205156,-4.2486955548644065
1757088774092061000,0.70106103515625,-8.472827746358513,2.504557054841518,-4.255439476166665
1757088774102015700,0.711015625,-8.457246730867027,2.5470336760431525,-4.261218644089997
1757088774111970600,0.720970458984375,-8.447125149825215,2.5753955549135803,-4.264247052000463
1757088774121926000,0.73092578125,-8.442038055819273,2.5965534937545653,-4.261488693203032
1757088774131880700,0.740880615234375,-8.441189330035447,2.6151795760303735,-4.251768678699434
1757088774141834800,0.750834716796875,-8.44392606152296,2.6326848375827074,-4.235500849987567
1757088774151789600,0.76078955078125,-8.447441376167536,2.6497707046791907,-4.217799773602187
1757088774161745000,0.770744873046875,-8.448630878213047,2.6665768780514596,-4.204805267472565
1757088774171699700,0.78069970703125,-8.443959963792562,2.681659004110098,-4.204597177679837
1757088774181653800,0.79065380859375,-8.42989928973615,2.6915874006673692,-4.226410073298216
1757088774191608600,0.800608642578125,-8.407737142288685,2.6885426261439918,-4.272245649538934
1757088774201564000,0.81056396484375,-8.380541092327237,2.6626991598352787,-4.341307495327293
1757088774211518700,0.820518798828125,-8.352403377601505,2.6043238354951144,-4.430038210442662
1757088774221472800,0.83047265625,-8.325924535998702,2.5111963467255234,-4.53246807282567
1757088774231427600,0.840427490234375,-8.2994795966655,2.389449935584515,-4.645379873995482
1757088774241383000,0.8503828125,-8.269351000383496,2.250287256348878,-4.767014203064144
1757088774251337700,0.860337646484375,-8.234236432382463,2.1046603495351968,-4.892662151688337
1757088774261291800,0.870291748046875,-8.196731169852614,1.9661958816967904,-5.01179238898158
1757088774271246600,0.88024658203125,-8.164838486507534,1.84976861975193,-5.107265271833539
1757088774281202000,0.890201904296875,-8.145923358157276,1.7641947612322866,-5.16739153149426
1757088774291156700,0.90015673828125,-8.143758873599767,1.7115622183278203,-5.188461207529902
1757088774301110800,0.91011083984375,-8.156952701693772,1.6879088094092904,-5.175467870444059
1757088774311065600,0.920065673828125,-8.181597898128627,1.6861195879049597,-5.137006914624571
1757088774321021000,0.93002099609375,-8.21240161719322,1.699679618962854,-5.083102890479564
1757088774330975700,0.939975830078125,-8.24226133340597,1.7237012766718864,-5.026366857779026
1757088774340929800,0.9499296875,-8.265132505905628,1.7552736420214174,-4.977648711839318
1757088774350884600,0.959884521484375,-8.277150860479473,1.7929713583834468,-4.944128719553351
1757088774360840000,0.96983984375,-8.277327386090159,1.8358692737370728,-4.928064304459094
1757088774370794800,0.979794677734375,-8.270168161985278,1.8845168386586009,-4.921717565780877
1757088774380749800,0.989749755859375,-8.262433183819056,1.9407932910233734,-4.912830494970083
1757088774390703600,0.99970361328125,-8.255999935901164,2.0061396234199402,-4.897372813597321
1757088774400659000,1.009658935546875,-8.24858644477427,2.079263604080677,-4.8793312532112
1757088774410613800,1.01961376953125,-8.238006014049052,2.1565805063866077,-4.863620473860204
1757088774420568800,1.02956884765625,-8.22430131382346,2.2331785928986965,-4.852233110666274
1757088774430522600,1.039522705078125,-8.20841400886178,2.3049850612200795,-4.845550856423378
1757088774440478000,1.04947802734375,-8.190234209048748,2.3693736545003947,-4.84525654965192
1757088774450432800,1.059432861328125,-8.168663013231754,2.4254206820234656,-4.853933192582428
1757088774460387600,1.0693876953125,-8.141307388794422,2.473018591761589,-4.875826167699694
1757088774470341600,1.079341552734375,-8.105530557492376,2.5106831365063784,-4.916017892834544
1757088774480297000,1.089296875,-8.058806800240278,2.5358371592462063,-4.979513336667418
1757088774490251800,1.099251708984375,-7.999407101288438,2.545455174680054,-5.069569455167651
1757088774500206600,1.10920654296875,-7.926477474156021,2.5372765443995595,-5.186864878249168
1757088774510160600,1.11916064453125,-7.841486822351813,2.506338969822228,-5.329140428808331
1757088774520116000,1.129115966796875,-7.756716535300016,2.44017912908569,-5.481720515760779
1757088774530070800,1.13907080078125,-7.665890601471066,2.3390749623484908,-5.650950708740949
1757088774540025600,1.149025634765625,-7.572299879103898,2.206873938819021,-5.827552891793847
1757088774549980700,1.158980712890625,-7.479949512186646,2.048959797362238,-6.001875439476967
1757088774559935000,1.16893505859375,-7.38620681412816,1.8860365955717862,-6.169051038014889
1757088774569889800,1.178889892578125,-7.303952893811464,1.7620445974610746,-6.30220980066061
1757088774579844600,1.1888447265625,-7.250512395524979,1.6891629011236131,-6.383351960343122
1757088774589799700,1.198799560546875,-7.228342649292945,1.6485487127929925,-6.419013640832901
1757088774599754000,1.20875390625,-7.229633273625374,1.6197503422014414,-6.424888085824251
1757088774609708800,1.218708740234375,-7.249840779873728,1.593543157146871,-6.408651236772537
1757088774619663600,1.22866357421875,-7.274457919257879,1.5741710788093506,-6.385501831853389
1757088774629618700,1.23861865234375,-7.2865288808017965,1.5679206401124595,-6.373264866092801
1757088774639572700,1.24857275390625,-7.285376788157224,1.5717488200984895,-6.3736389601022
1757088774649527800,1.25852783203125,-7.278667645907402,1.5768126793593167,-6.380049996188283
1757088774659482600,1.268482666015625,-7.273471830829978,1.5746378195382653,-6.386509547591209
1757088774669437700,1.278437744140625,-7.277341950261593,1.5616994275100529,-6.385277959969639
1757088774679391700,1.288391845703125,-7.29485948677361,1.5403393902257083,-6.370459745544195
1757088774689346800,1.298346923828125,-7.326022686800361,1.5164115482799707,-6.340367974141239
1757088774699301600,1.308301513671875,-7.367485747045278,1.4958368161544202,-6.29706308542192
1757088774709256700,1.318256591796875,-7.417343710669875,1.4810431516483424,-6.241786603879929
1757088774719210800,1.328210693359375,-7.470401931640505,1.472845816667378,-6.18014643252492
1757088774729165800,1.338165771484375,-7.516271117889881,1.4695160877227782,-6.125078040775656
1757088774739120600,1.34812060546875,-7.549180284801125,1.466229175006598,-6.085263332259655
1757088774749075700,1.35807568359375,-7.569361487564444,1.458220932856947,-6.062074179852009
1757088774759030800,1.36803076171875,-7.580431747633218,1.4432637483522295,-6.05181231355667
1757088774768984800,1.37798486328125,-7.587918303996324,1.4219424356430768,-6.047475745657086
1757088774778939600,1.387939697265625,-7.595732192617654,1.3963883076697587,-6.043619654750824
1757088774788894700,1.397894775390625,-7.606583256977796,1.3694107227645813,-6.036139528128504
1757088774798849800,1.407849853515625,-7.620532287353277,1.3442298120178282,-6.024194238790869
1757088774808803800,1.417803955078125,-7.633271357417106,1.324431178831309,-6.012440088111162
1757088774818758700,1.427758544921875,-7.642617862433195,1.3133430908448993,-6.002991291764379
1757088774828713700,1.437713623046875,-7.644761888724565,1.3135466505929827,-6.000216566354036
1757088774838668800,1.447668701171875,-7.6282970761358735,1.3245908994376658,-6.018714930596947
1757088774848622800,1.457622802734375,-7.585013814726471,1.342170833661407,-6.069310560846328
1757088774858577700,1.46757763671875,-7.513604529029131,1.3598949986614286,-6.153602708992362
1757088774868532700,1.47753271484375,-7.413544318386912,1.3710788021072744,-6.271354059147835
1757088774878487800,1.48748779296875,-7.304591776236891,1.376468532321602,-6.396769660320878
1757088774888443000,1.49744287109375,-7.219958267307281,1.3967428201958536,-6.4878112827271215
1757088774898396700,1.507396728515625,-7.147932311016321,1.4318893907703458,-6.559507568672299
1757088774908351700,1.517351806640625,-7.093247950148582,1.481887931909412,-6.607588585752248
1757088774918306800,1.527306884765625,-7.067580424928665,1.5487109127297995,-6.6197571624517435
1757088774928261600,1.53726171875,-7.098955221879482,1.6611198789440094,-6.558650659582018
1757088774938215700,1.547215576171875,-7.176093406617641,1.8181293266460299,-6.431832205873728
1757088774948170800,1.557170654296875,-7.262045012408494,1.9882275346323846,-6.283314546054601
1757088774958125800,1.567125732421875,-7.332889065438509,2.1408212117187677,-6.149471892797947
1757088774968080600,1.57708056640625,-7.384664260861277,2.2650692304171622,-6.042067749133706
1757088774978034700,1.58703466796875,-7.41975953963995,2.3522848647944627,-5.9652586502194405
1757088774987989800,1.59698974609375,-7.442695009547472,2.399289630945027,-5.917777352598309
1757088774997944800,1.60694482421875,-7.454324072542786,2.412122955163568,-5.897889579823612
1757088775007899600,1.616899658203125,-7.451178175732493,2.403001052683592,-5.905583641457557
1757088775017853700,1.626853759765625,-7.434010183310508,2.3841461300879714,-5.934789862197637
1757088775027808800,1.636808837890625,-7.422946937504411,2.365664570849389,-5.955995147311687
1757088775037763800,1.646763916015625,-7.447137375909089,2.3621847659096122,-5.9271080755233765
1757088775047718700,1.65671875,-7.487665201130509,2.377585602528602,-5.8696115798443556
1757088775057673700,1.666673828125,-7.526240723240375,2.3989018006712195,-5.811312535610795
1757088775067628000,1.6766279296875,-7.561496745538711,2.4137676536306736,-5.75915623191595
1757088775077583000,1.6865830078125,-7.595655620250105,2.4199296833917496,-5.711421836316585
1757088775087538200,1.6965380859375,-7.631595533159374,2.4197798996575175,-5.663372967940568
1757088775097493200,1.7064931640625,-7.667392238205671,2.415693945518136,-5.616574391886592
1757088775107447000,1.716447021484375,-7.701437131148576,2.4115865101993084,-5.571579650384187
1757088775117402000,1.726402099609375,-7.731074729043245,2.410799305344373,-5.530725077426434
1757088775127357200,1.736357177734375,-7.7528189433395855,2.4161589326813817,-5.497850397306681
1757088775137312300,1.746312255859375,-7.766181698259711,2.430062808740884,-5.472805387899279
1757088775147267000,1.75626708984375,-7.773822568401694,2.4532503537133334,-5.451570876690745
1757088775157221000,1.76622119140625,-7.778667085823416,2.483046649301052,-5.431132484295964
1757088775167176200,1.77617626953125,-7.783961100578308,2.517452192249894,-5.407658669728041
1757088775177131300,1.78613134765625,-7.78927089742422,2.553836341795325,-5.382894815349578
1757088775187086000,1.796086181640625,-7.793350275692343,2.5928482094958425,-5.358284105706215
1757088775197040000,1.8060400390625,-7.7992913561791175,2.636943371810019,-5.328035682436823
1757088775206995000,1.815994873046875,-7.813727293288707,2.6880866990700363,-5.281121371048688
1757088775216950300,1.8259501953125,-7.8649542071789496,2.749356575807929,-5.172419004267454
1757088775226905000,1.835905029296875,-7.931011025932431,2.8152605420872567,-5.034259072333574
1757088775236859100,1.845859130859375,-7.9698805625528095,2.869816892661154,-4.9412084481924765
1757088775246814000,1.85581396484375,-7.988901489365101,2.899010253919661,-4.893218032005429
1757088775256769300,1.865769287109375,-7.977754072406888,2.902270132498443,-4.909445528706908
1757088775266724000,1.87572412109375,-7.938815562203526,2.8890014856025577,-4.979886846154928
1757088775276679000,1.885678955078125,-7.880534053626656,2.8698344283178447,-5.082481543710828
1757088775286633000,1.895633056640625,-7.807610271713137,2.8544392907872793,-5.20228573474288
1757088775296588300,1.90558837890625,-7.726396215838194,2.8466078665092587,-5.326351090350747
1757088775306543000,1.915543212890625,-7.65982151069045,2.84758489484787,-5.42114242067933
1757088775316498000,1.925497802734375,-7.62509506522417,2.8590400625810024,-5.463900196909904
1757088775326452000,1.935451904296875,-7.608811454421281,2.8834403443440793,-5.473768095451593
1757088775336407300,1.9454072265625,-7.602971496221422,2.9163159012466666,-5.464458415314555
1757088775346362000,1.955362060546875,-7.606472197818755,2.950148320482671,-5.441377399456501
1757088775356317000,1.96531689453125,-7.610825132331252,2.9808833582252263,-5.418492782953381
1757088775366272300,1.975272216796875,-7.606458169293403,3.0056597798243163,-5.410932576832175
1757088775376226300,1.985226318359375,-7.591109793514013,3.0208088336393235,-5.42403405046761
1757088775386181000,1.99518115234375,-7.569637966418266,3.0230466756939887,-5.452720046725869
1757088775396136000,2.005135986328125,-7.547629548227786,3.0121736917629836,-5.489124654537439
1757088775406091300,2.01509130859375,-7.527185310614109,2.9919527415111657,-5.528118109798431
1757088775416045300,2.02504541015625,-7.509412338036299,2.9688924761801956,-5.564601628065109
1757088775426000100,2.035000244140625,-7.493699220597744,2.9487352388143537,-5.596411893823743
1757088775435955000,2.044954833984375,-7.478993234375118,2.933859448982775,-5.623834738278389
1757088775445910300,2.05491015625,-7.462734173491596,2.9253435495719313,-5.649809722012281
1757088775455865000,2.064864990234375,-7.441846868285537,2.925698646619916,-5.677110985913872
1757088775465819100,2.074819091796875,-7.417018716499209,2.935595771256089,-5.704427447384596
1757088775475774000,2.08477392578125,-7.391003985276818,2.9538328542143106,-5.728727775904536
1757088775485729300,2.094729248046875,-7.362451260009408,2.979621083204448,-5.7520911158353085
1757088775495684000,2.10468408203125,-7.326622406259179,3.0117288706049323,-5.781044238597154
1757088775505638100,2.11463818359375,-7.284198392027616,3.0450504177093505,-5.817087027359008
1757088775515593000,2.124593017578125,-7.238290627333521,3.076116294841468,-5.857904190915822
1757088775525548300,2.13454833984375,-7.1815312137573954,3.10722104267925,-5.9111062042713165
1757088775535503000,2.144503173828125,-7.11128629566431,3.143158325240016,-5.976666763940453
1757088775545458200,2.154458251953125,-7.036461064043641,3.191279089808464,-6.039399406707287
1757088775555412000,2.164411865234375,-6.960151731345057,3.2502637782186268,-6.096102121660113
1757088775565367300,2.1743671875,-6.88785806402862,3.304255188386142,-6.148959851622581
1757088775575322000,2.184322021484375,-6.824227595639228,3.340825508153438,-6.199933667534589
1757088775585277200,2.194277099609375,-6.7684905108481646,3.360887760712206,-6.2499891995579
1757088775595231000,2.20423095703125,-6.7158484694629905,3.3722476513773203,-6.300453312382102
1757088775605186300,2.214186279296875,-6.6640557383835315,3.3805376330778,-6.350803443437814
1757088775615141000,2.22414111328125,-6.615166912052035,3.3877021178796887,-6.397923506531119
1757088775625096200,2.23409619140625,-6.573137450096011,3.395142789274454,-6.437178243076801
1757088775635051000,2.244051025390625,-6.541324846249818,3.4061057895764706,-6.46373774870038
1757088775645005300,2.25400537109375,-6.519101908525824,3.42227658765465,-6.47763183401823
1757088775654960000,2.263960205078125,-6.500836768516898,3.442192709740996,-6.485431694114208
1757088775664915200,2.273915283203125,-6.48046618066132,3.46353038906306,-6.494451451393962
1757088775674870000,2.2838701171875,-6.451731084564328,3.482852052387595,-6.512702562877536
1757088775684824300,2.29382421875,-6.410821566548943,3.4960941035374997,-6.545920941868424
1757088775694779100,2.303779052734375,-6.356950860151648,3.4997204773411155,-6.596326602503657
1757088775704734200,2.313734130859375,-6.289411109364033,3.491615789079666,-6.665007340019941
1757088775714689000,2.32368896484375,-6.208358966052532,3.4733170390620827,-6.750017865568399
1757088775724644000,2.33364404296875,-6.115169810223579,3.4487452001243826,-6.8469882935017345
1757088775734598100,2.34359814453125,-6.017137890538573,3.4219381494805217,-6.946566273584962
1757088775744553200,2.35355322265625,-5.92275455648899,3.3991420880436896,-7.038267236682772
1757088775754508000,2.363508056640625,-5.835104330086708,3.386984909521043,-7.116901212936639
1757088775764463000,2.373463134765625,-5.7561558810561895,3.387019396312535,-7.18088882420063
1757088775774418200,2.383418212890625,-5.682817088600993,3.3966470563575624,-7.234552609848976
1757088775784372000,2.3933720703125,-5.608235018086433,3.411056982243061,-7.285792383220792
1757088775794327000,2.4033271484375,-5.526278034889698,3.4256492789581414,-7.341359372141957
1757088775804282000,2.4132822265625,-5.437707186511159,3.4367014188483354,-7.402081259608268
1757088775814237200,2.4232373046875,-5.346837998062372,3.4430949192777276,-7.4650389433026305
1757088775824191000,2.43319091796875,-5.260253355064988,3.4454607716262338,-7.525218978977203
1757088775834146000,2.44314599609375,-5.184657139071822,3.447532901725173,-7.576558121070265
1757088775844101000,2.45310107421875,-5.123820685315132,3.4533427570477127,-7.615200863197446
1757088775854056200,2.46305615234375,-5.077265270367264,3.464945516557991,-7.641067125859856
1757088775864011000,2.473010986328125,-5.038517898821831,3.4834538176730274,-7.658281295511126
1757088775873965000,2.482965087890625,-5.004298818355799,3.5068329396948217,-7.670039537844062
1757088775883920100,2.492920166015625,-4.973437231624126,3.529158461010456,-7.679865935331582
1757088775893875200,2.502875244140625,-4.944912563407421,3.544855796357989,-7.691048423603177
1757088775903830000,2.512830078125,-4.917169400957227,3.5526226309671998,-7.705238276997208
1757088775913785300,2.522785400390625,-4.886845574364066,3.556765429860353,-7.7225985771209
1757088775923739100,2.5327392578125,-4.85338958722502,3.5633088601544496,-7.740660888034105
1757088775933694200,2.542694091796875,-4.815922318617999,3.576740296396613,-7.757848169678449
1757088775943649000,2.55264892578125,-4.763225916697085,3.599008242306113,-7.7800524027019735
1757088775953604000,2.56260400390625,-4.690884903107583,3.631526071812212,-7.8088406902909275
1757088775963559200,2.57255908203125,-4.6118841393679375,3.676479019999504,-7.834819765678048
1757088775973513200,2.58251318359375,-4.525380160391331,3.736574884521961,-7.856801295861602
1757088775983468000,2.592468017578125,-4.427790723776817,3.8119253090605136,-7.876184626245498
1757088775993423000,2.602423095703125,-4.327429776622354,3.8986403004392978,-7.889508218199015
1757088776003378200,2.612378173828125,-4.232136341990531,3.9954888555586336,-7.892747638511657
1757088776013333000,2.6223330078125,-4.138074494980275,4.105007507158816,-7.88642135809958
1757088776023287000,2.632287109375,-4.038540938560664,4.226453035657108,-7.873859982690215
1757088776033242000,2.6422421875,-3.92630367565155,4.353340462948382,-7.861485654285549
1757088776043197200,2.652197265625,-3.804511817933619,4.476812821099162,-7.852019322282075
1757088776053152000,2.662152099609375,-3.689776016207039,4.593655531977117,-7.839276745086908
1757088776063107300,2.672107421875,-3.586093231153488,4.708664013165235,-7.81913061363697
1757088776073061000,2.68206103515625,-3.485265251009166,4.829047757650912,-7.791251257586478
1757088776083016200,2.69201611328125,-3.3797964593216774,4.960090258795023,-7.755311344677209
1757088776092971000,2.701970947265625,-3.2662121657177803,5.101815774255991,-7.711919362196326
1757088776102926300,2.71192626953125,-3.1424501769706605,5.249060345399379,-7.664381365951895
1757088776112881200,2.721881103515625,-3.022364830909669,5.393993132469058,-7.6118673348605626
1757088776122835200,2.731835205078125,-2.922822506661713,5.5329269713848825,-7.55077544503808
1757088776132790000,2.7417900390625,-2.8438164822250602,5.665617531996965,-7.482237330862879
1757088776142745300,2.751745361328125,-2.7757617676526305,5.79103079508245,-7.411444131237268
1757088776152700200,2.7617001953125,-2.701315598477423,5.908416819056868,-7.346012750905752
1757088776162655200,2.7716552734375,-2.6106010160684585,6.018512101501226,-7.289214174363017
1757088776172609000,2.781609130859375,-2.5119454115271567,6.122260645267367,-7.2372957710772745
1757088776182564400,2.791564453125,-2.4108123109564183,6.220216577106714,-7.187995441335439
1757088776192519200,2.801519287109375,-2.314439410524815,6.314195422008633,-7.137556462952494
1757088776202474200,2.81147412109375,-2.231607690320164,6.405989324086904,-7.081921669492125
1757088776212429300,2.82142919921875,-2.158038011718541,6.498842379829287,-7.019851290026307
1757088776222384000,2.831384033203125,-2.0839646213784815,6.608755291444063,-6.939151613414287
1757088776232338200,2.841338134765625,-1.9893881028443574,6.741345898813009,-6.838637813785672
1757088776242293000,2.85129296875,-1.8374312623567879,6.887283479011058,-6.734950644817948
1757088776252248300,2.861248291015625,-1.6341773653522134,7.060102051872015,-6.607178835907578
1757088776262203100,2.871203125,-1.4662616159714759,7.243257309830188,-6.446368096226453
1757088776272158200,2.881158203125,-1.3246267014034092,7.4001120053619145,-6.297148425617814
1757088776282112000,2.891112060546875,-1.2074500823959708,7.542056716531515,-6.150597097435593
1757088776292067300,2.9010673828125,-1.1253236609164625,7.6834566532999276,-5.989034078082442
1757088776302022100,2.911022216796875,-1.0747750846792012,7.81823571062386,-5.821549851986766
1757088776311977200,2.920977294921875,-1.0398137344785034,7.940572635003924,-5.660078018048405
1757088776321932000,2.93093212890625,-1.0111314645472913,8.040025527402758,-5.5232221544504165
1757088776331887400,2.940887451171875,-0.9818624807693064,8.120735140886902,-5.409249153789878
1757088776341841200,2.950841064453125,-0.9595563948065042,8.187928854715823,-5.311068181023002
1757088776351796200,2.960796142578125,-0.9561869183734059,8.248128179612756,-5.217706591236591
1757088776361751000,2.9707509765625,-0.9646827248442917,8.305456332987546,-5.124371304935217
1757088776371706400,2.980706298828125,-0.9788836110889911,8.345805294510722,-5.055661925846338
1757088776381661200,2.9906611328125,-0.9920888373598455,8.37189893618822,-5.009738379061222
1757088776391616000,3.000615966796875,-0.9934604179739952,8.390910510650277,-4.977554019293189
1757088776401570000,3.010570068359375,-0.9896874022413045,8.406504385623336,-4.951928579649329
1757088776411525400,3.020525390625,-0.9902231896184385,8.423325172042846,-4.923154320585727
1757088776421480200,3.030480224609375,-0.997576255794987,8.440114394280315,-4.892822310686111
1757088776431435000,3.04043505859375,-1.0134101500689983,8.458352646282314,-4.857949442486465
1757088776441390300,3.050390380859375,-1.0418304811283945,8.473570673680305,-4.825305940774083
1757088776451344100,3.06034423828125,-1.0834770081814378,8.479729780831933,-4.8052746678754685
1757088776461299200,3.07029931640625,-1.1378568331446497,8.470939156132935,-4.808207798717916
1757088776471254000,3.08025390625,-1.2013221741002051,8.444419982519745,-4.83931868403554
1757088776481209300,3.090209228515625,-1.261147185792029,8.404283786964417,-4.893660222814977
1757088776491164200,3.1001640625,-1.3110973577447236,8.354279692867397,-4.965621589437127
1757088776501119200,3.110119140625,-1.3541677070558071,8.300856730237603,-5.043052619642019
1757088776511073000,3.120072998046875,-1.392053201074898,8.252927688848972,-5.110945421651006
1757088776521028400,3.1300283203125,-1.428997614851594,8.215525302171706,-5.160765391352772
1757088776530983200,3.139983154296875,-1.4644330853700638,8.190908162787556,-5.189878088590502
1757088776540938200,3.149938232421875,-1.489108676943183,8.18086958385408,-5.198683910858631
1757088776550893000,3.15989306640625,-1.4974740619674325,8.177837084290385,-5.201050055468082
1757088776560848100,3.16984814453125,-1.503075242975354,8.179705800771712,-5.196494291859865
1757088776570802200,3.17980224609375,-1.5101011960893869,8.192577557304501,-5.174132237926125
1757088776580757200,3.18975732421875,-1.509788330747932,8.213253850108385,-5.141342898002266
1757088776590712000,3.199712158203125,-1.4977730449140072,8.238441482856869,-5.104423910927772
1757088776600667100,3.209667236328125,-1.4700669996038078,8.267577560970187,-5.065220027786493
1757088776610622200,3.219622314453125,-1.4266907992139457,8.302251399466394,-5.0207121930181975
1757088776620577000,3.229576904296875,-1.3715439354009926,8.344178570091724,-4.966278007519245
1757088776630531000,3.239531005859375,-1.3100550090849399,8.393298867091536,-4.89966034001261
1757088776640486100,3.249486083984375,-1.2501789247930049,8.448856503662466,-4.81915677049458
1757088776650441200,3.259441162109375,-1.1944663168560712,8.510159990409017,-4.724490235589444
1757088776660396000,3.26939599609375,-1.14208299947232,8.571949214845896,-4.6246877991005775
1757088776670351400,3.279351318359375,-1.095241753320396,8.632073720940946,-4.523066038230061
1757088776680306200,3.28930615234375,-1.0475375336635857,8.689669000819325,-4.4229722175791855
1757088776690260200,3.29926025390625,-0.9995395917572081,8.744640946456789,-4.324647452427446
1757088776700215000,3.309215087890625,-0.947030894428119,8.797956941580772,-4.227232495597004
1757088776710170400,3.31917041015625,-0.8921394666809588,8.846407376495003,-4.137095713075995
1757088776720125200,3.329125244140625,-0.8390284195445478,8.891475767755509,-4.050690518298745
1757088776730080000,3.339080078125,-0.7975326991390437,8.933370789676903,-3.96600907857418
1757088776740035000,3.34903515625,-0.7820983986418694,8.964297258338332,-3.89872973228842
1757088776749989400,3.3589892578125,-0.8328753768075257,8.975804156258702,-3.8615561859309673
1757088776759944200,3.368944091796875,-0.894727729608491,8.969007920247316,-3.863515211044252
1757088776769899000,3.37889892578125,-0.9780663033567368,8.949435204771161,-3.8886218875110146
1757088776779854000,3.38885400390625,-1.0619896912556142,8.930892416864634,-3.909185075329244
1757088776789809200,3.39880908203125,-1.1202430697165429,8.9128827129215,-3.933948929707706
1757088776799764200,3.40876416015625,-1.143868859975785,8.888595828405021,-3.9818110433399676
1757088776809718000,3.418718017578125,-1.1500930682528763,8.862982663720846,-4.036729797485471
1757088776819673000,3.428673095703125,-1.1448606474921106,8.838817944279313,-4.090840157857537
1757088776829628200,3.438628173828125,-1.1395775194574147,8.813578289082646,-4.146393995036185
1757088776839583200,3.448583251953125,-1.143900424157828,8.789844946795702,-4.195294804066419
1757088776849538000,3.4585380859375,-1.1593759334482252,8.761118034005165,-4.250770315311849
1757088776859493400,3.468493408203125,-1.2015724955994636,8.71481863964498,-4.333419372425973
1757088776869447200,3.478447265625,-1.2663365711286663,8.663975172114371,-4.416142956081033
1757088776879402200,3.48840234375,-1.3190829496711491,8.63387638644874,-4.4594405382767315
1757088776889357000,3.498357177734375,-1.2847713686160742,8.661887259924411,-4.414914583329856
1757088776899312400,3.5083125,-1.189832592640817,8.742842372602224,-4.279884766115248
1757088776909267200,3.51826708984375,-1.0722137828238307,8.835336531904339,-4.1179587586686015
1757088776919222000,3.528221923828125,-0.9568146948829293,8.921229685506225,-3.958099912884831
1757088776929176000,3.538176025390625,-0.884154167015478,8.997025223463773,-3.800290985368192
1757088776939131100,3.548131103515625,-0.8701642201077192,9.064124829268454,-3.6407214779198167
1757088776949086200,3.558086181640625,-0.9012135844964534,9.124232384228705,-3.4794542266428468
1757088776959041000,3.568041015625,-0.9431983305279165,9.17920491438806,-3.3200840411588546
1757088776968996400,3.577996337890625,-0.9708939275093376,9.230186913606524,-3.1672344896152613
1757088776978951200,3.587951171875,-0.9715721920970827,9.274913359561562,-3.033549365007877
1757088776988905200,3.5979052734375,-0.9481342525601386,9.314718131205439,-2.9167531236201523
1757088776998860000,3.607860107421875,-0.9157706637676805,9.349396645876764,-2.8143396278500554
1757088777008815400,3.6178154296875,-0.8851909627173096,9.376636534979939,-2.73230841037333
1757088777018770200,3.627770263671875,-0.8590921334080398,9.397828376090526,-2.6670523866087197
1757088777028725200,3.637725341796875,-0.8381338818576186,9.416087086358665,-2.608677646790445
1757088777038680000,3.64768017578125,-0.8211936337769031,9.434643902790546,-2.5462752588912845
1757088777048634000,3.657634033203125,-0.80513937475048,9.454452765110135,-2.476985449565947
1757088777058589200,3.667589111328125,-0.7780688508648425,9.47488180515468,-2.406572627560049
1757088777068543700,3.677543701171875,-0.721552598394826,9.498508179935813,-2.3298231498785316
1757088777078498600,3.68749853515625,-0.6484856086183339,9.52519920298457,-2.240632123775035
1757088777088453600,3.69745361328125,-0.5901940901041031,9.553505260014534,-2.1336799616619944
1757088777098408700,3.70740869140625,-0.5588687948508188,9.58195569395125,-2.0110193582855165
1757088777108362800,3.71736279296875,-0.5550010865719989,9.606116321739554,-1.8933841818556187
1757088777118317600,3.727317626953125,-0.5277921771289781,9.628101359054446,-1.7864710365787146
1757088777128272600,3.737272705078125,-0.4455763603329658,9.650924600759147,-1.682708025895804
1757088777138227700,3.747227783203125,-0.36523408232387156,9.67018635058999,-1.5888688817255199
1757088777148182500,3.7571826171875,-0.3313424071813002,9.687669984832405,-1.4864995173580944
1757088777158137600,3.7671376953125,-0.304076890446525,9.705650462681055,-1.3705052400030195
1757088777168092700,3.7770927734375,-0.23577892343644052,9.72044997240603,-1.275795450478047
1757088777178046700,3.787046630859375,-0.12383204004233703,9.729107910636067,-1.2245562616281211
1757088777188001500,3.79700146484375,0.01972079359377967,9.73157985370755,-1.2109260879434645
1757088777197956600,3.80695654296875,0.18224515737593172,9.730657478165625,-1.204768734357506
1757088777207911700,3.81691162109375,0.3414450643269345,9.72788976701796,-1.1924581188388168
1757088777217866800,3.82686669921875,0.4721086856886744,9.735050744688511,-1.0845734981812536
1757088777227821600,3.836821533203125,0.5883638790022582,9.754376791927218,-0.8224018405228852
1757088777237775600,3.846775634765625,0.6836559984598308,9.769660285776853,-0.5066810365717858
1757088777247730700,3.856730712890625,0.6919202611971647,9.78005542306304,-0.20526773931132627
1757088777257685800,3.866685791015625,0.6454150420665741,9.784943779626488,0.09313840288924984
1757088777267640600,3.876640625,0.588104241685383,9.78148867073655,0.38340913289655
1757088777277595600,3.886595703125,0.541930190737918,9.770379247701168,0.6452686923984438
1757088777287550700,3.89655078125,0.4887988679984584,9.756720724704861,0.8589785169657319
1757088777297505500,3.906505615234375,0.40799894588235763,9.74316215495169,1.036696552306041
1757088777307459600,3.91645947265625,0.2958407578251324,9.728440971159934,1.2001299686409532
1757088777317414400,3.926414306640625,0.15780595010826362,9.713239894896745,1.3410668179422616
1757088777327369700,3.93636962890625,0.02642685340394964,9.700855045098066,1.436350169571489
1757088777337324500,3.946324462890625,-0.053240235607186326,9.693911509570478,1.4817695662267505
1757088777347279600,3.956279541015625,-0.0739519056851277,9.691776251107454,1.4947864303186535
1757088777357234700,3.966234619140625,-0.07977077999776229,9.691498603209853,1.4962833908781408
1757088777367188700,3.976188720703125,-0.09222810137760824,9.693222358262538,1.4843568062409758
1757088777377143600,3.9861435546875,-0.10112096260837279,9.697371294635534,1.4564105224341153
1757088777387098600,3.9960986328125,-0.09723587393648922,9.703933721891046,1.412301916116476
1757088777397053700,4.0060537109375,-0.07582489191619679,9.71256184950471,1.3530745049916206
1757088777407008800,4.0160087890625,-0.03307814625300234,9.722898534601926,1.2784892196066677
1757088777416963600,4.025963623046875,0.028670421946502756,9.733944829273224,1.1915866697665303
1757088777426918700,4.035918701171875,0.10484085078118369,9.745247729054093,1.09065800572671
1757088777436872700,4.045872802734375,0.19186041459711267,9.755848618045448,0.978269790039584
1757088777446827800,4.055827880859375,0.2798184100406244,9.76492858107984,0.8592296421825886
1757088777456782600,4.065782470703125,0.3688183340188116,9.770649296814202,0.7541613210547715
1757088777466737700,4.075737548828125,0.4470991494534537,9.769633982291817,0.7243710898816585
1757088777476692700,4.085692626953125,0.5003471939077601,9.76394015456438,0.7651701332598925
1757088777486647600,4.0956474609375,0.5274997335210442,9.757638424071668,0.8250120960865169
1757088777496601600,4.1056015625,0.5257924912117421,9.752475342220068,0.8849576654180884
1757088777506556400,4.115556396484375,0.5027081508854404,9.74769395316243,0.9487596909821033
1757088777516511700,4.12551171875,0.47371831284239885,9.742000125434995,1.0195158465329557
1757088777526466600,4.135466552734375,0.4507851810224354,9.73428794362247,1.1003694715976715
1757088777536421600,4.145421630859375,0.4346786803521216,9.723995682188868,1.1938806989878414
1757088777546376700,4.155376708984375,0.4224683834027499,9.712702719280124,1.2866007760003209
1757088777556331500,4.16533154296875,0.42047757491171356,9.702820792213082,1.35972490279153
1757088777566285600,4.17528564453125,0.4231044162839651,9.697017074370384,1.3997304577045142
1757088777576240600,4.18524072265625,0.42194720907285804,9.695636433666944,1.4096071240745485
1757088777586195700,4.19519580078125,0.4472540477542206,9.69430080114901,1.4109933177359402
1757088777596150500,4.205150634765625,0.5329442626625299,9.690790162679553,1.4053336845390498
1757088777606105600,4.215105712890625,0.6160483700677752,9.685537648978828,1.4075624665044246
1757088777616060700,4.225060791015625,0.7142034777410328,9.6766581769526,1.4221765366598962
1757088777626014700,4.2350146484375,0.7263252926893532,9.67165993027389,1.4497599785037338
1757088777635969500,4.244969482421875,0.6464205658473074,9.674297877562045,1.4698527723312378
1757088777645924600,4.254924560546875,0.5567047121521085,9.677551910921931,1.485083951471746
1757088777655879700,4.264879638671875,0.4921383511520922,9.680829909679293,1.4865147149272262
1757088777665834800,4.274834716796875,0.45498803953975436,9.684406599122285,1.47500504052788
1757088777675789600,4.28478955078125,0.44021402958221734,9.685511345493794,1.472230315117538
1757088777685744600,4.29474462890625,0.4416181242264807,9.68506944694519,1.4747279771521686
1757088777695698700,4.30469873046875,0.44670320893842724,9.68514309670329,1.4727080156318844
1757088777705653800,4.31465380859375,0.4522229222079739,9.685317284226416,1.469861540159583
1757088777715608600,4.324608642578125,0.456891973464936,9.68536521502137,1.46810475962013
1757088777725563600,4.334563720703125,0.46105946840792894,9.685903559681773,1.463246213673055
1757088777735518700,4.344518798828125,0.4658991635240614,9.687256143334507,1.452713859873265
1757088777745473500,4.3544736328125,0.47024899276401844,9.688791682338714,1.441024737253785
1757088777755428600,4.3644287109375,0.4732759393697604,9.690257663238048,1.430140355145931
1757088777765382700,4.374382568359375,0.4755251065360382,9.691644149160384,1.4199620754808187
1757088777775337700,4.384337646484375,0.47834323269668966,9.692881582000851,1.4105311070516704
1757088777785292500,4.39429248046875,0.48329862661436196,9.694036597254872,1.4008759744778274
1757088777795247600,4.40424755859375,0.48997065172418947,9.695138421016932,1.3909005239084362
1757088777805202700,4.41420263671875,0.499556299258396,9.696057289427518,1.3810539604157208
1757088777815157800,4.42415771484375,0.5118601927753538,9.696753454998134,1.3716174390286207
1757088777825112600,4.434112548828125,0.5236603014886378,9.697381231507658,1.3627163396924733
1757088777835066600,4.444066650390625,0.5338435495898127,9.697999655666948,1.3543259663574396
1757088777845021700,4.454021728515625,0.5422187618883326,9.69875719603598,1.3455458630524575
1757088777854976800,4.463976806640625,0.5472430928563699,9.699567927896975,1.3376508720189333
1757088777864931600,4.473931640625,0.5478921313496307,9.70028805886507,1.3321408764258027
1757088777874886400,4.483886474609375,0.5459489979252219,9.701157827436923,1.3265868955604732
1757088777884841700,4.493841796875,0.543166089208424,9.70202350435555,1.3214054012693464
1757088777894796500,4.503796630859375,0.5405226254949346,9.702698627138137,1.3175310440540313
1757088777904750600,4.51375048828125,0.5376447685036808,9.703337509563564,1.3139927869252859
1757088777914705400,4.523705322265625,0.5333646434990689,9.703878192311524,1.3117280568636953
1757088777924660700,4.53366064453125,0.5278485104260966,9.704582541188596,1.3087519636623561
1757088777934615600,4.543615478515625,0.5211793348604813,9.705628835371137,1.3036631160907446
1757088777944570600,4.553570556640625,0.5118199703628197,9.706850486120581,1.2982508817836642
1757088777954525700,4.563525634765625,0.5003363071875646,9.707832482895254,1.2953921313516794
1757088777964480500,4.57348046875,0.48836248587518927,9.708667764675617,1.2936973101325333
1757088777974434600,4.5834345703125,0.4773668254125863,9.709559745079279,1.291113577249646
1757088777984389600,4.5933896484375,0.4675471133941784,9.710428929129243,1.2881629107505081
1757088777994344700,4.6033447265625,0.45794908130243417,9.711250766906142,1.2854160962603987
1757088778004299500,4.613299560546875,0.4485384615415707,9.71160790978074,1.2860276522874832
1757088778014254600,4.623254638671875,0.43942583834659305,9.71190718498826,1.2869010741211473
1757088778024209700,4.633209716796875,0.4339911730119958,9.712022335800528,1.287882486373931
1757088778034164700,4.643164794921875,0.4339997581772506,9.71156874681413,1.291289956729859
1757088778044118500,4.653118408203125,0.43901484639290717,9.710910575166345,1.2945505659610033
1757088778054073600,4.663073486328125,0.4475004602633416,9.710660984319448,1.2935251684360205
1757088778064028700,4.673028564453125,0.4576683646649122,9.710683780673145,1.289794895866513
1757088778073983700,4.682983642578125,0.4698302558952942,9.710635265356302,1.28578186083287
1757088778083938600,4.6929384765625,0.48265689464472233,9.710365800765157,1.2830622266106306
1757088778093894000,4.702893798828125,0.4957207396835088,9.710188106110692,1.2794028273202478
1757088778103848700,4.7128486328125,0.5065247865641489,9.71023019168675,1.27484341045022
1757088778113802800,4.722802734375,0.5127046442428603,9.710559862032532,1.2698647452548146
1757088778123757600,4.732757568359375,0.5194944139808416,9.710763860172033,1.2655363606616854
1757088778133713000,4.742712890625,0.5323653667960315,9.710418992257118,1.2628295859210192
1757088778143667700,4.752667724609375,0.5512977020094171,9.709627549618482,1.2607983723543583
1757088778153622500,4.76262255859375,0.5744256622817367,9.708257430309057,1.2610232671514152
1757088778163577600,4.77257763671875,0.5995750088464469,9.706185300210118,1.2652550595022738
1757088778173532700,4.78253271484375,0.6240381997779011,9.703469026988744,1.2742217714205384
1757088778183487700,4.79248779296875,0.6408440078239888,9.701154320305585,1.2834794291093945
1757088778193441500,4.802441650390625,0.6465458727274089,9.700149527177214,1.288209234110266
1757088778203396600,4.812396728515625,0.6450730967611074,9.700382166889309,1.2871981573715805
1757088778213351700,4.8223515625,0.6414376628682017,9.701520815530419,1.280411419840902
1757088778223306800,4.832306640625,0.6394750575583428,9.702955816769599,1.270474839977175
1757088778233261600,4.842261474609375,0.6403558589808642,9.704138889074326,1.260973582790792
1757088778243216600,4.852216552734375,0.645578269804269,9.704897598487138,1.252435179287195
1757088778253171700,4.862171630859375,0.6558611058223992,9.70534241964519,1.2436135749280453
1757088778263125800,4.872125732421875,0.6701780196622014,9.705686703038214,1.2332349503852427
1757088778273080600,4.88208056640625,0.687622564003244,9.705839263251423,1.222399229724705
1757088778283035600,4.89203564453125,0.7078361346662044,9.70573580287695,1.2116326287776231
1757088778292990700,4.90199072265625,0.7305398416444658,9.705200380825996,1.2024181526433675
1757088778302945500,4.911945556640625,0.7547622826226055,9.704499539080262,1.1930704055182635
1757088778312900900,4.92190087890625,0.7802166034832596,9.703674778693914,1.183359670299664
1757088778322855700,4.931855712890625,0.806391859029606,9.702741297236084,1.1734204600874334
1757088778332810800,4.941810791015625,0.8305565054059029,9.701778589683771,1.164487796569243
1757088778342764500,4.9517646484375,0.8515542121838777,9.700797177430987,1.157479817503318
1757088778352720000,4.961719970703125,0.8690571356486528,9.699781862908601,1.1529793642789126
1757088778362674700,4.9716748046875,0.8819554879274218,9.698994511923193,1.1497879478264599
1757088778372629800,4.981629638671875,0.8913366989307105,9.698351537844538,1.1480039139539002
1757088778382584600,4.99158447265625,0.9010448768660425,9.697364280372858,1.148741653643921
1757088778392539600,5.00153955078125,0.9116057991731912,9.69620400442183,1.1502096803698687
1757088778402494700,5.01149462890625,0.9217514186777174,9.695022101160884,1.1520924253765492
1757088778412448800,5.02144873046875,0.9312786140229552,9.693772977882624,1.1549359051741659
1757088778422403600,5.031403564453125,0.9399714043706655,9.692513333210348,1.1584474934916942
1757088778432358700,5.041358642578125,0.9469239269223063,9.691420861798525,1.161925910191983
1757088778442313700,5.051313720703125,0.9529717557191848,9.690414899626374,1.1653733472321182
1757088778452268500,5.0612685546875,0.9587217706132679,9.689446346855163,1.1686981077406555
1757088778462224000,5.071223876953125,0.964574661359936,9.688493576174974,1.17178073005639
1757088778472178700,5.0811787109375,0.9696812637839466,9.687793903473018,1.1733529478091747
1757088778482133500,5.091133544921875,0.9741313019953668,9.687448451036214,1.1725200771816073
1757088778492087600,5.101087646484375,0.9786275905013084,9.687397597631811,1.1691993352610617
1757088778502043000,5.11104296875,0.9822668968517333,9.68760510290265,1.164394565327838
1757088778511997700,5.120997802734375,0.9863562850572168,9.687897948369383,1.158504557441175
1757088778521952500,5.130952392578125,0.9912702875185757,9.688228787758947,1.151519813120365
1757088778531907600,5.140907470703125,0.9966240696366876,9.688552612885832,1.144138470697403
1757088778541862700,5.150862548828125,1.002120109769702,9.68883552148044,1.1369115881837903
1757088778551817700,5.160817626953125,1.0074025071520358,9.68907751354277,1.1301721238609403
1757088778561771500,5.170771484375,1.0128782351493835,9.68919324887693,1.1242753209073095
1757088778571726600,5.1807265625,1.0188715572800486,9.689138888341187,1.119301112691313
1757088778581681700,5.190681640625,1.0257664313603192,9.688734983715415,1.1164988416869193
1757088778591636700,5.20063671875,1.0329599230609834,9.688178518876432,1.1147186072066426
1757088778601591600,5.210591552734375,1.0394538151249288,9.68766063248217,1.1131819722238927
1757088778611547000,5.220546875,1.0454049786143005,9.687174894791841,1.1118331148982048
1757088778621501700,5.230501708984375,1.050592610385269,9.686693833276628,1.111133076870069
1757088778631456500,5.24045654296875,1.0552435049310327,9.686249012118578,1.1105850145332514
1757088778641410600,5.25041064453125,1.059401793654263,9.685909989422559,1.1095890622984617
1757088778651365600,5.26036572265625,1.0628308182548731,9.685640524831413,1.10865755360201
1757088778661320700,5.27032080078125,1.0661662462878971,9.685396194681525,1.107599495916441
1757088778671275500,5.280275634765625,1.0693966795764862,9.685146603834628,1.1066664528500287
1757088778681230800,5.29023095703125,1.0722834139939397,9.684925654560328,1.1057986570395528
1757088778691185700,5.300185546875,1.0748042377084492,9.684680155366658,1.1054977013316005
1757088778701140700,5.310140625,1.0771467822466045,9.684422965735196,1.1054766585435718
1757088778711095600,5.320095458984375,1.0792723230332135,9.68423182707727,1.1050772108972071
1757088778721049900,5.3300498046875,1.081296083945781,9.684077513298393,1.1044462925825267
1757088778731004700,5.340004638671875,1.083252844036743,9.683954763701557,1.1036178058691322
1757088778740959700,5.349959716796875,1.0855394206039606,9.683779991656541,1.1029018396195023
1757088778750914600,5.35991455078125,1.0878725397266447,9.683553781685232,1.1026009569767863
1757088778760869600,5.36986962890625,1.0908251789871604,9.683213589945435,1.102664669862762
1757088778770824700,5.37982470703125,1.0945852621730416,9.682749479565024,1.10301815947555
1757088778780779500,5.389779541015625,1.0992390062630175,9.682155020803213,1.103613933411613
1757088778790734800,5.39973486328125,1.1046738907933233,9.681491588458417,1.103989561790973
1757088778800688600,5.409688720703125,1.1108060368727892,9.68079659193158,1.103933082363382
1757088778810643700,5.419643798828125,1.116942347670719,9.680167646378278,1.103265996756777
1757088778820598500,5.4295986328125,1.1225075075171886,9.679684831297397,1.1018385943021625
1757088778830553900,5.439553955078125,1.1277847172677515,9.679281511193514,1.0999855868466197
1757088778840508700,5.4495087890625,1.1334339752011,9.678889297005533,1.0976502757668494
1757088778850463700,5.459463623046875,1.1395022622641175,9.678527477955818,1.094540327052772
1757088778860418600,5.46941845703125,1.146013470789045,9.678224111095071,1.0904153560772538
1757088778870373600,5.47937353515625,1.1523406279839574,9.678026542696356,1.0854846216768026
1757088778880327700,5.48932763671875,1.158665008699894,9.67790788475275,1.0798048955399542
1757088778890282800,5.49928271484375,1.1648764305606483,9.677794487506151,1.074133864166215
1757088778900237600,5.509237548828125,1.1707699455786496,9.677650695121288,1.068994601581618
1757088778910192600,5.519192626953125,1.1766343075674026,9.677431499412656,1.0645360878027974
1757088778920147700,5.529147705078125,1.1824453319337218,9.677080786278843,1.061287169009447
1757088778930102500,5.5391025390625,1.1881207472216337,9.676594464066625,1.0593722022335976
1757088778940057900,5.549057861328125,1.1933049449265003,9.676125092989206,1.057827676205337
1757088778950012700,5.5590126953125,1.197874079472944,9.675691962268948,1.0566239264387636
1757088778959966700,5.568966796875,1.2018505088232456,9.675320206347108,1.055510119977966
1757088778969921500,5.578921630859375,1.2053075174093246,9.675021515661477,1.054309292820841
1757088778979876900,5.588876953125,1.208246566535905,9.67477250933647,1.053248823982477
1757088778989831700,5.598831787109375,1.210565511002764,9.6746065051198,1.052094685511291
1757088778999786500,5.608786376953125,1.2132712628301232,9.674333533397316,1.0514798415485769
1757088779009741800,5.618741943359375,1.216031959715113,9.67410323177278,1.050413892817497
1757088779019696600,5.628696533203125,1.2180945182681082,9.673986911916732,1.0490892931502311
1757088779029651700,5.638651611328125,1.2207011936351657,9.673764793598652,1.0481020356785506
1757088779039605500,5.64860546875,1.2237297476761042,9.673441552993655,1.0475882409375161
1757088779049560800,5.658560791015625,1.2262282864935696,9.673148707526922,1.0473676569893955
1757088779059515600,5.668515625,1.228472850549966,9.672877489370107,1.0472304404757917
1757088779069470700,5.678470703125,1.230774405490607,9.672617961651087,1.0469194017652421
1757088779079425500,5.688425537109375,1.2338996979042887,9.67225848068893,1.046553710258007
1757088779089380600,5.698380615234375,1.238704613967985,9.671633042266965,1.0466696647878735
1757088779099335400,5.70833544921875,1.2441469511523842,9.670870241200923,1.0472677037462592
1757088779109290500,5.71829052734375,1.2495678071573375,9.6699250693053,1.0495263693932444
1757088779119244500,5.72824462890625,1.2540304856546223,9.669017306810616,1.0525719476342201
1757088779129199600,5.73819970703125,1.2578709406003354,9.668146953716873,1.0559715269446373
1757088779139154400,5.748154541015625,1.2614628276124595,9.667329207593202,1.059161993549019
1757088779149109500,5.758109619140625,1.2644592329494655,9.6666435634166,1.061860438852757
1757088779159064600,5.768064697265625,1.2671039022393524,9.666078915271163,1.063836488166079
1757088779169019400,5.778019287109375,1.2705775696992874,9.665452307805419,1.0653864940870552
1757088779178974700,5.787974609375,1.2764689658254385,9.664443423023819,1.0674870465628803
1757088779188929500,5.797929443359375,1.2837841111443935,9.663035309791564,1.0714671291749924
1757088779198883600,5.807883544921875,1.2901162367753685,9.66166519048214,1.0761926233269274
1757088779208838400,5.81783837890625,1.2941684347756206,9.660631755781173,1.0806089784644544
1757088779218793700,5.827793701171875,1.2961778749018906,9.659942604473233,1.084351160667464
1757088779228748500,5.83774853515625,1.2971090182721614,9.659457451304792,1.087557263232395
1757088779238703600,5.84770361328125,1.297612145488709,9.659087448948622,1.0902467945773153
1757088779248658700,5.85765869140625,1.2976577381961047,9.658820906966923,1.0925346863187848
1757088779258613500,5.867613525390625,1.297494218197465,9.658589436298609,1.094762153109908
1757088779268568600,5.877568603515625,1.298436905875057,9.658327570492029,1.0959788354232907
1757088779278522400,5.8875224609375,1.3012082702845333,9.657901454034446,1.0964304516483097
1757088779288477700,5.897477783203125,1.3040294651851057,9.657541388550401,1.096274895760417
1757088779298432500,5.9074326171875,1.3050088316112756,9.657482936361431,1.095626076462865
1757088779308387600,5.9173876953125,1.3038643377512693,9.657731358164549,1.0947858262464403
1757088779318342400,5.92734228515625,1.3023629932776093,9.658016020324826,1.0940502054482697
1757088779328297700,5.937297607421875,1.3017134433276951,9.658125325918197,1.0938781368169932
1757088779338252500,5.94725244140625,1.3012719831705093,9.658146953228115,1.09421314092502
1757088779348207400,5.957207275390625,1.3003202354036272,9.658245152905582,1.0944641930766403
1757088779358161400,5.967161376953125,1.2995377067238092,9.658381931027769,1.0941922442674636
1757088779368116700,5.97711669921875,1.2991554294079541,9.658446812957525,1.0940756321504712
1757088779378071600,5.987071533203125,1.2989753966659308,9.658365564414858,1.0950073600426316
1757088779388026400,5.9970263671875,1.298354049897194,9.658182609063386,1.097348589406535
1757088779397981700,6.006981689453125,1.297479020628333,9.65791372899413,1.1007491185650229
1757088779407936500,6.0169365234375,1.2966754491604864,9.657591657432913,1.1045007992487401
1757088779417891600,6.0268916015625,1.2961895653396844,9.657259064477682,1.1079738821867853
1757088779427846400,6.036846435546875,1.29586705538705,9.657014734327792,1.1104807504411787
1757088779437800700,6.04680078125,1.2949024481385945,9.65698200110197,1.1118859410639852
1757088779447755500,6.056755615234375,1.2919789619073272,9.657378306943178,1.111852257990092
1757088779457710600,6.066710693359375,1.2869053119048475,9.658226448205113,1.1103598274752497
1757088779467665400,6.07666552734375,1.2813172826394439,9.65925462220907,1.1078872998818754
1757088779477620500,6.086620361328125,1.2762165984995661,9.660351769796014,1.1042097804129123
1757088779487575600,6.096575439453125,1.2714682349286972,9.66158978715837,1.098830863853544
1757088779497530400,6.1065302734375,1.2661723204776645,9.663153967735171,1.0911707044892012
1757088779507485700,6.116485595703125,1.2600289954170585,9.664934421411155,1.082476160575822
1757088779517439500,6.126439453125,1.2533004178144036,9.66669967751801,1.074493929650262
1757088779527394600,6.13639453125,1.2465646798186003,9.6682077439934,1.0687599160429089
1757088779537349400,6.146349365234375,1.2409190751470625,9.669242932260035,1.0659400363165885
1757088779547304700,6.1563046875,1.236970775912702,9.669798228055239,1.0655000374641268
1757088779557259500,6.166259521484375,1.234607846173644,9.669955464443564,1.0668015485167504
1757088779567214600,6.176214599609375,1.232096594005078,9.67005600220859,1.0688145688395947
1757088779577169700,6.186169677734375,1.2286619433812795,9.670293902617692,1.0705996256254613
1757088779587124500,6.19612451171875,1.2241660932667553,9.670720019075274,1.0719179416824132
1757088779597078500,6.20607861328125,1.2194392839405686,9.671076577427982,1.0740775308690964
1757088779607033600,6.21603369140625,1.216279066343978,9.6711210010916,1.0772378945961594
1757088779616988700,6.22598876953125,1.2146667357765137,9.670881931638718,1.0812048985309899
1757088779626943500,6.235943603515625,1.211972601321712,9.670851536500454,1.0845081047948448
1757088779636898600,6.245898681640625,1.2051949238803237,9.671550624680519,1.0858221830680965
1757088779646853400,6.255853271484375,1.1925465277746319,9.673267365470528,1.084499483096972
1757088779656808700,6.26580859375,1.175128213853389,9.675829909434913,1.0806360126018524
1757088779666763500,6.275763427734375,1.1555654352493583,9.678789343762396,1.0752039045505224
1757088779676717600,6.285717529296875,1.1361692453838885,9.681814829063415,1.0686404543817043
1757088779686672400,6.29567236328125,1.1193102458458393,9.684577279514073,1.061353293048218
1757088779696627700,6.305627685546875,1.1054866684809326,9.686886725500225,1.0547562328707427
1757088779706582500,6.31558251953125,1.0964199302542954,9.688559042626618,1.048849712240696
1757088779716537600,6.32553759765625,1.0927251673895866,9.689540454879403,1.0436163416318596
1757088779726492700,6.33549267578125,1.0929524002742022,9.690006903347372,1.039028648515418
1757088779736447500,6.345447509765625,1.0944819479290395,9.690286889332532,1.0348082543414086
1757088779746401500,6.355401611328125,1.095091019738093,9.69062825011611,1.0309613696549087
1757088779756356400,6.3653564453125,1.0942760500933975,9.691066057011485,1.0277045598160475
1757088779766311700,6.375311767578125,1.0920672149375081,9.691605570715666,1.024952630759403
1757088779776266500,6.3852666015625,1.0886473234914242,9.692269587582349,1.02231906738542
1757088779786221600,6.3952216796875,1.0843547408640384,9.693103700318932,1.018959016367793
1757088779796176400,6.40517626953125,1.0795023323968052,9.694082189962268,1.0148010929707436
1757088779806131700,6.415131591796875,1.074334866631031,9.695127315101027,1.0102997629635035
1757088779816086500,6.42508642578125,1.0692248301409184,9.696145552232862,1.0059167986389248
1757088779826040600,6.43504052734375,1.0648720417588948,9.697029349330068,1.002043172075972
1757088779835995400,6.444995361328125,1.0623362396709621,9.697594581997395,0.9992347635917365
1757088779845950700,6.45495068359375,1.0621046959374099,9.697797995615005,0.9975212376721203
1757088779855905500,6.464905517578125,1.0636753062549977,9.697715578028559,0.9966483272951095
1757088779865860400,6.4748603515625,1.0654970417894423,9.697566524946689,0.9961364322502165
1757088779875815700,6.484815673828125,1.0661811515960842,9.697589321300386,0.9951733593717217
1757088779885770500,6.4947705078125,1.065038045975566,9.697907885730267,0.9933200596552342
1757088779895725600,6.5047255859375,1.0622736958287655,9.698462597003578,0.9908613413915037
1757088779905680600,6.5146806640625,1.0579743181344121,9.699222475460171,0.9880055135689675
1757088779915634700,6.524634765625,1.0533356254830957,9.699978262263535,0.9855493525885045
1757088779925589500,6.534589599609375,1.0493137495558709,9.700607207816839,0.9836416192710399
1757088779935544600,6.544544677734375,1.0465040989626198,9.701041507580875,0.9823318518467247
1757088779945499600,6.554499755859375,1.044723133829981,9.70131447930336,0.9815388017728924
1757088779955454500,6.564454345703125,1.0440867356225847,9.701450088381767,0.9808816530384122
1757088779965409500,6.574409423828125,1.0434572055473923,9.70161141642332,0.9799700180862099
1757088779975364400,6.5843642578125,1.0423306126702576,9.701858669182657,0.9786971486061811
1757088779985319700,6.594319580078125,1.0402695884872228,9.702236270323395,0.9771449507281184
1757088779995273500,6.6042734375,1.0373256439898162,9.702703303313255,0.9756555889531969
1757088780005228500,6.614228515625,1.033839043983072,9.703173258912562,0.9746772454403341
1757088780015183400,6.624183349609375,1.0302917267650364,9.703542676746844,0.9747568134825676
1757088780025138700,6.634138671875,1.0267940939076243,9.703838444823026,0.9754897308669984
1757088780035093500,6.644093505859375,1.0228894146192817,9.70418448178172,0.97616748399809
1757088780045048600,6.654048583984375,1.0189593086287378,9.704553899616002,0.9766080673724412
1757088780055003600,6.664003662109375,1.0150020223703236,9.704981769639254,0.9764710700545459
1757088780064958200,6.673958251953125,1.0114313973419369,9.705413731315732,0.9758728119004517
1757088780074912000,6.683912109375,1.0083252480201423,9.705834587076305,0.9748933724090456
1757088780084867300,6.693867431640625,1.0055389052372425,9.706211603695154,0.9740505649093538
1757088780094822100,6.703822265625,1.0031861315660178,9.70653367525637,0.9732457513324916
1757088780104777200,6.713777099609375,1.0015762852165848,9.706806062456964,0.9722001878023147
1757088780114732000,6.72373193359375,1.000876247188449,9.70703928669095,0.9705750708185136
1757088780124687000,6.73368701171875,1.0008362074390054,9.707234517002105,0.9686681412186473
1757088780134642200,6.74364208984375,1.0010259578574447,9.70744845201373,0.966326254267618
1757088780144597000,6.753596923828125,1.0013692914023995,9.707695704773068,0.9634855509489774
1757088780154552300,6.76355224609375,1.0020097081977875,9.707923083788156,0.9605207828592508
1757088780164506000,6.773506103515625,1.0031995025042444,9.708107792705297,0.9573943944670259
1757088780174461200,6.783461181640625,1.0045911029931158,9.708262106484174,0.954374023732543
1757088780184416000,6.793416015625,1.006057230022922,9.708427526178955,0.9511446864224969
1757088780194371300,6.803371337890625,1.0075885312434285,9.708610481530428,0.9476483687393367
1757088780204326100,6.813326171875,1.0094049330156296,9.708787591663002,0.943902752470225
1757088780214281000,6.823281005859375,1.0113321747511625,9.708989836236833,0.9397300698954612
1757088780224236000,6.833236083984375,1.0132546672463416,9.709206693857908,0.9354230934165417
1757088780234191000,6.843191162109375,1.0149605213161557,9.709416537216304,0.9313877734858542
1757088780244145200,6.853145263671875,1.0168977729890496,9.709557406991719,0.9278064078677445
1757088780254100000,6.863099853515625,1.0190579466976224,9.709642162665725,0.9245227100219577
1757088780264055000,6.873054931640625,1.0214471799217164,9.709686001807452,0.921436580574885
1757088780274010000,6.883010009765625,1.0237501961670816,9.709733932602404,0.9183734666772186
1757088780283965200,6.892965087890625,1.0258331399209797,9.709791215747595,0.9154355865944176
1757088780293920000,6.902919921875,1.0279800157565624,9.709825118017196,0.9126735745351761
1757088780303875300,6.912875244140625,1.0303238754689692,9.709804075229167,0.910238529407978
1757088780313830100,6.922830078125,1.0328002755198626,9.709747961127757,0.9080185152709483
1757088780323785000,6.932784912109375,1.0352590668488293,9.709703537464142,0.9056888302143663
1757088780333739000,6.942739013671875,1.037761185862869,9.709704706507921,0.9027996846441179
1757088780343694300,6.9526943359375,1.0398773012340068,9.709778356266021,0.8995810148585587
1757088780353649200,6.962649169921875,1.041764795481041,9.709866034549474,0.8964300765469669
1757088780363604000,6.97260400390625,1.0436205063503234,9.70991104273498,0.8938052079360932
1757088780373559300,6.982559326171875,1.045101977079734,9.709938515263795,0.8917764785874635
1757088780383514000,6.99251416015625,1.0460353124070911,9.709977678230404,0.8902491228897124
1757088780393469200,7.00246923828125,1.0465708805885165,9.71004197563827,0.888900484759733
1757088780403424000,7.012424072265625,1.0466803323123604,9.710142513403296,0.8876704315081239
1757088780413379000,7.022379150390625,1.046419197158143,9.710281629613041,0.886473769069463
1757088780423333000,7.0323330078125,1.0458828983243553,9.71041606964767,0.88562847735174
1757088780433288200,7.0422880859375,1.0448779590655117,9.710521868109703,0.885662087360397
1757088780443243000,7.052242919921875,1.0438162481181323,9.710586750039457,0.8861875725392252
1757088780453198000,7.062197998046875,1.0424196061279625,9.710672674757241,0.8868832997184246
1757088780463153200,7.072153076171875,1.0405086579401046,9.71084101706147,0.8873029864352195
1757088780473108000,7.08210791015625,1.0387429634418337,9.711035078328848,0.8872441689200699
1757088780483063300,7.092063232421875,1.037744234728068,9.711147306531668,0.887186008992046
1757088780493018000,7.10201806640625,1.0371755679946393,9.71121511107087,0.8871044681884348
1757088780502972200,7.11197216796875,1.0367126266580073,9.711279408478736,0.8869294038824737
1757088780512927000,7.121927001953125,1.0363631556332111,9.71131038813889,0.8870212468843907
1757088780522882300,7.13188232421875,1.0362530463222415,9.711288176307082,0.887377293780446
1757088780532837000,7.141837158203125,1.03624632432051,9.711246675252914,0.8878530215334147
1757088780542792200,7.151792236328125,1.036115683678165,9.71119523732662,0.8885625580422579
1757088780552747000,7.1617470703125,1.0358233496680855,9.711149644619226,0.8894009816277771
1757088780562702000,7.1717021484375,1.035141797144711,9.71116075053513,0.8900772734541446
1757088780572657200,7.1816572265625,1.034266329484433,9.71119757541418,0.8906872951112687
1757088780582612000,7.191612060546875,1.0333900581065565,9.7112361538589,0.891296001594141
1757088780592566000,7.20156591796875,1.0326242613658307,9.711218618202208,0.8923547168668359
1757088780602521000,7.21152099609375,1.0318728584766388,9.711157243403791,0.8939014348521828
1757088780612476200,7.22147607421875,1.0311173639342188,9.711083593645691,0.8955696603253483
1757088780622431000,7.231430908203125,1.0306073685854673,9.710978964227438,0.8972696691762655
1757088780632386300,7.24138623046875,1.0299062345787882,9.710931033432484,0.8986053747594356
1757088780642341000,7.251341064453125,1.028785340790078,9.710967858311534,0.8995106530360877
1757088780652296200,7.261296142578125,1.0273610801406203,9.711031571197509,0.9004320787299424
1757088780662251300,7.271251220703125,1.0259779552191495,9.711082424601912,0.9014652211699634
1757088780672206000,7.2812060546875,1.0249668784804642,9.711056705638766,0.9028965691473334
1757088780682160000,7.29116015625,1.0242512775570154,9.7109357096076,0.9050061086472123
1757088780692115000,7.301114990234375,1.0235519701812417,9.710822896882892,0.9070064886841922
1757088780702070300,7.3110703125,1.022737731188908,9.710738141208887,0.908813757301867
1757088780712025000,7.321025146484375,1.0218730771835893,9.710666245016455,0.9105576052945107
1757088780721980200,7.330980224609375,1.0211045770291238,9.710610130915045,0.9120398797415197
1757088780731935000,7.34093505859375,1.0205689357824623,9.710518945500255,0.9135783413551747
1757088780741890300,7.350890380859375,1.020123091711104,9.710401456600428,0.9153187552817166
1757088780751845000,7.36084521484375,1.019718675628677,9.710247142821549,0.917430925130099
1757088780761799200,7.370799072265625,1.0191537352222948,9.710073539820312,0.9199033796582371
1757088780771754000,7.38075390625,1.0184440525829792,9.70991279630065,0.9223550836592912
1757088780781709300,7.390709228515625,1.017787926761806,9.70976374321878,0.9246665754720568
1757088780791664000,7.4006640625,1.0171638765793294,9.709626380574703,0.926784882800281
1757088780801619000,7.410618896484375,1.016321288275346,9.709505384543538,0.928957550664246
1757088780811574300,7.42057421875,1.0153524432431906,9.709417121738195,0.9309633375287055
1757088780821529000,7.430529052734375,1.0143811870582402,9.709325351801514,0.9329653250008821
1757088780831484200,7.440484130859375,1.013727910781279,9.709168115413188,0.9353178794763982
1757088780841439200,7.450439208984375,1.0137757685109972,9.708911510303617,0.9379301078014075
1757088780851393300,7.460393310546875,1.0142263618227094,9.70858768517673,0.9407649659011512
1757088780861348000,7.47034814453125,1.0151252103585748,9.708202485251427,0.9437737923283129
1757088780871303200,7.48030322265625,1.0160131721742451,9.707806763932108,0.9468775304973125
1757088780881258000,7.490258056640625,1.0167621639106421,9.707405781915783,0.9501755491293966
1757088780891213000,7.500213134765625,1.017589700775966,9.706990771374105,0.9535416645616293
1757088780901168000,7.510168212890625,1.0184888415727764,9.706558809697627,0.9569652092695236
1757088780911123000,7.520123046875,1.0192446283761412,9.70614613724351,0.9603526597507297
1757088780921078300,7.530078369140625,1.0199658553227782,9.7057498314023,0.9635814856041223
1757088780931033000,7.540033203125,1.0210271278787404,9.705324299466609,0.966731766328588
1757088780940987100,7.549987060546875,1.0222665334805845,9.704903443706035,0.9696466308619827
1757088780950942000,7.55994189453125,1.023211486180499,9.704529934218526,0.9723792706962674
1757088780960897300,7.569897216796875,1.023687579259649,9.704218384051323,0.974976666778326
1757088780970852000,7.57985205078125,1.0239306673005222,9.703957102766632,0.977332655319944
1757088780980807200,7.58980712890625,1.0241661565568299,9.703715110704302,0.9794912215933204
1757088780990762200,7.59976220703125,1.0243545918010175,9.703467273423074,0.981749375783652
1757088781000717000,7.609717041015625,1.0247195526558905,9.703206576660275,0.9839462282408028
1757088781010672000,7.619672119140625,1.0259083971142768,9.702826052910089,0.9864310307938605
1757088781020627000,7.629626953125,1.0276927232477813,9.70230056773126,0.9897559374328702
1757088781030581200,7.639581298828125,1.0291033206980675,9.701775667074322,0.9934244698777794
1757088781040536000,7.6495361328125,1.0301399702694267,9.701318570956587,0.996820395926386
1757088781050491100,7.6594912109375,1.0305330612402408,9.700972533997893,0.9997644134890288
1757088781060446000,7.669446044921875,1.0304854227062314,9.700739894285798,1.002081677455455
1757088781070401800,7.67940185546875,1.0302695879984647,9.70054934014976,1.0041367102891205
1757088781080356900,7.68935693359375,1.0299063807092605,9.700374568104744,1.0061815139897168
1757088781090311700,7.699311767578125,1.0292864221800118,9.700256494683027,1.0079475007489322
1757088781100266800,7.709266845703125,1.0285513128384947,9.70019336631894,1.0093236844729632
1757088781110221800,7.719221923828125,1.0276649584580213,9.700144266480207,1.0106743684295565
1757088781120175900,7.72917578125,1.0262528266377746,9.700160633093118,1.011957247846946
1757088781130130700,7.739130615234375,1.024247405099496,9.700255910161138,1.0130781416356562
1757088781140085800,7.749085693359375,1.0217093379892408,9.700404963243008,1.0142176670596004
1757088781150040800,7.759040771484375,1.0189936492897569,9.700522452142835,1.015822837233916
1757088781159996000,7.768995849609375,1.0165328851994127,9.70056921389401,1.0178531740177421
1757088781169950700,7.77895068359375,1.0146096620518714,9.700518360489607,1.0202459874384104
1757088781179905500,7.788905517578125,1.0132506486583501,9.700376906192302,1.022946697764471
1757088781189860900,7.79886083984375,1.0124665125433354,9.70013783673942,1.0259759093925356
1757088781199815700,7.808815673828125,1.012307230328396,9.69981810326576,1.029164841626957
1757088781209769700,7.818769775390625,1.0121670912053435,9.699494278138875,1.0323423026192933
1757088781219724500,7.828724609375,1.0119945841826499,9.699210785022377,1.0351586021490395
1757088781229679900,7.838679931640625,1.0118991609841586,9.69896411678493,1.0375727506186811
1757088781239634700,7.848634765625,1.011501539968699,9.698764210298657,1.0398309048090129
1757088781249589800,7.85858984375,1.010963633699715,9.698561381202936,1.0422332167103885
1757088781259544800,7.868544921875,1.0108681374359876,9.698297761830688,1.0447683612111955
1757088781269500000,7.8785,1.0115116960365325,9.697910223817825,1.0477299144305288
1757088781279454700,7.888454833984375,1.013054468499124,9.697376555332541,1.0511821007110178
1757088781289409500,7.898409423828125,1.0153963554501533,9.696678636196255,1.0553647932231425
1757088781299364900,7.90836474609375,1.0186174363885074,9.695782564139366,1.0604735145390034
1757088781309318700,7.918318603515625,1.022935884109512,9.694687754639983,1.0663036819972098
1757088781319273700,7.928273681640625,1.028001716131717,9.693414081442356,1.0729902470890431
1757088781329228500,7.938228515625,1.0332971921913325,9.69202525743246,1.080438298072666
1757088781339183900,7.948183837890625,1.0384108088780193,9.690595516890287,1.0883153881233185
1757088781349138700,7.958138671875,1.0429535668741912,9.689219552361964,1.096195912240073
1757088781359093800,7.96809375,1.046633716691658,9.687947632730006,1.103910286009684
1757088781369048800,7.978048828125,1.04957619988434,9.686769821122288,1.1114270913805813
1757088781379003600,7.988003662109375,1.0520145329471677,9.68566682831645,1.1187187827587126
1757088781388958700,7.997958740234375,1.0541603128042072,9.684591308039426,1.1259752566929906
1757088781398912800,8.007912841796875,1.0562920641358942,9.683522217503189,1.1331489477146417
1757088781408867800,8.017867919921875,1.0585977837949991,9.682415717566013,1.140430921416357
1757088781418822700,8.02782275390625,1.0610901120673863,9.681315647369622,1.147423629847914
1757088781428777700,8.03777783203125,1.0636181692402809,9.680268184143305,1.1539113113667816
1757088781438732800,8.04773291015625,1.0659244734212756,9.679296708762646,1.1599059486716985
1757088781448687900,8.05768798828125,1.0678531033962964,9.678400636705756,1.1655994841381907
1757088781458642700,8.067642578125,1.0691296261381358,9.677643096336721,1.1707054289750753
1757088781468597800,8.07759765625,1.0695412756789475,9.67699310799539,1.1756977573696523
1757088781478552800,8.087552734375,1.0693326744295657,9.676373514792322,1.1809879727322607
1757088781488507000,8.0975068359375,1.0686752334341407,9.675721188363433,1.1869125404756515
1757088781498461700,8.107461669921875,1.0678160593215376,9.67499813478589,1.1935525630120187
1757088781508416800,8.117416748046875,1.066941103117913,9.674218382585048,1.2006280543562025
1757088781518371800,8.127371826171874,1.066082294331491,9.673402390027046,1.2079372083257882
1757088781528326700,8.13732666015625,1.0653925585016608,9.672632574698328,1.2146982268933206
1757088781538281700,8.14728173828125,1.0646848486237228,9.671906013989448,1.2210920926488935
1757088781548236800,8.15723681640625,1.0638665910433978,9.671285251742601,1.2267201616637409
1757088781558191900,8.16719189453125,1.0626586765583603,9.670832247278094,1.231333062286675
1757088781568146700,8.177146728515625,1.061335026739165,9.670419574823976,1.235691549757123
1757088781578100700,8.187100830078125,1.0599204837661236,9.67007353786528,1.2395993708506226
1757088781588055800,8.197055908203126,1.0583926896769553,9.669818101799487,1.2429030885711312
1757088781598011000,8.207010986328125,1.0570045963194221,9.66961059652865,1.2456924270287155
1757088781607965700,8.216965576171875,1.0560388200271873,9.669415366217493,1.2480363598063586
1757088781617920500,8.22692041015625,1.055256437477842,9.66921779781878,1.2502154574111104
1757088781627875800,8.236875732421876,1.0550908716525882,9.668932551136612,1.2525694731913506
1757088781637830700,8.24683056640625,1.0556954134169965,9.668439799183606,1.25585273264572
1757088781647785700,8.25678564453125,1.0572925464153289,9.667707977777718,1.2601356706619262
1757088781657740800,8.26674072265625,1.0603609940752385,9.666702600127458,1.2652629505477846
1757088781667694800,8.27669482421875,1.0652621370550244,9.665397362747788,1.2710992554858327
1757088781677649700,8.286649658203125,1.072748620352894,9.66377063832879,1.277164108482748
1757088781687604700,8.296604736328124,1.0836714347749947,9.661787940078973,1.2829184342257678
1757088781697559800,8.306559814453125,1.0987601367048918,9.65931307439804,1.2887174758933484
1757088781707515000,8.316514892578125,1.1180818000294268,9.6563852042526,1.2940287340439856
1757088781717469700,8.3264697265625,1.1416291182249785,9.653050506871939,1.2983457204602658
1757088781727424800,8.3364248046875,1.1696129575632512,9.649348145222664,1.3009507883921265
1757088781737379800,8.3463798828125,1.2026713967520744,9.645275781217217,1.3010126015819607
1757088781747334700,8.356334716796875,1.2417644399300216,9.640788406670094,1.2975412722095847
1757088781757289700,8.366289794921874,1.2883240926615893,9.635786652860045,1.2892824162997305
1757088781767243800,8.376243896484375,1.3443879251889883,9.63003320389986,1.274946286302805
1757088781777198800,8.38619873046875,1.4114004372321067,9.623175008568166,1.2541276624187827
1757088781787153700,8.396153564453124,1.4909676026828587,9.614880642953514,1.2253466813534497
1757088781797108700,8.406108642578126,1.5839255801044403,9.604711131116748,1.18790388960056
1757088781807063800,8.416063720703125,1.689113362893462,9.592384148985147,1.141694803872332
1757088781817018600,8.4260185546875,1.8040385497123002,9.577764672002196,1.0873062841460108
1757088781826973700,8.4359736328125,1.9266366092465816,9.560586158186197,1.0264822514794767
1757088781836928800,8.4459287109375,2.055918530458957,9.540359362715483,0.9618355917848646
1757088781846883800,8.4558837890625,2.1916430519394576,9.516480474478005,0.8964878711488098
1757088781856837600,8.465837646484376,2.3302928132168947,9.489097962033748,0.83495839362666
1757088781866792700,8.475792724609375,2.4600609105110167,9.460456389439106,0.7862747344784438
1757088781876747800,8.485747802734375,2.5715812573224306,9.43332989758253,0.7547410937041044
1757088781886702800,8.495702880859374,2.6689623118832704,9.40781843970716,0.7348361505988985
1757088781896657700,8.50565771484375,2.761266209310293,9.382184232234954,0.7214059564657509
1757088781906613000,8.515613037109375,2.852157609590888,9.355459891438484,0.7148300852067768
1757088781916567800,8.52556787109375,2.9343846419006585,9.330258814686536,0.7113595595519989
1757088781926522600,8.535522705078124,2.9981548110216854,9.310591991186142,0.7030923011399806
1757088781936477700,8.545477783203125,3.058458765336871,9.29207667580843,0.6881258373502641
1757088781946432800,8.555432861328125,3.121865069581568,9.272280088448523,0.6701875181429088
1757088781956386800,8.56538671875,3.1855516520723697,9.251724207153917,0.6543948326621204
1757088781966341600,8.575341552734375,3.248096955573559,9.230689017909764,0.6439299911405891
1757088781976296700,8.585296630859375,3.308223799756169,9.209787099656461,0.6370848014209419
1757088781986251800,8.595251708984375,3.364291431675851,9.189734491708874,0.6330266851365566
1757088781996206800,8.605206787109376,3.415533250874281,9.170974846181274,0.6307022607769817
1757088782006161700,8.61516162109375,3.461366781288385,9.153979287716746,0.6276910231970251
1757088782016116700,8.62511669921875,3.5004473303109407,9.139473207980394,0.6223133487466722
1757088782026071800,8.63507177734375,3.5308114889144897,9.128402947911619,0.6131805595465004
1757088782036026600,8.645026611328126,3.556215394762158,9.119269208863377,0.6021766792448238
1757088782045980700,8.654980712890625,3.5806934179365633,9.110309657338261,0.592692848117277
1757088782055935700,8.664935791015624,3.602707973606884,9.102224550560116,0.5834226597404107
1757088782065891000,8.67489111328125,3.6191850611552594,9.096396282798052,0.5722224896816537
1757088782075846100,8.68484619140625,3.6298657373845575,9.093017161753773,0.5581000024354085
1757088782085801200,8.69480126953125,3.6351705657944082,9.091850456061959,0.5424002924676984
1757088782095756000,8.704756103515624,3.635404082289338,9.092684568798541,0.5266173977285623
1757088782105711000,8.714711181640626,3.6315576359942554,9.095068833586573,0.5118004984773695
1757088782115666200,8.724666259765625,3.6245284680098293,9.098640262332559,0.49792698102351274
1757088782125621000,8.73462109375,3.615520401167869,9.102731915560364,0.4885549031747505
1757088782135576300,8.744576416015626,3.6054081724762916,9.106867992451786,0.48615617146994916
1757088782145530000,8.754530029296875,3.595680559188127,9.110566846969723,0.4888974330021068
1757088782155485200,8.764485107421875,3.5877068038299678,9.11335326281786,0.4955403781479224
1757088782165440000,8.77443994140625,3.5813138879224655,9.115313164713978,0.5056235999407246
1757088782175395000,8.78439501953125,3.576377892825007,9.116382839772104,0.5210323641378433
1757088782185350100,8.79435009765625,3.5730768054530024,9.116479285883903,0.541620686397329
1757088782195305200,8.80430517578125,3.5722315868005152,9.115314333757757,0.5662026083376258
1757088782205260000,8.814260009765626,3.574812835465371,9.112571757051349,0.5934235735446214
1757088782215215000,8.824215087890625,3.579813712492585,9.108608114117384,0.6233703835189343
1757088782225170200,8.834170166015625,3.5848689500555393,9.104487234795092,0.6537789657860994
1757088782235125000,8.844125,3.588797813937068,9.101086486440897,0.6790791920635849
1757088782245079000,8.8540791015625,3.592391454514861,9.098276689717173,0.697492216110602
1757088782255034000,8.8640341796875,3.59642173294425,9.095752724197506,0.709534536081925
1757088782264989200,8.8739892578125,3.6006153852418064,9.093550830239057,0.7164293370969593
1757088782274944000,8.883944091796875,3.6040211020320654,9.092011199581622,0.7188759265314787
1757088782284899300,8.8938994140625,3.6049212657421825,9.091821814489364,0.7167306581310927
1757088782294854100,8.903854248046875,3.6022502929672595,9.093429249686002,0.7097253824789077
1757088782304809200,8.913809326171876,3.594416822862625,9.097404583057761,0.6983855847537517
1757088782314764000,8.923763916015625,3.5821295882195234,9.103385411033035,0.6834457897752523
1757088782324719000,8.933718994140625,3.566182369764149,9.11092866601944,0.6660987144593149
1757088782334674200,8.943674072265624,3.5484751558989283,9.119109634387492,0.6484697534620761
1757088782344628000,8.9536279296875,3.530924593900144,9.127049195215106,0.6324070919334888
1757088782354583000,8.9635830078125,3.5136651238024235,9.134663761872053,0.6184332193776965
1757088782364538000,8.9735380859375,3.495909102359414,9.1421479801476,0.6083936905961483
1757088782374493200,8.9834931640625,3.4753669573292134,9.150270496326684,0.6039741936534643
1757088782384448000,8.993447998046875,3.45123117172122,9.159365656930207,0.6044955506464466
1757088782394403300,9.0034033203125,3.423477487877011,9.16933935393393,0.6110443147027864
1757088782404358100,9.013358154296874,3.393412019959092,9.179666102159024,0.623570290005207
1757088782414313000,9.02331298828125,3.362057681274414,9.190121445199846,0.6392268549509346
1757088782424268300,9.033268310546875,3.3301334337472914,9.200663882002234,0.6545015809722244
1757088782434223000,9.04322314453125,3.2978988050967453,9.211351280233263,0.6672515377562492
1757088782444178200,9.05317822265625,3.2652240314632652,9.22237945472598,0.675592007534951
1757088782454132000,9.063132080078125,3.2329031858339903,9.233432179138063,0.6800493522699922
1757088782464087300,9.07308740234375,3.201960058298707,9.244116070237755,0.6812981102220713
1757088782474042000,9.0830419921875,3.171724202249944,9.254760213848948,0.6782210408642888
1757088782483997200,9.0929970703125,3.1417452435716986,9.265579714027046,0.6699709527827798
1757088782493952000,9.102951904296875,3.1143165538981554,9.275712985506653,0.6577005231440067
1757088782503907300,9.1129072265625,3.0889599943235515,9.285535875862836,0.6384129812847823
1757088782513862100,9.122862060546876,3.0627102853015065,9.295732275706529,0.6160830029897392
1757088782523817000,9.13281689453125,3.032814620992541,9.30701530174315,0.5932183332961052
1757088782533772300,9.142772216796875,2.9963270110726357,9.320247708281874,0.5704205182936042
1757088782543727000,9.15272705078125,2.954114886026084,9.334854910305141,0.5514005047967657
1757088782553681200,9.16268115234375,2.9063439578086134,9.350774363970755,0.5353486203905194
1757088782563636000,9.172635986328125,2.85506326790452,9.367356080937386,0.5211825862634927
1757088782573591300,9.18259130859375,2.8013594425067305,9.3842616230309,0.5083581394711509
1757088782583546000,9.192546142578125,2.7450881047084925,9.40153015321791,0.4960794169280678
1757088782593501200,9.202501220703125,2.685336231318116,9.419402494516968,0.483977914115414
1757088782603456000,9.2124560546875,2.6209289333373307,9.438205979186296,0.4705327050762251
1757088782613411000,9.2224111328125,2.5503908775165676,9.45832113097608,0.45396019432935864
1757088782623366100,9.2323662109375,2.475286244432628,9.479147645905613,0.4348617453014478
1757088782633321000,9.242321044921875,2.399307751123607,9.499506543323397,0.41602465062346305
1757088782643276300,9.2522763671875,2.3248959226094184,9.518648466166853,0.4007077659608796
1757088782653230000,9.26222998046875,2.253185315877944,9.53629810462594,0.3905957929976284
1757088782663185200,9.27218505859375,2.183393402249366,9.552743043470382,0.3850771026413887
1757088782673140000,9.282139892578124,2.1125049255557355,9.568790507429838,0.3820610427558422
1757088782683095300,9.29209521484375,2.038564367815107,9.584904606884717,0.37980171952173114
1757088782693050000,9.302050048828125,1.9623805611923335,9.600912323355674,0.3767734577417373
1757088782703005200,9.312005126953125,1.8852556743271647,9.616532501813769,0.3721446654299274
1757088782712960300,9.321960205078126,1.8090346044339238,9.631420274344086,0.3653802493289113
1757088782722915000,9.3319150390625,1.7342377221249043,9.645386840376258,0.359622197258845
1757088782732870100,9.3418701171875,1.661368593008071,9.658234046989678,0.3588507744949311
1757088782742825000,9.351824951171874,1.5911144686952232,9.669876553988455,0.36365196423158047
1757088782752780300,9.3617802734375,1.5244759045310317,9.680213239085674,0.3739498516883701
1757088782762734000,9.371734130859375,1.4617729262501,9.689311906820535,0.3883968947138637
1757088782772689200,9.381689208984374,1.4021874954678117,9.697443190827965,0.40477428474742916
1757088782782644000,9.39164404296875,1.346673113516718,9.704636317202448,0.4206188830785453
1757088782792599300,9.401599365234375,1.2949338661901653,9.711040339025855,0.4350042955772951
1757088782802554000,9.41155419921875,1.2457936954461037,9.7169603767246,0.44614853419773276
1757088782812509200,9.42150927734375,1.1976347908243536,9.722727269688248,0.45233255659490823
1757088782822464300,9.43146435546875,1.1473538525473326,9.72865665973723,0.4552091349445283
1757088782832419000,9.441419189453125,1.0953731976803391,9.734514153593778,0.458046404197067
1757088782842374100,9.4513740234375,1.0394792418271304,9.740506087484956,0.46089613107237964
1757088782852329000,9.461328857421876,0.980494407286495,9.746447167971729,0.4644991605330258
1757088782862284300,9.4712841796875,0.9248798528965562,9.751448921781778,0.47352224228102713
1757088782872238000,9.481238037109375,0.8742294967852532,9.755328978085517,0.48955173219237474
1757088782882193200,9.491193115234376,0.825913209644705,9.758467860633134,0.5104331191143021
1757088782892148000,9.50114794921875,0.7769408697482199,9.761206345686317,0.534398516591452
1757088782902103300,9.511103271484375,0.7272962566133588,9.763602300912142,0.5599133354676887
1757088782912058000,9.52105810546875,0.675795494217798,9.765763862860203,0.5861284846330062
1757088782922013000,9.531012939453126,0.6222482476212083,9.767667066133022,0.6130873283050954
1757088782931968300,9.54096826171875,0.5681900558277965,9.769148244601487,0.6413326681237668
1757088782941923000,9.550923095703125,0.5147211351644247,9.770119135460257,0.6709768418896943
1757088782951878100,9.560878173828126,0.4626513407092541,9.77060078149736,0.7012062681976705
1757088782961833200,9.570833251953125,0.4109696687888354,9.770701319262384,0.7313405635681003
1757088782971788300,9.580788330078125,0.3579059313928708,9.77056161853075,0.7605265452377498
1757088782981742000,9.5907421875,0.3018802571850829,9.77022727200985,0.7886115068629383
1757088782991697200,9.600697265625,0.2442750039019622,9.769506556519865,0.816985514562577
1757088783001652200,9.61065234375,0.18651951022688298,9.768280229595304,0.8463320936214178
1757088783011607300,9.620607177734374,0.1274517283768393,9.766426710683106,0.8780869028657674
1757088783021562000,9.63056201171875,0.06807134148024488,9.763824419230222,0.9129507109761238
1757088783031517000,9.640516845703125,0.008792048900280496,9.760204475167393,0.953273661275208
1757088783041472300,9.65047216796875,-0.049601025154883974,9.755429515850544,0.9997678475551307
1757088783051427000,9.660427001953124,-0.10666216619051992,9.749445765265822,1.0522980260636656
1757088783061382100,9.670382080078125,-0.16266820411607621,9.742314598211646,1.1096115663912147
1757088783071336700,9.680336669921875,-0.21749677749378604,9.734133045321702,1.170351793231815
1757088783081291800,9.690291748046874,-0.27091115495832635,9.725100428560376,1.2326423913195728
1757088783091245600,9.70024560546875,-0.32260245322361586,9.715601947852969,1.293592242322862
1757088783101200600,9.71020068359375,-0.37395708514675496,9.70605086017549,1.350222330430895
1757088783111155700,9.72015576171875,-0.4251224415754899,9.696877958160638,1.400076640793681
1757088783121110800,9.73011083984375,-0.4749926436271518,9.688310036301612,1.4427169281244276
1757088783131065600,9.740065673828125,-0.5213097928397357,9.680252402052282,1.4803200980708002
1757088783141020700,9.750020751953125,-0.5617823807425797,9.672550157111882,1.5154381732031703
1757088783150975700,9.759975830078124,-0.5956111101841554,9.665092242321371,1.5497227201208472
1757088783160930600,9.7699306640625,-0.6244551830809563,9.657883918377756,1.58294738272205
1757088783170885600,9.7798857421875,-0.6503368625082075,9.651082421669363,1.6137174917779862
1757088783180840700,9.7898408203125,-0.6738347155388444,9.644590721562505,1.642617276917398
1757088783190795800,9.799795654296876,-0.6945503905050456,9.638511109387874,1.669457206917554
1757088783200749600,9.80974951171875,-0.7098433828353882,9.632845338711142,1.6955284906327723
1757088783210704600,9.81970458984375,-0.7163125057842582,9.627761167314649,1.721478632186353
1757088783220659700,9.82965966796875,-0.7139149431232362,9.623156888389587,1.7480140262819825
1757088783230614800,9.83961474609375,-0.7023452821649611,9.619117257609963,1.774731060554832
1757088783240569600,9.849569580078125,-0.6799765792947262,9.616111061531305,1.799560089123994
1757088783250524700,9.859524658203124,-0.6473251134715974,9.614805239629744,1.8184872001729904
1757088783260479700,9.869479736328126,-0.6062868179773911,9.61582172319591,1.8272364699482917
1757088783270434600,9.8794345703125,-0.5569963885750622,9.618741410034895,1.8275581031180916
1757088783280390000,9.889389892578125,-0.49360696239992974,9.62363561181724,1.8199907366037367
1757088783290344700,9.8993447265625,-0.41107484619636087,9.630324880322814,1.805060147845
1757088783300299500,9.909299560546875,-0.30920649015363305,9.638223524618148,1.7830919155344367
1757088783310253600,9.919253662109375,-0.1901056250853464,9.646865096235274,1.7527846016846595
1757088783320209000,9.929208984375,-0.05826535659309011,9.655963763970137,1.7115348919294773
1757088783330163700,9.939163818359376,0.08120047487416304,9.665115623196959,1.6581085682988166
1757088783340118500,9.949118408203125,0.22770364393256604,9.673419341161846,1.5948359734363853
1757088783350073600,9.959073486328125,0.3839628943217918,9.679633977892994,1.525658830705285
1757088783360028700,9.969028564453126,0.5551835304668172,9.681552963256836,1.4593373696662484
1757088783369983700,9.978983642578125,0.7384558024007827,9.677761169758439,1.4021378111071883
1757088783379938600,9.9889384765625,0.9159924898248165,9.66934580811262,1.3546525679633021
1757088783389894000,9.998893798828124,1.0691529339484869,9.659507135665416,1.311963326924294
1757088783399848700,10.0088486328125,1.1935213641561566,9.65088602231443,1.2674037619687617
1757088783409803500,10.018803466796875,1.2954193116195498,9.644198507374524,1.2172648625109344
1757088783419757600,10.028757568359374,1.3829700231701134,9.638689388564229,1.1633798353273421
1757088783429713000,10.038712890625,1.464959301201254,9.632745385468006,1.111080104573816
1757088783439667700,10.048667724609375,1.5480596092142165,9.625701312175392,1.0581861342541874
1757088783449622500,10.05862255859375,1.630766972386837,9.618097266912459,1.001591263590008
1757088783459577600,10.06857763671875,1.7123313030041754,9.610063013538717,0.9407488915491848
1757088783469532700,10.07853271484375,1.79505883218199,9.60095966962874,0.8773399569559842
1757088783479487700,10.08848779296875,1.88447212273404,9.589066987261175,0.8178861166641116
1757088783489442600,10.098442626953124,1.9849102267779408,9.57279506689608,0.76948967695944
1757088783499397600,10.108397705078126,2.0981467298574743,9.551397474080323,0.7341499219004064
1757088783509352700,10.118352783203125,2.224340475796163,9.524669626152514,0.70948777433075
1757088783519307500,10.1283076171875,2.361417434798926,9.49310369054377,0.6892720117107033
1757088783529261600,10.138261474609376,2.5042417052820323,9.458069202041626,0.6663906100779772
1757088783539216600,10.148216552734375,2.6472312493294474,9.420876658722758,0.6400347372677176
1757088783549171700,10.158171630859375,2.7871324719727038,9.382232163029908,0.6132011639431119
1757088783559126500,10.16812646484375,2.9228011716127393,9.342717898765207,0.584150900949724
1757088783569081900,10.178081787109376,3.0536943274140356,9.30289442242086,0.5490694315006956
1757088783579036700,10.18803662109375,3.1774250442400573,9.263862973237037,0.5051750524556264
1757088783588991700,10.19799169921875,3.2898283113658424,9.227102391594649,0.4560651307193562
1757088783598946600,10.207946533203126,3.3942677600055933,9.191398625528812,0.4092573119129985
1757088783608901600,10.217901611328125,3.4978660816460847,9.154060536259411,0.37212702017538246
1757088783618856700,10.227856689453125,3.604538111643493,9.11350173137784,0.3489683725038543
1757088783628811500,10.2378115234375,3.7130578153342007,9.070331282693147,0.33567934040706604
1757088783638765600,10.247765625,3.812154149380326,9.02949950608909,0.3255995161477476
1757088783648720600,10.257720703125,3.8972327717289326,8.993056319832801,0.326995281355083
1757088783658675700,10.26767578125,3.9685654850587246,8.961385170283913,0.3383167762385681
1757088783668630500,10.277630615234376,4.024882415564358,8.935544042062759,0.35603268486689776
1757088783678585900,10.2875859375,4.064633703455328,8.916625406581163,0.37809129887465387
1757088783688540700,10.297540771484375,4.087930407890677,8.904813388234377,0.4044233889505267
1757088783698495700,10.307495849609374,4.094993478144705,8.900225475922227,0.43291232826672493
1757088783708450600,10.317450439453125,4.086306313820183,8.902731905785203,0.4624459543302655
1757088783718405600,10.327405517578125,4.0614562424629925,8.912564733013511,0.49105844696089623
1757088783728360700,10.337360595703124,4.020393287451565,8.929594778269529,0.5187985406711697
1757088783738315500,10.3473154296875,3.9647719379946587,8.952760549801587,0.5468543127344921
1757088783748269600,10.35726953125,3.897388839073479,8.980425970840454,0.5768120459616184
1757088783758224600,10.367224609375,3.820190448580682,9.011544747203589,0.6071208576487377
1757088783768179700,10.3771796875,3.7342239374816417,9.045504299950599,0.6362828373882919
1757088783778134500,10.387134521484375,3.641997196944058,9.08108648546338,0.6634318333376199
1757088783788089900,10.39708984375,3.546954229941964,9.116851626327634,0.6873991305109113
1757088783798044700,10.407044677734374,3.4529192709386347,9.151380503395199,0.7070876543864607
1757088783807999500,10.41699951171875,3.3647029350861906,9.182915459343791,0.7233348787017166
1757088783817954800,10.426954833984375,3.2872862256675957,9.209721048682928,0.7383631556812673
1757088783827909600,10.43690966796875,3.2267613220781084,9.229924463278055,0.75291453586407
1757088783837864700,10.44686474609375,3.1902529616311193,9.241649387863278,0.7645659568216652
1757088783847819500,10.456819580078125,3.1828195967599746,9.243542654263972,0.7726066399361938
1757088783857773800,10.46677392578125,3.2049539794176813,9.235556331685185,0.7766378682136535
1757088783867728600,10.476728759765624,3.25062121335417,9.219723971781134,0.7749691312838345
1757088783877683700,10.48668359375,3.3076068369016047,9.20005539471507,0.7675515485037118
1757088783887638500,10.496638427734375,3.365705097866058,9.18010215548873,0.7537702028453349
1757088783897593900,10.50659375,3.419869234251976,9.161410314500332,0.7371651050031185
1757088783907548700,10.516548583984376,3.4682767068073153,9.144414171513915,0.721895347417891
1757088783917503500,10.52650341796875,3.510456098628044,9.129198482203483,0.7105266889244317
1757088783927458800,10.536458740234375,3.542975389438867,9.116867408418655,0.7074262386910617
1757088783937413600,10.54641357421875,3.559503914913535,9.109981156036257,0.7131522151224314
1757088783947368700,10.55636865234375,3.5635645884811877,9.107336779007316,0.7264955346897244
1757088783957323800,10.56632373046875,3.563769463403523,9.105918728902935,0.7430921569645405
1757088783967277800,10.57627783203125,3.562249414229393,9.105514824277162,0.7552251508940011
1757088783977232600,10.586232666015626,3.556621929736435,9.107914871156215,0.7527925169195979
1757088783987187700,10.596187744140625,3.541877072808146,9.11534414437413,0.7321190005946904
1757088783997142500,10.606142578125,3.51200186676532,9.12935454954803,0.700805797637999
1757088784007097600,10.61609765625,3.4659061782836913,9.149299605467915,0.6694813426349312
1757088784017052700,10.626052734375,3.4163729165688155,9.169480808231233,0.6476258499838411
1757088784027007500,10.636007568359375,3.3793528072074053,9.184341108232736,0.6310660525880754
1757088784036962800,10.645962890625,3.359679553966224,9.192945270448922,0.6105153589252382
1757088784046917600,10.655917724609376,3.349682768347859,9.19833982296884,0.583559291732125
1757088784056872700,10.665872802734375,3.339690366643667,9.203639098420739,0.5566786278627812
1757088784066827800,10.675827880859375,3.3245901204064485,9.21014482705295,0.5391711012881248
1757088784076781600,10.685781494140626,3.3042487586453557,9.21784765651524,0.5325175251504406
1757088784086736600,10.695736572265625,3.2792931810870765,9.226827666306495,0.5312797635164112
1757088784096691700,10.705691650390625,3.242566793975234,9.23963103377819,0.5341790286218747
1757088784106646500,10.715646484375,3.183519853983819,9.259877702993155,0.5387472498528659
1757088784116601600,10.7256015625,3.093998280751705,9.289784765478968,0.5453593249363824
1757088784126556700,10.735556640625,2.9737843398749826,9.328556686943768,0.5523103496506809
1757088784136511500,10.745511474609375,2.831453844258189,9.372478246256708,0.5566873591585084
1757088784146466800,10.755466796875,2.681660757675767,9.416461180368065,0.5561697284925728
1757088784156421600,10.765421630859375,2.541288702650368,9.455530038952826,0.5524402231080457
1757088784166376700,10.775376708984375,2.424547406320274,9.48640799229741,0.5477419457565993
1757088784176331500,10.78533154296875,2.3334132833249868,9.509525248512626,0.5426865985957905
1757088784186286600,10.79528662109375,2.2582309088297188,9.527822537225484,0.5397705284859985
1757088784196240600,10.80524072265625,2.186748996287584,9.54476490419805,0.5347729393944144
1757088784206195700,10.81519580078125,2.1090796272821724,9.562656534719467,0.5270434776535258
1757088784216150500,10.825150634765626,2.0215818149626252,9.581976152217388,0.5189597956474871
1757088784226105600,10.835105712890625,1.9189229661293328,9.603371406945586,0.5132066024156287
1757088784236060700,10.845060791015625,1.8046632574819028,9.625494391426443,0.5132726899217814
1757088784246015500,10.855015380859374,1.6929856742821632,9.645296239483356,0.5219626307252794
1757088784255970800,10.864970703125,1.5945451737962661,9.661265962031482,0.5364093814898282
1757088784265925600,10.874925537109375,1.5077749450989066,9.67426865146756,0.5527301459653303
1757088784275880400,10.88488037109375,1.4264793484203517,9.685527127584814,0.571037006224133
1757088784285835800,10.894835693359376,1.3469545608066023,9.695801268839835,0.5895341283580288
1757088784295790600,10.90479052734375,1.2615756403371692,9.706300451022386,0.6054283379845321
1757088784305745700,10.91474560546875,1.1679783420987426,9.717195939046144,0.6182953452769666
1757088784315699500,10.924699462890626,1.070240875315666,9.727642514258623,0.63081258928366
1757088784325654800,10.93465478515625,0.9699778355777263,9.737296477788686,0.6438662782546133
1757088784335609600,10.944609619140625,0.8720216845426708,9.745319625246525,0.662345718601346
1757088784345564700,10.954564697265624,0.7743519492335617,9.75178034569323,0.6881575476627797
1757088784355519500,10.96451953125,0.6740645057067275,9.756957456070184,0.7195918927811086
1757088784365474800,10.974474853515625,0.5731976548567413,9.76054817403853,0.7573292105011642
1757088784375429600,10.9844296875,0.471975451230444,9.76252210446,0.8004908913575113
1757088784385384400,10.994384521484376,0.3702882239082828,9.762924255520105,0.8476946141462772
1757088784395339800,11.00433984375,0.2696337736999616,9.761714295208453,0.8981187602862715
1757088784405294600,11.014294677734375,0.1723572572258301,9.758900406831502,0.9510852113202214
1757088784415249700,11.024249755859374,0.08071055419906042,9.754679574266076,1.0050298597365617
1757088784425203500,11.034203369140625,-0.005944684087057248,9.749365685766934,1.0584091293551028
1757088784435158800,11.04415869140625,-0.08861592962928116,9.743228205925226,1.1099737507671117
1757088784445113600,11.054113525390624,-0.168320366392564,9.7364115116477,1.159464269318804
1757088784455068700,11.064068603515626,-0.24599585461150852,9.728825002041459,1.2082323918800801
1757088784465023500,11.0740234375,-0.31930732066836204,9.720445880752802,1.2575262188158929
1757088784474978600,11.083978515625,-0.3836928086761385,9.711314479792117,1.3090297576904295
1757088784484933600,11.09393359375,-0.43507462086714804,9.701898416671156,1.3617127156078814
1757088784494888400,11.103888427734375,-0.47443979551736265,9.692606272190808,1.4137556220561265
1757088784504843800,11.11384375,-0.5037089619584382,9.683985158839821,1.4618794553644954
1757088784514798600,11.123798583984374,-0.5245942944031209,9.676419107499719,1.5040272830031811
1757088784524753700,11.133753662109376,-0.5369438902253285,9.670070030733942,1.5400659801118075
1757088784534708700,11.143708740234375,-0.5410921324785799,9.664747374406456,1.5717042503044008
1757088784544662800,11.153662841796875,-0.539906210629642,9.66015303235352,1.600109968316555
1757088784554617600,11.16361767578125,-0.5357216549539938,9.656092358785868,1.625816218111664
1757088784564572700,11.17357275390625,-0.5302226922115311,9.652464815938472,1.648995287516713
1757088784574527700,11.18352783203125,-0.5257265133034438,9.649311320343614,1.6687746314808725
1757088784584482600,11.193482666015624,-0.5248061470555141,9.646741762116552,1.6838519352339207
1757088784594437600,11.203437744140626,-0.5272582163827494,9.644739190122484,1.694525743331015
1757088784604392400,11.213392333984375,-0.5306411368193105,9.643361472028493,1.7012882232032716
1757088784614347800,11.22334765625,-0.5329357870951295,9.642522683116793,1.7053258081562817
1757088784624302600,11.233302490234376,-0.5324795677602291,9.641693831077218,1.710149136659503
1757088784634257700,11.243257568359375,-0.5239213635776192,9.640852119556069,1.7175170350790023
1757088784644212700,11.253212646484375,-0.5035551231035963,9.640445876842737,1.7258688299693166
1757088784654167600,11.26316748046875,-0.4713704345420003,9.640456982758641,1.7348711977228521
1757088784664121600,11.27312158203125,-0.4241599532188847,9.640640522632003,1.745993334109336
1757088784674076700,11.28307666015625,-0.35844270515069365,9.641741177350282,1.754641627728194
1757088784684031700,11.29303173828125,-0.2753259574595839,9.644218965640663,1.7560257755629718
1757088784693986600,11.302986572265626,-0.17526298860469833,9.648367902013659,1.7460384884253144
1757088784703941600,11.312941650390625,-0.059761408403702074,9.653454996019601,1.7255732080236077
1757088784713896400,11.322896484375,0.07269692348823882,9.658721538245677,1.69534611980319
1757088784723851800,11.332851806640624,0.22357986026713622,9.663487729734182,1.65450265276134
1757088784733806600,11.342806640625,0.38931068509053435,9.66711059640646,1.6018131189726292
1757088784743761700,11.35276171875,0.5656615602634847,9.668951255837083,1.536810777708143
1757088784753716700,11.362716796875,0.7514035467792302,9.66733213020265,1.4657625804081558
1757088784763671600,11.372671630859376,0.9496966065060347,9.659698274323343,1.399530112826824
1757088784773626600,11.382626708984375,1.1593001647982746,9.644777768567204,1.3433825475387275
1757088784783581700,11.392581787109375,1.3717837355062366,9.624081602019071,1.2905952524639666
1757088784793535700,11.40253564453125,1.5782690156474708,9.600161797249317,1.2313960445202887
1757088784803490600,11.412490478515625,1.7736119933970271,9.574158756464719,1.1662472805224358
1757088784813445600,11.422445556640625,1.9535675785310564,9.546785011848806,1.1012806681584566
1757088784823400700,11.432400634765624,2.1169781254470346,9.518829083430767,1.0395709386985748
1757088784833355800,11.442355712890626,2.267380429968983,9.490909979891777,0.975713821946457
1757088784843310600,11.452310546875,2.4038396954648196,9.463661322960258,0.9116269880916923
1757088784853265400,11.462265380859375,2.5366458452805873,9.435724683764576,0.8384045154925436
1757088784863220700,11.472220703125,2.6691619261085986,9.406508526152372,0.7506991979021579
1757088784873175600,11.482175537109375,2.8034295267790554,9.374195571568608,0.6600288199611007
1757088784883130600,11.492130615234375,2.943896274350583,9.335904127097129,0.5871638920953497
1757088784893085700,11.502085693359374,3.091804862360656,9.290745134943723,0.5414508827883749
1757088784903040800,11.512040771484376,3.244823340730369,9.239542770972847,0.521908781646192
1757088784912994600,11.52199462890625,3.4014866053432224,9.183128809833526,0.5200034960141405
1757088784922949600,11.53194970703125,3.5577550254195924,9.123668320605159,0.5210206006348133
1757088784932904700,11.54190478515625,3.7062422901004553,9.064285572788119,0.5223572560660541
1757088784942859800,11.55185986328125,3.8452199681580064,9.005939766803383,0.5269704124173149
1757088784952814600,11.561814697265625,3.977781641693413,8.947894405069947,0.5317886994192377
1757088784962769700,11.571769775390624,4.104828643460571,8.890313738238811,0.5320598810434342
1757088784972724700,11.581724853515626,4.222026743647456,8.83548441594243,0.5282912492249161
1757088784982679600,11.591679443359375,4.324924515803158,8.786141416102648,0.5187542996706441
1757088784992634600,11.601634521484375,4.41170088198036,8.743858856168389,0.5022147778779268
1757088785002589700,11.611589599609376,4.481389627495408,8.70956086524725,0.48068172211423515
1757088785012544500,11.62154443359375,4.535758638803661,8.682716112941502,0.45572252782676365
1757088785022499600,11.63149951171875,4.574016181005537,8.663961728110909,0.4295360202340409
1757088785032454700,11.64145458984375,4.595604912479222,8.653730841475724,0.40465818408709014
1757088785042409700,11.65140966796875,4.598410033027827,8.653447348359226,0.37797965519372373
1757088785052363500,11.661363525390625,4.581572587734461,8.663218800789117,0.3581138750551268
1757088785062318600,11.671318603515624,4.549294996725022,8.680530585595966,0.3503196775149554
1757088785072273400,11.6812734375,4.504595146515965,8.703819106724858,0.3500410797692835
1757088785082228500,11.691228515625,4.443268863415718,8.735081090950965,0.3550897779935971
1757088785092183300,11.701183349609375,4.364062640231848,8.77457489694953,0.3635718847326934
1757088785102138600,11.711138671875,4.270253891199827,8.820134286597371,0.3748865114839747
1757088785112093400,11.721093505859375,4.165753360022604,8.869338170227408,0.38953276687599714
1757088785122048300,11.73104833984375,4.0525174414649605,8.92090410681367,0.4061266492044553
1757088785132003300,11.74100341796875,3.9314252564489838,8.974069879812001,0.4247126551982015
1757088785141958400,11.75095849609375,3.802819627062976,9.02834565987885,0.4448880127426237
1757088785151913500,11.76091357421875,3.668300974240899,9.08276698589623,0.4661712584637105
1757088785161868300,11.770868408203125,3.5299405512988566,9.1360666144073,0.4921484706873074
1757088785171823600,11.78082373046875,3.3939623473182317,9.185795398694276,0.5220822019843384
1757088785181778400,11.7907783203125,3.2696535383433103,9.228824393081664,0.5554854725554585
1757088785191732500,11.800732421875,3.1696587941527365,9.261341930326818,0.5926170794673263
1757088785201687300,11.810687255859374,3.1110195581793785,9.278587664160131,0.6322727980293333
1757088785211642600,11.820642578125,3.1074870001390575,9.27711700708568,0.6701185445599258
1757088785221597400,11.830597412109375,3.15611191483736,9.258697553297877,0.6970587931293993
1757088785231552300,11.84055224609375,3.2395214349299666,9.229179197868705,0.7058025099467485
1757088785241507600,11.850507568359374,3.3366543599486347,9.194929137742518,0.7002973366592079
1757088785251462400,11.86046240234375,3.427343515655398,9.162740686321259,0.6840478473216295
1757088785261417500,11.87041748046875,3.504055291675031,9.135462803295255,0.6597902619648724
1757088785271372300,11.880372314453124,3.5684567444369195,9.112318659073114,0.6341567851450294
1757088785281327400,11.890327392578126,3.6250802566736935,9.091174748757481,0.6162018801290542
1757088785291282400,11.900282470703125,3.6705078366354105,9.073287794411183,0.6109101669291034
1757088785301237200,11.9102373046875,3.7000977959960695,9.06116656398475,0.612306041734293
1757088785311192600,11.920192626953124,3.717947340941429,9.053605188819766,0.6160126411672682
1757088785321147400,11.9301474609375,3.731402742581069,9.048034695211053,0.6164975020747632
1757088785331102500,11.9401025390625,3.7385324483305213,9.04602277086675,0.6026935792583972
1757088785341056300,11.95005615234375,3.7286888074472544,9.05264598839879,0.5628818664170802
1757088785351011600,11.960011474609376,3.686176530410349,9.073599929100274,0.5022537947140634
1757088785360966400,11.96996630859375,3.604658815413713,9.109348118829727,0.44338232088740914
1757088785370921500,11.97992138671875,3.506903374582529,9.149061705058813,0.4082613231455907
1757088785380876300,11.989876220703126,3.425844509269297,9.180446438881754,0.3916040567247197
1757088785390831400,11.999831298828125,3.3778193140298125,9.198805102393031,0.3777196160180494
1757088785400786400,12.009786376953125,3.3611759300038218,9.20540610809326,0.3651820964083075
1757088785410741200,12.0197412109375,3.367279799836874,9.203253898495435,0.36325065342169255
1757088785420696600,12.029696533203126,3.386623090471327,9.195625887835025,0.3763285269858315
1757088785430651400,12.0396513671875,3.406679497811198,9.187144475215673,0.4015713970528915
1757088785440606500,12.0496064453125,3.4155618924468754,9.182505124977231,0.4311455743225291
1757088785450561500,12.0595615234375,3.401118648813665,9.18664821613133,0.4563668536122888
1757088785460516400,12.069516357421875,3.34901962826401,9.204847305166721,0.4746138734426349
1757088785470471400,12.079471435546875,3.2512712016955017,9.239175691226125,0.48711829450037325
1757088785480426200,12.08942626953125,3.1129119477972385,9.286334332764149,0.49413562591653315
1757088785490380500,12.099380615234375,2.9456396108865737,9.340513666719197,0.4984023434503004
1757088785500335400,12.10933544921875,2.761833780065179,9.396424354511499,0.4998785900153219
1757088785510290400,12.11929052734375,2.576794608056545,9.449360410407184,0.49002362402044236
1757088785520245200,12.129245361328126,2.417147797588259,9.492682250261307,0.46559758676160123
1757088785530200600,12.13920068359375,2.3093489555180073,9.520804767417907,0.43769872229304163
1757088785540155400,12.1491552734375,2.248329108018428,9.536137945628166,0.42130693840794264
1757088785550110500,12.1591103515625,2.2017272235803307,9.547127541676163,0.41849210018292066
1757088785560065500,12.1690654296875,2.145224853505194,9.559933247235417,0.41966055944040415
1757088785570020400,12.179020263671875,2.073195828474313,9.575896540042757,0.41764987720511854
1757088785579975400,12.188975341796874,1.98652979080379,9.59452116101384,0.4113483659081161
1757088785589930500,12.198930419921876,1.8895261912532149,9.614270402100681,0.4073235673714429
1757088785599885600,12.208885498046875,1.7894535595208405,9.633160396009684,0.41286783056035636
1757088785609840400,12.21884033203125,1.693623241533339,9.649844404307007,0.42724648452475666
1757088785619795200,12.228795166015624,1.603521968717128,9.664362759003042,0.4463148672079667
1757088785629750500,12.23875048828125,1.5156326728619633,9.677558340662717,0.4670069055702537
1757088785639704600,12.24870458984375,1.4308191311903298,9.689482587212323,0.4868832436354831
1757088785649659400,12.258659423828124,1.3503423035487532,9.699995797920227,0.5069858282046392
1757088785659614200,12.2686142578125,1.270619070753455,9.709815181145071,0.5247973426945507
1757088785669569500,12.278569580078125,1.19110692342557,9.719057056742907,0.5399825638014822
1757088785679524400,12.2885244140625,1.1139211001534015,9.727321027219295,0.5557125593096017
1757088785689479400,12.2984794921875,1.0378491564072667,9.734810506191849,0.5715930326716974
1757088785699434500,12.3084345703125,0.9629266749572009,9.741565241149067,0.5874259770976379
1757088785709389600,12.3183896484375,0.8882546611368656,9.747563020259141,0.6053223933920264
1757088785719344400,12.328344482421874,0.8134783832244574,9.752889768239855,0.6243220582205802
1757088785729299200,12.33829931640625,0.7384018071912228,9.75757938736081,0.6440663308713585
1757088785739254500,12.348254638671875,0.6630271980594843,9.761640645450353,0.6641960957083851
1757088785749209300,12.358209228515625,0.5914688227476552,9.764746794772147,0.6857638574592769
1757088785759164400,12.368164306640624,0.5250604140775278,9.766704943102598,0.7114477492921054
1757088785769119500,12.378119384765625,0.4624932275380939,9.767620888903737,0.7416765180129558
1757088785779074300,12.38807421875,0.4021110203549266,9.767604522290826,0.7762864244274794
1757088785789028400,12.3980283203125,0.34250231829490513,9.766694421708584,0.8153166315022855
1757088785798983400,12.4079833984375,0.2815295430737547,9.764905784726142,0.8589104932308197
1757088785808938500,12.4179384765625,0.21833039704002438,9.762200617420673,0.9067305943522602
1757088785818893300,12.427893310546875,0.15399952529631555,9.758454416629672,0.9587776655189693
1757088785828848400,12.437848388671876,0.09167169133755378,9.75349591743946,1.0155385403998196
1757088785838803500,12.447803466796875,0.03533048034061212,9.747188341727853,1.0777024433679878
1757088785848758500,12.457758544921875,-0.013346336933219571,9.739669636660814,1.1441293375428765
1757088785858713300,12.46771337890625,-0.05541308156766463,9.731261289277672,1.2123862966891377
1757088785868668400,12.47766845703125,-0.0926436233759392,9.722652450886368,1.277434742117673
1757088785878623500,12.48762353515625,-0.1256942263181787,9.714547470363973,1.334974200155586
1757088785888578300,12.497578369140625,-0.15367741720248013,9.707443775838613,1.382865539882332
1757088785898533400,12.507533447265626,-0.1780958191441372,9.70138754453957,1.4218857370197773
1757088785908488400,12.517488525390625,-0.19878864295771345,9.696151981973648,1.4544840844161808
1757088785918443500,12.527443603515625,-0.21434399428498,9.691551210179924,1.4826619850218294
1757088785928398300,12.5373984375,-0.22677925909664481,9.687366033449768,1.5079527858838437
1757088785938352400,12.547352294921875,-0.23905314106782896,9.683475455752015,1.530858445174992
1757088785948307500,12.557307373046875,-0.2516177130812779,9.679823362985253,1.5517970421768723
1757088785958262500,12.567262451171874,-0.262871275561396,9.67645359429121,1.570834773993492
1757088785968217300,12.57721728515625,-0.2732009646622464,9.673423432815074,1.5876416780181228
1757088785978172400,12.58717236328125,-0.28232805477399375,9.670417236736416,1.6042830162175
1757088785988127500,12.59712744140625,-0.285029313089326,9.667151512938737,1.6233648794367908
1757088785998082300,12.607082275390624,-0.27619950715741143,9.663708094486594,1.6452463102467356
1757088786008037400,12.617037353515625,-0.2561393917568028,9.660295655694604,1.6683756952911615
1757088786017992400,12.626992431640625,-0.22503599562589077,9.657269585871695,1.6902340374864637
1757088786027947500,12.636947509765625,-0.18140386597989125,9.655114453664421,1.7076935602009296
1757088786037902300,12.64690234375,-0.12366992654949426,9.65429729206264,1.7174534683234988
1757088786047857400,12.656857421875,-0.05056197000837419,9.65511620723009,1.7165546197876334
1757088786057812500,12.6668125,0.03878221452995203,9.65727952274382,1.7046493701994418
1757088786067767300,12.676767333984374,0.14554443442830814,9.660252985596657,1.681874497681111
1757088786077723000,12.686722900390626,0.2688730915257707,9.663887542706727,1.645404423417896
1757088786087676700,12.6966767578125,0.406431879228726,9.668006668463349,1.592111809169501
1757088786097631700,12.7066318359375,0.5562860848812387,9.67169675515294,1.5228971109069882
1757088786107586800,12.7165869140625,0.7191381576642394,9.673016021057963,1.444307412186265
1757088786117542000,12.7265419921875,0.8967081628359854,9.67016823041141,1.3616770597726107
1757088786127496700,12.73649658203125,1.0860610333252698,9.661673958310484,1.281756112448126
1757088786137451800,12.74645166015625,1.2807938432872294,9.647102996644378,1.209687632189691
1757088786147406800,12.75640673828125,1.472674697884172,9.627764674445986,1.1435796677708625
1757088786157361700,12.766361572265625,1.6569826330088078,9.605014497977495,1.0809832916695623
1757088786167317000,12.77631689453125,1.8325981431119143,9.579888240027428,1.0186858254496007
1757088786177271800,12.786271728515626,1.9979342512629925,9.552965746310353,0.9588990999415516
1757088786187227000,12.796226806640625,2.1513050502017137,9.524887068295477,0.9048703534383327
1757088786197181700,12.806181640625,2.2934544901631773,9.4967405857414,0.8499283645477146
1757088786207136800,12.81613671875,2.430302608846128,9.468146943941711,0.7862846713505685
1757088786217091800,12.826091796875,2.569416772764921,9.437022322359681,0.7149117721408605
1757088786227046700,12.836046630859375,2.710833076146245,9.402622040107845,0.642229690028727
