time,seconds_elapsed,z,y,x
1757089253136730600,0.017730712890625,2.6275457211285826,0.29817089953944087,-2.185988241048157
1757089253146684700,0.0276845703125,2.73217806199193,0.3504519986577332,-2.4381318411670625
1757089253156639700,0.0376396484375,2.8689135140806434,0.2769119845420122,-2.5533418362766502
1757089253166594800,0.0475947265625,3.145377170333266,0.11864143086299299,-1.980861682039499
1757089253176548600,0.057548583984375,3.32317937682569,-0.8847164040081202,-1.5442089251354336
1757089253186503700,0.067503662109375,3.3411054941385983,-2.4345395157635212,-0.2975649695355445
1757089253196458800,0.077458740234375,2.930406970441341,-1.2840506531260907,0.6802789232421665
1757089253206412800,0.087412841796875,1.8273317470163106,-1.090071657206118,1.0098841678999364
1757089253216367600,0.09736767578125,0.8813292457878589,-2.60697990296185,1.9111714752197264
1757089253226322700,0.10732275390625,0.9173819714218377,-2.727252296027541,1.1565815534893422
1757089253236277800,0.11727783203125,0.9964017321228981,-2.3743331766039133,1.2642755469456315
1757089253246231800,0.127231689453125,0.4862234280198812,-1.9013300262935457,0.9408524249888957
1757089253256186600,0.1371865234375,0.22004677250385282,-1.5748103996261953,0.20592158184386788
1757089253266141700,0.1471416015625,-0.13100889113545416,-1.283589173094183,-0.32088344741128383
1757089253276095700,0.157095703125,-0.7387778008967637,-0.9045205901525915,-0.6578147241082042
1757089253286050800,0.16705078125,-1.22877782484591,-0.6227483060978353,-0.8316478808391838
1757089253296005600,0.177005615234375,-1.4618173499137161,-0.5382584434226155,-0.9244029560998082
1757089253305960700,0.186960693359375,-1.5934066712856292,-0.595888246625103,-0.743160253764689
1757089253315914800,0.196914794921875,-1.8510797023504972,-0.5039586989358067,-0.445467931522429
1757089253325869800,0.206869873046875,-1.6071324142992496,-0.525045253041014,-0.6576686667010188
1757089253335824600,0.21682470703125,-1.3438286838710307,-0.6563546614930034,-0.48849794882312414
1757089253345778700,0.22677880859375,-1.3863304395139218,-0.6321429611045867,-0.7245724576726555
1757089253355733800,0.236733642578125,-1.0724889465034007,-0.7015532550044358,-0.7913010382078588
1757089253365688800,0.246688720703125,-0.8669108443349599,-0.6741446582708507,-0.7705503649935126
1757089253375643000,0.256642822265625,-0.8666384571343659,-0.6722726538538932,-0.5527314976722002
1757089253385597700,0.26659765625,-0.9508908577919005,-0.760855192670226,-0.6817340174213051
1757089253395552500,0.276552490234375,-0.7503373057872057,-0.906409253443405,-0.7664293395407498
1757089253405507800,0.2865078125,-0.6895370923876762,-0.9841482536189258,-0.7045847316548228
1757089253415462000,0.2964619140625,-0.5948164892077445,-1.1065531286686658,-0.7141952944345772
1757089253425416700,0.306416748046875,-0.48219081150293347,-1.2373456005744636,-0.6606462212070823
1757089253435371500,0.31637158203125,-0.33897418070137497,-1.2714096366092562,-0.6428698876284062
1757089253445325600,0.32632568359375,-0.2961976997703314,-1.2600004999749361,-0.6878134834654629
1757089253455281000,0.336281005859375,-0.2885205892711878,-1.2036455755464732,-0.7243804422318935
1757089253465235700,0.346235595703125,-0.3097662063956261,-1.0984615921497345,-0.6484763293333351
1757089253475190500,0.3561904296875,-0.4471674289166927,-1.012057420285791,-0.5665003491751849
1757089253485145600,0.3661455078125,-0.6810942582130431,-0.934370954015106,-0.5283583961769938
1757089253495100400,0.376100341796875,-0.7663076128572225,-0.9127494893155992,-0.5175032401636243
1757089253505055500,0.386055419921875,-0.6342834071993827,-0.8407050475198775,-0.531439118796587
1757089253515009300,0.39600927734375,-0.49161564245224,-0.714426765102893,-0.5046345523707568
1757089253524964600,0.405964599609375,-0.548667901495099,-0.6590816753040999,-0.3527669976018369
1757089253534919400,0.41591943359375,-0.6089180797964334,-0.6706227677550166,-0.3229189718268812
1757089253544874500,0.42587451171875,-0.7544272054493427,-0.6393689668353647,-0.12811740747764705
1757089253554828300,0.435828369140625,-0.8692670520722866,-0.651202393296361,0.19630334721431136
1757089253564783600,0.44578369140625,-0.8934130668133496,-0.6380171869002282,0.38609175957664843
1757089253574738400,0.455738525390625,-0.9293196619749069,-0.5233074329303578,0.5197787838801742
1757089253584692500,0.4656923828125,-0.960157283309102,-0.3241740499218926,0.876817613582313
1757089253594647300,0.475647216796875,-1.0569804117262362,-0.17833346382491289,1.092466735649109
1757089253604602600,0.4856025390625,-0.9874971256554126,0.062475233939662575,0.8396586802721023
1757089253614556700,0.495556640625,-1.0309797090291977,0.37631990528795867,0.889072407260537
1757089253624511500,0.505511474609375,-1.2872452113837003,0.6559257685564458,0.7999296042129397
1757089253634466300,0.51546630859375,-1.7407862669855356,0.9072495036598295,0.6710591864109039
1757089253644421600,0.525421630859375,-2.2564216674506663,1.0413961813643575,0.5283461212173104
1757089253654375700,0.535375732421875,-2.6911317658543585,1.0155492809895426,0.32841713085174556
1757089253664330500,0.54533056640625,-2.9446593676775694,0.9353145915407687,0.3051692339941859
1757089253674285300,0.555285400390625,-3.003758037856221,0.9056620883379131,0.32904929127544164
1757089253684239400,0.5652392578125,-2.8744693946421145,0.9236546950157731,0.29410423462241886
1757089253694194400,0.5751943359375,-2.557377959924936,1.0194325521636753,0.24233488441854714
1757089253704149500,0.5851494140625,-2.0301941604852676,1.0831015989977866,0.20429887601286173
1757089253714104300,0.595104248046875,-1.5659002402007578,1.1511570442225783,0.26099983740001914
1757089253724058400,0.605058349609375,-1.1678542773276568,1.1606368202295154,0.3872314311310649
1757089253734013400,0.615013427734375,-0.5811375079452992,1.1563421187102794,0.5175058705121278
1757089253743968500,0.624968505859375,0.06487491549253463,1.173122938445583,0.6992240814045071
1757089253753922600,0.634922607421875,0.6057715984642505,1.1629625597633422,0.8809010835036635
1757089253763877400,0.64487744140625,0.9911363589406013,1.1008796130768954,1.1086407485976815
1757089253773832400,0.65483251953125,1.2955454222172498,1.011260278558731,1.3729998332977293
1757089253783787500,0.66478759765625,1.4957932692736386,0.9402823700159788,1.5229650615766643
1757089253793741600,0.674741455078125,1.5249790317475795,0.9253581379327922,1.5473904777809977
1757089253803696400,0.6846962890625,1.4609025731563567,0.8757988649938255,1.46930741340816
1757089253813651500,0.6946513671875,1.4255121108233928,0.8435067340023815,1.2127978731647133
1757089253823605500,0.70460546875,1.4191583578824996,0.8728872883960604,0.9837430338189005
1757089253833560600,0.714560546875,1.41848615770936,0.9077093031913042,0.8626125626191496
1757089253843515400,0.724515380859375,1.3084995963364838,0.9736093239478766,0.8436080024197697
1757089253853470500,0.734470458984375,1.269428984186053,0.999047789652273,0.930928850737214
1757089253863424500,0.744424560546875,1.2800479933559894,0.986630498888716,0.9430988887414335
1757089253873379600,0.754379638671875,1.2348042455285786,1.0272883802305905,0.9043085548371076
1757089253883334400,0.76433447265625,1.3106512214124202,1.0341801125057042,0.721236883509159
1757089253893288400,0.774288330078125,1.4754244349837302,0.978453841369599,0.5061024329662323
1757089253903243500,0.784243408203125,1.5214473504900932,0.9133505239486693,0.3085810882642865
1757089253913198600,0.794198486328125,1.6089678130328655,0.813471295896545,0.1340079268209636
1757089253923153400,0.8041533203125,1.7384277211606503,0.6884488587595522,0.030930852575600146
1757089253933107500,0.814107421875,1.8395652056455611,0.5476289869014174,0.072391136341542
1757089253943062500,0.8240625,1.8557523703366516,0.4159054446905851,0.11306669947057962
1757089253953017600,0.834017578125,1.803251783248782,0.29920893735028803,0.11695011677518487
1757089253962971400,0.843971435546875,1.7610463802039622,0.1818087387200445,0.11195888435915112
1757089253972926500,0.853926513671875,1.716959985718131,0.08927797373458743,0.21476912436187265
1757089253982881500,0.863881591796875,1.688772002109885,0.02119900150373578,0.2615760298527777
1757089253992836400,0.87383642578125,1.685034569147229,-0.018994404131546617,0.2743487099252641
1757089254002790400,0.883790283203125,1.6950123578041791,-0.00697049659974873,0.3730576520889997
1757089254012745500,0.893745361328125,1.5388339540988205,0.011609554577246307,0.45051688547506924
1757089254022700500,0.903700439453125,1.4108797743588686,-0.022182824909314513,0.39768253638818857
1757089254032654600,0.913654541015625,1.2927987538576124,-0.07852657035663724,0.42736485020741816
1757089254042609400,0.923609375,1.0627928973972798,-0.15890001068897544,0.45861529012620444
1757089254052564500,0.933564453125,0.8443295946925878,-0.1814011077672243,0.5272381599754095
1757089254062518300,0.943518310546875,0.5872364093422889,-0.229967789472267,0.5663818373620509
1757089254072473600,0.9534736328125,0.22201661127209663,-0.2658837369840592,0.5619337719120084
1757089254082428400,0.963428466796875,-0.04709609769582748,-0.28028898669444025,0.5167557827971876
1757089254092383500,0.973383544921875,-0.18668401660621164,-0.28268983729109165,0.33156945740282534
1757089254102337300,0.983337158203125,-0.2750239788383245,-0.2505397816514596,0.2451969958513975
1757089254112292600,0.993292724609375,-0.3174070765376091,-0.24921266123354432,0.29626433526575563
1757089254122247400,1.003247314453125,-0.23319617693424224,-0.24773206728696823,0.3607522972673177
1757089254132202500,1.013202392578125,-0.107174426561594,-0.2874504027564078,0.48093175135254856
1757089254142156300,1.02315625,0.034843349844217296,-0.3251013573672622,0.6530668719939887
1757089254152111600,1.033111572265625,0.21316110464334487,-0.3143848061069846,0.7820800592675805
1757089254162066400,1.04306640625,0.3195926038831472,-0.2604057439643889,0.8990827830128372
1757089254172020500,1.0530205078125,0.2951245175808668,-0.23019473009593783,0.9542506896138191
1757089254181975300,1.062975341796875,0.26503976044058797,-0.18382431632615626,0.9610893034622072
1757089254191930600,1.0729306640625,0.23608897576630114,-0.14914718989431858,0.9147814335346222
1757089254201885400,1.082885498046875,0.1308247667402029,-0.05379464548639953,0.8495107967227696
1757089254211839500,1.092839599609375,0.1103898814767599,0.022246756990998984,0.691896807256341
1757089254221794300,1.102794189453125,0.16192834553420543,0.1381461956694722,0.48724429550021886
1757089254231749600,1.11274951171875,0.3032370968878269,0.27969525858499106,0.31175387308150526
1757089254241703400,1.122703369140625,0.48175709626078606,0.4188244008772075,0.17988573476821182
1757089254251658500,1.132658447265625,0.6192120947957038,0.5115894860751926,0.11128960679545997
1757089254261613300,1.14261328125,0.7075526415497064,0.6099921387687325,0.08439283204153179
1757089254271568600,1.152568603515625,0.6021756197988987,0.781333040292561,0.08311667462587356
1757089254281522400,1.1625224609375,0.31154139937460423,0.8924624880902469,0.11337167376652359
1757089254291477500,1.1724775390625,-0.08300795355439186,0.96018913975209,0.2636881997011602
1757089254301432300,1.182432373046875,-0.5003899005383253,1.1123311275482177,0.38461686471849676
1757089254311386600,1.19238671875,-0.9971902521520852,1.305910456626117,0.37939489228650924
1757089254321341400,1.202341552734375,-1.5242279211193321,1.4692087753392755,0.3332987654134631
1757089254331296500,1.212296630859375,-1.9443243877589702,1.5263240166157483,0.3118295686662197
1757089254341251300,1.222251220703125,-2.0964690059036015,1.5086207482732832,0.22989099790900944
1757089254351205600,1.23220556640625,-1.9826216774493455,1.4835980968281626,0.06671104487851262
1757089254361160400,1.242160400390625,-1.5471113685786724,1.4715322498507797,-0.07571502006724476
1757089254371115500,1.252115478515625,-0.8455448157012462,1.4467361006379127,-0.22602540852203964
1757089254381069300,1.2620693359375,-0.2468050155699253,1.4397089784801005,-0.3534600944325328
1757089254391024600,1.272024658203125,0.06805646813809871,1.3988503138691186,-0.3637193303793669
1757089254400979500,1.2819794921875,0.09927344417870045,1.335935300272703,-0.2385682253614068
1757089254410934500,1.2919345703125,-0.09005845658779144,1.2887212752856314,-0.07677870377600192
1757089254420888300,1.301888427734375,-0.3986608799010515,1.3085714925289154,0.09037789780050516
1757089254430843400,1.311843505859375,-0.7956032654464245,1.3827552113756536,0.32912995529621836
1757089254440798500,1.321798583984375,-1.1296481730520724,1.4253284248195588,0.5447817077115178
1757089254450752500,1.33175244140625,-1.3335592187911272,1.4461660456649958,0.6316035204656422
1757089254460707300,1.341707275390625,-1.4355197100967168,1.4786974653050302,0.6445378208406269
1757089254470662400,1.351662353515625,-1.4722230085939167,1.51591908858791,0.5572635881438851
1757089254480617000,1.361616943359375,-1.4649854585558175,1.5159921538241208,0.4371402481600642
1757089254490571000,1.371571044921875,-1.3599579808950424,1.4743217344388364,0.30397768612205983
1757089254500526000,1.381526123046875,-1.1459522421211004,1.4491583593487738,0.16941607094109057
1757089254510481200,1.391481201171875,-0.8687982655167579,1.3832212214522064,0.0501104770809412
1757089254520436000,1.40143603515625,-0.5676210237681866,1.3052202824048698,-0.045506490416824814
1757089254530390000,1.41139013671875,-0.27230945918262,1.2317720382258295,-0.0773624950133264
1757089254540345000,1.421344970703125,0.012234627673029899,1.171399840980023,-0.030277210972458123
1757089254550300200,1.431300048828125,0.2711298940092325,1.1425739978596567,-0.04902195119187235
1757089254560254200,1.441254150390625,0.5550508805304766,1.1363692249353974,-0.07248071432113647
1757089254570209000,1.451208984375,0.8137164297640324,1.163470947676897,-0.05385010200068354
1757089254580164000,1.4611640625,1.000840591353178,1.1936278932705522,-0.02990224018022418
1757089254590119200,1.471119140625,1.1639414877980947,1.2379868210874496,0.052017772006988525
1757089254600073200,1.4810732421875,1.2396493474721908,1.3319849552117287,0.1366528883717954
1757089254610028000,1.491028076171875,1.260958677482605,1.4070634309411048,0.15875176132470367
1757089254619983000,1.500983154296875,1.2644243077665567,1.374560652873665,0.21945392117723822
1757089254629937200,1.510937255859375,1.3127818037003278,1.4557926827967167,0.2583645204603672
1757089254639892200,1.520892333984375,1.4434709613621235,1.5650855628170073,0.23417510496899485
1757089254649847000,1.530846923828125,1.4884639492988585,1.6231841160424052,0.22005568646267054
1757089254659802000,1.540802001953125,1.4750304672300816,1.7170384577818214,0.18353402814269065
1757089254669756200,1.550756103515625,1.586540292647481,1.9117377308003602,-0.061803106831759214
1757089254679711000,1.5607109375,1.8167378722876308,2.13861581062898,-0.5335261542037129
1757089254689666000,1.570666015625,1.7991513621926307,2.289036819851398,-1.017357134129107
1757089254699621000,1.58062109375,1.632062857416272,2.3723436102218924,-1.1602233440577983
1757089254709575200,1.5905751953125,1.6269740098446606,2.524833826933801,-1.237146132479608
1757089254719530000,1.600530029296875,1.8546990618914365,2.7740309983372686,-1.2767276167616248
1757089254729485000,1.610485107421875,1.805092442679405,2.932289423187077,-1.0107686956495046
1757089254739439400,1.620439453125,1.602870080679655,2.7484999589785932,-0.7527785614594816
1757089254749394200,1.630394287109375,1.6527286288261414,2.735724356296658,-0.9187821936085819
1757089254759349000,1.640348876953125,2.2606495142787693,2.9108967988073826,-0.899106310018897
1757089254769304000,1.650303955078125,3.0113176594555378,3.1144708676770327,-0.9392682245373726
1757089254779258400,1.66025830078125,2.667868963688612,2.4097718619927764,-1.9464701676160097
1757089254789213200,1.670213134765625,2.397265139380097,2.263335684622824,-1.7847499118745327
1757089254799168000,1.68016796875,2.435012978494167,2.4222658712543548,-0.412878790345788
1757089254809122000,1.6901220703125,1.7738883261203764,2.3261127510532735,0.5917541790276766
1757089254819077400,1.700077392578125,0.5130570744097233,2.246886800255626,1.2672066319614648
1757089254829032200,1.7100322265625,-0.434753353023529,1.9397785610228775,1.5903905383348464
1757089254838987000,1.719987060546875,-1.306916126537323,1.5611074529662727,1.8377882591009138
1757089254848941000,1.729941162109375,-1.8681413117885588,1.1410760874520987,2.04773975404799
1757089254858896100,1.739896240234375,-1.928619453626871,0.672461454424262,2.184717782720923
1757089254868851200,1.749851318359375,-1.8016466861397027,0.1925014341806993,2.283582061576843
1757089254878806000,1.759805908203125,-1.6042536439925432,-0.17193981726504862,2.2045728222697973
1757089254888760000,1.769760009765625,-1.222794658783078,-0.1276728785805404,1.9433482362031935
1757089254898715100,1.779715087890625,-0.8497054425120353,-0.0009526976149529218,1.4421487728476523
1757089254908670200,1.789670166015625,-0.12416530885100364,0.04128047021962702,0.5768167221367358
1757089254918624300,1.799624267578125,-0.45495092239975926,-0.48563561819456513,0.01503098039329052
1757089254928579000,1.8095791015625,-1.517833251646161,-0.7950691585697233,-0.22059037786126134
1757089254938534100,1.8195341796875,-2.118444106346369,-0.8224627769298851,-0.36742052298486233
1757089254948489200,1.8294892578125,-2.375021743389964,-0.9120993548437952,-0.4113227930754423
1757089254958443300,1.839443359375,-2.330394081634283,-1.039808035390079,-0.23534546392261982
1757089254968398000,1.849398193359375,-1.9119436286360025,-1.0458350405946373,0.01793313157558441
1757089254978353000,1.859352783203125,-1.274817691487074,-0.7541945657372474,-0.10883914490342139
1757089254988307200,1.86930712890625,-0.7696504935443401,-0.4813033611439168,-0.5264321042895317
1757089254998262300,1.87926220703125,-0.6243038649767637,-0.5206960448555648,-0.7797358342289924
1757089255008217000,1.889217041015625,-0.23013562031984328,-0.4028641768097877,-1.4298282204568384
1757089255018172000,1.899171875,-0.09278700476884841,-0.908743760805577,-0.8561398594737052
1757089255028126200,1.909126220703125,-0.4491162248969078,-1.2035587740458547,-0.2838683795511722
1757089255038081300,1.919081298828125,-0.2970107697188854,-1.0767638473436236,-0.4003367041587829
1757089255048036000,1.9290361328125,0.2500608024954796,-0.7999297503434121,-0.5948872163563966
1757089255057991000,1.938990966796875,0.7072855150461197,-0.6314075595021248,-0.5203057303637266
1757089255067945200,1.9489453125,0.9100690180599689,-0.23022432151660321,-0.3343067734122276
1757089255077900300,1.958900390625,1.1763614089101553,0.4093284043878317,-0.7671820576041937
1757089255087855000,1.968855224609375,1.238318975651264,0.5201964247703552,-1.551468979266286
1757089255097809200,1.97880908203125,1.0783400106191634,0.08166779099181294,-1.7852829958379268
1757089255107764200,1.98876416015625,0.809600811138749,-0.2705515095993876,-0.6447159538865089
1757089255117719300,1.99871923828125,0.829661017870903,-0.44137876251265407,-0.3711719844728708
1757089255127674000,2.008674072265625,0.9337678735554218,-1.1847416992425919,-0.8163748353183269
1757089255137628200,2.018628173828125,1.0837374857485294,-1.6223732380509375,-0.5227127915054559
1757089255147583200,2.028583251953125,0.982291373705864,-1.7855916233956812,0.05462123250365257
1757089255157538000,2.0385380859375,0.9033750733792781,-1.6227037851795554,0.16924129889607428
1757089255167492000,2.0484921875,1.0876035135269164,-1.1408721623778342,-0.04387888921499252
1757089255177447200,2.058447265625,0.972872972497344,-0.7922542472794651,0.2908662756145
1757089255187402200,2.06840234375,0.60290042694211,-0.41030221785604953,0.9415507825165986
1757089255197357000,2.078357177734375,0.2750514513671398,-0.22110534164607523,1.0696335570722817
1757089255207311000,2.08831103515625,-0.15584171909689903,0.09770108029544353,0.8314286120653152
1757089255217266200,2.09826611328125,-0.6838041016936302,0.18144523916989563,0.5141285030335188
1757089255227221200,2.10822119140625,-1.0388444510549306,0.18346885395199058,0.5194382998794317
1757089255237175300,2.11817529296875,-1.304804833471775,-0.05210252768099308,0.21611410923004148
1757089255247130000,2.128130126953125,-1.5874959859371185,-0.3259422651708126,0.027613398590683937
1757089255257085200,2.138085205078125,-1.7539181357592344,-0.2154106371358037,0.15298106896877287
1757089255267040300,2.148040283203125,-2.143538800114393,-0.15267361045479774,0.12089783148765564
1757089255276994300,2.157994384765625,-1.6677444116503,-0.1586965240061283,0.2856038250416517
1757089255286949000,2.16794921875,-1.2748811121121049,-0.08023819658011197,0.7277437811851502
1757089255296904200,2.177904296875,-1.167780919830501,-0.13363602476865052,0.752354490828514
1757089255306859300,2.187859375,-0.7914139970630407,-0.32019378464668985,0.6665875939548015
1757089255316813300,2.197813232421875,-0.6543754703745246,-0.362794032227993,0.7056488537549972
1757089255326768000,2.20776806640625,-0.8356035596624016,-0.41594636122286316,0.7252624857634306
1757089255336723200,2.21772314453125,-0.9173448542818426,-0.5023422036498785,0.6703314566582441
1757089255346677000,2.227677001953125,-0.9647983871132135,-0.5400163930058479,0.6469447358518838
1757089255356632300,2.23763232421875,-0.9215177560523152,-0.6387208051249385,0.696387688934803
1757089255366587100,2.247587158203125,-0.7647913630753755,-0.7658546083927155,0.7987363027751445
1757089255376542200,2.257542236328125,-0.667026862154901,-0.8069204860135912,0.7983990336447954
1757089255386496000,2.26749609375,-0.6548752365902066,-0.7133347320824861,0.728767863535881
1757089255396451300,2.277451416015625,-0.6314768253460527,-0.6200979377195238,0.6679156276881695
1757089255406406100,2.28740625,-0.4923644149929285,-0.6323997854098677,0.6001438217103481
1757089255416360200,2.297360107421875,0.3929997853994369,-0.6492033284336328,0.5011351659476757
1757089255426315000,2.30731494140625,2.691602305975556,-0.40881665547341106,0.531813797327876
1757089255436270300,2.317270263671875,0.9210229582726955,-0.10446429082006216,0.35713059963881966
1757089255446225200,2.32722509765625,-1.2933376830399035,-0.1328656249180436,-0.2086678848773241
1757089255456179200,2.33717919921875,-1.8388059117108582,-0.3054167790144682,-0.36415070753395556
1757089255466134000,2.347134033203125,-1.7160077995598315,-0.019976035580039023,-0.32634500075280665
1757089255476089300,2.35708935546875,-1.7417480977550148,0.5763906056791543,-0.2330833642095327
1757089255486043100,2.367043212890625,-1.9261703069090843,0.8479834410250187,-0.454904745170474
1757089255495998200,2.376998291015625,-1.892525811460614,0.7309048755645752,-0.9297709128737449
1757089255505953000,2.386953125,-1.6988988438487052,0.6399155678674578,-1.238503684568405
1757089255515908000,2.396908203125,-1.4832061749011278,0.6908370690703391,-1.2536018849790096
1757089255525862000,2.40686181640625,-1.3414455881267786,0.8287979713007807,-1.2697937258452177
1757089255535817200,2.416817138671875,-1.5046592972964048,0.8796291638717055,-1.5940309406638145
1757089255545772000,2.42677197265625,-2.2388234669178724,0.8421496203050017,-1.5959242070645092
1757089255555727000,2.43672705078125,-2.6858377510994673,0.7888654816240072,-1.2492454433351754
1757089255565681000,2.446680908203125,-2.273154775586724,0.8370958440467715,-0.7334270875185728
1757089255575636200,2.45663623046875,-1.4542524676173925,0.9309601226583123,-0.17140812154114246
1757089255585591000,2.466591064453125,-0.6713928753446787,0.9362608594149351,0.011349077010154723
1757089255595545000,2.476545166015625,-0.08241868242435157,0.9483458494842052,0.026669395738840102
1757089255605500000,2.4865,0.45435003389716144,0.965399860137701,0.2544961545944214
1757089255615455200,2.496455322265625,1.044569258442521,0.8336462881147861,0.9071376407831907
1757089255625410000,2.50641015625,1.525192382237315,0.6346680226027965,1.5229261908710001
1757089255635364000,2.516364013671875,1.6766595395117998,0.3497568560004234,1.945318659493327
1757089255645319000,2.52631884765625,1.9251596685618162,-0.15873860958218575,2.3330191694408655
1757089255655274200,2.536274169921875,3.020892128008604,-0.7862292879015207,3.0705805802851915
1757089255665228000,2.54622802734375,4.559149743524194,-0.28479660031199455,4.129056783527136
1757089255675183000,2.55618310546875,4.742506077012419,0.8628583540737629,4.043104593214393
1757089255685138000,2.566137939453125,3.8108588488727806,0.8383470131516456,3.069001786661148
1757089255695093200,2.57609326171875,2.6065011795341966,0.3172323044925928,2.3550913005173206
1757089255705047000,2.586047119140625,1.1710099648796022,0.46025721211433407,1.5143448250085114
1757089255715002000,2.596002197265625,0.149286306104064,1.1074234817624091,0.6099976917266845
1757089255724957000,2.60595703125,-0.7924049077965318,2.012346369105577,-0.006580547434091567
1757089255734911200,2.6159111328125,-1.891416388913989,2.764339625406265,0.31007132682204247
1757089255744866000,2.625865966796875,-2.5969191121965647,2.975863484236598,1.0838654960423708
1757089255754821000,2.635821044921875,-2.706248378704488,2.6266718609035014,1.4062129515916109
1757089255764776000,2.64577587890625,-2.2272813515536485,1.7391881841391323,1.6219588120311497
1757089255774730200,2.655730224609375,-1.1729231050245463,0.7649561982482671,2.338333057940006
1757089255784685000,2.66568505859375,1.033081065222621,-0.2929500961512327,2.7683389241755005
1757089255794640100,2.67564013671875,3.309772198241949,-1.0095751019507646,2.929881485262513
1757089255804594000,2.685593994140625,4.962233116042614,-1.4174305111765861,2.720126389670372
1757089255814549200,2.69554931640625,5.537901837188005,-1.8001526481896637,2.2253660194516183
1757089255824504000,2.705504150390625,5.415963556736707,-2.1070546973258257,1.6336229463398455
1757089255834459100,2.715459228515625,4.014844713413715,-2.148780207899213,1.1281453672736883
1757089255844413000,2.725412841796875,2.509599725183844,-2.416333412465453,0.48821080244481563
1757089255854368300,2.7353681640625,1.7479305857822298,-2.878494412374496,-0.4524322175770998
1757089255864323000,2.745322998046875,1.605559465894103,-3.2214041789591312,-1.4371183774650096
1757089255874277000,2.755277099609375,1.930976830407977,-3.5260014582842585,-2.361459081983566
1757089255884232000,2.76523193359375,2.511656949974596,-3.865416953012347,-3.050884530690312
1757089255894187300,2.775187255859375,3.164431999415159,-3.9280128176569935,-3.9043706607848403
1757089255904142000,2.78514208984375,4.115305906072258,-3.5691257297396657,-5.046704712408781
1757089255914096000,2.79509619140625,5.27160652372837,-3.0020073947966095,-6.022519583576917
1757089255924051000,2.805051025390625,6.202966167098284,-2.423653964611888,-6.477510837987065
1757089255934006300,2.81500634765625,6.359456705492734,-1.636556077182293,-6.30743250374496
1757089255943960000,2.8249599609375,5.470834964609145,-0.20319383738040922,-6.069994451457261
1757089255953915100,2.8349150390625,4.121271828739345,1.056356142348051,-5.728895533686876
1757089255963870000,2.844869873046875,2.666131764632463,1.5167121386617421,-5.555337540635466
1757089255973825300,2.8548251953125,1.1311743597060442,1.2657061642706393,-5.680276171946526
1757089255983779000,2.864779052734375,-0.06102350076138973,0.5477133772492409,-5.5806753955096005
1757089255993734100,2.874734130859375,-0.4146531065419316,0.4512777868449688,-4.750156299504638
1757089256003689000,2.88468896484375,-1.186340220480412,1.988893012803793,-3.414458315119147
1757089256013644000,2.89464404296875,-2.7381360936135053,2.968614243760705,-2.998577420347929
1757089256023598000,2.90459814453125,-3.733063661530614,2.994843494516611,-3.0675685389876364
1757089256033553200,2.91455322265625,-4.315229928001761,3.214676916530728,-2.397131283867359
1757089256043508000,2.924508056640625,-5.2523494500726455,3.737960201400518,-1.0158271480828522
1757089256053462000,2.9344619140625,-5.372980739578605,4.331708769115806,0.7929162183195352
1757089256063417000,2.9444169921875,-4.98128209990561,4.552821125024557,2.2124510082989928
1757089256073372200,2.9543720703125,-4.805258593523502,4.2310944317221635,2.4516917260944844
1757089256083327000,2.964326904296875,-4.070238683855534,3.551691195335984,2.572691848912835
1757089256093281000,2.974281005859375,-3.285996185857057,3.034018151563406,3.4699323650598526
1757089256103236000,2.984236083984375,-2.619225052028894,2.864009375426173,4.444395237097144
1757089256113191200,2.994191162109375,-1.9226302962146697,2.6377164020091293,4.984690447044373
1757089256123145200,3.004145263671875,-1.5911929407589136,2.2115789016395806,5.068127439665794
1757089256133100000,3.01410009765625,-1.4950620323896406,1.7539321642845869,4.9574955661267035
1757089256143055000,3.02405517578125,-1.5333900094792245,1.4795850617945194,4.7556163184762
1757089256153010200,3.03401025390625,-1.7814916407309471,1.3901900375515222,4.904259650501609
1757089256162964200,3.043964111328125,-2.021653126633167,0.9871166019052267,5.665324686530232
1757089256172919000,3.0539189453125,-1.290231533718109,0.27789748844802376,6.097641167795658
1757089256182874000,3.0638740234375,0.14649331438466906,-0.17626374487876892,6.454042284116149
1757089256192828200,3.073828125,0.9263311476834117,0.2941068649709225,6.631587885499
1757089256202783200,3.083783203125,1.6062049241907894,0.7065291437208652,5.793249640175699
1757089256212738000,3.093738037109375,2.591149296623468,0.7155874794453382,4.535893955621123
1757089256222693000,3.103693115234375,3.3392326860040424,0.8296528345644474,3.2725200336903333
1757089256232647200,3.113647216796875,3.91295085760355,1.1376467705905438,2.304281735256314
1757089256242602000,3.12360205078125,3.9214273017868395,1.3590496338784694,2.3368103784173724
1757089256252557000,3.13355712890625,3.4876591604083775,1.33631407045722,2.723740488514304
1757089256262511000,3.143510986328125,2.641063374349475,1.3502099093407391,2.593363465541601
1757089256272466200,3.153466064453125,0.6598007102936506,2.031336316257715,2.3800129758059976
1757089256282421000,3.1634208984375,-1.5776131820872425,2.688768543854356,2.0944471446871757
1757089256292376000,3.1733759765625,-2.8517966673240065,1.346513977432251,1.9357471135497093
1757089256302330000,3.183330078125,-5.066191503167152,0.9770482123553752,3.4715953298360107
1757089256312285200,3.19328515625,-5.545652597445249,2.094599120378494,4.677647528132796
1757089256322240000,3.203239990234375,-5.663810190314054,2.077508284845948,5.4478609162569045
1757089256332194000,3.213194091796875,-5.149024100154638,0.9056284052640199,5.223280591976643
1757089256342149000,3.223149169921875,-5.279937129700183,1.0542360814541578,5.0791737343370915
1757089256352104200,3.233104248046875,-4.500480989195406,1.2884423122137785,4.589318087294697
1757089256362059000,3.24305908203125,-3.5503009100213645,1.38566233099401,4.194019377303123
1757089256372013000,3.253012939453125,-2.2213027155354617,1.1818576682388782,3.3702854113936422
1757089256381968100,3.262968017578125,-2.8941566764086484,1.9094208321601152,3.072882427486777
1757089256391923200,3.272923095703125,-2.6243688446581364,1.7377403234183788,2.382457446348667
1757089256401878000,3.2828779296875,-2.3861264902502297,0.704901250258088,1.709921173122525
1757089256411832000,3.29283203125,-2.8792116207331415,0.7542208692222834,1.0479670841872692
1757089256421787100,3.302787109375,-1.7112813555598259,0.9414560899704694,0.6124936001956462
1757089256431742200,3.3127421875,-0.5431956075638532,0.9850795431196689,-0.4726601820915937
1757089256441696300,3.3226962890625,0.09976415030509232,0.7518295901715755,-1.692396037825942
1757089256451651000,3.332651123046875,0.7241232526004314,0.6686135468244552,-2.5823943277597428
1757089256461606100,3.342606201171875,0.8867258441343903,1.2721984488993883,-3.4188352150291204
1757089256471561200,3.352561279296875,0.6386690749377012,2.0974878275573254,-4.226912762123346
1757089256481514800,3.3625146484375,0.2670218741685152,2.1018197192817927,-4.603347781690955
1757089256491469600,3.372469482421875,-0.6156716457098722,1.450969208163023,-4.567213807514309
1757089256501425000,3.3824248046875,-1.007112511229515,1.2502025979295373,-4.2454649023801085
1757089256511378700,3.392378662109375,-0.7479851897031068,1.3885147978156804,-4.546686567792296
1757089256521333800,3.402333740234375,0.3465712117016315,1.3593839803993701,-5.871408984655141
1757089256531288600,3.41228857421875,2.601196058863401,0.6152659875184298,-5.676964270919561
1757089256541244000,3.422243896484375,2.585933607801795,0.44094490114003415,-4.603331415078044
1757089256551197700,3.43219775390625,0.914708952820301,0.4884653617277741,-6.217240776166319
1757089256561152800,3.44215283203125,2.8773224459856745,0.00450169533342123,-7.253824881073832
1757089256571107600,3.452107666015625,4.624453698083758,-0.10004179820269346,-5.920940200543403
1757089256581062000,3.462061767578125,3.622302024132013,-0.74168492051512,-3.0469793399453162
1757089256591016700,3.4720166015625,2.17862531106472,-2.0209864794179797,-1.2393985875815152
1757089256600971800,3.4819716796875,1.3827525810271502,-1.8712474611103533,-1.605085418641567
1757089256610926600,3.491926513671875,4.117424797922372,-1.216375731651485,-2.9167636450141665
1757089256620880600,3.501880615234375,9.882961670786141,-1.1199261127218603,-5.307624178048968
1757089256630835700,3.511835693359375,12.435529015558958,-1.5420429792732,-6.451552220866084
1757089256640790800,3.521790771484375,5.404952333378792,-1.1718421779200434,-3.7599528374999758
1757089256650744600,3.53174462890625,-2.041635591953993,-0.6567036210611462,-2.389119242325425
1757089256660699600,3.54169970703125,-2.8275965843081474,-0.27855945948809385,-2.4840023425906894
1757089256670654700,3.55165478515625,-0.6055661390200257,-0.597133826239407,-3.0030262164503334
1757089256680609800,3.56160986328125,0.4962152452021837,-1.118315170393884,-2.8486487246870995
1757089256690563600,3.5715634765625,0.3314543065905571,-1.6701237080022693,-2.436940147164464
1757089256700518700,3.5815185546875,-0.34409108532369137,-1.8698209354385733,-2.7752637550026176
1757089256710473700,3.5914736328125,1.0363462044984102,-1.728079345625639,-1.9262597387582063
1757089256720427800,3.601427734375,1.6231453914672136,-1.3810381783246992,-0.4568979648143053
1757089256730382600,3.611382568359375,2.9699074984416365,-1.2853326557606457,0.9092430886298417
1757089256740337700,3.621337646484375,6.0846817329794165,-1.0444710587650536,1.471679987758398
1757089256750292700,3.631292724609375,5.770152257704734,-1.3155991992086171,2.4368027845203875
1757089256760246800,3.641246826171875,-4.577099533973634,-2.7860604588270186,-0.14811258614957332
1757089256770201600,3.65120166015625,-4.6301107009321445,-2.5271292443946,-1.0639292079508305
1757089256780156700,3.66115673828125,0.6140221249371767,-0.6483183622926473,0.44884325317442414
1757089256790110700,3.67111083984375,1.0406289963841437,0.9558207154095172,1.2105454180628061
1757089256800065800,3.681065673828125,-0.7402344294458627,1.0033867687046527,1.5225953514814377
1757089256810020600,3.6910205078125,-2.4310592724323272,0.035063130074739456,0.6672732381314039
1757089256819975700,3.7009755859375,-2.536771809747815,-0.07376607795655726,0.6316951442718506
1757089256829929700,3.7109296875,-1.5660522158920764,0.11702712753415107,0.9697703303068875
1757089256839884800,3.720884765625,0.15480010108947753,-0.22254151192903518,0.8186673301696776
1757089256849839600,3.730839599609375,0.5431242958933115,-0.8939517037346959,1.6225819123655556
1757089256859793700,3.740793701171875,0.41047991251051424,-1.0780717150717973,-0.15157996999919413
1757089256869748700,3.750748779296875,0.8215554528266191,-0.5281371546417475,-1.9674504118025302
1757089256879703800,3.760703857421875,1.0085644636034965,-0.1069347725868225,-1.415257843312621
1757089256889658600,3.77065869140625,1.0027101846173405,-0.19875643945485352,-0.8995318419545888
1757089256899612700,3.78061279296875,0.5469216423496603,-0.02099310366809368,-1.3505138607233762
1757089256909567700,3.790567626953125,-0.38772681343257426,1.167465570271015,-3.2442852883309126
1757089256919522800,3.800522705078125,0.5397247165828943,1.3883791887372732,-3.3420243625491857
1757089256929476900,3.810476806640625,1.9677914803251624,0.9622101241856813,-3.0664433343499895
1757089256939431700,3.820431640625,2.500327746708691,1.0461755245953797,-3.6215427301973104
1757089256949386800,3.83038671875,1.4375760581046342,1.0714613570213318,-3.3656033910572525
1757089256959341800,3.840341796875,-0.0126572369992733,1.5379291142135858,-2.384900747847557
1757089256969295600,3.850295654296875,-1.544146673554182,2.28776548474133,-0.6727303344935178
1757089256979250700,3.860250732421875,-3.4280946262836456,2.164066624358296,1.856563102197647
1757089256989205800,3.870205810546875,-2.373653962168097,1.3013158223122359,2.4902742624670267
1757089256999160800,3.880160888671875,-0.8479922088533639,0.11822773549556731,0.7972071935117244
1757089257009114600,3.890114501953125,-0.9872542568102478,-0.13333645730018615,2.30052209046185
1757089257019069700,3.900069580078125,0.7102431958079337,-0.07013327441215515,0.6356944430410861
1757089257029024800,3.910024658203125,-0.1739811868995428,0.47398061704039574,1.8463848225325346
1757089257038978800,3.919978759765625,-0.7642658778965473,-0.42555064039230345,3.0919460243970156
1757089257048933600,3.92993359375,-1.1155666023381055,-1.360572313401103,4.692605443289875
1757089257058888700,3.939888671875,1.237435178554058,-2.611862414306402,5.362736993461847
1757089257068843800,3.94984375,3.5129034917801616,-4.407443516796827,4.036390774789452
1757089257078797800,3.9597978515625,1.824206162341684,-5.493384065547585,2.7426655537366864
1757089257088752600,3.969752685546875,0.8874820693291723,-4.0590100183546545,3.3803491247683763
1757089257098707700,3.979707763671875,1.9718525922842323,3.028894232678413,4.45667428843379
1757089257108661800,3.989661865234375,0.14334990179240703,4.044527904015779,1.018705333867669
1757089257118616800,3.999616943359375,0.5382559592045844,4.955951259294152,-2.8909429750591515
1757089257128571600,4.009571533203125,-0.5100378727190196,5.8264031372368335,-5.878513848224282
1757089257138526700,4.019526611328125,-1.15598672940135,4.576563235139846,-6.602281126993894
1757089257148480800,4.029480712890625,0.09999942036569118,1.9084926113992928,-5.2635389526069165
1757089257158435800,4.039435791015625,-0.25654490381777284,0.31944413532316684,-5.044059166336059
1757089257168390700,4.049390625,-1.8904962053291499,-0.81920392126441,-6.0202744349986315
1757089257178344700,4.0593447265625,-1.0986943779923022,-0.1606798067778349,-4.052690167683362
1757089257188299800,4.0692998046875,-1.1822229944199323,0.40627018586099145,-2.5893951464325187
1757089257198254800,4.0792548828125,-1.8911884253770113,0.09776713126897811,-1.4541571905493735
1757089257208209000,4.089208984375,-1.2679916448593138,-0.3152741561621427,-0.47033670758008955
1757089257218163700,4.099163818359375,0.6141935359813273,-0.12692249860465527,0.7598422162353992
1757089257228118800,4.109118896484375,2.5188421853035687,0.9006552930265664,1.5718360599905252
1757089257238073900,4.119073974609375,1.6579494322143493,1.4690063846349715,0.3731774790763855
1757089257248028000,4.12902783203125,-2.17308638163805,0.9773819743543862,-1.6230378394395113
1757089257257982700,4.138982666015625,-1.058852781469375,0.5624743085294962,-1.573065309524536
1757089257267937500,4.1489375,-0.31683380669429895,0.5536135412037372,-0.793869573521614
1757089257277892900,4.158892822265625,-0.6273540463276207,0.46867082019448275,0.2770622066676616
1757089257287847000,4.168846923828125,-0.19441782572865485,0.1954664579987526,1.2754425453871487
1757089257297801700,4.1788017578125,0.5398340221762656,-0.30239480084478854,1.5606009647488592
1757089257307756500,4.188756591796875,0.6979057653475552,-1.0993138250648975,1.7207909421831369
1757089257317710600,4.198710693359375,0.6571364595204592,-2.1065572691977024,2.989206949934363
1757089257327666000,4.208666015625,0.2750730786770582,-2.7869442559242246,4.480701645231247
1757089257337620700,4.218620849609375,-0.11878821892254054,-2.7987983598470687,4.958872699698806
1757089257347575600,4.228575439453125,-0.22812420743219552,-1.9798329235136507,3.5541035171747204
1757089257357529600,4.238529541015625,0.44763679999411105,-0.9389438148885965,2.203398517793417
1757089257367485000,4.24848486328125,0.6527064411837608,-0.7628671170145273,1.7418232088178396
1757089257377439700,4.258439697265625,-0.12683945996370166,-1.9009984562516211,0.7669289596259593
1757089257387393800,4.268393798828125,2.0963936025798318,-3.2313357903867956,0.6718857003629207
1757089257397348600,4.2783486328125,3.2719933794677254,-4.452136645004153,0.5106991131067276
1757089257407304000,4.288303955078125,2.9063234995424745,-5.553721922132373,0.277028012137115
1757089257417258800,4.2982587890625,2.862974187159538,-4.190843085354566,0.3154363609865308
1757089257427212800,4.308212890625,0.19992519097328185,-0.7090829198569059,-0.06827946323901414
1757089257437167600,4.318167724609375,-2.308095740586519,1.9585539886415004,-0.43690643940418955
1757089257447122700,4.328122802734375,0.08198388946997001,3.1259552615046498,-0.901195098991692
1757089257457076700,4.33807666015625,1.4603846867620944,2.618404383295774,-1.8208754104837774
1757089257467031800,4.34803173828125,-0.36477789952158923,2.2997896845340726,-2.07654353146702
1757089257476986600,4.357986572265625,-1.260673430800438,1.9143395838618278,-1.4468635264098644
1757089257486941700,4.367941650390625,-1.9567150827765463,0.6307260069787501,-0.5023796130508185
1757089257496895700,4.377895751953125,-1.1918904019534586,-1.0526081879913807,0.019735797083377835
1757089257506851000,4.38785107421875,0.5943488716959953,-2.3598154064297674,-0.8030959592893719
1757089257516806000,4.397805908203125,0.24428397265970705,-2.5396687002331015,-1.6099898495569824
1757089257526760000,4.407760009765625,-1.7023562908262013,-2.211947150430083,-1.4421172086656093
1757089257536714800,4.41771484375,-0.4343868577986955,-2.3969997664421796,-1.7155460272669791
1757089257546670000,4.427670166015625,0.08826222082078457,-2.3431343207418918,-1.831338644570112
1757089257556625000,4.437625,0.058417697610589674,-2.835733713534474,-1.5415332761853933
1757089257566579000,4.447578857421875,-0.1660515629440546,-3.408684407892823,-1.589712785203755
1757089257576533800,4.45753369140625,-0.40262276926934715,-4.277495532891154,-1.340581372512877
1757089257586489000,4.467489013671875,-0.11761456290013156,-5.443479924693703,-1.1961853226684034
1757089257596443000,4.47744287109375,0.2756704600483179,-6.669608696335554,-0.9931940221227705
1757089257606398000,4.48739794921875,0.1575198814421892,-7.446228444370627,-0.6078614103503525
1757089257616352800,4.497352783203125,0.5394412234663963,-7.205646248838305,-0.31841479227542874
1757089257626307800,4.507307861328125,1.3608487922549246,-7.615860203889012,-0.8544011991128325
1757089257636262000,4.517261962890625,0.2676455772911198,-8.39195037509203,-1.4036302416220308
1757089257646217000,4.527217041015625,0.1044821187376976,-8.384381401142477,-1.2478095653131605
1757089257656171800,4.537171875,-0.6488146213769912,-8.115878933027386,-0.8739925462242215
1757089257666125800,4.547125732421875,-0.5322012988081202,-7.355167532742023,-0.29353447191044685
1757089257676081000,4.557080810546875,-0.3446316950064152,-4.89670412055552,1.9877800831258297
1757089257686036000,4.567035888671875,-1.333766724061966,7.043256131011248,3.9035856478869913
1757089257695990800,4.57699072265625,3.325855902558565,47.133825076675414,-5.9620420262604945
1757089257705944800,4.58694482421875,2.9023393983423706,53.37434911327362,-5.60559239462316
1757089257715900000,4.59689990234375,-1.701960715637356,14.804337875783443,10.724908169734478
1757089257725855000,4.60685498046875,-0.6901122619271278,0.5135626858443022,10.833799921607971
1757089257735808800,4.616808837890625,0.8695651582360268,-3.0206781929969786,6.798329768794774
1757089257745763800,4.626763916015625,1.8166881879270076,-2.7004583971261975,5.3457794289201495
1757089257755719000,4.636718994140625,1.887919194447994,-1.1845891390293837,2.2708988133534787
1757089257765674000,4.646674072265625,1.5780992120385169,1.709356524977088,0.6674924338400363
1757089257775627800,4.656627685546875,-0.0887363046059385,0.03999941743314266,-4.443696733438968
1757089257785582800,4.666582763671875,-3.009966244846582,-3.2491654615879058,-10.626762268280983
1757089257795538000,4.676537841796875,-3.2827637798070906,-3.1948996183931824,-10.181734189480542
1757089257805492000,4.686491943359375,-1.2157529235780238,-2.5599884346842763,-3.3309649161353705
1757089257815446800,4.69644677734375,-0.23093520973231643,-0.9937690455317497,0.6997212172716856
1757089257825401900,4.70640185546875,0.22961419026162475,0.01953179894387722,0.122581254529953
1757089257835357000,4.71635693359375,0.63246086794734,0.42720542186200616,0.5921925704449414
1757089257845311000,4.72631103515625,0.9062719638645649,0.44787879205644127,1.1716501624792814
1757089257855265800,4.736265869140625,0.8744646207153797,0.6185165137469768,1.0728460893779992
1757089257865220900,4.746220947265625,0.6132440532367676,0.6233990250915289,1.1072378960624336
1757089257875174700,4.756174560546875,0.3223111786594614,0.7390963653266429,0.910367124223709
1757089257885130000,4.7661298828125,0.15042552100075407,0.6008119302302598,0.6636907034695148
1757089257895084800,4.776084716796875,0.0028770167410373687,0.5311076948851347,0.045722471255064005
1757089257905040000,4.786039794921875,-0.14790509914504363,0.11936813770234585,-0.35143823321610684
1757089257914993700,4.79599365234375,-0.26924479264868423,-0.19005320077836513,-0.7835735126957297
1757089257924949000,4.805948974609375,-0.3705705114483833,-0.44466976688206195,-1.2394713605567813
1757089257934903800,4.81590380859375,-0.5171136563241482,-0.6212818868070841,-1.3134598490923641
1757089257944859000,4.82585888671875,-0.7122492749333381,-0.4903957452684641,-1.2175851074412465
1757089257954812700,4.835812744140625,-0.6179273156821727,-0.2848164740562439,-0.8150245897531508
1757089257964768000,4.84576806640625,-0.43382279417514796,0.07808744828701018,-0.48486529140919443
1757089257974722800,4.855722900390625,-0.3397106782823801,0.37590544273555276,-0.409273751591146
1757089257984676900,4.8656767578125,-0.2958037320166826,0.19596505517065524,-0.4143979627370834
1757089257994631700,4.875631591796875,-0.22767186055481434,-0.06873860518336296,-0.32731384578496214
1757089258004587000,4.8855869140625,-0.11700608474612235,-0.06827332575917243,-0.024599603727459906
1757089258014541800,4.895541748046875,-0.024805355432629583,0.04581482571363449,0.15185031137317417
1757089258024495900,4.905495849609375,0.0931973391354084,0.09836568168401717,0.14346066869050264
1757089258034450700,4.91545068359375,0.22711714928150176,0.1491904445141554,0.18831220232993362
1757089258044406000,4.925406005859375,0.3583551729977131,0.1653407843261957,0.22050036149024962
1757089258054359800,4.93535986328125,0.40876083363294596,0.17755261564552782,0.2981812748029828
1757089258064315000,4.94531494140625,0.4121101440608501,0.1949561703890562,0.35482232269644737
1757089258074269700,4.955269775390625,0.3359083633899689,0.22565233742594717,0.3466463227644562
1757089258084225000,4.96522509765625,0.23190204547047613,0.2478419574022293,0.30099750126749275
1757089258094178800,4.9751787109375,0.08717442558407783,0.2249409742861986,0.30546997050642966
1757089258104134000,4.9851337890625,-0.030395133697125126,0.20619068110883235,0.3403165352210402
1757089258114088700,4.995088623046875,-0.13756722673773764,0.19148469488620756,0.38606530996114014
1757089258124042800,5.005042724609375,-0.22607319318652153,0.17825228834748266,0.43051790741086005
1757089258133997800,5.014997802734375,-0.2639139712810516,0.2173293302386999,0.4273346011996269
1757089258143953000,5.024952880859375,-0.22410218537449836,0.12609949178397656,0.37108635201603174
1757089258153907700,5.03490771484375,-0.1596703192080371,0.06223638368248939,0.32866584491580725
1757089258163861800,5.04486181640625,-0.12084873164892196,0.10191665216386317,0.33084055860638617
1757089258173816800,5.05481689453125,-0.0964355995374266,0.1626958227753639,0.3240945914775133
1757089258183772000,5.06477197265625,-0.0931856578307692,0.19398761761784553,0.2905924271091819
1757089258193726000,5.074725830078125,-0.10578794063925742,0.12852818023562432,0.2534215111002326
1757089258203680800,5.0846806640625,-0.14417349313497543,0.053120764812827105,0.1522992241844535
1757089258213635800,5.0946357421875,-0.22518705800175665,0.09194178611636161,-0.02336772384494543
1757089258223591000,5.1045908203125,-0.3255015356659889,0.04420329886376857,-0.16146891132891178
1757089258233544700,5.114544677734375,-0.549703089761734,-0.11348024870753287,-0.26482144151479003
1757089258243499800,5.124499755859375,-0.5848737718641758,-0.11696283012628554,-0.31236323715150355
1757089258253454800,5.134454833984375,-0.518479099458456,-0.05691664996445179,-0.3751213066205382
1757089258263409000,5.144408935546875,-0.5457669193565845,-0.1760328587323427,-0.2548851539120078
1757089258273363700,5.15436376953125,-0.5248562332749367,-0.1997311297059059,-0.24705285285115242
1757089258283318800,5.16431884765625,-0.5356032527387142,-0.1024380456894636,-0.05254793336093425
1757089258293273900,5.17427392578125,-0.4982312611997127,-0.1739034454882145,0.10306143828481436
1757089258303228000,5.184227783203125,-0.5162310282707214,-0.10844985332489013,0.19458821385949848
1757089258313182700,5.1941826171875,-0.5399006576716899,0.08818447940945624,0.10765519581586122
1757089258323137800,5.2041376953125,-0.6069523326814175,0.05399871669113636,0.05637070651948452
1757089258333092900,5.2140927734375,-0.587490128375031,0.04277355832159519,0.0038791795209050174
1757089258343047000,5.224046875,-0.47003743237257,0.05034954653382301,0.10157266103178263
1757089258353001700,5.234001708984375,-0.34017420414090155,0.06223346107304096,0.06963321593552828
1757089258362956800,5.243956787109375,-0.152417589867115,0.07508826647102833,0.05829641388505697
1757089258372910800,5.253910888671875,-0.007771784778963774,0.11620879688858986,0.07773205897808075
1757089258382866000,5.263865966796875,0.11688333514928817,0.19470891762971876,0.0946305868089199
1757089258392820700,5.27382080078125,0.22246669312715528,0.24726094264388082,0.1522507088676095
1757089258402775800,5.28377587890625,0.24778350521326065,0.29458266578912734,0.22072744824439286
1757089258412729900,5.293729736328125,0.2783879023134708,0.3210305277317762,0.2468333648815751
1757089258422685000,5.303684814453125,0.3002969517827034,0.3103273474097252,0.21609949618279933
1757089258432639700,5.3136396484375,0.25466683498620984,0.3088753950357437,0.15889730727523566
1757089258442593800,5.32359375,0.20802668263064697,0.29858196455836294,0.1329033265799284
1757089258452548900,5.333548828125,0.16572130807638166,0.27776772458851334,0.1573874872341752
1757089258462504000,5.34350390625,0.10754033726453781,0.24304770886301993,0.17944003682732582
1757089258472458800,5.353458740234375,0.13017066847933456,0.14472703536450862,0.25393092192709443
1757089258482413000,5.3634130859375,0.14959781973864883,0.08961363542973995,0.3478334867224097
1757089258492368100,5.3733681640625,0.14162263960838317,0.09377835389375686,0.47643736254274843
1757089258502323200,5.3833232421875,0.13740242809746414,0.11430617813766002,0.5780564930647611
1757089258512278000,5.393278076171875,0.10257188293589278,0.12773790664076803,0.5735252793759107
1757089258522232000,5.403232177734375,0.05110241072773933,0.11810381685495376,0.3421168626412749
1757089258532187100,5.413187255859375,0.10240008829925208,0.08326689675152302,0.26629180632829663
1757089258542142200,5.42314208984375,0.10011219655778258,0.07447802561819553,0.17970920915752647
1757089258552096300,5.43309619140625,0.11095277605652809,0.04700958845615387,0.0797922063782811
1757089258562051000,5.443051025390625,0.1762508853971958,0.06059563073813915,-0.026489655257761476
1757089258572006100,5.453006103515625,0.29588965673446654,0.11872691718935965,-0.04325637340247631
1757089258581961200,5.462961181640625,0.3546784937789663,0.20051672712564467,-0.05973901390880346
1757089258591915000,5.4729150390625,0.3813081785619259,0.23626374781131743,-0.10550737013220786
1757089258601870000,5.4828701171875,0.3455669665625319,0.21700199798047543,-0.16727847439050675
1757089258611825200,5.4928251953125,0.2600467379262671,0.14478665659725665,-0.2766349211663008
1757089258621780200,5.5027802734375,0.16883100106213242,0.04409691587984561,-0.4039990260586142
1757089258631734000,5.512734130859375,0.07904021896719932,-0.07165244680345058,-0.515920354886353
1757089258641689000,5.522689208984375,0.03655716802477836,-0.152553783467412,-0.6239449685364962
1757089258651644200,5.53264404296875,-0.0024771307032555342,-0.23962533319890497,-0.707648503139615
1757089258661599200,5.54259912109375,-0.03206329067163169,-0.2665244460403919,-0.7765966594204307
1757089258671553000,5.552552978515625,-0.004115034103393554,-0.2626718622654676,-0.8329360940188169
1757089258681508000,5.562508056640625,0.000812448894046247,-0.2341167989104986,-0.8573004276856779
1757089258691463200,5.572463134765625,-0.01130118274781853,-0.16753858663141727,-0.8571545894742012
1757089258701418200,5.582418212890625,-0.021018311174586413,-0.07882043873667717,-0.8066007525399327
1757089258711372000,5.5923720703125,-0.022534560956433414,-0.05843173070251941,-0.6918003611445427
1757089258721327000,5.6023271484375,0.030875615257024765,-0.08298340363502502,-0.5035647311821579
1757089258731282200,5.6122822265625,0.08425188920088111,-0.0754945091843605,-0.38063276351839304
1757089258741237200,5.6222373046875,0.0470996048271656,-0.054496729341149325,-0.23441724316179752
1757089258751191000,5.63219091796875,0.007550853770971298,-0.004344751206040382,-0.03162351101487875
1757089258761146000,5.64214599609375,0.02260689554028213,-0.005764554876089096,0.18566577947437762
1757089258771101200,5.65210107421875,0.13556816187500953,0.09739888247847557,0.2662590731024742
1757089258781055200,5.66205517578125,0.3731774790763855,0.1655412753343582,0.38378509006947276
1757089258791010000,5.672010009765625,0.5258136801302433,0.19211597852706908,0.4066676607459783
1757089258800965000,5.681965087890625,0.5174537749987095,0.29106735114455223,0.3390598131582141
1757089258810920200,5.691920166015625,0.45564416536092756,0.42923721995055675,0.276779882594943
1757089258820874200,5.701874267578125,0.39713907716125246,0.5084656549662351,0.2506114221155643
1757089258830829000,5.7118291015625,0.2987174275062978,0.4256687138140201,0.2146133492782712
1757089258840784100,5.7217841796875,0.03947627034187317,0.21759821030795573,-0.019903262604773042
1757089258850739200,5.7317392578125,-0.1729356233693659,0.02590133397579193,-0.19058190082758664
1757089258860693200,5.741693359375,-0.31122648820653553,-0.14845920763015746,-0.17088000601381062
1757089258870648000,5.75164794921875,-0.31077158404588695,-0.42411213202178477,-0.0440846409201622
1757089258880603100,5.76160302734375,-0.29779972813948985,-0.5992682079195976,-0.2173258231073618
1757089258890558200,5.77155810546875,-0.059190001723915336,-0.5705933175772429,-0.2692719911828637
1757089258900512300,5.78151220703125,-0.04294131610393524,-0.5845090302050113,-0.07027063705623149
1757089258910467000,5.791467041015625,0.015934212843328712,-0.6058733052730559,-0.04519406346678734
1757089258920422100,5.801422119140625,0.10196034517511725,-0.6230506500452756,-0.020115736311674116
1757089258930377200,5.811377197265625,0.03187953160256147,-0.6328735404014587,-0.05118687414079904
1757089258940331300,5.821331298828125,-0.01538359322324395,-0.6665501845538616,-0.15777882463932036
1757089258950286000,5.8312861328125,-0.1072061368741095,-0.6317080037534236,-0.26622020239681005
1757089258960241200,5.8412412109375,-0.28715470774546265,-0.5291495465546846,-0.3833879074454307
1757089258970196200,5.8511962890625,-0.36937925583720205,-0.4089607401192188,-0.37515199401974675
1757089258980150300,5.861150390625,-0.3559304300688207,-0.4051274455666542,-0.3580576513558626
1757089258990105000,5.87110498046875,-0.2679705531954765,-0.40236674868166444,-0.27381752565801143
1757089259000060200,5.88106005859375,-0.190167182546854,-0.35816871051490307,-0.17928747661411762
1757089259010015200,5.89101513671875,-0.10273425215706229,-0.5243272409647702,-0.005282616578042507
1757089259019969300,5.90096923828125,0.05391746814846992,-0.6677385175555944,0.013171908523142336
1757089259029924000,5.910924072265625,0.2160837140917778,-0.7172668108344078,-0.02861789945811033
1757089259039879200,5.920879150390625,0.3461867424286902,-0.6048316872656345,-0.1374623050585389
1757089259049834200,5.930834228515625,0.34708792905211444,-0.4078121546059847,-0.3619239713951945
1757089259059789000,5.9407890625,0.3012029607117176,-0.34737142216861244,-0.6680550361588596
1757089259069743000,5.9507431640625,0.19443083134070038,-0.3193085262447595,-0.8941627161368727
1757089259079698200,5.9606982421875,-0.01209010463580489,-0.3197901722818613,-1.0547367244526744
1757089259089653200,5.9706533203125,-0.19200170449763534,-0.39247254665493964,-1.103567098595202
1757089259099607300,5.980607177734375,-0.2527930039383471,-0.4402455206990242,-1.1108844358712433
1757089259109562000,5.99056201171875,-0.23478388451710341,-0.38942192691266536,-1.0126651769205928
1757089259119517200,6.00051708984375,-0.1991222040273249,-0.19516776731312274,-0.8164765421271324
1757089259129472300,6.01047216796875,-0.1703647499680519,0.05680968245863914,-0.474043453143537
1757089259139427000,6.020427001953125,-0.11704700127840041,0.3322667920172214,-0.08242781557887792
1757089259149381000,6.030381103515625,-0.011010054314136505,0.5180833781391382,0.32335370998233554
1757089259159336200,6.040336181640625,0.1399951845370233,0.5201198524028062,0.5938005901634693
1757089259169291300,6.050291259765625,0.23541955207213758,0.37012919742166994,0.7690636335670947
1757089259179246000,6.06024609375,0.23316315144747493,0.28167116176784035,0.8356547053277492
1757089259189200100,6.0702001953125,0.14835048655867575,0.2222702937722206,0.7876485070496797
1757089259199155200,6.0801552734375,0.0707749333165586,0.2827116107314825,0.6370736224398017
1757089259209110000,6.090110107421875,0.05722936917543411,0.40088557021319865,0.3340831937894225
1757089259219065000,6.100065185546875,0.11078107275143265,0.4642483275771141,0.027817104469239712
1757089259229019100,6.11001904296875,0.17657602569833397,0.4026093252658844,-0.25417875920832156
1757089259238974200,6.11997412109375,0.25506767087206245,0.22758652035892007,-0.4922139006063342
1757089259248929000,6.129928955078125,0.3288203048251569,0.05456921005547046,-0.5724488823160528
1757089259258884000,6.139884033203125,0.29440380209088324,0.03357143021225929,-0.7231573301777243
1757089259268838100,6.149838134765625,0.2777040117025375,-0.05832593224048614,-0.7059571890518069
1757089259278793200,6.159793212890625,0.24375264226198196,-0.04017769660949707,-0.5418161359041929
1757089259288748000,6.169748046875,0.314665668874979,0.016683423775434494,-0.3368357073679566
1757089259298703000,6.179703125,0.4166309824861586,0.06572071866691112,-0.11427256812900304
1757089259308657200,6.1896572265625,0.46944816124252975,0.07430208452939986,0.11108429348170756
1757089259318612200,6.1996123046875,0.4670292635325342,0.1290869831621647,0.30567718351632356
1757089259328567000,6.209567138671875,0.42106604232415556,0.1771399431914091,0.4036456825762987
1757089259338522000,6.219522216796875,0.28051315083913503,0.2524754624217749,0.41500323515385384
1757089259348476200,6.22947607421875,0.13496142815351486,0.24032091424763202,0.3408724155381322
1757089259358431000,6.239430908203125,0.04210179653987288,0.18443010019958017,0.18324176719784735
1757089259368386000,6.249385986328125,-0.06450220972262323,0.056609191450476645,0.05078180047124624
1757089259378341000,6.259341064453125,-0.1847171004474163,-0.026865795093774795,-0.09959697704464196
1757089259388295200,6.269295166015625,-0.2516507751006633,-0.13462649711072444,-0.17067366978675125
1757089259398250000,6.27925,-0.2709855171024799,-0.1429015735030174,-0.25487287895232436
1757089259408205000,6.289205078125,-0.24041721422895787,-0.08229483684897422,-0.29292934562414885
1757089259418160000,6.29916015625,-0.21686711955443022,0.03576747895181179,-0.29811230121999976
1757089259428114200,6.3091142578125,-0.21830255918502806,0.09243570711314678,-0.2697121361657977
1757089259438069000,6.319069091796875,-0.2650559809230268,0.13447218333184718,-0.17877601996064185
1757089259448024000,6.329024169921875,-0.3207809368848801,0.10651800847947597,-0.1186900923103094
1757089259457979100,6.338979248046875,-0.32070728712677954,0.045342532026767725,-0.08382453063428401
1757089259467934200,6.348934326171875,-0.3207106481276452,-0.03386135306954384,-0.08558218795657158
1757089259477888000,6.358887939453125,-0.3350784884370863,-0.09755962599813937,-0.13472995748519898
1757089259487842600,6.368842529296875,-0.31601832559294996,-0.1336830787807703,-0.177723880559206
1757089259497797400,6.37879736328125,-0.3134009096361697,-0.12218728677630424,-0.2548506671205163
1757089259507752400,6.38875244140625,-0.2965678482569754,-0.06373334424197673,-0.2816962962090969
1757089259517706500,6.39870654296875,-0.26159108129143716,0.022985738790035248,-0.28171061699539424
1757089259527661600,6.40866162109375,-0.24810016994699835,0.07227846974730491,-0.24385639489740132
1757089259537616400,6.418616455078125,-0.2557983232341707,0.04055295966267586,-0.1820762305498123
1757089259547571500,6.428571533203125,-0.2798445308625698,-0.004665653723478317,-0.10953823308348655
1757089259557525500,6.438525390625,-0.26588950913771986,-0.032599954831600185,-0.053714639052748675
1757089259567480600,6.44848046875,-0.2418646365582943,-0.08043722628355025,-0.0013487842604517936
1757089259577435400,6.458435302734375,-0.23200594423636792,-0.11380290479063987,0.07095511218905448
1757089259587390500,6.468390380859375,-0.2001274355471134,-0.08953647854030132,0.17404051587134597
1757089259597344500,6.478344482421875,-0.13037190840616822,-0.05342646976113319,0.26189064875990153
1757089259607299600,6.488299560546875,-0.0659798079945147,0.0497007272362709,0.36371348516047
1757089259617254400,6.49825439453125,0.06190780931524932,0.1571188994258642,0.457687361626327
1757089259627209500,6.50820947265625,0.17268866287097334,0.23693828607201575,0.5427952100694179
1757089259637163500,6.51816357421875,0.28082769668102264,0.2780442034423351,0.6333981487974524
1757089259647118600,6.52811865234375,0.27054814859852194,0.2794306893646717,0.5626429430946708
1757089259657073400,6.538073486328125,0.19938757696524262,0.23210136743485926,0.3542036062762141
1757089259667028500,6.548028564453125,0.12941541139893234,0.1269376961737871,0.2697477920010686
1757089259676983300,6.5579833984375,0.08057882671132684,0.06668517978489398,0.13803805911988018
1757089259686937600,6.5679375,0.009435206212848424,-0.007988076144456863,0.038298750995099544
1757089259696892400,6.577892333984375,-0.044569867153838275,-0.050693245404958724,-0.044535015036165713
1757089259706847500,6.587847412109375,-0.048188057650998234,-0.0614472791314125,-0.11186959864050149
1757089259716802300,6.59780224609375,-0.048085254863649604,-0.020170681369304656,-0.1064730002939701
1757089259726756600,6.607756591796875,0.02267711123228073,0.02567570852637291,-0.025549159537255763
1757089259736711400,6.61771142578125,0.11621347306370734,0.07988602214157581,0.0634881373092532
1757089259746666500,6.62766650390625,0.1991943924807012,0.12656243312060833,0.13023527641445398
1757089259756621300,6.637621337890625,0.23574951467886565,0.14581132346987724,0.21683160984963176
1757089259766575600,6.64757568359375,0.22653365030512213,0.13472937296330928,0.2928831683948636
1757089259776530400,6.657530517578125,0.19560922747030854,0.12622633303403855,0.34312487064003944
1757089259786485500,6.667485595703125,0.15774974467530845,0.13017770100831985,0.35906098317950963
1757089259796440300,6.6774404296875,0.12293883579596876,0.11421674628853798,0.363439344394207
1757089259806394600,6.68739453125,0.04696626077108085,0.09651917703449725,0.36237376098930835
1757089259816349400,6.697349365234375,-0.034982466053962706,0.061271922564506524,0.3198766815215349
1757089259826304500,6.707304443359375,-0.12022446227073669,0.07176759761571884,0.30218700331300496
1757089259836259300,6.71725927734375,-0.16422500510402022,0.0813935040950775,0.2307183886438608
1757089259846213600,6.727213623046875,-0.15658632691912353,0.11297755988240242,0.14828414332419634
1757089259856168400,6.73716845703125,-0.1531480230335146,0.10180267039537429,0.13177958324700592
1757089259866123500,6.74712353515625,-0.095706034020707,0.11028408301472663,0.08221592639386653
1757089259876078300,6.757078369140625,-0.03199797035045922,0.09872808525562286,0.07055062304139137
1757089259886032600,6.76703271484375,0.010175283990427851,0.08786649950146674,0.06519932514131069
1757089259895987500,6.776987548828125,0.0244517196893692,0.06874795753359794,0.06018354280591011
1757089259905942500,6.786942626953125,-0.027976459749415514,0.05733166050612926,0.08836743476092815
1757089259915897300,6.7968974609375,-0.09201901607103645,0.022280805391073227,0.08422960430383682
1757089259925851600,6.8068515625,-0.14297412728257478,0.03087093908190727,0.07517360666692256
1757089259935806500,6.816806396484375,-0.22946933843083678,-0.0032779987573623654,0.10571662896871566
1757089259945761500,6.826761474609375,-0.25247137076854703,0.012781740161776542,0.10963555597811937
1757089259955716400,6.83671630859375,-0.27206454451084133,0.02292845564484596,0.14255407523959873
1757089259965670700,6.846670654296875,-0.22057642240114508,0.048319502010941505,0.17949439736306666
1757089259975625500,6.85662548828125,-0.19653956712298093,0.03070318129956722,0.14816080920547245
1757089259985580500,6.86658056640625,-0.1516729089796543,0.024826982742547986,0.10252689301669597
1757089259995535400,6.876535400390625,-0.17502112440653145,0.037762452161312104,0.0657826779872179
1757089260005489700,6.88648974609375,-0.18994279920645057,0.04976502464413642,0.04628828844428062
1757089260015444500,6.896444580078125,-0.12412322327494621,0.05205342784225941,0.03162643362432718
1757089260025399600,6.906399658203125,-0.0796807818930596,0.03479366548359394,-0.004530044645071029
1757089260035354400,6.916354248046875,-0.053390229403972624,-0.005287585014104843,-0.05808394017815589
1757089260045308700,6.92630859375,-0.05406820173077285,-0.04796177461445331,-0.05989215864390134
1757089260055263500,6.936263427734375,-0.07066175526566804,-0.029086393752694128,-0.16824381229132412
1757089260065218600,6.946218505859375,-0.11142623878717421,-0.009273439779877662,-0.11369593728482723
1757089260075173400,6.95617333984375,-0.13989713099002837,-0.012041735449433325,-0.045995150716602796
1757089260085127400,6.96612744140625,-0.14070041019693016,-0.027303601989150047,-0.04386281486302614
1757089260095082500,6.97608251953125,-0.16609430610723794,-0.07617489266395569,-0.06825812819004058
1757089260105037600,6.98603759765625,-0.16217333327122033,-0.12352701094746589,-0.08437281216681003
1757089260114992400,6.995992431640625,-0.14471483347006142,-0.10914660341739654,-0.12018413026034831
1757089260124946400,7.005946533203125,-0.07170337327308952,-0.04905424602627754,-0.13463234232962132
1757089260134901500,7.015901611328125,0.03749817520193755,0.0091454294860363,-0.1362254567399621
1757089260144856600,7.025856689453125,0.1014063645541668,0.04524491687119007,-0.22161562925577163
1757089260154811400,7.035811279296875,0.1255260027449578,0.066118193551898,-0.24772534528523682
1757089260164765400,7.045765380859375,0.13292385791130362,0.08047112855315208,-0.21839871303588151
1757089260174720500,7.055720458984375,0.1384451055508107,0.09601356559991836,-0.2231593515664339
1757089260184675300,7.06567529296875,0.0718564449429512,0.07079378414750098,-0.22094752073585985
1757089260194630400,7.07563037109375,0.054579146927595135,0.08332476441860198,-0.23040771525949238
1757089260204584400,7.08558447265625,0.008914031882956624,0.09737608612477779,-0.21221008752882478
1757089260214539500,7.09553955078125,-0.040353053176403045,0.07676409072875977,-0.16863544195741414
1757089260224494300,7.105494384765625,-0.0398842666208744,0.06452595592439174,-0.15941139427721499
1757089260234449400,7.115449462890625,0.015103972564265131,0.0827139390438795,-0.10721534309387207
1757089260244403500,7.125403564453125,0.048231166140362616,0.1219838731586933,-0.041492870861291886
1757089260254358500,7.135358642578125,0.08258242161870002,0.15465513966083524,0.02153086380660534
1757089260264313300,7.145313232421875,0.15754150875210762,0.1316179629445076,0.0460889664798975
1757089260274268400,7.155268310546875,0.1760720216989517,0.13575170174837112,0.0785264242261648
1757089260284222500,7.165222412109375,0.11012969617061316,0.10494213746488093,0.0828489636003971
1757089260294177500,7.175177490234375,0.026150340300798415,0.06477730033695697,0.07532324427068234
1757089260304132400,7.18513232421875,-0.09209032774157822,0.04743862752318382,0.0565109917730093
1757089260314087400,7.19508740234375,-0.1998586285430938,0.030752281138300894,0.023752923770248888
1757089260324041500,7.20504150390625,-0.2728162396609783,-0.0045101709008216855,0.005526654466986656
1757089260333996500,7.21499658203125,-0.2855471264183521,-0.008993453794717788,-0.003301379632949829
1757089260343951400,7.224951416015625,-0.2633306184351444,-0.032250995263457295,-0.021423896300792694
1757089260353906400,7.234906494140625,-0.21713702253699302,-0.040244332104921336,-0.04937777889221907
1757089260363860500,7.244860595703125,-0.15666940209269523,-0.03909633111357689,-0.03123305039256811
1757089260373815600,7.254815673828125,-0.14218728775382042,-0.042134675896167754,-0.01807780074328184
1757089260383770400,7.264770263671875,-0.10866956049017608,-0.044886604952812194,-0.04316489572674036
1757089260393725400,7.274725341796875,-0.11390220044665038,-0.05267009843587875,-0.06078209322094917
1757089260403679500,7.284679443359375,-0.16127419247440994,-0.048856093105673785,-0.06852905408591031
1757089260413634600,7.294634521484375,-0.2015829681176692,-0.03987374522686005,-0.0900008811816573
1757089260423589400,7.30458935546875,-0.1930092010397464,-0.041112931632995606,-0.06479980442970991
1757089260433544400,7.31454443359375,-0.1973439423084259,-0.00504500842988491,-0.04349485833346844
1757089260443498500,7.32449853515625,-0.14629289644174276,0.027128829944133757,-0.004017711208760738
1757089260453453600,7.33445361328125,-0.12268288827352225,0.02293897703886032,-0.013981179079413413
1757089260463408400,7.344408447265625,-0.0742611679971218,0.0012619827598333358,-0.0034597850650548933
1757089260473363500,7.354363525390625,-0.000012786416336894035,0.030423779836297033,0.0023167525097727774
1757089260483317200,7.364317138671875,0.06411511010117829,0.06831482681334018,0.00646978053599596
1757089260493272600,7.3742724609375,0.09093765057511627,0.10396832399666309,0.01040332059264183
1757089260503227400,7.384227294921875,0.10954049810580908,0.10773732114136218,0.008949030131101607
1757089260513182500,7.394182373046875,0.07849193743467331,0.09917407545745373,0.014442366850376129
1757089260523136300,7.40413623046875,0.02853628558926284,0.08261457032263278,0.012488894695043563
1757089260533091600,7.414091552734375,-0.0187749161619693,0.030434885752201078,0.003911912746727466
1757089260543046400,7.42404638671875,-0.04563135890550911,-0.018794716840982436,-0.032088790439069266
1757089260553001500,7.43400146484375,-0.06704590285606682,-0.04129471794068813,-0.047802200138568875
1757089260562955300,7.443955322265625,-0.07713942684717476,-0.053124856466054915,-0.0778559776186943
1757089260572910600,7.45391064453125,-0.06814831114001571,-0.0548638090878725,-0.08613368435949087
1757089260582865400,7.463865478515625,-0.02364749063439667,-0.029497312641143796,-0.07353489954918623
1757089260592820500,7.473820556640625,0.010523659036681055,-0.018173954594135282,-0.04074585188627243
1757089260602774300,7.483774169921875,-0.012375497448444366,0.01693885984122753,-0.024254443551599978
1757089260612729600,7.4937294921875,-0.045333252741768956,0.023416531422734258,0.012255085939168929
1757089260622684400,7.503684326171875,-0.05809219654984772,0.000040332010388374324,0.0022916180685162543
1757089260632639500,7.513639404296875,-0.08269348077774047,-0.0014811784684658049,-0.030237609614431855
1757089260642593300,7.52359326171875,-0.10481880334615706,-0.02024900730252266,-0.05361906972378492
1757089260652548600,7.533548583984375,-0.09104980571269988,-0.04009294093549251,-0.10634645130485296
1757089260662503400,7.54350341796875,-0.05842413191795349,-0.05527589702010154,-0.12930296400040386
1757089260672458500,7.55345849609375,0.019201397945731877,-0.059170566371083255,-0.15352759693562984
1757089260682412300,7.563412353515625,0.10476268924474716,-0.07301262924075126,-0.132172966478765
1757089260692367600,7.57336767578125,0.1251297699689865,-0.04667582645714283,-0.1137801084369421
1757089260702322400,7.583322509765625,0.12901442938260732,-0.044244799917936325,-0.0889510798677802
1757089260712277500,7.593277587890625,0.08987732786722481,-0.035981998485326766,-0.06414367860853672
1757089260722231300,7.603231201171875,0.04838438394069671,-0.0028881226569414135,-0.06640022536367178
1757089260732186600,7.6131865234375,0.019179259179159996,0.0074503160059452055,-0.0331590500190854
1757089260742141400,7.623141357421875,-0.00008066402077674865,0.008287351351976394,-0.006513911938667297
1757089260752096500,7.633096435546875,-0.001046367247775197,0.010833528703451155,0.0056391749307513235
1757089260762050300,7.64305029296875,0.024541662995144722,0.031119945406913756,-0.007509060455858707
1757089260772005600,7.653005615234375,0.022646716094017028,0.028366262784600256,-0.01321136375069618
1757089260781960400,7.66296044921875,0.005427870267629623,0.045213352689146995,-0.009229892899096011
1757089260791915500,7.67291552734375,0.0030219781696796417,0.04036532813608646,0.0013400164321064948
1757089260801869300,7.682869384765625,-0.003440495842695236,0.006740121909976005,-0.032877602729201316
1757089260811824600,7.69282470703125,-0.016791121933609245,-0.0017804536759853363,-0.03467383849620819
1757089260821779500,7.702779541015625,-0.015861585998535155,-0.02101180836856365,-0.036844168272614476
1757089260831734500,7.712734619140625,-0.028341201408579944,-0.023178046491742134,-0.057554655607044695
1757089260841688300,7.722688232421875,-0.047568464447930454,-0.029077041402459144,-0.09681728319823742
1757089260851643600,7.7326435546875,-0.04131517620682716,-0.039652795952558516,-0.16738456511348485
1757089260861598500,7.742598388671875,-0.0340939927816391,-0.037089667466282845,-0.19793255585134029
1757089260871553500,7.752553466796875,-0.019040216034650802,-0.03485562480390072,-0.18989508760720492
1757089260881507300,7.76250732421875,0.00771795396618545,-0.04481587780416012,-0.1642863068372011
1757089260891462700,7.772462646484375,0.0519102930445224,-0.006624971097707748,-0.13645488158166408
1757089260901417500,7.78241748046875,0.08295300849676132,-0.001645429119467735,-0.10489186858236789
1757089260911372500,7.79237255859375,0.06536584081463516,-0.00032850130200386043,-0.08927139786332845
1757089260921326300,7.802326416015625,0.03341594738960266,-0.010267126992344855,-0.07831248921453952
1757089260931281700,7.81228173828125,0.017449147450923918,-0.015201076263189315,-0.05314531473219394
1757089260941236500,7.822236572265625,-0.00274842192530632,0.009258826732635497,-0.04864332713782787
1757089260951191600,7.832191650390625,-0.04625672426223754,0.01721767678260803,-0.035243455077707764
1757089260961145300,7.842145263671875,-0.010253609923645853,0.03729308108389377,-0.06816752729713917
1757089260971100700,7.8521005859375,0.012593158787116407,0.06334872883856296,-0.0747580116033554
1757089260981055500,7.862055419921875,0.011862287229299544,0.0341723187148571,-0.10241115768253803
1757089260991010300,7.87201025390625,0.06564524227790534,0.02237082176208496,-0.1402402453392744
1757089261000964400,7.88196435546875,0.08939327067732811,-0.018555062866210937,-0.16994973942637442
1757089261010919700,7.891919677734375,0.10669402263350784,-0.04331541011333465,-0.16049071394652129
1757089261020874500,7.90187451171875,0.1005869379300624,-0.04698445401489734,-0.1333092770323157
1757089261030829300,7.911829345703125,0.07963876938223838,-0.057337505725026126,-0.13324614866822956
1757089261040783400,7.921783447265625,0.04325812696814537,-0.06416413687467575,-0.12625818947702647
1757089261050738700,7.93173876953125,0.019763781068846582,-0.07177928805351257,-0.1218751520872116
1757089261060693500,7.941693603515625,0.0048691404063254595,-0.05675356835722923,-0.10024842669069767
1757089261070648300,7.9516484375,0.03163775873593986,-0.04482464563250541,-0.06282762757390738
1757089261080602400,7.961602294921875,0.041907808337733145,-0.025586861199140547,-0.010871230365335941
1757089261090557700,7.9715576171875,0.07537168652229011,0.014237199667096138,0.050903965546190734
1757089261100512500,7.981512451171875,0.06855740339756011,0.042593525579571724,0.0743576141089201
1757089261110467300,7.99146728515625,0.07188800912499427,0.047212417551875115,0.083731299392879
1757089261120421400,8.00142138671875,0.07682605004906654,0.024644027391076087,0.06007891338765621
1757089261130376700,8.011376708984375,0.06550503008961678,0.023424130207300185,0.034976328574120995
1757089261140331500,8.02133154296875,0.05472293931245804,0.027416999235749244,0.0220902512550354
1757089261150286300,8.031286376953124,0.08854695604629814,0.014012158739566802,0.0074997081056237215
1757089261160240400,8.041240478515626,0.10725976675748825,0.006088380002975464,0.011396131022274493
1757089261170195500,8.051195556640625,0.1160228458624333,-0.025197569620609282,-0.021985037314891813
1757089261180150500,8.061150634765625,0.12109890701770781,-0.026480595168471333,-0.048750294643640515
1757089261190105300,8.071105224609376,0.100734091315791,-0.0008574936121702193,-0.021544600071012974
1757089261200059400,8.081059326171875,0.09066745533160865,-0.011316343784332274,-0.03442658573687076
1757089261210014500,8.091014404296875,0.0712205581922084,-0.014471592944860457,-0.02624590962976217
1757089261219969500,8.100969482421876,0.031842414462566374,-0.03755611593425274,-0.03229278857856989
1757089261229924400,8.11092431640625,-0.010876856388524174,-0.031873978644609446,-0.036653614136576654
1757089261239878400,8.12087841796875,-0.002484144965931773,-0.02603109783530235,-0.04490004895627498
1757089261249833500,8.13083349609375,0.013717486641928553,0.012188450443744659,-0.043963644888997074
1757089261259788500,8.14078857421875,0.024528803513571618,0.0232318225055933,-0.014047230052947998
1757089261269743400,8.150743408203125,0.033280338311195375,0.04115560173094272,0.005801672016084194
1757089261279697400,8.160697509765624,0.026456629770994184,0.05217325482964515,0.011847089660167693
1757089261289652500,8.170652587890626,0.026496377259492873,0.034118542701005936,-0.0036029929280281064
1757089261299607600,8.180607666015625,0.000692073917388916,0.05285831448435783,-0.019543781642615794
1757089261309562400,8.190562255859374,-0.0008616583306342363,0.04406418265402317,-0.035332886926829815
1757089261319516400,8.200516357421876,-0.02419336101412773,0.0182516960054636,-0.059354398505389684
1757089261329471500,8.210471435546875,-0.03558211244754493,0.02260346147418022,-0.06514759495407342
1757089261339426600,8.220426513671875,-0.03362053005099296,0.07124503504633903,-0.07914952456057071
1757089261349381400,8.23038134765625,-0.046636590425297615,0.10255261197984218,-0.054581485015153884
1757089261359335400,8.24033544921875,-0.06727846950292588,0.14644143806695936,-0.05678542480021715
1757089261369290500,8.25029052734375,-0.07610701505951582,0.1689706652611494,-0.05026245277225971
1757089261379245600,8.26024560546875,-0.05685754018835723,0.14272504789233206,-0.016420681186020372
1757089261389200400,8.270200439453125,-0.048029067697003484,0.10727496432662009,0.03193067726790905
1757089261399154400,8.280154541015625,-0.02265146533437073,0.08338672373890876,0.05376461567431688
1757089261409109200,8.290109130859374,0.004456394886970519,0.06336743353903293,0.06448679295778274
1757089261419064600,8.300064697265626,0.0007972878575325012,0.023877719193696974,0.09212444920688867
1757089261429019400,8.310019287109375,-0.046146761081740255,-0.014057751446962356,0.0897138809338212
1757089261438973400,8.319973388671874,-0.09019874184131622,-0.04254910191595554,0.08252367716878652
1757089261448928300,8.32992822265625,-0.14298231058903038,-0.07607084776759147,0.08496610188484191
1757089261458883600,8.339883544921875,-0.1658416465204209,-0.1011053357809782,0.0747276164650917
1757089261468838400,8.34983837890625,-0.16921083069257437,-0.11839140162467957,0.05933832415342331
1757089261478792400,8.35979248046875,-0.11137012468576431,-0.09027063803374767,0.049987727484107014
1757089261488748300,8.369748291015625,-0.08326507012061775,-0.046101825961470604,0.05911006835550069
1757089261498703400,8.379703369140625,-0.011758169267699122,0.004520107772946358,0.058066989043354986
1757089261508658200,8.389658203125,0.0021137042183429003,0.04797229600846767,0.06831161194294691
1757089261518612200,8.3996123046875,-0.023037176716327667,0.0551385343760252,0.06304886910915375
1757089261528567300,8.4095673828125,-0.08374927344098687,0.04099193560183048,-0.0025327333480119705
1757089261538522400,8.4195224609375,-0.11355623655319214,0.04049801460504532,-0.05745996306091547
1757089261548477200,8.429477294921876,-0.09994155269861221,0.018957798448204992,-0.09574790040105581
1757089261558431200,8.43943115234375,-0.12454992425441741,-0.017594693401455877,-0.12305091786831616
1757089261568386300,8.44938623046875,-0.11289463083930312,-0.04870704002380371,-0.15270225202739238
1757089261578341000,8.459341064453126,-0.08843355879969894,-0.06585398965775967,-0.16041268027424813
1757089261588296200,8.469296142578125,-0.07906126175522804,-0.04406535169780254,-0.1562438701570034
1757089261598250200,8.479250244140625,-0.06234978092908859,-0.029248306316137312,-0.1654366459161043
1757089261608205300,8.489205322265626,-0.02369067218899727,-0.004303250151872635,-0.15919161404669283
1757089261618160000,8.49916015625,-0.00440853715725243,0.020716624814271927,-0.15237345846444367
1757089261628115200,8.509115234375,-0.02768419880457222,0.000817161601781845,-0.1506596402838826
1757089261638069200,8.5190693359375,-0.06276135740466415,-0.024169980138540267,-0.14201836092770098
1757089261648024300,8.5290244140625,-0.069486866267398,-0.03252630507349968,-0.1359434249281883
1757089261657979100,8.538979248046875,-0.036302316480875015,-0.035305706658959386,-0.12152268538773059
1757089261667934200,8.548934326171874,0.004839768181368709,-0.03612345278263092,-0.09550853868722915
1757089261677888300,8.55888818359375,0.02858312040567398,-0.04931961896419525,-0.0804611916810274
1757089261687843300,8.56884326171875,0.03134673990011215,-0.015307459247112274,-0.0821542593345046
1757089261697798100,8.578798095703124,0.052424672307446595,-0.01618599564731121,0.032492987325787544
1757089261707753200,8.588753173828126,0.006866963160037994,0.06487725358009339,-0.0543824553117156
1757089261717708000,8.5987080078125,0.0060333618801087134,0.036132220610976214,-0.05416092151552438
1757089261727662300,8.608662353515625,0.026123379228636622,0.051882747450470924,-0.03620557810813188
1757089261737617200,8.6186171875,0.034000396214053034,0.03618424305915832,-0.001353168174624443
1757089261747572200,8.628572265625,0.036570027506351466,0.008109072175621986,0.0023997546181082725
1757089261757527000,8.638527099609375,0.06531915212869643,-0.005232639956474304,-0.004747779048979282
1757089261767481300,8.6484814453125,0.07979067200832068,0.004688450077176094,0.002772679583728313
1757089261777436200,8.658436279296875,0.08403897710256278,0.013828618866205214,0.009830196879804133
1757089261787391200,8.66839111328125,0.06758242088556289,0.008070493730902671,0.002713350611925125
1757089261797346000,8.678345947265624,0.04266542177200317,0.02980827828645706,0.011656535524129867
1757089261807300400,8.68830029296875,0.008819339336827397,0.04037409596443176,0.02707826880067587
1757089261817255200,8.698255126953125,0.02446932841129601,0.050312721654772755,0.0037906244546175
1757089261827210200,8.708210205078124,0.026511794024333356,0.03589198211431503,-0.0050178281620144845
1757089261837165000,8.7181650390625,0.0641314767140895,0.03753390410244465,0.016373627173900604
1757089261847119400,8.728119384765625,0.09579254326038061,0.044019758990406985,0.028635142853856085
1757089261857074200,8.73807421875,0.07270159053020178,0.04282207363843918,0.04088496809601783
1757089261867029200,8.748029296875,0.06592347469739615,0.027377251747250555,0.016661504204571246
1757089261876984000,8.757984130859375,0.05897818560414016,0.028038346004486084,0.05120265623182058
1757089261886938400,8.7679384765625,0.057361471122503276,0.030159575942158696,0.06305909824222326
1757089261896893200,8.77789306640625,0.05599829301051795,0.041275428718328476,0.1075301081314683
1757089261906848300,8.78784814453125,0.05118533977083862,0.036307577177882196,0.10503244609683751
1757089261916803000,8.797802978515625,0.041613209305331106,0.047432782304286956,0.11160393344163894
1757089261926757400,8.80775732421875,0.04966331783533096,0.04636544533371925,0.13434855695217848
1757089261936712200,8.817712158203125,0.03986088574528694,0.03582768470644951,0.13808657443672417
1757089261946667300,8.827667236328125,0.028854411627724764,0.04473579830527305,0.12204495569616555
1757089261956622000,8.8376220703125,0.014712415963411331,0.025965631383657452,0.10208674803376197
1757089261966576400,8.847576416015626,0.028761984103918073,-0.005164250895380974,0.07506137846410274
1757089261976531200,8.85753125,0.019824571345373986,-0.01578384458720684,0.04744447274208068
1757089261986486300,8.867486328125,-0.023135376393795013,0.013339374044537543,0.04762421322315931
1757089261996441000,8.877441162109376,-0.038276904489472505,0.04701134202182293,0.026698914094269274
1757089262006395400,8.8873955078125,-0.028682489126920698,0.054524201869964595,-0.01322188514471054
1757089262016350200,8.89735009765625,-0.015790274327993393,0.06295300751924514,-0.01077975268959999
1757089262026305300,8.90730517578125,-0.019409706934168932,0.06224690507650375,-0.0040974984467029565
1757089262036260000,8.917260009765625,-0.02485401687994599,0.04720131163597106,-0.013110825985670089
1757089262046215200,8.927215087890625,-0.04153860969915986,0.006400514692068099,-0.038503041395545
1757089262056169200,8.937169189453124,-0.028921047123149034,-0.011131634867191313,-0.04087386218011379
1757089262066124300,8.947124267578126,-0.013566679994389414,-0.020853987458348273,-0.0584039659127593
1757089262076079000,8.9570791015625,0.017879428626969455,-0.01509410875737667,-0.08171236078590154
1757089262086034200,8.9670341796875,0.032535730488970876,0.002765373060107231,-0.0925479353159666
1757089262095988200,8.97698828125,0.028251111972332,-0.002637362766265869,-0.10823533379137515
1757089262105943300,8.986943359375,0.004226093262434005,-0.016385317611694334,-0.11334726997762917
1757089262115898000,8.996898193359375,-0.016278861562535166,-0.024628245300054547,-0.11839461649507284
1757089262125853200,9.006853271484376,-0.0378103829562664,-0.05211304907500743,-0.11027736101299523
1757089262135807200,9.01680712890625,-0.02931837587766349,-0.06872048500478267,-0.10300210931301117
1757089262145762300,9.02676220703125,0.008560907596349716,-0.0729670365333557,-0.08239595913589
1757089262155717000,9.036717041015624,0.058938584246113895,-0.02833469860255718,-0.04689268407821655
1757089262165672200,9.046672119140625,0.10476626944132149,0.003171615773439407,-0.013611468984186649
1757089262175626200,9.056626220703125,0.11971242109537124,0.04946750300228595,0.01478694250434637
1757089262185581300,9.066581298828124,0.08751118325777352,0.04806172785758972,0.024282792863249778
1757089262195536100,9.0765361328125,0.05135149011798203,0.0513216064363718,0.04267418960034847
1757089262205491200,9.0864912109375,0.04392798905372619,0.018970657929778097,0.01922492495179176
1757089262215445200,9.0964453125,0.02577515031285584,-0.012183774268627165,-0.020421148999035358
1757089262225400300,9.106400390625,-0.0012811989169567823,-0.030935821011662482,-0.018056173433363437
1757089262235355100,9.116355224609375,0.01494395969696343,-0.03588964402675628,-0.03259410961270332
1757089262245310200,9.126310302734375,0.035771643670275806,-0.025001754787564275,-0.026707681922614572
1757089262255265300,9.136265380859374,0.05231821625828743,-0.007560206121206283,-0.02428746903836727
1757089262265219300,9.14621923828125,0.08377141220755875,0.0009048398852348328,-0.01559825888723135
1757089262275174100,9.156174072265625,0.07944814218096434,0.018312486281991003,-0.014461363811790943
1757089262285129200,9.166129150390624,0.09009937312006949,0.031951135534048075,-0.022346564103662966
1757089262295084300,9.176084228515625,0.06426942388005555,0.033223639687895774,-0.04886602997779846
1757089262305038300,9.186038330078125,0.022229440530017016,0.010387538501620292,-0.06583323913067579
1757089262314993200,9.1959931640625,-0.0160556472659111,0.00018470891714096068,-0.06697568716406822
1757089262324948200,9.2059482421875,0.0033048136990517377,-0.03206920895576477,-0.04250672407895326
1757089262334903300,9.2159033203125,0.014324293428659438,-0.04301671942770481,-0.038734219802916046
1757089262344857000,9.225857177734374,0.0050385786890983575,-0.053766076979041094,-0.0023272739037871358
1757089262354812200,9.235812255859376,0.007541501420736312,-0.014527122524380683,0.032281974923610686
1757089262364767200,9.245767333984375,0.05222469275593757,0.038191491228342055,0.02880786907225847
1757089262374722300,9.255722412109375,0.061039355917647475,0.07519464945495129,0.07201660394072532
1757089262384676000,9.265676025390626,0.049534723019599915,0.11025777952969074,0.09934650941491126
1757089262394631200,9.275631103515625,0.06637121846489608,0.1029869117438793,0.1473334184706211
1757089262404586200,9.285586181640625,0.08426701370477675,0.09450959077775478,0.17511223675608634
1757089262414541300,9.295541259765624,0.10282799485512077,0.09844459213912486,0.18329641999453306
1757089262424496000,9.30549609375,0.12690788555741309,0.09127250855267047,0.17601970698982475
1757089262434450200,9.3154501953125,0.11028400994949042,0.11306816077530384,0.1932996353536844
1757089262444405200,9.3254052734375,0.09884140943698584,0.11038403625786304,0.22197306439131498
1757089262454360300,9.3353603515625,0.09335157984904945,0.09352759400308132,0.2334638879597187
1757089262464315100,9.345315185546875,0.08079962985515594,0.14468787239789963,0.20462094757407903
1757089262474269200,9.355269287109374,0.05432195729613304,0.1436433317810297,0.24616291827410458
1757089262484224300,9.365224365234376,0.03501519927978516,0.1243412499397993,0.19608312859237192
1757089262494178800,9.3751787109375,0.05712174408249557,0.11547697548270225,0.14186404714882372
1757089262504133600,9.385133544921874,0.06573525864891708,0.09685352355539799,0.06857318548858166
1757089262514087700,9.395087646484376,0.12185177121162413,0.06352700801491737,0.0064633507952094075
1757089262524042500,9.40504248046875,0.16128369095511733,0.023791794475913047,-0.026397300799190997
1757089262533997800,9.414997802734375,0.18628018504567442,0.0316933613806963,-0.04249123424887657
1757089262543952600,9.42495263671875,0.17542561355419456,0.03254150264263153,-0.03865910874009132
1757089262553906700,9.43490673828125,0.14483641402311623,0.029348844081163405,-0.05013415021747351
1757089262563861500,9.444861572265625,0.04467968420386314,-0.024988310784101485,-0.002883154220879078
1757089262573816800,9.45481689453125,0.0076197542887181035,-0.09172668206095695,-0.018102058401703834
1757089262583771600,9.464771728515625,0.04279284754395485,-0.023194413104653356,0.0298719911724329
1757089262593725700,9.4747255859375,-0.01963058314323425,-0.06684358521699905,-0.028976795898377893
1757089262603680500,9.484680419921874,-0.061006549626588816,-0.10357786337435244,-0.10202917262762784
1757089262613635800,9.4946357421875,-0.08364742050170898,-0.07035247012078762,0.006769640265405177
1757089262623590700,9.504590576171875,-0.12403320690393448,-0.09009586598873139,-0.0668742726162076
1757089262633545700,9.514545654296874,-0.10878419984579085,-0.06680734485983848,0.009755670338869094
1757089262643499500,9.52449951171875,-0.07829093496985733,-0.026177812829613685,0.05270429296642542
1757089262653454800,9.534454833984375,-0.0968401526171714,-0.015151391902565954,0.032387481124699115
1757089262663409700,9.54440966796875,-0.11770977603606879,0.022594109123945234,0.01636105995327234
1757089262673364700,9.55436474609375,-0.09828735575079918,0.038942601856589314,0.02248275770395994
1757089262683318500,9.564318603515625,-0.0944563992857933,0.036007132926583287,0.020768062740564346
1757089262693273900,9.57427392578125,-0.1174958410244435,0.023091537252068518,0.016157938596606254
1757089262703228700,9.584228759765624,-0.13210786535330116,0.00658697717487812,-0.029179040472209452
1757089262713183700,9.594183837890625,-0.1450280641376972,-0.008923311167955398,-0.08533902685046195
1757089262723137500,9.604137451171875,-0.1360661745250225,-0.03332359293103218,-0.13289572779536246
1757089262733092900,9.6140927734375,-0.1374784524757415,-0.05923486377894878,-0.17892916469573975
1757089262743047700,9.624047607421875,-0.1138274547100067,-0.06475625754892826,-0.24157997439801693
1757089262753002800,9.634002685546875,-0.08337262214832007,-0.07313070266246795,-0.23795272381156682
1757089262762956500,9.64395654296875,-0.08502462713904678,-0.08016308551728725,-0.2655947639748454
1757089262772911900,9.653911865234376,-0.10844875734634697,-0.08888239854574204,-0.3011874708816409
1757089262782866700,9.66386669921875,-0.1309679746031761,-0.1270779814273119,-0.3417889458611607
1757089262792821800,9.67382177734375,-0.1346586458146572,-0.15844167246222496,-0.3673211542636156
1757089262802776800,9.68377685546875,-0.14813888963460922,-0.18543840045928953,-0.36765696208924054
1757089262812731000,9.69373095703125,-0.11831190664768218,-0.1877846713244915,-0.32378654844164845
1757089262822685700,9.703685791015625,-0.10210421062521637,-0.14618950913250445,-0.2539206927940249
1757089262832640800,9.713640869140624,-0.08232866605333983,-0.07734861261844635,-0.16187719986885785
1757089262842595800,9.723595947265625,-0.06148468853235244,-0.004980711022019386,-0.03321399507671594
1757089262852550000,9.7335498046875,-0.08344985210299491,0.07097089428007602,0.05728723684251308
1757089262862504700,9.743504638671874,-0.0910451295375824,0.13009002272486686,0.12739566907435654
1757089262872459800,9.753459716796876,-0.12291793913841247,0.12658172234296797,0.16918664609938858
1757089262882414800,9.763414794921875,-0.11768529918193817,0.08964987578690052,0.13343553376048803
1757089262892369000,9.773368896484374,-0.1081094423893839,0.06205518189668655,0.0904679141715169
1757089262902323700,9.78332373046875,-0.09984927130527793,0.03391279099583626,0.042568098877370356
1757089262912278500,9.793278564453125,-0.06453947299309075,0.06342354764044285,0.059226680472493166
1757089262922233900,9.80323388671875,0.014853797195479274,0.05257949754297733,0.05653846430182457
1757089262932188700,9.813188720703126,0.07579604941420257,0.022674773144721983,0.0021662381231784818
1757089262942142700,9.823142822265625,0.13680384114980698,-0.029130232894420623,-0.00639613077789545
1757089262952097500,9.83309765625,0.13885200585126875,0.0037526305317878723,-0.009656009356677531
1757089262962052900,9.843052978515624,0.09388473687767981,0.035576340293884276,0.1322626905888319
1757089262972007700,9.853007568359375,0.0801741914331913,0.07008475909531116,0.13258856154233217
1757089262981961700,9.862961669921875,0.05947502921037376,0.06226794786453247,0.13226707450300454
1757089262991916500,9.87291650390625,-0.01902034229040146,0.049881929022073744,0.12195961550027132
1757089263001872000,9.882871826171876,-0.05788870986700058,0.0602186141192913,0.08088584683388471
1757089263011826700,9.89282666015625,-0.04500467837452888,0.048939095214009284,0.08384586568325758
1757089263021780700,9.90278076171875,-0.02670095992088318,0.029590251621603964,0.10737257948219775
1757089263031735600,9.912735595703126,0.06204582954645157,0.04155599922537803,0.15311667804718015
1757089263041691000,9.92269091796875,0.21337964276485144,0.07711655742824078,0.16100596999228
1757089263051645700,9.932645751953125,0.3302489493887871,0.11557166802883148,0.1859431351110339
1757089263061599700,9.942599853515626,0.4173929798346013,0.11863047107756138,0.158712013836205
1757089263071554600,9.952554443359375,0.44008061246089636,0.1105816046565771,0.16063216824382542
1757089263081510000,9.962510009765625,0.4418611392021179,0.14968553455471992,0.16989391758590935
1757089263091464700,9.972464599609374,0.45078671539239584,0.2253115611642599,0.22689298513680695
1757089263101419800,9.982419677734375,0.4502653218667954,0.2629442494660616,0.25585166085660455
1757089263111373600,9.99237353515625,0.4209457038801163,0.253642752635479,0.27763942203372716
1757089263121329000,10.002328857421874,0.40454182769842445,0.19990999340415,0.27068828772157427
1757089263131283700,10.01228369140625,0.4221499651033431,0.1165291148841381,0.28699264905154703
1757089263141238800,10.02223876953125,0.4261479486983269,0.035677462580800054,0.2882230676293373
1757089263151192600,10.032192626953124,0.41763153783082957,-0.05097615399956703,0.2961255113169551
1757089263161148000,10.04214794921875,0.44353528295941647,-0.09873802212774753,0.358051221615076
1757089263171102700,10.052102783203125,0.44083939493894575,-0.1157622221648693,0.3885486512094736
1757089263181057800,10.062057861328125,0.42698271902203555,-0.12095862176418304,0.3846075123682618
1757089263191011600,10.072011474609376,0.41755774194225664,-0.07576280473172664,0.39369682775288817
1757089263200967000,10.081966796875,0.4370540311813354,-0.04006780649423599,0.39374914246201514
1757089263210921700,10.091921630859375,0.46197103029489517,-0.006028174248337745,0.3912956118300557
1757089263220876800,10.101876708984374,0.5237631773412227,0.0739998867124319,0.36253596581369635
1757089263230830600,10.11183056640625,0.5898444729488342,0.15068097533285618,0.3261997470632195
1757089263240786000,10.121785888671875,0.6380956589639186,0.19146482114195823,0.2700625570386648
1757089263250740700,10.13174072265625,0.6570971504233777,0.18997019867002962,0.236109726293385
1757089263260695800,10.14169580078125,0.6702947048444301,0.19221242463886737,0.20122253730744122
1757089263270650600,10.151650634765625,0.6894716990012675,0.15577917525470256,0.13980974496752022
1757089263280605000,10.16160498046875,0.7608686366736889,0.10698562599122524,0.10784721125662326
1757089263290559700,10.171559814453126,0.8412075171492993,0.024038462713360784,0.09927052156925201
1757089263300514800,10.181514892578125,0.9540553862374276,-0.02553308518528938,0.11401333267092705
1757089263310469600,10.1914697265625,1.0214555093586444,-0.03272211990654468,0.15275719708502292
1757089263320424000,10.201423828125,1.0514484965622424,-0.0031178397595882416,0.25458383287787434
1757089263330378800,10.211378662109375,0.979733359786123,0.1090612632215023,0.27911533980518577
1757089263340333800,10.221333740234375,0.8518224346660077,0.08657704421281814,0.36036563603729005
1757089263350288600,10.23128857421875,0.6187490073285996,0.03620353228151798,0.5314885108962655
1757089263360242700,10.24124267578125,0.5286358979441225,0.37568683154881,0.595815437117219
1757089263370197800,10.25119775390625,1.024127797307819,0.7679471967577933,0.8469917996391654
1757089263380152600,10.261152587890624,1.3011667692303657,1.33795540792346,1.076895364768803
1757089263390107600,10.271107666015626,0.5971829260781407,1.855895578199625,1.1611924813508987
1757089263400062700,10.281062744140625,-0.17165332847386597,2.1474527586877343,1.12250034712404
1757089263410016800,10.291016845703124,-0.6187108672752976,2.017721632403135,0.722283177691698
1757089263419971600,10.3009716796875,-0.4064703846082091,1.7705138812512158,0.147555536788702
1757089263429926700,10.3109267578125,-0.07641951507478952,1.0467693988353013,-0.4212953210353851
1757089263439881700,10.3208818359375,0.295747033393383,0.17236264578700064,-0.9550944469615816
1757089263449835800,10.330835693359376,0.9974348745629191,-0.4631792370408773,-1.248561844985187
1757089263459790600,10.34079052734375,1.416330440980196,-0.6967144366711377,-1.3461603416889905
1757089263469745700,10.35074560546875,1.6795687049567698,-0.8874526971042156,-1.1111132761910556
1757089263479700700,10.36070068359375,1.7609949422776698,-1.1719389162927865,-0.36078795310258865
1757089263489655600,10.370655517578125,1.3304101071104406,-1.3650094190657138,0.06115384914278984
1757089263499610400,10.3806103515625,0.9922384749636054,-1.0339975955456495,0.20419921503067015
1757089263509565400,10.3905654296875,0.8026929314464331,-0.39725218214690683,0.43541035562753677
1757089263519520500,10.4005205078125,0.42473523235619065,0.057539165776968,0.38219460600763555
1757089263529474600,10.410474609375,0.044598143400251866,0.12114859137833117,0.18056641050875186
1757089263539429400,10.420429443359374,0.13575257853120565,-0.024709493842720982,0.29413375297784805
1757089263549384400,10.430384521484376,0.07151274607181549,-0.5254477694272994,0.2522740946307778
1757089263559339500,10.440339599609375,0.043235915136337275,-1.1401607992380858,0.03495791613459587
1757089263569294300,10.45029443359375,0.23330577478855846,-1.5094102912157774,0.21760639361441134
1757089263579248400,10.460248291015626,0.26267536939680575,-1.9888824914097785,0.2589613173097372
1757089263589203500,10.470203369140625,0.1449579215109348,-2.3276807310223577,0.07973521549403667
1757089263599158500,10.480158447265625,0.1565875690281391,-2.2354268102169037,0.1269011635556817
1757089263609113300,10.49011328125,0.16655922020524738,-2.074835850766301,0.01925064391493797
1757089263619067400,10.5000673828125,0.43399084421843287,-1.810079583442211,-0.24427315900474786
1757089263629022500,10.5100224609375,0.716177262032032,-1.550387029248476,-0.6786600168034433
1757089263638977500,10.5199775390625,0.9820742238238453,-1.268420099404454,-0.9147232736065983
1757089263648932400,10.529932373046876,1.1643383781611918,-0.9659463881045579,-0.996273137307167
1757089263658886400,10.539886474609375,1.3874375239729881,-0.7914169196724892,-0.9331707844451069
1757089263668841500,10.549841552734375,1.664581271444261,-0.7717197010338306,-0.7334899236217141
1757089263678796500,10.559796630859376,1.9387828279837964,-0.7360960144668817,-0.5581500155895948
1757089263688751400,10.56975146484375,1.9722519668653606,-0.6340127735644578,-0.2582873635709286
1757089263698705400,10.579705322265625,1.905956078658998,-0.5569698658943176,0.12655775694549082
1757089263708660500,10.589660400390626,1.7452561058759688,-0.567888734793663,0.4642459894895553
1757089263718615600,10.599615478515625,1.5088465198531746,-0.650646512979269,0.8113628523752093
1757089263728570400,10.6095703125,1.3216603989437221,-0.8105652722567319,1.262210138848424
1757089263738525400,10.619525390625,1.216718553739786,-1.0069722259759903,1.5389216323822736
1757089263748479500,10.6294794921875,0.9708277304053305,-1.1296253766983746,1.7845675410449504
1757089263758434600,10.6394345703125,0.7549255103603005,-1.270354282337427,1.9371888367906211
1757089263768389400,10.649389404296874,0.5949617428973317,-1.2967097898215054,1.9075082765370606
1757089263778344400,10.659344482421876,0.5714189547464251,-1.3397422913402317,1.6749229249775408
1757089263788298500,10.669298583984375,0.6465078057393431,-1.3247013740748166,1.4241031208083033
1757089263798253600,10.679253662109375,0.7953124658063053,-1.1922019521206617,1.1806035765245557
1757089263808208400,10.68920849609375,1.0443877643957733,-0.9683213005423545,0.9105223147854209
1757089263818163500,10.69916357421875,1.3179650515571235,-0.7085872452944517,0.5845274426445365
1757089263828117200,10.7091171875,1.5569380583271384,-0.5114829569607973,0.3285933642014861
1757089263838072600,10.719072509765626,1.6919655374541878,-0.3869534909725189,0.08615852653980255
1757089263848027400,10.72902734375,1.8089195997521281,-0.3618967911273241,-0.11871376544684172
1757089263857982500,10.738982421875,1.8622832334101198,-0.36994974920153617,-0.277757203194499
1757089263867936300,10.748936279296874,1.8745710525751114,-0.4506009104967117,-0.3926747912287712
1757089263877891600,10.7588916015625,1.8477102259173988,-0.5769868180066346,-0.44176820022165775
1757089263887846400,10.768846435546875,1.7463152595400808,-0.8013292418777942,-0.4840910921663046
1757089263897801500,10.778801513671874,1.4704048532560468,-1.060925349959731,-0.598342325246334
1757089263907756500,10.788756591796876,0.8687690394222736,-1.0438391906023026,-1.0844704761981963
1757089263917710600,10.798710693359375,0.11231266623288393,-0.3918979616373777,-1.7723790906012058
1757089263927665400,10.80866552734375,-0.328242943328619,0.6079775840759277,-2.2574065868347883
1757089263937620500,10.818620361328126,-0.16848375852704048,1.5151672473073006,-2.663729964187741
1757089263947575600,10.828575439453125,0.1791504062309861,1.9453145678400992,-3.2836946309164166
1757089263957529600,10.838529541015625,0.38757162287086244,2.1447347319006917,-3.7925010621443387
1757089263967484400,10.848484375,0.5825044123843311,2.4460312161147595,-3.7758001027122137
1757089263977439500,10.858439453125,1.130210190849006,2.641562556043267,-3.3758255098640917
1757089263987394600,10.86839453125,1.8244462547078728,2.7255285409748553,-3.0383403986766933
1757089263997348600,10.8783486328125,2.3523630445972086,2.5860312229573723,-2.7644641285687683
1757089264007303400,10.888303466796875,2.583307058690488,2.1139795281529423,-1.6922940387561916
1757089264017258500,10.898258544921875,2.4652865362048146,1.5376421139657497,-0.18001403732299803
1757089264027213600,10.908213623046874,1.7456638098940251,0.9601491000026464,0.6571414279565214
1757089264037168400,10.91816845703125,0.47087475997954603,0.09416238477528095,0.9251379923760891
1757089264047122400,10.928122314453125,-1.0977402921378612,-1.0045996516257525,0.901023541817069
1757089264057077500,10.938077392578125,-2.4488319527491926,-1.9699697011470794,0.7931359985500573
1757089264067032600,10.948032470703126,-3.313502324680984,-2.466737319535017,0.5172884283691644
1757089264076987400,10.9579873046875,-3.5335455900534987,-2.4034365214914084,0.13010054411888122
1757089264086941400,10.96794140625,-3.2494197286099196,-1.8160715173333881,-0.06102350076138973
1757089264096896500,10.977896484375,-2.7056159260198474,-0.8175994086772203,0.005841419504582881
1757089264106851600,10.9878515625,-2.217373267132044,0.2998392711430788,0.24675562347024677
1757089264116806400,10.997806396484375,-1.7673928266212342,1.2556734305560588,0.4724050382867455
1757089264126760400,11.007760498046874,-1.4762179234489798,1.8602175330519675,0.6930196738064288
1757089264136715500,11.017715576171875,-1.264298343299329,1.9189695817500352,0.7037859824925661
1757089264146670600,11.027670654296875,-1.0948346338242292,1.4566209503144025,0.5371861380159855
1757089264156625400,11.03762548828125,-0.8820610671937466,0.7209627427428961,0.08427315118461846
1757089264166580500,11.04758056640625,-0.4556760218039155,-0.11101531989872455,-0.7664128267973661
1757089264176534500,11.057534423828125,-0.37415275384932756,-0.7544605231970548,-1.308590781751275
1757089264186489600,11.067489501953125,-0.12138795309215783,-1.142842001146078,-1.595984705080092
1757089264196444400,11.0774443359375,0.31045360413789747,-1.3437988732546566,-1.7697119172185658
1757089264206399500,11.0873994140625,0.7624176196813582,-1.319948626589775,-1.4299959782391787
1757089264216353500,11.097353515625,1.2136214645072818,-1.1472574795007704,-1.0638315927952526
1757089264226308600,11.10730859375,1.429629483014345,-0.8592588682770729,-0.5932578615888953
1757089264236263400,11.117263427734375,1.0691805526077747,-0.41922377545833583,-0.047502340409159655
1757089264246218500,11.127218505859375,0.4332714439027011,0.16346622262597083,0.5432514294043183
1757089264256172500,11.137172607421874,0.07263722005710005,0.6541916382402181,1.2026561261177062
1757089264266127600,11.147127685546875,-0.2530442022204399,0.8183978655785322,1.7393337300896643
1757089264276082400,11.15708251953125,-0.44954409492015834,0.6107815355807542,2.227011156310141
1757089264286037500,11.16703759765625,-0.5887434529043734,0.2520429162234068,2.5485741834834217
1757089264295992300,11.176992431640626,-0.8352408638298511,-0.0898679024517536,2.5142569033399225
1757089264305946600,11.186946533203125,-1.1915139698565005,-0.4873603230953216,2.257041845175624
1757089264315901400,11.1969013671875,-1.2944449136294425,-0.9326181189984083,1.7740993385225534
1757089264325856500,11.2068564453125,-1.0393580996654928,-1.2197750187009573,1.1740469944879413
1757089264335811300,11.216811279296875,-0.7660648901425302,-1.3194681495964526,0.6304694018691778
1757089264345765600,11.226765625,-0.40267946789264675,-1.010956327176094,0.30325287897884845
1757089264355720400,11.236720458984376,0.13838672642707825,-0.8417319794148206,-0.33968583610206843
1757089264365675500,11.246675537109375,0.20284093228951094,-0.615285861262679,-0.27620149818509815
1757089264375630300,11.25663037109375,0.3420890978515148,-0.27562837447226046,-0.08513736679852009
1757089264385584400,11.26658447265625,0.8164264193750917,-0.03022562691569328,-0.2317228895112872
1757089264395539500,11.27653955078125,1.1028268016219138,-0.05638415052294731,-0.29411183340698477
1757089264405494500,11.28649462890625,0.9043230948191135,-0.31579028899073597,-0.3487678449630737
1757089264415449300,11.296449462890624,0.5255295294266193,-0.7019114207923411,-0.29780834983736276
1757089264425404700,11.30640478515625,0.10242927786111831,-1.0158914454907177,-0.2461158642619848
1757089264435358500,11.3163583984375,-0.2016039378404617,-1.2203303144961595,-0.23828970068097113
1757089264445313500,11.3263134765625,-0.3231015253195539,-1.3517723363518714,-0.05688888517469167
1757089264455268400,11.336268310546876,-0.34972057911064475,-1.4993880788952112,0.062169748187065124
1757089264465223400,11.346223388671875,-0.26763269954323765,-1.4813175846755504,0.1863163523375988
1757089264475177500,11.356177490234375,-0.08771686189770699,-1.3698036676049232,0.2516024789795279
1757089264485132500,11.366132568359374,0.16907410736931486,-1.2346645447969435,0.24069237790852785
1757089264495086600,11.376086669921875,0.4839712651789188,-1.0763871229857205,0.16115706890076398
1757089264505041700,11.386041748046875,0.8075333572149276,-0.941581762176752,0.10327332746982573
1757089264514995500,11.395995361328126,1.0802513971984387,-0.7049111871302127,0.10201222149282693
1757089264524950500,11.405950439453125,1.1837591179460287,-0.6952905413478613,0.09069324735999107
1757089264534905600,11.415905517578125,1.3136889816731214,-0.45094402484595775,0.17103052040040492
1757089264544860700,11.425860595703124,1.5005156216204165,-0.15098668028116224,0.22215806556940076
1757089264554814500,11.435814453125,1.7172224360466002,0.1860159080862999,0.3206938431233167
1757089264564769500,11.44576953125,1.896418142724037,0.6414554907858372,0.5119634339541197
1757089264574724600,11.455724609375,1.983295631188154,1.085468839585781,0.7633332732215523
1757089264584679700,11.4656796875,1.9945541073054074,1.4509119250178337,0.9256804286897182
1757089264594634500,11.475634521484375,1.9355051214873789,1.7160978159308433,1.0616197619646788
1757089264604588500,11.485588623046874,1.861318772292137,1.901940705537796,1.267055240792036
1757089264614543600,11.495543701171876,1.9296797763347624,2.0920564501583576,1.5548840484067796
1757089264624498700,11.505498779296875,1.8911317267537116,2.054084154638648,1.8736118521541356
1757089264634453500,11.51545361328125,1.8483090685933827,2.0387544835597278,2.0709686539441345
1757089264644407600,11.525407470703126,1.7956150047600268,1.8073849375307558,1.8923194752335548
1757089264654362600,11.535362548828125,2.012033649894595,1.2524492078125475,1.3409420225188136
1757089264664317700,11.545317626953125,2.617453950703144,0.9872796835124492,0.8680810571581125
1757089264674272500,11.5552724609375,3.019673984390497,0.9939444020986556,0.6584799830839038
1757089264684227600,11.5652275390625,2.8028678012430666,1.308107382148504,0.39470045183748004
1757089264694181600,11.575181640625,2.4592910951822993,1.8509283111810684,-0.09595219080150127
1757089264704136700,11.58513671875,2.3251766392469406,2.4246003055512904,-0.10434358704984187
1757089264714091500,11.595091552734376,2.14199741589129,2.6930004823356866,-0.045266251920163626
1757089264724046600,11.605046630859375,1.8746810888208447,3.0223189459413287,0.09969897611439227
1757089264734000600,11.615000732421874,1.8856401436001062,3.73077642737627,0.45770518954396244
1757089264743955700,11.624955810546876,1.810143296328187,4.243047319844365,0.6045555006727575
1757089264753910500,11.63491064453125,1.507902224740386,3.9990702211767433,0.5348921818599105
1757089264763865600,11.644865478515625,1.2414946830779314,3.6142069804817436,0.7525666722744703
1757089264773819600,11.654819580078126,0.6356231313705444,3.1651568065583704,1.4533067111998796
1757089264783774700,11.664774658203125,-0.48090661691129205,2.494526074692607,2.4689389212325215
1757089264793729500,11.6747294921875,-1.7698223918557165,1.695546026289463,3.20097484665364
1757089264803684600,11.6846845703125,-1.4326339255273342,0.9502449611037969,2.9235341620624062
1757089264813638700,11.694638671875,0.10475916384709999,0.010672200661897658,1.0263616938397289
1757089264823593700,11.70459375,1.1543477300226688,-0.029019173735380172,-1.0799348785951732
1757089264833548500,11.714548583984374,1.0275929892003535,0.32154782960414885,-2.238085215771198
1757089264843503600,11.724503662109376,0.13153379179239272,0.7042144370377064,-2.7114436092600225
1757089264853458700,11.734458740234375,-0.6772761612296104,1.366834880927205,-2.707160232852399
1757089264863412700,11.744412841796875,-0.6771124951004982,1.6853706692337989,-2.845665909484029
1757089264873367600,11.754367431640626,0.025105361292511223,1.6921037768810987,-2.585239780318737
1757089264883322600,11.764322509765625,0.8264683593094349,1.7288047372907398,-2.2171958647385237
1757089264893277700,11.774277587890625,1.097067215181887,1.856378393280506,-1.6466840879648923
1757089264903231700,11.784231689453126,0.5729603389695287,1.7585650847822427,-0.27266777110099794
1757089264913186600,11.7941865234375,-0.5881070546969771,1.626772349792719,1.3594845181643962
1757089264923141400,11.804141357421875,-1.6425880508229136,1.3293775491923092,1.8668603320673107
1757089264933096700,11.8140966796875,-1.9420912218794226,1.2811837193876505,1.888286858716607
1757089264943051500,11.824051513671876,-1.489007554656267,1.5903776788532733,1.7374629677817224
1757089264953005600,11.834005615234375,-2.04289056045115,2.070588130193949,1.7416791241720317
1757089264962960400,11.84396044921875,-2.2527719127714634,2.420921909299493,1.0766913666293025
1757089264972915700,11.853915771484376,-2.3527412302598356,2.3409452862650153,0.6226502525508404
1757089264982870500,11.86387060546875,-2.2928780054494737,1.347882927697897,0.557675968337059
1757089264992824600,11.873824462890624,-2.4884002852886913,0.16290157448053358,0.3387348189875483
1757089265002779400,11.883779296875,-3.109747930808365,-0.8462789751946925,0.12413111432045698
1757089265012734700,11.893734619140625,-3.411690896232426,-1.5879209333509205,0.2715530878573656
1757089265022689500,11.903689453125,-3.3405879000052807,-2.34705412453413,0.4650114209040999
1757089265032643600,11.9136435546875,-2.9325796383053064,-3.3961364764869213,0.5928206392154097
1757089265042598400,11.923598388671875,-2.3352327538371083,-4.312040192049741,0.8601037946686149
1757089265052553700,11.9335537109375,-2.2869924545422196,-4.591760804271698,1.069028869177401
1757089265062508500,11.943508544921874,-2.657200562418997,-4.584774598646164,0.7994675396591424
1757089265072463600,11.953463623046876,-3.456272088497877,-4.181779488933086,0.9818538590714335
1757089265082417400,11.96341748046875,-4.458500919339061,-3.029379385846853,1.4216796930536626
1757089265092372700,11.973372802734374,-4.338716894312203,-2.983397386872768,1.0953905141413212
1757089265102327600,11.98332763671875,-4.153706948398053,-3.253683815795183,0.9677528530046343
1757089265112282600,11.99328271484375,-4.072427426071465,-3.5141438472300766,0.7774199585020541
1757089265122236400,12.003236328125,-3.7153269293099638,-3.674949326214194,0.5786731636583805
1757089265132191700,12.013191650390626,-3.19883023584038,-3.772170514038205,0.4995075647458434
1757089265142146600,12.023146484375,-2.854848163849115,-3.954387614363432,0.39780601663738485
1757089265152101600,12.0331015625,-2.4935227428689597,-4.102328351077437,0.1945247932344675
1757089265162055400,12.043055419921876,-2.0464146429240704,-4.148344836843013,-0.09545943884849548
1757089265172010800,12.0530107421875,-1.5876754341572523,-3.8136411730676887,-0.39393297459632154
1757089265181965600,12.062965576171875,-0.8176227895528078,-3.377268694409728,-0.779322577252984
1757089265191920600,12.072920654296874,-0.05343026915341615,-2.824329691466689,-0.9282567089185119
1757089265201875700,12.082875732421876,1.0174161708399654,-1.9645213726133106,-1.2176575881555676
1757089265211829800,12.092829833984375,2.36397866358906,-0.437011945605278,-1.384958858899772
1757089265221784600,12.10278466796875,3.5824835162237285,1.5369786816209554,-1.450278887811303
1757089265231739600,12.11273974609375,4.914973352217674,3.6444144872188566,-1.5226774768069387
1757089265241694700,12.12269482421875,6.168605632334947,6.000445698934793,-1.4283514259025454
1757089265251648800,12.132648681640624,7.099214749598502,8.222898461288214,-1.461233997067809
1757089265261603600,12.142603515625,7.494902166646718,9.556632452124356,-1.4848904747262597
1757089265271558400,12.152558349609375,7.536170581102371,8.82873494168222,-0.5489455493927001
1757089265281513700,12.162513671875,7.266075875359773,6.867048500233889,1.0415303291380404
1757089265291467800,12.1724677734375,6.052032093787193,3.8593028540462253,1.9140493687435984
1757089265301422600,12.182422607421875,4.912203887504339,0.4794926584601402,1.7040031812503933
1757089265311377400,12.19237744140625,3.9748303906723854,-1.749559940549731,0.4446580764442682
1757089265321332700,12.202332763671874,1.6738006429493426,-2.017457428508997,-1.2792688256770373
1757089265331287600,12.21228759765625,-0.8545902919441462,-1.7626678439259529,-2.2543150505602356
1757089265341241600,12.22224169921875,-1.50381963160187,-1.6922569216161965,-2.1864999899625777
1757089265351196400,12.232196533203124,-1.4671154563218354,-0.9720184014946222,-2.4639260615065695
1757089265361151700,12.24215185546875,-1.4751874113574623,-0.15155249747037886,-3.0215251652151345
1757089265371106600,12.2521064453125,-1.8468568239584564,0.4383586840391159,-3.3084576085120436
1757089265381060600,12.262060546875,-3.0268063204884528,0.9983978743761778,-3.154969174543023
1757089265391015400,12.272015380859376,-4.337654818038642,1.5636054072618484,-2.467121058155596
1757089265400970800,12.281970703125,-4.449842396587133,2.1656296358913183,-1.970194157552719
1757089265410925600,12.291925537109375,-3.3688930802524086,3.152058255532384,-1.511273747000098
1757089265420879600,12.301879638671876,-1.1925710776939988,4.286192049565911,-1.2310279418602585
1757089265430834400,12.31183447265625,1.4650120543017982,4.676306050395965,-0.21120003370344637
1757089265440789800,12.321789794921875,1.8568378274857997,3.356691770327091,0.882666339610517
1757089265450744600,12.33174462890625,-1.1873790620088576,0.9133446787297725,1.8109855923712253
1757089265460699600,12.34169970703125,-4.848194941191375,-2.0295476792752742,2.682749721956253
