time,seconds_elapsed,z,y,x
1757089253134242800,0.015242919921875,-0.7304840087890625,-0.048583984375,-0.1888885498046875
1757089253144196900,0.02519677734375,-0.71795654296875,-0.043304443359375,-0.209014892578125
1757089253154151700,0.035151611328125,-0.70440673828125,-0.05352783203125,-0.2158355712890625
1757089253164106500,0.0451064453125,-0.6797332763671875,-0.0733489990234375,-0.1607208251953125
1757089253174060800,0.055060791015625,-0.653411865234375,-0.1551971435546875,-0.0995635986328125
1757089253184016000,0.065015869140625,-0.6533966064453125,-0.33001708984375,0.0174713134765625
1757089253193970700,0.074970703125,-0.6840057373046875,-0.239715576171875,0.1434478759765625
1757089253203924700,0.0849248046875,-0.7919769287109375,-0.1762542724609375,0.1718597412109375
1757089253213879800,0.0948798828125,-0.8959503173828125,-0.32537841796875,0.28277587890625
1757089253223835000,0.1048349609375,-0.9044952392578125,-0.3444366455078125,0.22125244140625
1757089253233789700,0.114789794921875,-0.8896331787109375,-0.2981109619140625,0.224761962890625
1757089253243743700,0.12474365234375,-0.9382171630859375,-0.2404937744140625,0.2119903564453125
1757089253253698800,0.13469873046875,-0.9699249267578125,-0.1923980712890625,0.1393585205078125
1757089253263653600,0.144653564453125,-1.0006256103515625,-0.1543121337890625,0.08782958984375
1757089253273607700,0.154607666015625,-1.060211181640625,-0.1049346923828125,0.0557708740234375
1757089253283562800,0.164562744140625,-1.112823486328125,-0.065185546875,0.0407867431640625
1757089253293517800,0.174517822265625,-1.139923095703125,-0.0473175048828125,0.0355682373046875
1757089253303472600,0.18447265625,-1.1498870849609375,-0.0485076904296875,0.0490570068359375
1757089253313426700,0.1944267578125,-1.1774139404296875,-0.0358123779296875,0.0912933349609375
1757089253323381800,0.2043818359375,-1.1600189208984375,-0.0343170166015625,0.075897216796875
1757089253333336800,0.2143369140625,-1.125579833984375,-0.048614501953125,0.086944580078125
1757089253343291000,0.224290771484375,-1.1329193115234375,-0.04693603515625,0.07666015625
1757089253353245700,0.23424560546875,-1.1009368896484375,-0.0559234619140625,0.0639801025390625
1757089253363200800,0.24420068359375,-1.08038330078125,-0.057281494140625,0.0760498046875
1757089253373154600,0.254154541015625,-1.072998046875,-0.0582122802734375,0.0932769775390625
1757089253383110000,0.26410986328125,-1.087554931640625,-0.0694580078125,0.0928955078125
1757089253393064700,0.274064697265625,-1.0637969970703125,-0.0883636474609375,0.0821380615234375
1757089253403019800,0.284019775390625,-1.0569000244140625,-0.1012420654296875,0.0941314697265625
1757089253412973600,0.2939736328125,-1.0477447509765625,-0.1157989501953125,0.094207763671875
1757089253422929000,0.303928955078125,-1.035614013671875,-0.1334075927734375,0.1034393310546875
1757089253432883700,0.3138837890625,-1.02032470703125,-0.141876220703125,0.1086273193359375
1757089253442837800,0.323837646484375,-1.01409912109375,-0.1456146240234375,0.1084747314453125
1757089253452792600,0.33379248046875,-1.0131378173828125,-0.1428985595703125,0.10699462890625
1757089253462748000,0.343747802734375,-1.0130615234375,-0.1353302001953125,0.11798095703125
1757089253472702700,0.35370263671875,-1.024169921875,-0.1297607421875,0.1315460205078125
1757089253482657500,0.363657470703125,-1.0468292236328125,-0.1247406005859375,0.1399383544921875
1757089253492612400,0.3736123046875,-1.0586395263671875,-0.1239471435546875,0.144989013671875
1757089253502567400,0.3835673828125,-1.04571533203125,-0.119415283203125,0.149810791015625
1757089253512521500,0.393521484375,-1.028533935546875,-0.1096343994140625,0.15655517578125
1757089253522476500,0.4034765625,-1.029937744140625,-0.1045379638671875,0.1756744384765625
1757089253532431400,0.413431396484375,-1.03515625,-0.1075439453125,0.1888427734375
1757089253542386400,0.423386474609375,-1.047393798828125,-0.1066436767578125,0.211944580078125
1757089253552340500,0.433340576171875,-1.0581512451171875,-0.1093597412109375,0.2528228759765625
1757089253562295600,0.443295654296875,-1.059112548828125,-0.1118011474609375,0.28167724609375
1757089253572250400,0.45325048828125,-1.0621490478515625,-0.10357666015625,0.3026123046875
1757089253582204700,0.46320458984375,-1.0612030029296875,-0.085540771484375,0.3422698974609375
1757089253592159500,0.473159423828125,-1.0704193115234375,-0.0710296630859375,0.377166748046875
1757089253602114600,0.483114501953125,-1.0636749267578125,-0.0468292236328125,0.3594207763671875
1757089253612068400,0.493068359375,-1.06304931640625,-0.01416015625,0.3655548095703125
1757089253622023700,0.503023681640625,-1.085906982421875,0.019256591796875,0.365386962890625
1757089253631978500,0.512978515625,-1.128204345703125,0.05267333984375,0.3546142578125
1757089253641933600,0.52293359375,-1.181549072265625,0.0758514404296875,0.3462982177734375
1757089253651887400,0.532887451171875,-1.225799560546875,0.082244873046875,0.3269500732421875
1757089253661842700,0.5428427734375,-1.2534027099609375,0.078887939453125,0.3250579833984375
1757089253671797500,0.552797607421875,-1.261322021484375,0.07867431640625,0.331146240234375
1757089253681751600,0.56275146484375,-1.2505950927734375,0.081573486328125,0.3280181884765625
1757089253691706400,0.572706298828125,-1.2191314697265625,0.0904541015625,0.32391357421875
1757089253701661700,0.58266162109375,-1.1683807373046875,0.0956878662109375,0.3190765380859375
1757089253711616500,0.592616455078125,-1.1186676025390625,0.09979248046875,0.3202056884765625
1757089253721570600,0.602570556640625,-1.080810546875,0.0977630615234375,0.3324127197265625
1757089253731525400,0.612525390625,-1.0237579345703125,0.0894622802734375,0.34185791015625
1757089253741480700,0.622480712890625,-0.9591827392578125,0.085540771484375,0.3567657470703125
1757089253751434500,0.6324345703125,-0.9021453857421875,0.0771026611328125,0.3709259033203125
1757089253761389600,0.6423896484375,-0.8612213134765625,0.06390380859375,0.3914337158203125
1757089253771344400,0.652344482421875,-0.830413818359375,0.047119140625,0.4160919189453125
1757089253781299700,0.6622998046875,-0.8073577880859375,0.0320892333984375,0.433135986328125
1757089253791253500,0.67225341796875,-0.8018646240234375,0.026092529296875,0.4359893798828125
1757089253801208600,0.68220849609375,-0.8087615966796875,0.016265869140625,0.4288482666015625
1757089253811163400,0.692163330078125,-0.8129119873046875,0.0080413818359375,0.4048614501953125
1757089253821117400,0.702117431640625,-0.8122406005859375,0.007568359375,0.3793792724609375
1757089253831072500,0.712072509765625,-0.8128662109375,0.0075836181640625,0.3624725341796875
1757089253841027600,0.722027587890625,-0.8237457275390625,0.0112762451171875,0.358978271484375
1757089253850982400,0.731982421875,-0.829498291015625,0.01318359375,0.3639373779296875
1757089253860936400,0.7419365234375,-0.8296356201171875,0.0115814208984375,0.3649139404296875
1757089253870891500,0.7518916015625,-0.8344268798828125,0.014129638671875,0.358245849609375
1757089253880846600,0.7618466796875,-0.829315185546875,0.01629638671875,0.3376617431640625
1757089253890800400,0.77180029296875,-0.8125152587890625,0.0110015869140625,0.3111114501953125
1757089253900755500,0.78175537109375,-0.8078765869140625,0.005584716796875,0.2861785888671875
1757089253910710500,0.79171044921875,-0.802703857421875,-0.0044097900390625,0.262969970703125
1757089253920665600,0.80166552734375,-0.790191650390625,-0.014495849609375,0.2463531494140625
1757089253930619400,0.811619384765625,-0.7809600830078125,-0.028045654296875,0.2439117431640625
1757089253940574500,0.821574462890625,-0.778778076171875,-0.0423431396484375,0.2444000244140625
1757089253950529500,0.831529541015625,-0.7852783203125,-0.0525665283203125,0.241546630859375
1757089253960483600,0.841483642578125,-0.7902374267578125,-0.0656890869140625,0.2383575439453125
1757089253970438400,0.8514384765625,-0.7950897216796875,-0.074676513671875,0.2466583251953125
1757089253980393500,0.8613935546875,-0.797576904296875,-0.0823822021484375,0.2513427734375
1757089253990348500,0.8713486328125,-0.7987060546875,-0.0867767333984375,0.2512969970703125
1757089254000302600,0.881302490234375,-0.79638671875,-0.085601806640625,0.259796142578125
1757089254010257400,0.89125732421875,-0.8121490478515625,-0.0819091796875,0.27008056640625
1757089254020212500,0.90121240234375,-0.8264617919921875,-0.0843963623046875,0.264404296875
1757089254030166300,0.911166259765625,-0.8376922607421875,-0.088104248046875,0.26519775390625
1757089254040121600,0.92112158203125,-0.860595703125,-0.092315673828125,0.267608642578125
1757089254050076400,0.931076416015625,-0.8841705322265625,-0.0915069580078125,0.2734832763671875
1757089254060030500,0.941030517578125,-0.909271240234375,-0.091217041015625,0.2777862548828125
1757089254069985300,0.9509853515625,-0.9465179443359375,-0.0923309326171875,0.2760772705078125
1757089254079940600,0.960940673828125,-0.97674560546875,-0.0915374755859375,0.2709503173828125
1757089254089895400,0.9708955078125,-0.99346923828125,-0.0894317626953125,0.2515716552734375
1757089254099849500,0.980849365234375,-1.0022430419921875,-0.085540771484375,0.239227294921875
1757089254109804300,0.99080419921875,-1.00750732421875,-0.0849609375,0.240814208984375
1757089254119759600,1.000759521484375,-1.000518798828125,-0.0865325927734375,0.244110107421875
1757089254129714400,1.01071435546875,-0.98858642578125,-0.091094970703125,0.25347900390625
1757089254139668500,1.02066845703125,-0.9757080078125,-0.0958709716796875,0.2689666748046875
1757089254149623300,1.030623291015625,-0.957275390625,-0.0977020263671875,0.2813262939453125
1757089254159578600,1.04057861328125,-0.9461822509765625,-0.0944976806640625,0.290496826171875
1757089254169532400,1.050532470703125,-0.94830322265625,-0.092529296875,0.294647216796875
1757089254179487500,1.060487548828125,-0.9506683349609375,-0.0894775390625,0.29461669921875
1757089254189442300,1.0704423828125,-0.95361328125,-0.085113525390625,0.2877197265625
1757089254199397600,1.080397705078125,-0.96484375,-0.0772705078125,0.27801513671875
1757089254209351400,1.090351318359375,-0.9692535400390625,-0.06988525390625,0.2601776123046875
1757089254219306500,1.100306396484375,-0.9651031494140625,-0.0584564208984375,0.236572265625
1757089254229261300,1.11026123046875,-0.9529571533203125,-0.0442657470703125,0.213836669921875
1757089254239215400,1.12021533203125,-0.9359283447265625,-0.0286102294921875,0.19427490234375
1757089254249170400,1.13017041015625,-0.92132568359375,-0.0178680419921875,0.181488037109375
1757089254259125500,1.14012548828125,-0.912994384765625,-0.00628662109375,0.175048828125
1757089254269080300,1.150080322265625,-0.9201507568359375,0.0123138427734375,0.17205810546875
1757089254279034400,1.160034423828125,-0.947509765625,0.0298919677734375,0.1728363037109375
1757089254288989400,1.169989501953125,-0.9878082275390625,0.041412353515625,0.1869049072265625
1757089254298944500,1.179944580078125,-1.0299530029296875,0.0584564208984375,0.20416259765625
1757089254308898600,1.189898681640625,-1.0794219970703125,0.083526611328125,0.2073974609375
1757089254318853400,1.199853271484375,-1.1329803466796875,0.1046295166015625,0.2059478759765625
1757089254328808400,1.209808349609375,-1.17755126953125,0.1168975830078125,0.2061767578125
1757089254338763500,1.219763427734375,-1.197021484375,0.1181793212890625,0.201873779296875
1757089254348717600,1.229717529296875,-1.188507080078125,0.116058349609375,0.18377685546875
1757089254358672400,1.23967236328125,-1.1484832763671875,0.114837646484375,0.167388916015625
1757089254368627500,1.24962744140625,-1.0797271728515625,0.1115570068359375,0.14935302734375
1757089254378581500,1.25958154296875,-1.01568603515625,0.1102752685546875,0.132049560546875
1757089254388536600,1.26953662109375,-0.9811553955078125,0.107269287109375,0.126678466796875
1757089254398491400,1.279491455078125,-0.9747772216796875,0.1025543212890625,0.1375885009765625
1757089254408446500,1.289446533203125,-0.9912872314453125,0.09759521484375,0.155303955078125
1757089254418400500,1.299400390625,-1.0222625732421875,0.098785400390625,0.1735687255859375
1757089254428355300,1.309355224609375,-1.060821533203125,0.107421875,0.2010345458984375
1757089254438310400,1.319310302734375,-1.095611572265625,0.112823486328125,0.2282257080078125
1757089254448264400,1.329264404296875,-1.1168975830078125,0.1153411865234375,0.24395751953125
1757089254458219500,1.339219482421875,-1.128326416015625,0.118865966796875,0.2509918212890625
1757089254468174300,1.34917431640625,-1.13140869140625,0.124053955078125,0.247161865234375
1757089254478129200,1.359129150390625,-1.1322174072265625,0.12664794921875,0.2357025146484375
1757089254488083200,1.369083251953125,-1.1225128173828125,0.12298583984375,0.224029541015625
1757089254498038000,1.3790380859375,-1.1009979248046875,0.1213531494140625,0.2088165283203125
1757089254507993300,1.388993408203125,-1.07391357421875,0.11651611328125,0.1958770751953125
1757089254517948200,1.3989482421875,-1.0429534912109375,0.108062744140625,0.186004638671875
1757089254527902200,1.408902099609375,-1.013458251953125,0.1007843017578125,0.179962158203125
1757089254537857000,1.41885693359375,-0.9839324951171875,0.092437744140625,0.1829071044921875
1757089254547812000,1.42881201171875,-0.9574432373046875,0.087890625,0.183349609375
1757089254557766100,1.43876611328125,-0.9282379150390625,0.0845947265625,0.1806488037109375
1757089254567721200,1.44872119140625,-0.901214599609375,0.0842132568359375,0.183624267578125
1757089254577676000,1.458676025390625,-0.8812713623046875,0.085540771484375,0.187103271484375
1757089254587631000,1.468631103515625,-0.8638458251953125,0.0869140625,0.197479248046875
1757089254597585200,1.478585205078125,-0.8525238037109375,0.0932769775390625,0.2093658447265625
1757089254607540200,1.488540283203125,-0.850982666015625,0.1001739501953125,0.2144622802734375
1757089254617495000,1.4984951171875,-0.8487091064453125,0.095001220703125,0.22381591796875
1757089254627449000,1.508448974609375,-0.8444061279296875,0.0990142822265625,0.232330322265625
1757089254637404200,1.518404052734375,-0.8304443359375,0.109619140625,0.2375030517578125
1757089254647359200,1.528359130859375,-0.822601318359375,0.1146697998046875,0.242950439453125
1757089254657314000,1.53831396484375,-0.8226776123046875,0.1208343505859375,0.249603271484375
1757089254667268000,1.54826806640625,-0.8101806640625,0.1391143798828125,0.2401123046875
1757089254677223200,1.55822314453125,-0.781494140625,0.1624603271484375,0.21038818359375
1757089254687178200,1.56817822265625,-0.773223876953125,0.17724609375,0.17779541015625
1757089254697133000,1.578133056640625,-0.7847900390625,0.1829681396484375,0.184722900390625
1757089254707087000,1.588087158203125,-0.77716064453125,0.1941986083984375,0.2032928466796875
1757089254717042200,1.598042236328125,-0.745574951171875,0.213623046875,0.2287139892578125
1757089254726997200,1.607997314453125,-0.7301177978515625,0.2287139892578125,0.2780914306640625
1757089254736951000,1.617950927734375,-0.7406005859375,0.202911376953125,0.3401031494140625
1757089254746906000,1.627906005859375,-0.7231597900390625,0.1860504150390625,0.3535003662109375
1757089254756861200,1.637861083984375,-0.6562347412109375,0.19219970703125,0.3820953369140625
1757089254766816300,1.647816162109375,-0.554718017578125,0.2083892822265625,0.41046142578125
1757089254776770000,1.65777001953125,-0.563262939453125,0.150604248046875,0.3436126708984375
1757089254786725000,1.66772509765625,-0.5827789306640625,0.1250457763671875,0.3556365966796875
1757089254796680200,1.67768017578125,-0.563720703125,0.1582794189453125,0.5155792236328125
1757089254806634200,1.68763427734375,-0.606903076171875,0.1648406982421875,0.6415557861328125
1757089254816589000,1.697589111328125,-0.726104736328125,0.1763916015625,0.729248046875
1757089254826544000,1.707544189453125,-0.818450927734375,0.1682891845703125,0.7780914306640625
1757089254836499200,1.717499267578125,-0.902862548828125,0.150299072265625,0.8126068115234375
1757089254846453200,1.727453369140625,-0.96240234375,0.127105712890625,0.8386383056640625
1757089254856408000,1.737407958984375,-0.969757080078125,0.0987396240234375,0.855865478515625
1757089254866363100,1.747363037109375,-0.9571075439453125,0.067047119140625,0.8672332763671875
1757089254876318200,1.757318115234375,-0.93817138671875,0.04248046875,0.8605194091796875
1757089254886272300,1.767272216796875,-0.90167236328125,0.0539703369140625,0.8335418701171875
1757089254896227000,1.77722705078125,-0.8635711669921875,0.0833740234375,0.78472900390625
1757089254906182100,1.78718212890625,-0.7899627685546875,0.1035308837890625,0.701446533203125
1757089254916136000,1.797135986328125,-0.7989349365234375,0.0694427490234375,0.6391143798828125
1757089254926091300,1.80709130859375,-0.9042816162109375,0.0451812744140625,0.6168365478515625
1757089254936046000,1.817046142578125,-0.9659576416015625,0.052215576171875,0.6051483154296875
1757089254946001200,1.827001220703125,-0.9890594482421875,0.0526580810546875,0.60369873046875
1757089254955955000,1.836954833984375,-0.9840240478515625,0.047607421875,0.6228790283203125
1757089254965910300,1.84691015625,-0.9408111572265625,0.0480499267578125,0.6552581787109375
1757089254975865000,1.856864990234375,-0.8719635009765625,0.0772857666015625,0.6555633544921875
1757089254985819100,1.866819091796875,-0.809906005859375,0.1119842529296875,0.615020751953125
1757089254995774000,1.87677392578125,-0.7860565185546875,0.1077880859375,0.60235595703125
1757089255005729300,1.886729248046875,-0.74176025390625,0.122955322265625,0.53997802734375
1757089255015684000,1.89668408203125,-0.70697021484375,0.07843017578125,0.5947418212890625
1757089255025638100,1.90663818359375,-0.7327117919921875,0.041839599609375,0.6735076904296875
1757089255035593000,1.916593017578125,-0.7144317626953125,0.0506591796875,0.67724609375
1757089255045548300,1.92654833984375,-0.6504058837890625,0.0800323486328125,0.665924072265625
1757089255055503000,1.936503173828125,-0.5884246826171875,0.097808837890625,0.6796875
1757089255065457200,1.94645703125,-0.554443359375,0.135528564453125,0.7106170654296875
1757089255075412000,1.956411865234375,-0.5140533447265625,0.2079925537109375,0.6855316162109375
1757089255085367300,1.9663671875,-0.492095947265625,0.234954833984375,0.6196441650390625
1757089255095321000,1.976321044921875,-0.48638916015625,0.2093963623046875,0.58599853515625
1757089255105276200,1.986276123046875,-0.4991302490234375,0.181793212890625,0.704742431640625
1757089255115231000,1.99623095703125,-0.4810791015625,0.188446044921875,0.76068115234375
1757089255125186300,2.006186279296875,-0.4535675048828125,0.1333770751953125,0.7191314697265625
1757089255135140000,2.01614013671875,-0.4215240478515625,0.1033172607421875,0.745330810546875
1757089255145095200,2.02609521484375,-0.4173431396484375,0.1008758544921875,0.8048553466796875
1757089255155050000,2.036050048828125,-0.422698974609375,0.1262664794921875,0.8260498046875
1757089255165004300,2.04600439453125,-0.4031524658203125,0.188629150390625,0.796844482421875
1757089255174959000,2.055958984375,-0.4119873046875,0.2378387451171875,0.81585693359375
1757089255184914200,2.0659140625,-0.452911376953125,0.2916717529296875,0.8766632080078125
1757089255194869000,2.075868896484375,-0.48907470703125,0.3239898681640625,0.88800048828125
1757089255204823300,2.0858232421875,-0.532501220703125,0.3698883056640625,0.8614044189453125
1757089255214778000,2.095778076171875,-0.58734130859375,0.39166259765625,0.8219451904296875
1757089255224733200,2.105733154296875,-0.624053955078125,0.40106201171875,0.8153076171875
1757089255234687000,2.11568701171875,-0.64654541015625,0.3897705078125,0.788909912109375
1757089255244642300,2.125642333984375,-0.672027587890625,0.3646087646484375,0.7640228271484375
1757089255254597000,2.13559716796875,-0.6801910400390625,0.375640869140625,0.7782745361328125
1757089255264552200,2.14555224609375,-0.7173309326171875,0.386993408203125,0.779693603515625
1757089255274506000,2.155506103515625,-0.674041748046875,0.3876190185546875,0.793670654296875
1757089255284461000,2.1654609375,-0.6209869384765625,0.395355224609375,0.8436279296875
1757089255294416100,2.175416015625,-0.6057281494140625,0.3948974609375,0.8535308837890625
1757089255304371200,2.18537109375,-0.56195068359375,0.3767547607421875,0.8464813232421875
1757089255314325000,2.195324951171875,-0.5356292724609375,0.3717498779296875,0.8525238037109375
1757089255324280000,2.205280029296875,-0.54351806640625,0.3685455322265625,0.8612823486328125
1757089255334235100,2.215235107421875,-0.545440673828125,0.36102294921875,0.860260009765625
1757089255344189200,2.225189208984375,-0.541229248046875,0.3588714599609375,0.8604583740234375
1757089255354144000,2.23514404296875,-0.5307769775390625,0.352752685546875,0.868438720703125
1757089255364099000,2.24509912109375,-0.5081024169921875,0.3405303955078125,0.882781982421875
1757089255374054100,2.25505419921875,-0.4897003173828125,0.3361968994140625,0.8856353759765625
1757089255384008200,2.26500830078125,-0.4827880859375,0.3473663330078125,0.88128662109375
1757089255393963000,2.274962890625,-0.47821044921875,0.3601226806640625,0.876190185546875
1757089255403918000,2.28491796875,-0.4621734619140625,0.361724853515625,0.8701629638671875
1757089255413872000,2.2948720703125,-0.3909149169921875,0.361297607421875,0.8586273193359375
1757089255423827200,2.3048271484375,-0.1439208984375,0.385833740234375,0.8582305908203125
1757089255433782000,2.314781982421875,-0.275390625,0.423980712890625,0.8450927734375
1757089255443737000,2.324737060546875,-0.5142669677734375,0.4307708740234375,0.7876129150390625
1757089255453691100,2.334691162109375,-0.577911376953125,0.4149627685546875,0.76861572265625
1757089255463646200,2.344646240234375,-0.555389404296875,0.4399566650390625,0.775482177734375
1757089255473601000,2.35460107421875,-0.5413665771484375,0.50201416015625,0.7904510498046875
1757089255483555000,2.36455517578125,-0.5439300537109375,0.5361175537109375,0.779541015625
1757089255493510000,2.374510009765625,-0.5260009765625,0.5265960693359375,0.740753173828125
1757089255503465200,2.38446533203125,-0.4839019775390625,0.5160369873046875,0.7130126953125
1757089255513420000,2.394419921875,-0.438140869140625,0.5200958251953125,0.7168731689453125
1757089255523374000,2.4043740234375,-0.393402099609375,0.5370635986328125,0.72711181640625
1757089255533329000,2.414328857421875,-0.373321533203125,0.5460357666015625,0.702301025390625
1757089255543284200,2.4242841796875,-0.4106292724609375,0.546600341796875,0.7017364501953125
1757089255553239000,2.434239013671875,-0.4346771240234375,0.54669189453125,0.7382965087890625
1757089255563193000,2.444193115234375,-0.37030029296875,0.5574798583984375,0.7893829345703125
1757089255573148000,2.45414794921875,-0.262786865234375,0.5750732421875,0.847381591796875
1757089255583103200,2.464103271484375,-0.1581878662109375,0.5873260498046875,0.8672027587890625
1757089255593057300,2.474057373046875,-0.076934814453125,0.5984954833984375,0.86492919921875
1757089255603012000,2.48401220703125,-0.0076751708984375,0.6135101318359375,0.8755645751953125
1757089255612967000,2.493966796875,0.0633087158203125,0.616363525390625,0.9300079345703125
1757089255622922200,2.503922119140625,0.1208648681640625,0.6112060546875,0.987518310546875
1757089255632876000,2.5138759765625,0.1421966552734375,0.5975341796875,1.0239715576171875
1757089255642831000,2.5238310546875,0.1600494384765625,0.5616607666015625,1.0548248291015625
1757089255652786000,2.533785888671875,0.251434326171875,0.5063323974609375,1.1125030517578125
1757089255662740000,2.543739990234375,0.399871826171875,0.5507659912109375,1.213897705078125
1757089255672695000,2.553695068359375,0.4211578369140625,0.681793212890625,1.214019775390625
1757089255682650000,2.563650146484375,0.3124847412109375,0.70574951171875,1.1107330322265625
1757089255692605000,2.57360498046875,0.1732635498046875,0.6575469970703125,1.0235595703125
1757089255702559000,2.58355908203125,0.0064239501953125,0.6719970703125,0.9325103759765625
1757089255712514000,2.59351416015625,-0.1192169189453125,0.7425384521484375,0.828216552734375
1757089255722469000,2.60346923828125,-0.22882080078125,0.842132568359375,0.7478179931640625
1757089255732423200,2.613423095703125,-0.3531494140625,0.9324798583984375,0.7557373046875
1757089255742378000,2.6233779296875,-0.446441650390625,0.9688873291015625,0.823944091796875
1757089255752333000,2.6333330078125,-0.4819793701171875,0.9493255615234375,0.8523101806640625
1757089255762288000,2.6432880859375,-0.45989990234375,0.867523193359375,0.860321044921875
1757089255772242200,2.6532421875,-0.3857574462890625,0.772125244140625,0.9176025390625
1757089255782197000,2.663197021484375,-0.1933746337890625,0.6668548583984375,0.958526611328125
1757089255792152000,2.673152099609375,0.0263519287109375,0.587310791015625,0.9705657958984375
1757089255802106000,2.683106201171875,0.1927490234375,0.5435638427734375,0.94879150390625
1757089255812061200,2.693061279296875,0.2521514892578125,0.5048370361328125,0.8954620361328125
1757089255822016000,2.70301611328125,0.245269775390625,0.4710540771484375,0.832916259765625
1757089255831971000,2.71297119140625,0.1116790771484375,0.4639434814453125,0.77801513671875
1757089255841925000,2.722925048828125,-0.0523834228515625,0.4399261474609375,0.7171173095703125
1757089255851880200,2.732880126953125,-0.1446380615234375,0.3898773193359375,0.622650146484375
1757089255861835000,2.7428349609375,-0.1712799072265625,0.3493194580078125,0.524383544921875
1757089255871789000,2.7527890625,-0.1493682861328125,0.3134002685546875,0.4300079345703125
1757089255881744100,2.762744140625,-0.099884033203125,0.2713470458984375,0.360382080078125
1757089255891699200,2.77269921875,-0.042724609375,0.251800537109375,0.2819366455078125
1757089255901654000,2.782654052734375,0.0446014404296875,0.278289794921875,0.1693878173828125
1757089255911608000,2.792608154296875,0.15863037109375,0.331756591796875,0.0690460205078125
1757089255921563100,2.802563232421875,0.260986328125,0.3905029296875,0.0140533447265625
1757089255931518000,2.81251806640625,0.2960357666015625,0.467254638671875,0.026214599609375
1757089255941472000,2.822471923828125,0.2260894775390625,0.6160736083984375,0.0478057861328125
1757089255951427000,2.832427001953125,0.1046600341796875,0.7633209228515625,0.07720947265625
1757089255961382100,2.842382080078125,-0.0264739990234375,0.832244873046875,0.094635009765625
1757089255971337000,2.8523369140625,-0.165130615234375,0.82989501953125,0.0752105712890625
1757089255981291000,2.862291015625,-0.275604248046875,0.7776947021484375,0.0713653564453125
1757089255991246000,2.87224609375,-0.3007965087890625,0.7634429931640625,0.135223388671875
1757089256001201200,2.882201171875,-0.34564208984375,0.921844482421875,0.2642822265625
1757089256011156000,2.892156005859375,-0.48223876953125,1.0509033203125,0.314910888671875
1757089256021110000,2.902110107421875,-0.5708160400390625,1.0688018798828125,0.300628662109375
1757089256031065000,2.912065185546875,-0.6070098876953125,1.096405029296875,0.3518218994140625
1757089256041020200,2.922020263671875,-0.6786956787109375,1.15582275390625,0.4779205322265625
1757089256050974200,2.93197412109375,-0.688507080078125,1.226348876953125,0.654144287109375
1757089256060929000,2.941928955078125,-0.6310577392578125,1.263153076171875,0.803314208984375
1757089256070884000,2.951884033203125,-0.6053466796875,1.2432861328125,0.8350982666015625
1757089256080839200,2.961839111328125,-0.5292510986328125,1.180999755859375,0.8329925537109375
1757089256090793200,2.971793212890625,-0.4454803466796875,1.1297760009765625,0.9078369140625
1757089256100748000,2.981748046875,-0.3784637451171875,1.116424560546875,1.00103759765625
1757089256110703000,2.991703125,-0.310394287109375,1.0993194580078125,1.055023193359375
1757089256120657200,3.0016572265625,-0.2750091552734375,1.0632171630859375,1.0612030029296875
1757089256130612200,3.0116123046875,-0.2711944580078125,1.019622802734375,1.0424346923828125
1757089256140567000,3.021567138671875,-0.280853271484375,0.9910125732421875,1.0186309814453125
1757089256150522000,3.031522216796875,-0.3097076416015625,0.985992431640625,1.015655517578125
1757089256160476200,3.04147607421875,-0.3502197265625,0.9520111083984375,1.086456298828125
1757089256170431200,3.05143115234375,-0.3038787841796875,0.883880615234375,1.128021240234375
1757089256180386000,3.061385986328125,-0.1746673583984375,0.8272705078125,1.15911865234375
1757089256190340000,3.071340087890625,-0.1053314208984375,0.8649444580078125,1.1795501708984375
1757089256200295200,3.081295166015625,-0.0596466064453125,0.9109039306640625,1.10528564453125
1757089256210250200,3.091250244140625,0.021514892578125,0.9085693359375,0.9783782958984375
1757089256220205000,3.101205078125,0.08184814453125,0.9102325439453125,0.84967041015625
1757089256230159000,3.1111591796875,0.1279449462890625,0.9354705810546875,0.741424560546875
1757089256240114200,3.1211142578125,0.124359130859375,0.9561004638671875,0.7343292236328125
1757089256250069200,3.1310693359375,0.073577880859375,0.951995849609375,0.7787933349609375
1757089256260023000,3.14102294921875,-0.011627197265625,0.9446563720703125,0.77557373046875
1757089256269978000,3.15097802734375,-0.199615478515625,0.9988250732421875,0.75732421875
1757089256279933200,3.16093310546875,-0.442657470703125,1.0762786865234375,0.742950439453125
1757089256289888300,3.17088818359375,-0.5700225830078125,0.951995849609375,0.7194061279296875
1757089256299842000,3.180842041015625,-0.7988739013671875,0.878570556640625,0.868621826171875
1757089256309797000,3.190797119140625,-0.8668060302734375,0.9840087890625,1.0026092529296875
1757089256319752200,3.200752197265625,-0.90472412109375,0.9990386962890625,1.10247802734375
1757089256329706200,3.210706298828125,-0.8482208251953125,0.86480712890625,1.0895233154296875
1757089256339661000,3.2206611328125,-0.8878326416015625,0.8542327880859375,1.0879669189453125
1757089256349616000,3.2306162109375,-0.819976806640625,0.8666229248046875,1.04486083984375
1757089256359571000,3.240571044921875,-0.7512664794921875,0.865081787109375,1.0211181640625
1757089256369525200,3.250525146484375,-0.6160125732421875,0.8282470703125,0.942596435546875
1757089256379480000,3.26047998046875,-0.6842498779296875,0.8758392333984375,0.9194793701171875
1757089256389435100,3.27043505859375,-0.68768310546875,0.8687896728515625,0.8639068603515625
1757089256399390000,3.280389892578125,-0.65545654296875,0.7408447265625,0.8045654296875
1757089256409344300,3.29034423828125,-0.727142333984375,0.7168731689453125,0.7474212646484375
1757089256419299000,3.300299072265625,-0.639007568359375,0.7225189208984375,0.70941162109375
1757089256429254100,3.310254150390625,-0.5209503173828125,0.707244873046875,0.6198577880859375
1757089256439208000,3.3202080078125,-0.466552734375,0.670623779296875,0.49737548828125
1757089256449163300,3.330163330078125,-0.4107513427734375,0.636474609375,0.4147491455078125
1757089256459118000,3.3401181640625,-0.3917083740234375,0.673736572265625,0.3392333984375
1757089256469073200,3.3500732421875,-0.4208831787109375,0.745361328125,0.2646331787109375
1757089256479026700,3.360026611328125,-0.456146240234375,0.745147705078125,0.2282562255859375
1757089256488981800,3.369981689453125,-0.54461669921875,0.6673126220703125,0.235931396484375
1757089256498936600,3.3799365234375,-0.5974273681640625,0.6262054443359375,0.2746429443359375
1757089256508890600,3.389890625,-0.582000732421875,0.6237030029296875,0.2667388916015625
1757089256518845700,3.399845703125,-0.4901580810546875,0.6164703369140625,0.138397216796875
1757089256528800800,3.40980078125,-0.26971435546875,0.5331573486328125,0.1349639892578125
1757089256538755600,3.419755615234375,-0.2198638916015625,0.49346923828125,0.258575439453125
1757089256548709600,3.429709716796875,-0.4166412353515625,0.4959564208984375,0.132476806640625
1757089256558664700,3.439664794921875,-0.26220703125,0.442596435546875,-0.00384521484375
1757089256568619800,3.449619873046875,-0.0479278564453125,0.419647216796875,0.106597900390625
1757089256578573800,3.45957373046875,-0.13226318359375,0.3694305419921875,0.3930206298828125
1757089256588528600,3.469528564453125,-0.2750091552734375,0.2274627685546875,0.6094512939453125
1757089256598483700,3.479483642578125,-0.3822174072265625,0.215911865234375,0.5960235595703125
1757089256608438800,3.489438720703125,-0.150177001953125,0.280181884765625,0.4721527099609375
1757089256618392800,3.499392822265625,0.402496337890625,0.300323486328125,0.2463531494140625
1757089256628347600,3.50934765625,0.7800140380859375,0.2613677978515625,0.0753936767578125
1757089256638302700,3.519302734375,0.152130126953125,0.297698974609375,0.3276214599609375
1757089256648256800,3.5292568359375,-0.6522979736328125,0.358856201171875,0.4977569580078125
1757089256658211600,3.539211669921875,-0.8101654052734375,0.403350830078125,0.5018768310546875
1757089256668166700,3.549166748046875,-0.5738067626953125,0.3806610107421875,0.455230712890625
1757089256678121700,3.559121826171875,-0.4394378662109375,0.32501220703125,0.46563720703125
1757089256688075800,3.56907568359375,-0.415008544921875,0.2684326171875,0.524566650390625
1757089256698030600,3.579030517578125,-0.489959716796875,0.2451324462890625,0.4998016357421875
1757089256707985700,3.588985595703125,-0.3472442626953125,0.258331298828125,0.57220458984375
1757089256717939700,3.598939697265625,-0.2644805908203125,0.297576904296875,0.722015380859375
1757089256727894800,3.608894775390625,-0.154937744140625,0.317047119140625,0.8672332763671875
1757089256737849600,3.618849609375,0.1479644775390625,0.344451904296875,0.9102935791015625
1757089256747804700,3.6288046875,0.204071044921875,0.34271240234375,1.0206146240234375
1757089256757758700,3.6387587890625,-0.78070068359375,0.1983489990234375,0.7883453369140625
1757089256767713800,3.6487138671875,-0.996917724609375,0.1958770751953125,0.643707275390625
1757089256777668600,3.658668701171875,-0.408966064453125,0.3784027099609375,0.7947845458984375
1757089256787622700,3.66862255859375,-0.3270721435546875,0.5537872314453125,0.8820648193359375
1757089256797577700,3.67857763671875,-0.4847564697265625,0.5760040283203125,0.925994873046875
1757089256807532800,3.68853271484375,-0.677764892578125,0.4735260009765625,0.851043701171875
1757089256817487600,3.698487548828125,-0.694976806640625,0.4470367431640625,0.834747314453125
1757089256827441700,3.708441650390625,-0.611053466796875,0.46533203125,0.8772430419921875
1757089256837396700,3.718396728515625,-0.4269561767578125,0.4370574951171875,0.8696441650390625
1757089256847351800,3.728351806640625,-0.3634185791015625,0.368804931640625,0.9409027099609375
1757089256857305900,3.738305908203125,-0.3831787109375,0.3381195068359375,0.810821533203125
1757089256867260700,3.7482607421875,-0.336456298828125,0.3916778564453125,0.5950927734375
1757089256877215700,3.7582158203125,-0.309356689453125,0.4449005126953125,0.6338043212890625
1757089256887170800,3.7681708984375,-0.29473876953125,0.445068359375,0.696533203125
1757089256897124900,3.778124755859375,-0.3260040283203125,0.46209716796875,0.6686859130859375
1757089256907079700,3.78807958984375,-0.411834716796875,0.5826263427734375,0.482757568359375
1757089256917034800,3.79803466796875,-0.33612060546875,0.6425323486328125,0.4342193603515625
1757089256926988800,3.80798876953125,-0.1719512939453125,0.6061248779296875,0.478759765625
1757089256936943900,3.81794384765625,-0.0884857177734375,0.6318817138671875,0.4095458984375
1757089256946898700,3.827898681640625,-0.167083740234375,0.6534423828125,0.4210205078125
1757089256956853500,3.837853515625,-0.304412841796875,0.712493896484375,0.5005950927734375
1757089256966807600,3.8478076171875,-0.4397125244140625,0.8082733154296875,0.661163330078125
1757089256976763000,3.857762939453125,-0.623077392578125,0.8209991455078125,0.902252197265625
1757089256986717700,3.8677177734375,-0.554534912109375,0.7439727783203125,1.024658203125
1757089256996672500,3.877672607421875,-0.34942626953125,0.6329193115234375,0.82891845703125
1757089257006626600,3.88762646484375,-0.374176025390625,0.597259521484375,0.978729248046875
1757089257016582000,3.897581787109375,-0.1672210693359375,0.603973388671875,0.8313446044921875
1757089257026536700,3.90753662109375,-0.2280731201171875,0.6722564697265625,0.9134674072265625
1757089257036490800,3.91749072265625,-0.264434814453125,0.602386474609375,1.0484619140625
1757089257046445600,3.927445556640625,-0.3043060302734375,0.5123443603515625,1.2081451416015625
1757089257056401000,3.93740087890625,-0.086090087890625,0.3998565673828125,1.2924652099609375
1757089257066355700,3.947355712890625,0.18927001953125,0.2296600341796875,1.1713409423828125
1757089257076309800,3.957309814453125,0.04376220703125,0.112640380859375,1.0117340087890625
1757089257086264600,3.9672646484375,-0.0798187255859375,0.2151031494140625,1.03668212890625
1757089257096220000,3.977219970703125,0.021209716796875,0.923583984375,1.171844482421875
1757089257106173700,3.987173583984375,-0.1412506103515625,1.11505126953125,0.8505401611328125
1757089257116128800,3.997128662109375,-0.1320037841796875,1.1801910400390625,0.44720458984375
1757089257126083600,4.00708349609375,-0.2092132568359375,1.293853759765625,0.121246337890625
1757089257136038700,4.01703857421875,-0.3004150390625,1.1930694580078125,0.0146636962890625
1757089257145992700,4.02699267578125,-0.1822052001953125,0.9225006103515625,0.1391143798828125
1757089257155947800,4.03694775390625,-0.178680419921875,0.7446136474609375,0.1994781494140625
1757089257165902600,4.046902587890625,-0.369598388671875,0.6138916015625,0.07513427734375
1757089257175857000,4.05685693359375,-0.3056182861328125,0.6639556884765625,0.2571258544921875
1757089257185811700,4.066811767578125,-0.2970428466796875,0.7352142333984375,0.415771484375
1757089257195766800,4.076766845703125,-0.3749542236328125,0.715484619140625,0.530303955078125
1757089257205720600,4.086720458984375,-0.332763671875,0.67376708984375,0.624298095703125
1757089257215676000,4.096676025390625,-0.1515960693359375,0.6914520263671875,0.7400970458984375
1757089257225630700,4.106630615234375,0.0594940185546875,0.7958831787109375,0.8292236328125
1757089257235585800,4.116585693359375,0.0404052734375,0.876800537109375,0.73138427734375
1757089257245539600,4.12653955078125,-0.3423614501953125,0.842559814453125,0.5098724365234375
1757089257255495000,4.136494873046875,-0.2761993408203125,0.8060760498046875,0.4822235107421875
1757089257265449700,4.14644970703125,-0.1486663818359375,0.812744140625,0.5512542724609375
1757089257275404800,4.15640478515625,-0.1810150146484375,0.8211822509765625,0.63623046875
1757089257285358600,4.166358642578125,-0.139923095703125,0.8108062744140625,0.7296295166015625
1757089257295314000,4.17631396484375,-0.058837890625,0.780426025390625,0.7428741455078125
1757089257305268700,4.186268798828125,-0.03399658203125,0.719024658203125,0.734466552734375
1757089257315222800,4.196222900390625,-0.0331268310546875,0.6268157958984375,0.829864501953125
1757089257325177600,4.206177490234375,-0.06634521484375,0.561920166015625,0.9763641357421875
1757089257335133000,4.2161328125,-0.1037750244140625,0.55303955078125,1.03619384765625
1757089257345087700,4.226087646484375,-0.1110076904296875,0.630950927734375,0.9141387939453125
1757089257355041800,4.236041748046875,-0.0524444580078125,0.740936279296875,0.7557525634765625
1757089257364996600,4.24599658203125,0.00146484375,0.77740478515625,0.711517333984375
1757089257374952000,4.255951904296875,-0.070037841796875,0.6809539794921875,0.613800048828125
1757089257384905700,4.26590576171875,0.131591796875,0.5386505126953125,0.57476806640625
1757089257394860800,4.27586083984375,0.3217620849609375,0.42889404296875,0.5659637451171875
1757089257404815600,4.285815673828125,0.29656982421875,0.3088531494140625,0.5173492431640625
1757089257414771000,4.29577099609375,0.3184814453125,0.417144775390625,0.511199951171875
1757089257424724700,4.305724853515625,0.0888519287109375,0.770294189453125,0.460357666015625
1757089257434679800,4.3156796875,-0.2168426513671875,1.065704345703125,0.410980224609375
1757089257444634600,4.325634521484375,-0.0192413330078125,1.2131195068359375,0.35443115234375
1757089257454588700,4.335588623046875,0.1729888916015625,1.181671142578125,0.2501983642578125
1757089257464543700,4.345543701171875,-0.0021514892578125,1.14678955078125,0.1951751708984375
1757089257474498800,4.355498779296875,-0.1064910888671875,1.1238555908203125,0.2385711669921875
1757089257484454000,4.365453857421875,-0.180145263671875,1.0073089599609375,0.31903076171875
1757089257494408000,4.375407958984375,-0.1380615234375,0.84307861328125,0.378082275390625
1757089257504362800,4.38536279296875,0.05120849609375,0.699554443359375,0.29766845703125
1757089257514317800,4.39531787109375,0.0453338623046875,0.6723785400390625,0.1965484619140625
1757089257524271900,4.40527197265625,-0.1676483154296875,0.7110748291015625,0.1975555419921875
1757089257534227000,4.41522705078125,-0.0702362060546875,0.6990203857421875,0.166107177734375
1757089257544181800,4.425181640625,0.0050811767578125,0.7101287841796875,0.129180908203125
1757089257554136800,4.43513671875,0.002655029296875,0.672332763671875,0.14111328125
1757089257564090600,4.445090576171875,-0.0172576904296875,0.621124267578125,0.1171112060546875
1757089257574046000,4.4550458984375,-0.047149658203125,0.5426788330078125,0.1216278076171875
1757089257584000800,4.465000732421875,-0.0254669189453125,0.4304351806640625,0.1150360107421875
1757089257593954800,4.474954833984375,0.0166168212890625,0.3115081787109375,0.1183624267578125
1757089257603909600,4.48490966796875,0.013427734375,0.22198486328125,0.136444091796875
1757089257613865000,4.494864990234375,0.0361480712890625,0.2432098388671875,0.1556549072265625
1757089257623819800,4.50481982421875,0.1517791748046875,0.220794677734375,0.0916595458984375
1757089257633773800,4.51477392578125,0.0561370849609375,0.1371612548828125,0.0079345703125
1757089257643728600,4.524728759765625,0.0435333251953125,0.1346435546875,-0.0045623779296875
1757089257653684000,4.53468408203125,-0.0186004638671875,0.1604156494140625,0.0124359130859375
1757089257663637800,4.5446376953125,-0.0152435302734375,0.23065185546875,0.0450439453125
1757089257673592800,4.5545927734375,0.026336669921875,0.445770263671875,0.2244415283203125
1757089257683547600,4.564547607421875,-0.0886383056640625,1.423065185546875,0.4789276123046875
1757089257693503000,4.5745029296875,0.3360748291015625,5.246185302734375,-0.44451904296875
1757089257703456800,4.584456787109375,0.42486572265625,6.799774169921875,-0.8345184326171875
1757089257713411800,4.594411865234375,-0.0778961181640625,2.8894805908203125,0.803009033203125
1757089257723366700,4.60436669921875,-0.0455780029296875,1.1043243408203125,0.942840576171875
1757089257733321000,4.614321044921875,0.120635986328125,0.6754913330078125,0.4456329345703125
1757089257743275800,4.62427587890625,0.21453857421875,0.654693603515625,0.2544403076171875
1757089257753230800,4.63423095703125,0.2313079833984375,0.79425048828125,-0.0779266357421875
1757089257763185700,4.644185546875,0.200775146484375,1.0794677734375,-0.2582855224609375
1757089257773140000,4.654139892578125,0.06097412109375,1.0068511962890625,-0.682373046875
1757089257783094800,4.6640947265625,-0.241180419921875,0.63397216796875,-1.3527374267578125
1757089257793049900,4.6740498046875,-0.313446044921875,0.6217193603515625,-1.3927001953125
1757089257803004000,4.68400390625,-0.108123779296875,0.6715545654296875,-0.7468109130859375
1757089257812959000,4.693958984375,0.0078582763671875,0.8293914794921875,-0.2523193359375
1757089257822913800,4.703913818359375,0.055023193359375,0.9410247802734375,-0.29461669921875
1757089257832868900,4.713868896484375,0.0947418212890625,0.9921875,-0.2671356201171875
1757089257842823000,4.723822998046875,0.123382568359375,0.9924163818359375,-0.196868896484375
1757089257852778000,4.733778076171875,0.12237548828125,1.0113372802734375,-0.208343505859375
1757089257862732800,4.74373291015625,0.097076416015625,1.009765625,-0.204345703125
1757089257872686800,4.753686767578125,0.062408447265625,1.0217437744140625,-0.2272491455078125
1757089257882642000,4.763641845703125,0.0417633056640625,1.0089111328125,-0.2503814697265625
1757089257892597000,4.773596923828125,0.0238189697265625,1.00238037109375,-0.311920166015625
1757089257902551800,4.7835517578125,0.0066070556640625,0.963897705078125,-0.3575592041015625
1757089257912505900,4.793505859375,-0.0086669921875,0.928314208984375,-0.3980712890625
1757089257922460700,4.803460693359375,-0.021270751953125,0.9035186767578125,-0.448028564453125
1757089257932416000,4.813416015625,-0.0379791259765625,0.8826446533203125,-0.458984375
1757089257942370800,4.823370849609375,-0.0623626708984375,0.89324951171875,-0.452545166015625
1757089257952324900,4.833324951171875,-0.0586395263671875,0.91217041015625,-0.415740966796875
1757089257962279700,4.84327978515625,-0.04364013671875,0.9480743408203125,-0.3799896240234375
1757089257972235000,4.853235107421875,-0.03485107421875,0.9812774658203125,-0.3698577880859375
1757089257982189000,4.86318896484375,-0.0325469970703125,0.9677734375,-0.369873046875
1757089257992144000,4.873143798828125,-0.0266876220703125,0.939910888671875,-0.3643798828125
1757089258002098700,4.8830986328125,-0.0156402587890625,0.9365234375,-0.3340301513671875
1757089258012054000,4.893053955078125,-0.0044708251953125,0.9487762451171875,-0.313690185546875
1757089258022008000,4.903008056640625,0.009552001953125,0.954132080078125,-0.311798095703125
1757089258031963000,4.912962890625,0.0236358642578125,0.958465576171875,-0.3085479736328125
1757089258041917700,4.922917724609375,0.0395965576171875,0.9615631103515625,-0.306304931640625
1757089258051871700,4.932871826171875,0.046905517578125,0.9623870849609375,-0.298431396484375
1757089258061827000,4.9428271484375,0.048065185546875,0.9648590087890625,-0.291748046875
1757089258071782000,4.952781982421875,0.0403289794921875,0.966796875,-0.2926483154296875
1757089258081736700,4.96273681640625,0.03076171875,0.969940185546875,-0.29583740234375
1757089258091690800,4.972690673828125,0.0164947509765625,0.9681396484375,-0.295867919921875
1757089258101645800,4.982645751953125,0.0029754638671875,0.9657440185546875,-0.2935638427734375
1757089258111601000,4.992600830078125,-0.0068206787109375,0.964569091796875,-0.2878570556640625
1757089258121555000,5.002554931640625,-0.0172271728515625,0.9633331298828125,-0.2840576171875
1757089258131509800,5.012509765625,-0.0211334228515625,0.9671173095703125,-0.28411865234375
1757089258141464800,5.02246484375,-0.017608642578125,0.9597320556640625,-0.29034423828125
1757089258151420000,5.032419921875,-0.0091400146484375,0.951446533203125,-0.2941436767578125
1757089258161374000,5.0423740234375,-0.003936767578125,0.9540252685546875,-0.2937164306640625
1757089258171328800,5.052328857421875,0.0000762939453125,0.9617156982421875,-0.2942657470703125
1757089258181283800,5.062283935546875,0.0007476806640625,0.965087890625,-0.297149658203125
1757089258191238000,5.07223779296875,-0.000091552734375,0.960113525390625,-0.2996673583984375
1757089258201193000,5.08219287109375,-0.0027923583984375,0.951690673828125,-0.3098297119140625
1757089258211147800,5.092147705078125,-0.0108795166015625,0.9532623291015625,-0.3268280029296875
1757089258221102800,5.102102783203125,-0.01953125,0.9512481689453125,-0.3412628173828125
1757089258231057000,5.112056884765625,-0.0411529541015625,0.9348907470703125,-0.350738525390625
1757089258241012000,5.122011962890625,-0.0483245849609375,0.9343414306640625,-0.3572845458984375
1757089258250966800,5.131966796875,-0.0383453369140625,0.939208984375,-0.36346435546875
1757089258260920800,5.1419208984375,-0.040191650390625,0.930389404296875,-0.3529815673828125
1757089258270876000,5.1518759765625,-0.0381011962890625,0.923431396484375,-0.3507843017578125
1757089258280831000,5.1618310546875,-0.0387115478515625,0.9348602294921875,-0.33477783203125
1757089258290785800,5.171785888671875,-0.0348052978515625,0.9290008544921875,-0.3170318603515625
1757089258300739800,5.18173974609375,-0.034271240234375,0.9299163818359375,-0.308349609375
1757089258310695000,5.19169482421875,-0.03778076171875,0.9530792236328125,-0.314849853515625
1757089258320650000,5.20164990234375,-0.0422821044921875,0.95062255859375,-0.3222808837890625
1757089258330604800,5.211604736328125,-0.0423736572265625,0.9483489990234375,-0.3274383544921875
1757089258340558800,5.221558837890625,-0.03204345703125,0.948211669921875,-0.3201141357421875
1757089258350514000,5.231513916015625,-0.0190277099609375,0.95013427734375,-0.3218994140625
1757089258360469000,5.241468994140625,-0.0003204345703125,0.950714111328125,-0.3251495361328125
1757089258370422800,5.2514228515625,0.013824462890625,0.9537353515625,-0.322296142578125
1757089258380377900,5.2613779296875,0.0283050537109375,0.961578369140625,-0.321929931640625
1757089258390333000,5.2713330078125,0.0383148193359375,0.9682159423828125,-0.318115234375
1757089258400287700,5.281287841796875,0.0410308837890625,0.9717559814453125,-0.310516357421875
1757089258410241800,5.29124169921875,0.0443267822265625,0.9740447998046875,-0.3077239990234375
1757089258420196900,5.30119677734375,0.047882080078125,0.9747467041015625,-0.3108978271484375
1757089258430152000,5.31115185546875,0.045135498046875,0.973785400390625,-0.317230224609375
1757089258440106000,5.32110595703125,0.0412750244140625,0.97314453125,-0.321136474609375
1757089258450060800,5.331060791015625,0.0373077392578125,0.9709930419921875,-0.3189239501953125
1757089258460015900,5.341015869140625,0.0328521728515625,0.967559814453125,-0.317138671875
1757089258469971000,5.350970947265625,0.035980224609375,0.9581298828125,-0.310333251953125
1757089258479925200,5.36092529296875,0.0392608642578125,0.951324462890625,-0.30267333984375
1757089258489880000,5.370880126953125,0.04046630859375,0.95111083984375,-0.288970947265625
1757089258499835100,5.380835205078125,0.0413665771484375,0.9527587890625,-0.2787322998046875
1757089258509790200,5.390790283203125,0.0398712158203125,0.953704833984375,-0.27679443359375
1757089258519744300,5.400744140625,0.0354156494140625,0.9539947509765625,-0.2991943359375
1757089258529699000,5.410698974609375,0.0418243408203125,0.9503631591796875,-0.309906005859375
1757089258539654100,5.420654052734375,0.0439605712890625,0.949249267578125,-0.316650390625
1757089258549608200,5.430608154296875,0.04638671875,0.94561767578125,-0.3271026611328125
1757089258559563300,5.440563232421875,0.0523834228515625,0.947601318359375,-0.3382568359375
1757089258569518000,5.45051806640625,0.065643310546875,0.95166015625,-0.3400115966796875
1757089258579473200,5.46047314453125,0.0760498046875,0.9596405029296875,-0.34381103515625
1757089258589427200,5.47042724609375,0.07916259765625,0.9647216796875,-0.346954345703125
1757089258599382300,5.48038232421875,0.077178955078125,0.963897705078125,-0.3538665771484375
1757089258609337000,5.490337158203125,0.070587158203125,0.95623779296875,-0.3636627197265625
1757089258619292000,5.5002919921875,0.06304931640625,0.9454498291015625,-0.3778533935546875
1757089258629246200,5.51024609375,0.054718017578125,0.9340667724609375,-0.390045166015625
1757089258639201300,5.520201171875,0.0517425537109375,0.9247589111328125,-0.400146484375
1757089258649156000,5.530156005859375,0.050750732421875,0.9163360595703125,-0.410858154296875
1757089258659111000,5.54011083984375,0.050201416015625,0.9111785888671875,-0.4191131591796875
1757089258669065200,5.550065185546875,0.0533599853515625,0.9113922119140625,-0.4248046875
1757089258679020300,5.560020263671875,0.057342529296875,0.9130401611328125,-0.42877197265625
1757089258688975000,5.56997509765625,0.0593109130859375,0.9195404052734375,-0.4291229248046875
1757089258698930000,5.579929931640625,0.0638275146484375,0.9281768798828125,-0.426300048828125
1757089258708884200,5.58988427734375,0.066802978515625,0.9308929443359375,-0.4171905517578125
1757089258718839300,5.59983935546875,0.0760650634765625,0.9265594482421875,-0.3986053466796875
1757089258728794000,5.609794189453125,0.0857086181640625,0.927703857421875,-0.3871917724609375
1757089258738749000,5.6197490234375,0.0879364013671875,0.927459716796875,-0.3740692138671875
1757089258748703200,5.629703125,0.0879058837890625,0.933685302734375,-0.3540496826171875
1757089258758658000,5.639657958984375,0.0944976806640625,0.930389404296875,-0.3323516845703125
1757089258768613000,5.649613037109375,0.1075592041015625,0.9405517578125,-0.3239898681640625
1757089258778567200,5.659567138671875,0.1359100341796875,0.947479248046875,-0.3134918212890625
1757089258788522200,5.669522216796875,0.15753173828125,0.9491729736328125,-0.3094024658203125
1757089258798477000,5.67947705078125,0.1642303466796875,0.958648681640625,-0.3153076171875
1757089258808432000,5.68943212890625,0.163909912109375,0.9709930419921875,-0.3216705322265625
1757089258818386200,5.69938623046875,0.164581298828125,0.98040771484375,-0.3242950439453125
1757089258828341200,5.70934130859375,0.16265869140625,0.972808837890625,-0.3258056640625
1757089258838296000,5.719296142578125,0.144500732421875,0.952362060546875,-0.345428466796875
1757089258848251100,5.729251220703125,0.128143310546875,0.9320068359375,-0.3656158447265625
1757089258858205200,5.739205078125,0.12042236328125,0.9129638671875,-0.3646240234375
1757089258868160300,5.74916015625,0.1249542236328125,0.88629150390625,-0.3512115478515625
1757089258878115000,5.759114990234375,0.128662109375,0.8642425537109375,-0.363525390625
1757089258888070100,5.769070068359375,0.156524658203125,0.866058349609375,-0.37310791015625
1757089258898024200,5.779024169921875,0.164825439453125,0.8641815185546875,-0.353790283203125
1757089258907979300,5.788979248046875,0.1695098876953125,0.8615875244140625,-0.3503570556640625
1757089258917934000,5.79893408203125,0.1834259033203125,0.8588409423828125,-0.347808837890625
1757089258927889200,5.80888916015625,0.1775054931640625,0.85845947265625,-0.3497314453125
1757089258937843200,5.81884326171875,0.1735687255859375,0.8537750244140625,-0.3612060546875
1757089258947798300,5.82879833984375,0.1650238037109375,0.8574066162109375,-0.3705902099609375
1757089258957753000,5.838753173828125,0.1444244384765625,0.8683319091796875,-0.3828277587890625
1757089258967708200,5.848708251953125,0.1324920654296875,0.88031005859375,-0.3824615478515625
1757089258977662200,5.858662109375,0.130401611328125,0.8850555419921875,-0.3792572021484375
1757089258987617300,5.8686171875,0.1358489990234375,0.883148193359375,-0.368804931640625
1757089258997572000,5.878572021484375,0.140533447265625,0.8906402587890625,-0.3584136962890625
1757089259007527200,5.888527099609375,0.1452178955078125,0.8778839111328125,-0.3392181396484375
1757089259017481200,5.898481201171875,0.1579132080078125,0.8618011474609375,-0.333282470703125
1757089259027436300,5.908436279296875,0.1721038818359375,0.857025146484375,-0.3357696533203125
1757089259037391000,5.91839111328125,0.184661865234375,0.866546630859375,-0.3437347412109375
1757089259047346200,5.92834619140625,0.1848297119140625,0.888153076171875,-0.3646392822265625
1757089259057301000,5.938301025390625,0.180084228515625,0.898193359375,-0.393768310546875
1757089259067255000,5.948255126953125,0.169158935546875,0.8992919921875,-0.418182373046875
1757089259077210000,5.958210205078125,0.14715576171875,0.901031494140625,-0.434326171875
1757089259087165200,5.968165283203125,0.125640869140625,0.8942718505859375,-0.4406890869140625
1757089259097119000,5.978118896484375,0.11724853515625,0.8897857666015625,-0.4412841796875
1757089259107074000,5.988073974609375,0.1157989501953125,0.8929443359375,-0.4349212646484375
1757089259117029000,5.998029052734375,0.1172332763671875,0.9124755859375,-0.4142913818359375
1757089259126984200,6.007984130859375,0.1194915771484375,0.9365692138671875,-0.3813018798828125
1757089259136939000,6.01793896484375,0.1244964599609375,0.9651336669921875,-0.3416595458984375
1757089259146893000,6.02789306640625,0.1336822509765625,0.986114501953125,-0.3009033203125
1757089259156848000,6.03784814453125,0.1491241455078125,0.990997314453125,-0.2670135498046875
1757089259166803200,6.04780322265625,0.1597747802734375,0.9747161865234375,-0.2488555908203125
1757089259176758000,6.057758056640625,0.1598358154296875,0.965606689453125,-0.239105224609375
1757089259186712000,6.067712158203125,0.1502227783203125,0.9601898193359375,-0.2397918701171875
1757089259196667100,6.077667236328125,0.1417388916015625,0.9653778076171875,-0.25140380859375
1757089259206622200,6.087622314453125,0.136199951171875,0.977874755859375,-0.27984619140625
1757089259216577000,6.097576904296875,0.13824462890625,0.986663818359375,-0.3103179931640625
1757089259226531000,6.107531005859375,0.1428680419921875,0.982391357421875,-0.33782958984375
1757089259236486100,6.117486083984375,0.149322509765625,0.967803955078125,-0.3623199462890625
1757089259246441200,6.127441162109375,0.1553802490234375,0.9481353759765625,-0.3735809326171875
1757089259256396000,6.13739599609375,0.1502227783203125,0.944732666015625,-0.386505126953125
1757089259266350000,6.14735009765625,0.148468017578125,0.935760498046875,-0.3891448974609375
1757089259276305200,6.15730517578125,0.1446990966796875,0.9371337890625,-0.3719635009765625
1757089259286260200,6.16726025390625,0.1505889892578125,0.9420166015625,-0.35260009765625
1757089259296215000,6.177215087890625,0.1604156494140625,0.948089599609375,-0.329376220703125
1757089259306169000,6.187169189453125,0.1677093505859375,0.9486083984375,-0.30706787109375
1757089259316124200,6.197124267578125,0.1679534912109375,0.9535675048828125,-0.28656005859375
1757089259326079200,6.207079345703125,0.164154052734375,0.959136962890625,-0.275054931640625
1757089259336034000,6.217033935546875,0.1504974365234375,0.9657440185546875,-0.2709197998046875
1757089259345988000,6.226988037109375,0.13409423828125,0.9667510986328125,-0.279327392578125
1757089259355943200,6.236943115234375,0.123870849609375,0.9618988037109375,-0.29254150390625
1757089259365898200,6.246898193359375,0.1129608154296875,0.9500274658203125,-0.306549072265625
1757089259375853000,6.25685302734375,0.0990142822265625,0.9415435791015625,-0.3211517333984375
1757089259385807000,6.26680712890625,0.0915069580078125,0.93109130859375,-0.3294830322265625
1757089259395762200,6.27676220703125,0.0882720947265625,0.927276611328125,-0.337127685546875
1757089259405717200,6.28671728515625,0.089813232421875,0.9340362548828125,-0.3413848876953125
1757089259415672000,6.296672119140625,0.0915374755859375,0.946380615234375,-0.3402099609375
1757089259425626000,6.306626220703125,0.091278076171875,0.9526519775390625,-0.33856201171875
1757089259435581200,6.316581298828125,0.087005615234375,0.9580841064453125,-0.328887939453125
1757089259445536300,6.326536376953125,0.0809326171875,0.95611572265625,-0.3223114013671875
1757089259455491000,6.336490966796875,0.0782470703125,0.950103759765625,-0.318389892578125
1757089259465446100,6.346446044921875,0.077667236328125,0.9423980712890625,-0.3170166015625
1757089259475400200,6.356400146484375,0.0757598876953125,0.936431884765625,-0.321075439453125
1757089259485354500,6.3663544921875,0.0762939453125,0.9312286376953125,-0.3263397216796875
1757089259495309600,6.3763095703125,0.076507568359375,0.9329681396484375,-0.3320465087890625
1757089259505264600,6.3862646484375,0.0779266357421875,0.938690185546875,-0.3359832763671875
1757089259515218400,6.396218505859375,0.08026123046875,0.9467926025390625,-0.3353424072265625
1757089259525173500,6.406173583984375,0.081268310546875,0.9530792236328125,-0.3319854736328125
1757089259535128300,6.41612841796875,0.0813446044921875,0.9505615234375,-0.3255157470703125
1757089259545083600,6.426083740234375,0.0784912109375,0.9474945068359375,-0.3182220458984375
1757089259555037400,6.436037353515625,0.0790863037109375,0.943572998046875,-0.310943603515625
1757089259564992500,6.445992431640625,0.079742431640625,0.939361572265625,-0.3072967529296875
1757089259574947300,6.455947265625,0.0810546875,0.934600830078125,-0.2998199462890625
1757089259584902400,6.46590234375,0.08306884765625,0.9358978271484375,-0.2895660400390625
1757089259594856400,6.4758564453125,0.087432861328125,0.9408721923828125,-0.2806549072265625
1757089259604811500,6.4858115234375,0.093292236328125,0.9496002197265625,-0.2699432373046875
1757089259614766300,6.495766357421875,0.1041259765625,0.9615631103515625,-0.2607269287109375
1757089259624721400,6.505721435546875,0.116119384765625,0.9697265625,-0.2512969970703125
1757089259634675500,6.515675537109375,0.1257781982421875,0.9745025634765625,-0.2432861328125
1757089259644630500,6.525630615234375,0.12811279296875,0.9760894775390625,-0.2452545166015625
1757089259654585300,6.53558544921875,0.119903564453125,0.973052978515625,-0.2687835693359375
1757089259664540400,6.54554052734375,0.11285400390625,0.961669921875,-0.2751312255859375
1757089259674495500,6.55549560546875,0.1067962646484375,0.9554290771484375,-0.28948974609375
1757089259684449500,6.565449462890625,0.0994415283203125,0.948211669921875,-0.298614501953125
1757089259694404400,6.575404296875,0.0931549072265625,0.9443817138671875,-0.307647705078125
1757089259704359400,6.585359375,0.091644287109375,0.9416656494140625,-0.31378173828125
1757089259714314500,6.595314453125,0.091827392578125,0.9464569091796875,-0.3130950927734375
1757089259724268500,6.6052685546875,0.0960845947265625,0.9510345458984375,-0.30517578125
1757089259734223400,6.615223388671875,0.1075286865234375,0.9570159912109375,-0.296966552734375
1757089259744178400,6.625178466796875,0.1147613525390625,0.961395263671875,-0.28961181640625
1757089259754133500,6.635133544921875,0.119415283203125,0.9635467529296875,-0.2812347412109375
1757089259764087600,6.645087646484375,0.119354248046875,0.9624481201171875,-0.272430419921875
1757089259774042400,6.65504248046875,0.115386962890625,0.9610443115234375,-0.2668609619140625
1757089259783997400,6.66499755859375,0.1112518310546875,0.9622650146484375,-0.26470947265625
1757089259793952500,6.674952392578125,0.1084442138671875,0.960205078125,-0.263427734375
1757089259803906600,6.684906494140625,0.099395751953125,0.9594573974609375,-0.2633209228515625
1757089259813861400,6.694861328125,0.0904541015625,0.95513916015625,-0.2657470703125
1757089259823816400,6.70481640625,0.0807037353515625,0.9573211669921875,-0.267730712890625
1757089259833771500,6.714771484375,0.074920654296875,0.9590301513671875,-0.27423095703125
1757089259843725600,6.7247255859375,0.0750274658203125,0.961151123046875,-0.2827606201171875
1757089259853680400,6.734680419921875,0.0735321044921875,0.9605712890625,-0.2836151123046875
1757089259863635500,6.744635498046875,0.0797576904296875,0.9614105224609375,-0.288360595703125
1757089259873590500,6.754590576171875,0.08575439453125,0.9601287841796875,-0.28985595703125
1757089259883544300,6.76454443359375,0.09033203125,0.9595184326171875,-0.2893524169921875
1757089259893499400,6.77449951171875,0.091766357421875,0.95751953125,-0.2896728515625
1757089259903454500,6.784454345703125,0.0869598388671875,0.95654296875,-0.2864990234375
1757089259913409500,6.794409423828125,0.07989501953125,0.955108642578125,-0.2864227294921875
1757089259923363300,6.80436328125,0.073516845703125,0.954803466796875,-0.2870941162109375
1757089259933318400,6.814318359375,0.06451416015625,0.9525299072265625,-0.284942626953125
1757089259943273500,6.8242734375,0.0605316162109375,0.9540252685546875,-0.281341552734375
1757089259953228500,6.834228515625,0.0573272705078125,0.9551239013671875,-0.2794189453125
1757089259963182300,6.844182373046875,0.06036376953125,0.9580078125,-0.2746429443359375
1757089259973137400,6.854137451171875,0.0629425048828125,0.95599365234375,-0.27703857421875
1757089259983092500,6.864092529296875,0.06658935546875,0.954986572265625,-0.2819671630859375
1757089259993047600,6.874047607421875,0.0653228759765625,0.9556732177734375,-0.2860107421875
1757089260003001300,6.88400146484375,0.0625762939453125,0.95745849609375,-0.28765869140625
1757089260012956400,6.893956298828125,0.067413330078125,0.957611083984375,-0.289459228515625
1757089260022911500,6.903911376953125,0.0705413818359375,0.9564056396484375,-0.2926788330078125
1757089260032866600,6.913866455078125,0.0726470947265625,0.9540557861328125,-0.29791259765625
1757089260042820400,6.9238203125,0.0722198486328125,0.9487457275390625,-0.2985992431640625
1757089260052775400,6.933775390625,0.0703277587890625,0.9489288330078125,-0.3090362548828125
1757089260062730500,6.94373046875,0.0649261474609375,0.9520721435546875,-0.3059539794921875
1757089260072685600,6.953685546875,0.0616302490234375,0.9517669677734375,-0.2972869873046875
1757089260082639400,6.963639404296875,0.0579986572265625,0.95062255859375,-0.2976226806640625
1757089260092594400,6.973594482421875,0.05438232421875,0.9448089599609375,-0.299835205078125
1757089260102549500,6.983549560546875,0.0529632568359375,0.9410247802734375,-0.3024444580078125
1757089260112504600,6.993504638671875,0.0546722412109375,0.9420928955078125,-0.3056640625
1757089260122458400,7.003458251953125,0.05926513671875,0.94720458984375,-0.30792236328125
1757089260132413400,7.013413330078125,0.0703582763671875,0.953033447265625,-0.307525634765625
1757089260142368500,7.023368408203125,0.0763702392578125,0.9569549560546875,-0.316192626953125
1757089260152323600,7.033323486328125,0.07867431640625,0.9597930908203125,-0.320068359375
1757089260162277400,7.04327734375,0.079132080078125,0.961883544921875,-0.317230224609375
1757089260172232400,7.053232421875,0.0789031982421875,0.9629669189453125,-0.3178863525390625
1757089260182187500,7.0631875,0.07257080078125,0.9608306884765625,-0.318084716796875
1757089260192142600,7.073142578125,0.0703887939453125,0.9608154296875,-0.3188934326171875
1757089260202096400,7.083096435546875,0.066253662109375,0.9623565673828125,-0.3166046142578125
1757089260212051500,7.093051513671875,0.061004638671875,0.96044921875,-0.31378173828125
1757089260222006500,7.103006591796875,0.059783935546875,0.960235595703125,-0.31158447265625
1757089260231961600,7.112961669921875,0.065185546875,0.9609527587890625,-0.3074951171875
1757089260241915400,7.122915283203125,0.0696868896484375,0.9651641845703125,-0.3016204833984375
1757089260251870500,7.132870361328125,0.074066162109375,0.9674224853515625,-0.2947845458984375
1757089260261825500,7.142825439453125,0.0809326171875,0.96746826171875,-0.29052734375
1757089260271780600,7.152780517578125,0.0851593017578125,0.96649169921875,-0.2874908447265625
1757089260281734400,7.162734375,0.0794525146484375,0.9643707275390625,-0.28692626953125
1757089260291689500,7.172689453125,0.0721588134765625,0.95928955078125,-0.287933349609375
1757089260301644500,7.18264453125,0.0602874755859375,0.958770751953125,-0.288726806640625
1757089260311599600,7.192599609375,0.0491790771484375,0.9561920166015625,-0.2912445068359375
1757089260321553400,7.202553466796875,0.041839599609375,0.9543304443359375,-0.293121337890625
1757089260331508500,7.212508544921875,0.040435791015625,0.9515228271484375,-0.2943115234375
1757089260341463600,7.222463623046875,0.0428619384765625,0.95050048828125,-0.2957763671875
1757089260351418400,7.23241845703125,0.048675537109375,0.948577880859375,-0.2977142333984375
1757089260361372400,7.242372314453125,0.0546417236328125,0.94757080078125,-0.29644775390625
1757089260371327500,7.252327392578125,0.0570220947265625,0.950286865234375,-0.2941131591796875
1757089260381282600,7.262282470703125,0.0601959228515625,0.94891357421875,-0.2971343994140625
1757089260391237400,7.2722373046875,0.0612945556640625,0.94842529296875,-0.2984619140625
1757089260401191400,7.28219140625,0.057281494140625,0.94830322265625,-0.299163818359375
1757089260411146500,7.292146484375,0.052734375,0.948883056640625,-0.3012542724609375
1757089260421101600,7.3021015625,0.0520477294921875,0.948760986328125,-0.2997894287109375
1757089260431056400,7.312056396484375,0.053314208984375,0.952392578125,-0.297637939453125
1757089260441010400,7.322010498046875,0.0574188232421875,0.9561614990234375,-0.292877197265625
1757089260450965500,7.331965576171875,0.0609588623046875,0.955841064453125,-0.2933807373046875
1757089260460920600,7.341920654296875,0.0650177001953125,0.955078125,-0.292388916015625
1757089260470875400,7.35187548828125,0.0731353759765625,0.9561767578125,-0.2919769287109375
1757089260480829400,7.361829345703125,0.08026123046875,0.96002197265625,-0.2915802001953125
1757089260490784500,7.371784423828125,0.0836181640625,0.9634246826171875,-0.2904815673828125
1757089260500739600,7.381739501953125,0.086212158203125,0.9649810791015625,-0.2902069091796875
1757089260510694400,7.3916943359375,0.0838470458984375,0.9633636474609375,-0.290191650390625
1757089260520648400,7.4016484375,0.0797271728515625,0.96136474609375,-0.29058837890625
1757089260530603500,7.411603515625,0.0746307373046875,0.9578857421875,-0.2913665771484375
1757089260540558600,7.42155859375,0.072357177734375,0.9531097412109375,-0.294281005859375
1757089260550513400,7.431513427734375,0.0709228515625,0.9499969482421875,-0.295379638671875
1757089260560467500,7.441467529296875,0.0697174072265625,0.9478912353515625,-0.2991790771484375
1757089260570422500,7.451422607421875,0.070953369140625,0.948455810546875,-0.3003692626953125
1757089260580377600,7.461377685546875,0.07464599609375,0.9495697021484375,-0.299560546875
1757089260590332400,7.47133251953125,0.079193115234375,0.9522552490234375,-0.2963409423828125
1757089260600286500,7.481286376953125,0.0777130126953125,0.9533538818359375,-0.294464111328125
1757089260610241500,7.491241455078125,0.0744476318359375,0.95654296875,-0.2913055419921875
1757089260620196600,7.501196533203125,0.0727996826171875,0.95294189453125,-0.2914276123046875
1757089260630151400,7.5111513671875,0.0707550048828125,0.9526214599609375,-0.2946014404296875
1757089260640105500,7.52110546875,0.0689544677734375,0.951934814453125,-0.2973785400390625
1757089260650060300,7.531060302734375,0.069366455078125,0.9503021240234375,-0.301605224609375
1757089260660015600,7.541015625,0.07318115234375,0.9482269287109375,-0.30438232421875
1757089260669970400,7.550970458984375,0.080352783203125,0.9479827880859375,-0.30743408203125
1757089260679924500,7.560924560546875,0.0895233154296875,0.946258544921875,-0.304901123046875
1757089260689879300,7.57087939453125,0.09332275390625,0.948486328125,-0.3045501708984375
1757089260699834600,7.580834716796875,0.0931396484375,0.949127197265625,-0.3000335693359375
1757089260709789400,7.59078955078125,0.090911865234375,0.9485321044921875,-0.29827880859375
1757089260719743500,7.600743408203125,0.086456298828125,0.9525146484375,-0.2981414794921875
1757089260729698300,7.6106982421875,0.082763671875,0.9535369873046875,-0.2958221435546875
1757089260739653600,7.620653564453125,0.0829620361328125,0.9536285400390625,-0.2938232421875
1757089260749608400,7.6306083984375,0.0821533203125,0.9541778564453125,-0.29119873046875
1757089260759562500,7.6405625,0.084259033203125,0.9558563232421875,-0.292755126953125
1757089260769517300,7.650517333984375,0.0847930908203125,0.9553375244140625,-0.293304443359375
1757089260779472600,7.66047265625,0.0823516845703125,0.9576263427734375,-0.2931060791015625
1757089260789427500,7.670427490234375,0.0826416015625,0.9565582275390625,-0.2923126220703125
1757089260799381500,7.680381591796875,0.0824737548828125,0.95489501953125,-0.2947540283203125
1757089260809336300,7.69033642578125,0.0804443359375,0.953826904296875,-0.2964324951171875
1757089260819291600,7.700291748046875,0.08123779296875,0.9511566162109375,-0.296966552734375
1757089260829246500,7.71024658203125,0.0811309814453125,0.9512176513671875,-0.2974853515625
1757089260839200500,7.720200439453125,0.0783538818359375,0.9499359130859375,-0.301025390625
1757089260849155300,7.7301552734375,0.0773468017578125,0.948699951171875,-0.3081207275390625
1757089260859110400,7.7401103515625,0.079681396484375,0.9493408203125,-0.312957763671875
1757089260869065500,7.7500654296875,0.0809478759765625,0.9489593505859375,-0.31329345703125
1757089260879019500,7.76001953125,0.08392333984375,0.9477081298828125,-0.3098907470703125
1757089260888974300,7.769974365234375,0.08782958984375,0.9504241943359375,-0.3073883056640625
1757089260898929400,7.779929443359375,0.092803955078125,0.9520416259765625,-0.30487060546875
1757089260908884500,7.789884521484375,0.0914154052734375,0.9527130126953125,-0.3023681640625
1757089260918838500,7.799838623046875,0.087371826171875,0.9509124755859375,-0.301025390625
1757089260928793300,7.80979345703125,0.0851898193359375,0.9512176513671875,-0.2985076904296875
1757089260938748400,7.81974853515625,0.083892822265625,0.9513702392578125,-0.29718017578125
1757089260948703500,7.829703369140625,0.0797271728515625,0.9535980224609375,-0.29730224609375
1757089260958657500,7.839657470703125,0.084014892578125,0.9557647705078125,-0.299560546875
1757089260968612400,7.8496123046875,0.0852813720703125,0.9591064453125,-0.30181884765625
1757089260978567400,7.8595673828125,0.0845184326171875,0.9568634033203125,-0.3036956787109375
1757089260988522500,7.8695224609375,0.089447021484375,0.9536590576171875,-0.3094940185546875
1757089260998476500,7.8794765625,0.093719482421875,0.950164794921875,-0.3119354248046875
1757089261008431400,7.889431396484375,0.0953826904296875,0.946533203125,-0.311279296875
1757089261018386400,7.899386474609375,0.0941009521484375,0.946990966796875,-0.3099365234375
1757089261028341500,7.909341552734375,0.09320068359375,0.9460906982421875,-0.30963134765625
1757089261038295600,7.919295654296875,0.0886383056640625,0.9447174072265625,-0.30828857421875
1757089261048250400,7.92925048828125,0.08624267578125,0.9443511962890625,-0.30853271484375
1757089261058205400,7.939205322265625,0.0847625732421875,0.945404052734375,-0.30596923828125
1757089261068160500,7.949160400390625,0.087066650390625,0.9472503662109375,-0.30316162109375
1757089261078114600,7.959114501953125,0.088531494140625,0.9486541748046875,-0.2987823486328125
1757089261088069400,7.9690693359375,0.0903167724609375,0.9526214599609375,-0.29241943359375
1757089261098024400,7.9790244140625,0.091552734375,0.9551849365234375,-0.2898712158203125
1757089261107979500,7.9889794921875,0.0910186767578125,0.9553985595703125,-0.2873382568359375
1757089261117933600,7.99893359375,0.0923614501953125,0.953582763671875,-0.290863037109375
1757089261127888400,8.008888427734375,0.0914459228515625,0.954010009765625,-0.29290771484375
1757089261137843500,8.018843505859374,0.0894775390625,0.9539337158203125,-0.29437255859375
1757089261147798500,8.028798583984376,0.09368896484375,0.952880859375,-0.29595947265625
1757089261157752600,8.038752685546875,0.0954437255859375,0.9523162841796875,-0.295562744140625
1757089261167707400,8.048707275390624,0.0963287353515625,0.9492950439453125,-0.2981719970703125
1757089261177662500,8.058662353515626,0.0968780517578125,0.948699951171875,-0.3016357421875
1757089261187617500,8.068617431640625,0.096649169921875,0.95068359375,-0.29949951171875
1757089261197571600,8.078571533203124,0.0957183837890625,0.950103759765625,-0.2990570068359375
1757089261207526400,8.0885263671875,0.0928802490234375,0.94940185546875,-0.2997589111328125
1757089261217481500,8.0984814453125,0.08837890625,0.9486236572265625,-0.2997283935546875
1757089261227436500,8.1084365234375,0.0832061767578125,0.9483489990234375,-0.29931640625
1757089261237390600,8.118390625,0.0835113525390625,0.948883056640625,-0.300537109375
1757089261247345400,8.128345458984375,0.0869903564453125,0.9518890380859375,-0.30035400390625
1757089261257300500,8.138300537109375,0.08795166015625,0.9541168212890625,-0.29705810546875
1757089261267255600,8.148255615234374,0.0886688232421875,0.9560089111328125,-0.2955780029296875
1757089261277209600,8.158209716796875,0.08758544921875,0.9573516845703125,-0.2954864501953125
1757089261287164400,8.168164306640625,0.087738037109375,0.9546966552734375,-0.295989990234375
1757089261297119500,8.178119384765624,0.08551025390625,0.9567108154296875,-0.2989044189453125
1757089261307074600,8.188074462890626,0.08587646484375,0.9553375244140625,-0.2990264892578125
1757089261317028600,8.198028564453125,0.08343505859375,0.9524078369140625,-0.3021697998046875
1757089261326983400,8.2079833984375,0.08172607421875,0.95416259765625,-0.303192138671875
1757089261336938500,8.2179384765625,0.0813751220703125,0.958160400390625,-0.303070068359375
1757089261346893600,8.2278935546875,0.0810699462890625,0.9618682861328125,-0.3034820556640625
1757089261356847600,8.23784765625,0.079010009765625,0.9655609130859375,-0.3025054931640625
1757089261366802400,8.247802490234376,0.0789031982421875,0.9683837890625,-0.3017120361328125
1757089261376757500,8.257757568359375,0.081207275390625,0.96649169921875,-0.299468994140625
1757089261386712600,8.267712646484375,0.08258056640625,0.9626312255859375,-0.2935791015625
1757089261396666600,8.27766650390625,0.08441162109375,0.9597015380859375,-0.2905426025390625
1757089261406621400,8.287621337890625,0.0889739990234375,0.957855224609375,-0.289337158203125
1757089261416576500,8.297576416015625,0.08880615234375,0.9549713134765625,-0.2876434326171875
1757089261426531600,8.307531494140624,0.0860137939453125,0.950469970703125,-0.2867431640625
1757089261436485600,8.317485595703126,0.0807952880859375,0.947540283203125,-0.28692626953125
1757089261446440400,8.3274404296875,0.076019287109375,0.9440765380859375,-0.286956787109375
1757089261456395300,8.337395263671874,0.074249267578125,0.94232177734375,-0.2877044677734375
1757089261466350600,8.3473505859375,0.0742645263671875,0.938812255859375,-0.2887725830078125
1757089261476304600,8.3573046875,0.0794219970703125,0.9408721923828125,-0.2897491455078125
1757089261486260200,8.36726025390625,0.0836944580078125,0.94598388671875,-0.2890777587890625
1757089261496215000,8.377215087890624,0.0908966064453125,0.951873779296875,-0.28900146484375
1757089261506170400,8.38717041015625,0.092803955078125,0.95428466796875,-0.2877655029296875
1757089261516124200,8.397124267578125,0.090179443359375,0.9568634033203125,-0.2873687744140625
1757089261526079200,8.407079345703124,0.0849151611328125,0.95562744140625,-0.2931976318359375
1757089261536034000,8.417033935546876,0.0818634033203125,0.9553070068359375,-0.3003082275390625
1757089261545989400,8.4269892578125,0.082122802734375,0.9539794921875,-0.3030242919921875
1757089261555943200,8.436943115234374,0.0799560546875,0.94970703125,-0.3075408935546875
1757089261565898200,8.446898193359376,0.0809326171875,0.9462127685546875,-0.30999755859375
1757089261575853000,8.45685302734375,0.082794189453125,0.9441680908203125,-0.3116912841796875
1757089261585808400,8.466808349609375,0.08331298828125,0.9460601806640625,-0.3104400634765625
1757089261595762200,8.47676220703125,0.084625244140625,0.94805908203125,-0.31060791015625
1757089261605717200,8.48671728515625,0.0886688232421875,0.9510345458984375,-0.31134033203125
1757089261615672000,8.496672119140625,0.091278076171875,0.9525604248046875,-0.3106231689453125
1757089261625627400,8.50662744140625,0.0907440185546875,0.9510498046875,-0.3102874755859375
1757089261635581200,8.516581298828125,0.086334228515625,0.950042724609375,-0.3089752197265625
1757089261645536300,8.526536376953125,0.0856170654296875,0.94830322265625,-0.307830810546875
1757089261655491000,8.536490966796874,0.088653564453125,0.947296142578125,-0.306976318359375
1757089261665446400,8.5464462890625,0.09210205078125,0.9471588134765625,-0.305450439453125
1757089261675400200,8.556400146484375,0.0953369140625,0.9467010498046875,-0.3025360107421875
1757089261685355300,8.566355224609374,0.09588623046875,0.9479827880859375,-0.3058624267578125
1757089261695310000,8.57631005859375,0.098663330078125,0.9488372802734375,-0.2939910888671875
1757089261705265400,8.586265380859375,0.0931549072265625,0.956451416015625,-0.298675537109375
1757089261715220200,8.59622021484375,0.0920562744140625,0.954498291015625,-0.30206298828125
1757089261725174300,8.60617431640625,0.0955963134765625,0.9554595947265625,-0.2997894287109375
1757089261735129000,8.616129150390625,0.095794677734375,0.954864501953125,-0.29608154296875
1757089261745084200,8.626084228515625,0.09600830078125,0.95263671875,-0.2953033447265625
1757089261755039200,8.636039306640624,0.09814453125,0.949859619140625,-0.296661376953125
1757089261764993300,8.6459931640625,0.10009765625,0.950439453125,-0.2970428466796875
1757089261774948000,8.655947998046875,0.100006103515625,0.95208740234375,-0.2957305908203125
1757089261784903200,8.665903076171874,0.098785400390625,0.9521026611328125,-0.295867919921875
1757089261794858200,8.675858154296876,0.0960540771484375,0.9540863037109375,-0.2944793701171875
1757089261804812300,8.685812255859375,0.092254638671875,0.9551849365234375,-0.2931976318359375
1757089261814767000,8.69576708984375,0.0946197509765625,0.95538330078125,-0.29522705078125
1757089261824722200,8.70572216796875,0.0944671630859375,0.9546661376953125,-0.29718017578125
1757089261834677200,8.71567724609375,0.0984344482421875,0.95452880859375,-0.294952392578125
1757089261844631300,8.72563134765625,0.1010589599609375,0.9548797607421875,-0.29351806640625
1757089261854586000,8.735586181640626,0.0988616943359375,0.954254150390625,-0.292877197265625
1757089261864541200,8.745541259765625,0.09820556640625,0.954010009765625,-0.293426513671875
1757089261874496300,8.755496337890625,0.097320556640625,0.9535675048828125,-0.2913055419921875
1757089261884450300,8.7654501953125,0.0970611572265625,0.9534912109375,-0.2894134521484375
1757089261894405000,8.775405029296875,0.0976104736328125,0.9549560546875,-0.285919189453125
1757089261904360200,8.785360107421875,0.09674072265625,0.9549713134765625,-0.286163330078125
1757089261914315300,8.795315185546874,0.0956573486328125,0.9556121826171875,-0.2843780517578125
1757089261924269300,8.805269287109375,0.096466064453125,0.95513916015625,-0.282470703125
1757089261934224100,8.81522412109375,0.09686279296875,0.954315185546875,-0.282196044921875
1757089261944179200,8.82517919921875,0.0940093994140625,0.9556427001953125,-0.282501220703125
1757089261954134300,8.83513427734375,0.093048095703125,0.95458984375,-0.2860107421875
1757089261964088300,8.84508837890625,0.09405517578125,0.9510650634765625,-0.288818359375
1757089261974043100,8.855043212890624,0.0935211181640625,0.948822021484375,-0.291412353515625
1757089261983998200,8.864998291015626,0.090118408203125,0.9511566162109375,-0.292327880859375
1757089261993953300,8.874953369140625,0.087860107421875,0.9550323486328125,-0.2933349609375
1757089262003907300,8.8849072265625,0.089752197265625,0.957122802734375,-0.2972564697265625
1757089262013862100,8.894862060546876,0.0892333984375,0.95697021484375,-0.2972412109375
1757089262023817200,8.904817138671875,0.090545654296875,0.9563751220703125,-0.2965240478515625
1757089262033772300,8.914772216796875,0.0893096923828125,0.9553375244140625,-0.2974090576171875
1757089262043727000,8.92472705078125,0.0883636474609375,0.9525909423828125,-0.299652099609375
1757089262053681200,8.93468115234375,0.089813232421875,0.9495697021484375,-0.3009033203125
1757089262063636200,8.94463623046875,0.0914154052734375,0.9490814208984375,-0.302276611328125
1757089262073591300,8.95459130859375,0.094085693359375,0.94873046875,-0.303009033203125
1757089262083546000,8.964546142578126,0.0963592529296875,0.950897216796875,-0.3045654296875
1757089262093500200,8.974500244140625,0.0955810546875,0.94976806640625,-0.3074951171875
1757089262103455200,8.984455322265624,0.093353271484375,0.94903564453125,-0.307952880859375
1757089262113410300,8.994410400390626,0.0902252197265625,0.9481964111328125,-0.3082733154296875
1757089262123365000,9.004365234375,0.0888824462890625,0.945098876953125,-0.3091583251953125
1757089262133319200,9.014319091796875,0.0883636474609375,0.9427947998046875,-0.3068695068359375
1757089262143274200,9.024274169921876,0.092254638671875,0.9435272216796875,-0.306396484375
1757089262153229300,9.034229248046875,0.097412109375,0.94573974609375,-0.3032073974609375
1757089262163184000,9.04418408203125,0.1034393310546875,0.9496917724609375,-0.2995758056640625
1757089262173138200,9.05413818359375,0.103668212890625,0.953399658203125,-0.297821044921875
1757089262183093200,9.06409326171875,0.1009979248046875,0.956146240234375,-0.2952728271484375
1757089262193048300,9.07404833984375,0.0973968505859375,0.9542694091796875,-0.2949981689453125
1757089262203003100,9.084003173828124,0.096466064453125,0.952880859375,-0.297027587890625
1757089262212957200,9.093957275390625,0.0954132080078125,0.948699951171875,-0.3013153076171875
1757089262222912300,9.103912353515625,0.0918731689453125,0.9470062255859375,-0.301788330078125
1757089262232867300,9.113867431640625,0.092864990234375,0.9464263916015625,-0.30279541015625
1757089262242822100,9.123822265625,0.093353271484375,0.947265625,-0.3020477294921875
1757089262252777200,9.133777099609375,0.0951385498046875,0.9490814208984375,-0.3022918701171875
1757089262262731300,9.143731201171875,0.0988922119140625,0.9497222900390625,-0.3025970458984375
1757089262272686300,9.153686279296876,0.0993194580078125,0.9508209228515625,-0.3015594482421875
1757089262282641200,9.16364111328125,0.0992431640625,0.952880859375,-0.30230712890625
1757089262292596200,9.17359619140625,0.0975494384765625,0.9524688720703125,-0.3056488037109375
1757089262302550300,9.18355029296875,0.093841552734375,0.9514617919921875,-0.3076629638671875
1757089262312505300,9.19350537109375,0.0880126953125,0.9496307373046875,-0.3080291748046875
1757089262322460200,9.203460205078125,0.0891571044921875,0.9466094970703125,-0.3068084716796875
1757089262332415000,9.2134150390625,0.0911102294921875,0.944610595703125,-0.30499267578125
1757089262342369300,9.223369384765626,0.0903778076171875,0.9443817138671875,-0.3026580810546875
1757089262352324400,9.233324462890625,0.0908050537109375,0.947235107421875,-0.2990570068359375
1757089262362279200,9.243279052734374,0.0947265625,0.95281982421875,-0.299072265625
1757089262372234000,9.25323388671875,0.0963134765625,0.9562835693359375,-0.295806884765625
1757089262382188300,9.263188232421875,0.0939788818359375,0.9600067138671875,-0.2938385009765625
1757089262392143400,9.273143310546875,0.0955047607421875,0.9593963623046875,-0.2882843017578125
1757089262402098200,9.28309814453125,0.0966644287109375,0.9589385986328125,-0.287078857421875
1757089262412053000,9.293052978515625,0.097991943359375,0.958526611328125,-0.285552978515625
1757089262422008300,9.30300830078125,0.1010894775390625,0.9579010009765625,-0.2872467041015625
1757089262431962400,9.31296240234375,0.10009765625,0.958160400390625,-0.2846221923828125
1757089262441917200,9.322917236328125,0.098541259765625,0.9593353271484375,-0.28277587890625
1757089262451872000,9.3328720703125,0.0982208251953125,0.9580078125,-0.2798614501953125
1757089262461827300,9.342827392578124,0.0971527099609375,0.9628448486328125,-0.2837982177734375
1757089262471781400,9.352781494140626,0.0940399169921875,0.96246337890625,-0.2801971435546875
1757089262481736200,9.362736083984375,0.0932769775390625,0.96044921875,-0.2840576171875
1757089262491690800,9.372690673828124,0.0948028564453125,0.9599609375,-0.2894134521484375
1757089262501645800,9.382645751953126,0.096343994140625,0.9579010009765625,-0.2962646484375
1757089262511599900,9.392599853515625,0.102020263671875,0.9546356201171875,-0.3026885986328125
1757089262521554700,9.4025546875,0.1062164306640625,0.9509735107421875,-0.3074951171875
1757089262531509800,9.412509765625,0.1090087890625,0.951995849609375,-0.3086090087890625
1757089262541464800,9.42246484375,0.1091766357421875,0.9521636962890625,-0.3082733154296875
1757089262551419000,9.4324189453125,0.1055908203125,0.9513092041015625,-0.309478759765625
1757089262561373700,9.442373779296876,0.097503662109375,0.9468841552734375,-0.3050537109375
1757089262571328500,9.45232861328125,0.092529296875,0.9399261474609375,-0.3065185546875
1757089262581283800,9.462283935546875,0.095916748046875,0.9453277587890625,-0.301055908203125
1757089262591238000,9.47223779296875,0.090911865234375,0.9425201416015625,-0.3048095703125
1757089262601192700,9.482192626953125,0.0865478515625,0.937408447265625,-0.313812255859375
1757089262611147500,9.4921474609375,0.08514404296875,0.94061279296875,-0.303466796875
1757089262621102800,9.502102783203124,0.080230712890625,0.9398193359375,-0.311248779296875
1757089262631057700,9.5120576171875,0.0807952880859375,0.9404754638671875,-0.3030548095703125
1757089262641011700,9.52201171875,0.0847625732421875,0.94482421875,-0.2995452880859375
1757089262650966500,9.531966552734374,0.082275390625,0.947265625,-0.3003997802734375
1757089262660921900,9.541921875,0.0809326171875,0.9485015869140625,-0.302764892578125
1757089262670876700,9.551876708984375,0.082763671875,0.9522857666015625,-0.30224609375
1757089262680830700,9.561830810546875,0.08306884765625,0.951995849609375,-0.302764892578125
1757089262690785500,9.57178564453125,0.0795135498046875,0.9500885009765625,-0.302001953125
1757089262700740900,9.581740966796875,0.0798187255859375,0.9502716064453125,-0.30682373046875
1757089262710695700,9.59169580078125,0.0770263671875,0.9470062255859375,-0.31329345703125
1757089262720649700,9.601649658203126,0.0780487060546875,0.9455718994140625,-0.317840576171875
1757089262730604500,9.6116044921875,0.077239990234375,0.942047119140625,-0.3225555419921875
1757089262740560000,9.621559814453125,0.0781707763671875,0.942047119140625,-0.3293914794921875
1757089262750514700,9.6315146484375,0.0814666748046875,0.9400177001953125,-0.329986572265625
1757089262760468700,9.64146875,0.082550048828125,0.9393310546875,-0.331573486328125
1757089262770423600,9.651423583984375,0.0793914794921875,0.9385223388671875,-0.3356475830078125
1757089262780379000,9.66137890625,0.0767669677734375,0.935577392578125,-0.34088134765625
1757089262790333700,9.671333740234376,0.0769500732421875,0.93206787109375,-0.34356689453125
1757089262800288800,9.681288818359375,0.074371337890625,0.9292755126953125,-0.343109130859375
1757089262810242600,9.69124267578125,0.07513427734375,0.92828369140625,-0.340087890625
1757089262820198000,9.701197998046876,0.0776519775390625,0.9311065673828125,-0.33355712890625
1757089262830152700,9.711152587890625,0.0796051025390625,0.9385223388671875,-0.3253021240234375
1757089262840107800,9.721107666015625,0.0814666748046875,0.94635009765625,-0.3135986328125
1757089262850061600,9.7310615234375,0.0794525146484375,0.9548797607421875,-0.30377197265625
1757089262860017000,9.741016845703125,0.077301025390625,0.95953369140625,-0.2966461181640625
1757089262869971700,9.7509716796875,0.0735626220703125,0.96038818359375,-0.29254150390625
1757089262879926800,9.7609267578125,0.07379150390625,0.95574951171875,-0.296844482421875
1757089262889880600,9.770880615234375,0.07373046875,0.953277587890625,-0.3007965087890625
1757089262899836000,9.7808359375,0.07489013671875,0.94970703125,-0.3051300048828125
1757089262909790700,9.790790771484374,0.07659912109375,0.9516754150390625,-0.30633544921875
1757089262919745800,9.800745849609376,0.0845794677734375,0.95318603515625,-0.3040618896484375
1757089262929700600,9.81070068359375,0.0904693603515625,0.948486328125,-0.31146240234375
1757089262939655000,9.820655029296875,0.096588134765625,0.9432373046875,-0.3122406005859375
1757089262949609700,9.830609619140626,0.097137451171875,0.946563720703125,-0.31390380859375
1757089262959564800,9.840564697265625,0.0934906005859375,0.9494781494140625,-0.30059814453125
1757089262969519600,9.85051953125,0.0902557373046875,0.9525146484375,-0.2999267578125
1757089262979474000,9.860473876953124,0.087310791015625,0.95184326171875,-0.3000946044921875
1757089262989428700,9.8704287109375,0.0807647705078125,0.951171875,-0.302337646484375
1757089262999383800,9.8803837890625,0.0744171142578125,0.9517974853515625,-0.3055572509765625
1757089263009338600,9.890338623046874,0.07464599609375,0.950775146484375,-0.30615234375
1757089263019293000,9.90029296875,0.0767974853515625,0.949066162109375,-0.3054351806640625
1757089263029247700,9.910247802734375,0.084930419921875,0.94940185546875,-0.3001556396484375
1757089263039202800,9.920202880859375,0.09942626953125,0.951416015625,-0.299468994140625
1757089263049157600,9.93015771484375,0.1125030517578125,0.9565277099609375,-0.2973175048828125
1757089263059112000,9.94011181640625,0.122100830078125,0.9573974609375,-0.30047607421875
1757089263069066800,9.950066650390625,0.1244049072265625,0.9561309814453125,-0.30096435546875
1757089263079021600,9.960021484375,0.125579833984375,0.9592437744140625,-0.3002471923828125
1757089263088976600,9.9699765625,0.1276397705078125,0.9658660888671875,-0.2960205078125
1757089263098931700,9.979931640625,0.1275634765625,0.9716033935546875,-0.2913055419921875
1757089263108885800,9.9898857421875,0.1263580322265625,0.9709320068359375,-0.2901458740234375
1757089263118840600,9.999840576171875,0.124298095703125,0.9654083251953125,-0.2911834716796875
1757089263128795600,10.009795654296875,0.1260986328125,0.95635986328125,-0.2903594970703125
1757089263138750700,10.019750732421874,0.12738037109375,0.9492034912109375,-0.2899932861328125
1757089263148704800,10.029704833984376,0.127838134765625,0.939697265625,-0.2886810302734375
1757089263158659600,10.03965966796875,0.129608154296875,0.9348907470703125,-0.28363037109375
1757089263168614700,10.04961474609375,0.1304931640625,0.9318084716796875,-0.2811279296875
1757089263178569700,10.05956982421875,0.12908935546875,0.93121337890625,-0.2798614501953125
1757089263188523800,10.069523681640625,0.128448486328125,0.935150146484375,-0.2799224853515625
1757089263198478600,10.079478515625,0.1309661865234375,0.9391632080078125,-0.280120849609375
1757089263208433700,10.08943359375,0.134552001953125,0.94281005859375,-0.2816009521484375
1757089263218388700,10.099388671875,0.1400146484375,0.9494171142578125,-0.2850341796875
1757089263228342800,10.1093427734375,0.1473388671875,0.9566497802734375,-0.2889862060546875
1757089263238297600,10.119297607421874,0.15386962890625,0.9615631103515625,-0.2951812744140625
1757089263248252700,10.129252685546875,0.1560821533203125,0.9610595703125,-0.2998046875
1757089263258207700,10.139207763671875,0.160125732421875,0.962493896484375,-0.30255126953125
1757089263268162800,10.149162841796874,0.1627349853515625,0.958404541015625,-0.309295654296875
1757089263278116600,10.15911669921875,0.171478271484375,0.9523773193359375,-0.3133087158203125
1757089263288071700,10.16907177734375,0.18377685546875,0.9441070556640625,-0.314239501953125
1757089263298026800,10.17902685546875,0.1996612548828125,0.9386749267578125,-0.313812255859375
1757089263307981800,10.18898193359375,0.2128143310546875,0.93572998046875,-0.309356689453125
1757089263317935600,10.198935546875,0.224365234375,0.9388275146484375,-0.300079345703125
1757089263327890700,10.208890625,0.2274932861328125,0.9483184814453125,-0.293975830078125
1757089263337845800,10.218845703125,0.2244873046875,0.948516845703125,-0.287322998046875
1757089263347800800,10.22880078125,0.2143402099609375,0.9387664794921875,-0.2657623291015625
1757089263357754600,10.238754638671875,0.2118377685546875,0.9676666259765625,-0.2567291259765625
1757089263367709700,10.248709716796874,0.271240234375,1.00689697265625,-0.2293548583984375
1757089263377664800,10.258664794921875,0.32635498046875,1.059661865234375,-0.201080322265625
1757089263387619800,10.268619873046875,0.2797393798828125,1.11297607421875,-0.190521240234375
1757089263397574700,10.27857470703125,0.215423583984375,1.141876220703125,-0.189605712890625
1757089263407528700,10.28852880859375,0.1809539794921875,1.130096435546875,-0.222808837890625
1757089263417483800,10.29848388671875,0.209808349609375,1.103515625,-0.280364990234375
1757089263427438800,10.30843896484375,0.262908935546875,1.0320281982421875,-0.3365325927734375
1757089263437393700,10.3183935546875,0.3079376220703125,0.936370849609375,-0.393890380859375
1757089263447347700,10.32834765625,0.3933563232421875,0.8633270263671875,-0.430328369140625
1757089263457302800,10.338302734375,0.45294189453125,0.8302764892578125,-0.4461212158203125
1757089263467257900,10.3482578125,0.4897308349609375,0.8057403564453125,-0.4313201904296875
1757089263477212700,10.358212646484375,0.512420654296875,0.7742767333984375,-0.3618011474609375
1757089263487167200,10.368167236328125,0.4783477783203125,0.7462615966796875,-0.3135223388671875
1757089263497122600,10.37812255859375,0.4434051513671875,0.7707366943359375,-0.3019561767578125
1757089263507077400,10.388077392578126,0.430816650390625,0.8336181640625,-0.2802734375
1757089263517032400,10.398032470703125,0.3953704833984375,0.8819427490234375,-0.2805328369140625
1757089263526986200,10.407986328125,0.3572235107421875,0.8936920166015625,-0.302459716796875
1757089263536941600,10.417941650390626,0.3647308349609375,0.8819427490234375,-0.294830322265625
1757089263546896400,10.427896484375,0.3637237548828125,0.832366943359375,-0.2920074462890625
1757089263556851500,10.4378515625,0.3587188720703125,0.769256591796875,-0.3154144287109375
1757089263566806500,10.447806640625,0.3766326904296875,0.7278594970703125,-0.3007049560546875
1757089263576760600,10.457760498046875,0.3854827880859375,0.68316650390625,-0.2889556884765625
1757089263586715400,10.46771533203125,0.370758056640625,0.64208984375,-0.310821533203125
1757089263596670500,10.47767041015625,0.371673583984375,0.6494140625,-0.3055877685546875
1757089263606625500,10.48762548828125,0.36944580078125,0.6647186279296875,-0.3146209716796875
1757089263616579600,10.49757958984375,0.3927001953125,0.6918792724609375,-0.3401336669921875
1757089263626534400,10.507534423828124,0.4224395751953125,0.7179107666015625,-0.38458251953125
1757089263636489500,10.517489501953126,0.449615478515625,0.7452545166015625,-0.41583251953125
1757089263646444500,10.527444580078125,0.468963623046875,0.7763671875,-0.425750732421875
1757089263656398600,10.537398681640624,0.49017333984375,0.7949066162109375,-0.4247283935546875
1757089263666353400,10.547353515625,0.518707275390625,0.79693603515625,-0.4076995849609375
1757089263676308500,10.55730859375,0.549530029296875,0.798492431640625,-0.389556884765625
1757089263686263600,10.567263671875,0.5564422607421875,0.807830810546875,-0.3646392822265625
1757089263696217600,10.577217529296876,0.55328369140625,0.814788818359375,-0.3262939453125
1757089263706172400,10.58717236328125,0.540191650390625,0.8126220703125,-0.2935791015625
1757089263716127500,10.59712744140625,0.5193939208984375,0.802520751953125,-0.2613677978515625
1757089263726082600,10.60708251953125,0.5028839111328125,0.7852020263671875,-0.2197723388671875
1757089263736037400,10.617037353515625,0.490875244140625,0.763458251953125,-0.189666748046875
1757089263745991400,10.626991455078125,0.4704742431640625,0.749908447265625,-0.1666259765625
1757089263755946500,10.636946533203124,0.4471588134765625,0.732940673828125,-0.1508941650390625
1757089263765901600,10.646901611328126,0.4310760498046875,0.7303314208984375,-0.15228271484375
1757089263775856400,10.6568564453125,0.42669677734375,0.7257080078125,-0.1761932373046875
1757089263785810400,10.666810546875,0.432861328125,0.7264404296875,-0.2006683349609375
1757089263795765500,10.676765625,0.44549560546875,0.7371063232421875,-0.227447509765625
1757089263805720600,10.686720458984375,0.467742919921875,0.7598724365234375,-0.2537078857421875
1757089263815675400,10.69667529296875,0.4925537109375,0.7881622314453125,-0.287689208984375
1757089263825629400,10.70662939453125,0.5176239013671875,0.8093414306640625,-0.3144989013671875
1757089263835584500,10.71658447265625,0.529937744140625,0.8233795166015625,-0.3409423828125
1757089263845539600,10.72653955078125,0.5402069091796875,0.828369140625,-0.362640380859375
1757089263855494400,10.736494384765624,0.5435638427734375,0.828826904296875,-0.3809814453125
1757089263865448400,10.746448486328125,0.5457916259765625,0.8208465576171875,-0.393585205078125
1757089263875403500,10.756403564453125,0.5413360595703125,0.8092498779296875,-0.4009246826171875
1757089263885358600,10.766358642578124,0.5301971435546875,0.787261962890625,-0.4039459228515625
1757089263895313400,10.7763134765625,0.5042877197265625,0.7605743408203125,-0.4122161865234375
1757089263905268500,10.7862685546875,0.4467315673828125,0.75732421875,-0.4567108154296875
1757089263915222500,10.796222412109374,0.3668365478515625,0.8168792724609375,-0.5278167724609375
1757089263925177600,10.806177490234376,0.312286376953125,0.9174346923828125,-0.5797271728515625
1757089263935132400,10.81613232421875,0.31744384765625,1.0162811279296875,-0.6211700439453125
1757089263945087500,10.82608740234375,0.347076416015625,1.06719970703125,-0.68231201171875
1757089263955041500,10.83604150390625,0.367095947265625,1.089752197265625,-0.73956298828125
1757089263964996600,10.84599658203125,0.379852294921875,1.121429443359375,-0.7450103759765625
1757089263974951400,10.855951416015625,0.4267120361328125,1.1449432373046875,-0.7077178955078125
1757089263984906500,10.865906494140624,0.4956207275390625,1.1557769775390625,-0.6706390380859375
1757089263994860300,10.8758603515625,0.5516815185546875,1.1451416015625,-0.64642333984375
1757089264004815600,10.885815673828125,0.579986572265625,1.100189208984375,-0.55035400390625
1757089264014770400,10.8957705078125,0.575775146484375,1.0415802001953125,-0.3910064697265625
1757089264024725500,10.9057255859375,0.5144805908203125,0.984588623046875,-0.2922210693359375
1757089264034680300,10.915680419921875,0.39410400390625,0.90045166015625,-0.2556610107421875
1757089264044634600,10.925634521484374,0.2379150390625,0.7923736572265625,-0.25042724609375
1757089264054589400,10.93558935546875,0.0957794189453125,0.6915130615234375,-0.2547607421875
1757089264064544500,10.94554443359375,-0.0017242431640625,0.63525390625,-0.2735443115234375
1757089264074499300,10.955499267578125,-0.0357818603515625,0.63800048828125,-0.3087615966796875
1757089264084453600,10.96545361328125,-0.018157958984375,0.6953582763671875,-0.32843017578125
1757089264094408400,10.975408447265625,0.02935791015625,0.796356201171875,-0.3244781494140625
1757089264104363500,10.985363525390625,0.0729217529296875,0.9116668701171875,-0.301177978515625
1757089264114318300,10.995318359375,0.1134185791015625,1.0142974853515625,-0.27935791015625
1757089264124272600,11.005272705078125,0.1381683349609375,1.0836944580078125,-0.26007080078125
1757089264134227500,11.0152275390625,0.15374755859375,1.0976715087890625,-0.2564239501953125
1757089264144182500,11.0251826171875,0.1670379638671875,1.057769775390625,-0.2728424072265625
1757089264154137300,11.035137451171876,0.1788787841796875,0.98797607421875,-0.311309814453125
1757089264164092400,11.045092529296875,0.216461181640625,0.90606689453125,-0.3942413330078125
1757089264174046500,11.05504638671875,0.2202606201171875,0.8400726318359375,-0.45294189453125
1757089264184001500,11.06500146484375,0.2357635498046875,0.7993011474609375,-0.4791259765625
1757089264193956400,11.074956298828125,0.26873779296875,0.7813568115234375,-0.4998016357421875
1757089264203911400,11.084911376953125,0.3067626953125,0.7835235595703125,-0.4674072265625
1757089264213865500,11.094865478515626,0.3444061279296875,0.8032684326171875,-0.4268646240234375
1757089264223820500,11.104820556640625,0.36444091796875,0.8327178955078125,-0.3789520263671875
1757089264233775400,11.114775390625,0.325103759765625,0.878570556640625,-0.3188934326171875
1757089264243730400,11.12473046875,0.25079345703125,0.9399261474609375,-0.257476806640625
1757089264253684500,11.1346845703125,0.201385498046875,0.9966888427734375,-0.18603515625
1757089264263639600,11.1446396484375,0.1555328369140625,1.0223541259765625,-0.1253662109375
1757089264273594400,11.154594482421874,0.1240234375,1.008331298828125,-0.0706634521484375
1757089264283549400,11.164549560546876,0.0984649658203125,0.9764556884765625,-0.02899169921875
1757089264293504500,11.17450439453125,0.068084716796875,0.9424591064453125,-0.0251617431640625
1757089264303458600,11.18445849609375,0.0233612060546875,0.9057464599609375,-0.04425048828125
1757089264313413400,11.194413330078126,0.003082275390625,0.861114501953125,-0.0875091552734375
1757089264323368400,11.204368408203125,0.021087646484375,0.8322906494140625,-0.1437530517578125
1757089264333323500,11.214323486328125,0.047393798828125,0.8199462890625,-0.1982574462890625
1757089264343277600,11.224277587890626,0.0742950439453125,0.848785400390625,-0.2276611328125
1757089264353232400,11.234232421875,0.1274871826171875,0.8697052001953125,-0.2929534912109375
1757089264363187500,11.2441875,0.1304779052734375,0.89239501953125,-0.2934722900390625
1757089264373142500,11.254142578125,0.13427734375,0.925933837890625,-0.2704315185546875
1757089264383096600,11.2640966796875,0.170867919921875,0.956207275390625,-0.28314208984375
1757089264393051400,11.274051513671875,0.1992950439453125,0.9575347900390625,-0.2878570556640625
1757089264403006500,11.28400634765625,0.17486572265625,0.934661865234375,-0.2936859130859375
1757089264412961500,11.29396142578125,0.132598876953125,0.897247314453125,-0.2890625
1757089264422916400,11.303916259765625,0.081817626953125,0.8643798828125,-0.282501220703125
1757089264432870400,11.313870361328124,0.0406341552734375,0.8416900634765625,-0.2827606201171875
1757089264442825500,11.323825439453126,0.018646240234375,0.828338623046875,-0.267333984375
1757089264452780500,11.333780517578125,0.0054779052734375,0.813232421875,-0.254852294921875
1757089264462735400,11.3437353515625,0.0048828125,0.8123779296875,-0.243621826171875
1757089264472689400,11.353689453125,0.01312255859375,0.8234100341796875,-0.239105224609375
1757089264482644500,11.36364453125,0.0297088623046875,0.834747314453125,-0.2422027587890625
1757089264492598500,11.3735986328125,0.0524444580078125,0.850982666015625,-0.2532196044921875
1757089264502553600,11.3835537109375,0.0768585205078125,0.862457275390625,-0.263824462890625
1757089264512507600,11.393507568359375,0.096038818359375,0.8863983154296875,-0.2680816650390625
1757089264522462700,11.403462646484375,0.1006011962890625,0.8883514404296875,-0.2743682861328125
1757089264532417500,11.41341748046875,0.105010986328125,0.907501220703125,-0.2712554931640625
1757089264542372600,11.42337255859375,0.1160888671875,0.93634033203125,-0.2691497802734375
1757089264552326700,11.43332666015625,0.132904052734375,0.9674530029296875,-0.2672119140625
1757089264562281700,11.44328173828125,0.14581298828125,1.0111541748046875,-0.254150390625
1757089264572236500,11.453236572265626,0.15069580078125,1.05584716796875,-0.2324371337890625
1757089264582191600,11.463191650390625,0.148681640625,1.0910491943359375,-0.2200927734375
1757089264592146700,11.473146728515625,0.140869140625,1.1182861328125,-0.2109527587890625
1757089264602100700,11.483100830078126,0.1282806396484375,1.136871337890625,-0.193695068359375
1757089264612055600,11.4930556640625,0.1327056884765625,1.15594482421875,-0.1681671142578125
1757089264622010600,11.5030107421875,0.1302032470703125,1.156585693359375,-0.1339569091796875
1757089264631965700,11.512965576171876,0.1238861083984375,1.1521453857421875,-0.112457275390625
1757089264641919500,11.52291943359375,0.1174774169921875,1.1350555419921875,-0.1235504150390625
1757089264651874600,11.53287451171875,0.1334991455078125,1.079803466796875,-0.177215576171875
1757089264661829600,11.54282958984375,0.1908721923828125,1.046966552734375,-0.2273712158203125
1757089264671784700,11.55278466796875,0.2363433837890625,1.0446014404296875,-0.251953125
1757089264681739500,11.562739501953125,0.2212982177734375,1.0740814208984375,-0.274200439453125
1757089264691693600,11.572693603515624,0.1849212646484375,1.1255950927734375,-0.323486328125
1757089264701648600,11.582648681640626,0.1681671142578125,1.1871337890625,-0.3309783935546875
1757089264711603700,11.592603759765625,0.1551513671875,1.216888427734375,-0.3241424560546875
1757089264721558500,11.60255859375,0.1281280517578125,1.2462921142578125,-0.31268310546875
1757089264731512600,11.6125126953125,0.1292266845703125,1.316131591796875,-0.2774658203125
1757089264741467600,11.622467529296875,0.1319732666015625,1.375457763671875,-0.2593994140625
1757089264751422700,11.632422607421875,0.1099853515625,1.3595123291015625,-0.2664794921875
1757089264761377500,11.64237744140625,0.094268798828125,1.3198699951171875,-0.248870849609375
1757089264771331600,11.65233154296875,0.050262451171875,1.2764434814453125,-0.183349609375
1757089264781286700,11.66228662109375,-0.0425872802734375,1.212310791015625,-0.0787506103515625
1757089264791241700,11.67224169921875,-0.1696624755859375,1.131011962890625,0.006500244140625
1757089264801196500,11.682196533203125,-0.148101806640625,1.0592041015625,0.00146484375
1757089264811150600,11.692150634765625,0.0165863037109375,0.9619293212890625,-0.1698455810546875
1757089264821105400,11.70210546875,0.155731201171875,0.9438629150390625,-0.39129638671875
1757089264831060700,11.712060791015626,0.1753082275390625,0.980010986328125,-0.5222320556640625
1757089264841015600,11.722015625,0.1119842529296875,1.0118560791015625,-0.5843658447265625
1757089264850970600,11.731970703125,0.045013427734375,1.074981689453125,-0.588653564453125
1757089264860924400,11.74192431640625,0.0519866943359375,1.109954833984375,-0.6072540283203125
1757089264870879700,11.751879638671875,0.137908935546875,1.1087493896484375,-0.590087890625
1757089264880834600,11.76183447265625,0.2428436279296875,1.1062774658203125,-0.55462646484375
1757089264890789600,11.77178955078125,0.3006744384765625,1.1150054931640625,-0.506103515625
1757089264900743400,11.781743408203125,0.280364990234375,1.1028289794921875,-0.380035400390625
1757089264910698800,11.79169873046875,0.185546875,1.083831787109375,-0.2069549560546875
1757089264920653600,11.801653564453124,0.0957794189453125,1.04779052734375,-0.1439056396484375
1757089264930608400,11.8116083984375,0.066650390625,1.033233642578125,-0.1358642578125
1757089264940563700,11.821563720703125,0.1384429931640625,1.0544891357421875,-0.1533355712890625
1757089264950517800,11.831517822265624,0.1076202392578125,1.097503662109375,-0.15008544921875
1757089264960472600,11.84147265625,0.09698486328125,1.129119873046875,-0.2117767333984375
1757089264970427400,11.851427490234375,0.1067047119140625,1.1220703125,-0.265594482421875
1757089264980382700,11.8613828125,0.1302032470703125,1.02325439453125,-0.2747955322265625
1757089264990336800,11.871336669921876,0.1372528076171875,0.8899078369140625,-0.298095703125
1757089265000291600,11.88129150390625,0.0956268310546875,0.774810791015625,-0.3238372802734375
1757089265010246400,11.891246337890625,0.077484130859375,0.6865692138671875,-0.3144989013671875
1757089265020201700,11.90120166015625,0.0967864990234375,0.60333251953125,-0.29534912109375
1757089265030155800,11.91115576171875,0.1448822021484375,0.49017333984375,-0.2842254638671875
1757089265040110600,11.921110595703125,0.217498779296875,0.38616943359375,-0.2597808837890625
1757089265050065400,11.9310654296875,0.2357940673828125,0.3455963134765625,-0.2369842529296875
1757089265060020700,11.941020751953126,0.20330810546875,0.347259521484375,-0.254302978515625
1757089265069975600,11.9509755859375,0.1373443603515625,0.369903564453125,-0.25726318359375
1757089265079929600,11.9609296875,0.0232391357421875,0.4927215576171875,-0.1973876953125
1757089265089884400,11.970884521484376,0.0269775390625,0.5107574462890625,-0.2308502197265625
1757089265099839700,11.98083984375,0.0444793701171875,0.484832763671875,-0.24566650390625
1757089265109794600,11.990794677734375,0.0492401123046875,0.4585723876953125,-0.264251708984375
1757089265119748600,12.00074853515625,0.0766143798828125,0.44293212890625,-0.28570556640625
1757089265129703400,12.010703369140625,0.1236572265625,0.438018798828125,-0.2947540283203125
1757089265139658800,12.02065869140625,0.15191650390625,0.422027587890625,-0.3048248291015625
1757089265149613600,12.030613525390624,0.1779632568359375,0.4124298095703125,-0.3246612548828125
1757089265159567600,12.040567626953125,0.2083892822265625,0.412933349609375,-0.3539276123046875
1757089265169522400,12.0505224609375,0.239349365234375,0.448455810546875,-0.3828887939453125
1757089265179477800,12.060477783203124,0.299468994140625,0.5021209716796875,-0.4233245849609375
1757089265189432600,12.0704326171875,0.3578643798828125,0.562591552734375,-0.44091796875
1757089265199387600,12.0803876953125,0.4433746337890625,0.6533355712890625,-0.4658050537109375
1757089265209341400,12.090341552734374,0.5621337890625,0.8074188232421875,-0.4889373779296875
1757089265219296800,12.100296875,0.66839599609375,1.0126953125,-0.493133544921875
1757089265229251600,12.11025146484375,0.7886505126953125,1.2316741943359375,-0.502227783203125
1757089265239206700,12.12020654296875,0.9065399169921875,1.4727935791015625,-0.494110107421875
1757089265249160400,12.130160400390626,1.0003662109375,1.7057037353515625,-0.4945526123046875
1757089265259115800,12.14011572265625,1.045867919921875,1.859375,-0.5071258544921875
1757089265269070600,12.150070556640625,1.055694580078125,1.8082733154296875,-0.431976318359375
1757089265279025700,12.160025634765624,1.0467071533203125,1.614837646484375,-0.273468017578125
1757089265288979500,12.1699794921875,0.948699951171875,1.3150177001953125,-0.1708221435546875
1757089265298934800,12.179934814453125,0.8396759033203125,0.9629058837890625,-0.175506591796875
1757089265308889600,12.1898896484375,0.766143798828125,0.70849609375,-0.28936767578125
1757089265318844700,12.1998447265625,0.5634307861328125,0.65631103515625,-0.462615966796875
1757089265328799500,12.209799560546875,0.2976226806640625,0.6818084716796875,-0.577728271484375
1757089265338753800,12.21975390625,0.212432861328125,0.6832275390625,-0.58306884765625
1757089265348708600,12.22970849609375,0.2166748046875,0.748199462890625,-0.603729248046875
1757089265358663700,12.23966357421875,0.2151336669921875,0.83343505859375,-0.6644287109375
1757089265368618500,12.249618408203125,0.185211181640625,0.8952789306640625,-0.6990966796875
1757089265378572800,12.25957275390625,0.07354736328125,0.9516754150390625,-0.6909332275390625
1757089265388527600,12.269527587890625,-0.0681304931640625,1.01202392578125,-0.622039794921875
1757089265398482700,12.279482666015625,-0.1050262451171875,1.0733642578125,-0.56817626953125
1757089265408437500,12.2894375,-0.0135955810546875,1.17266845703125,-0.5177001953125
1757089265418391800,12.299391845703125,0.1880340576171875,1.2926788330078125,-0.4885711669921875
1757089265428346600,12.3093466796875,0.4627227783203125,1.352203369140625,-0.3897552490234375
1757089265438301400,12.319301513671874,0.55645751953125,1.2391204833984375,-0.267181396484375
1757089265448256500,12.329256591796875,0.2840728759765625,0.9997711181640625,-0.1664581298828125
1757089265458211600,12.339211669921875,-0.096649169921875,0.70257568359375,-0.063720703125
1757089265468165600,12.34916552734375,-0.2691802978515625,0.475921630859375,-0.0627288818359375
1757089265478120400,12.359120361328126,-0.25347900390625,0.420196533203125,-0.174468994140625
1757089265488076000,12.369075927734375,-0.1388092041015625,0.4256439208984375,-0.3506317138671875
1757089265498030800,12.37903076171875,-0.0353546142578125,0.4715576171875,-0.4465789794921875
1757089265507985000,12.38898486328125,-0.0184478759765625,0.6282958984375,-0.481719970703125
1757089265517940000,12.39893994140625,-0.0053253173828125,0.8946380615234375,-0.4031219482421875
1757089265527895000,12.40889501953125,-0.056549072265625,1.24774169921875,-0.2360992431640625
1757089265537849900,12.418849853515624,-0.0377655029296875,1.5248870849609375,-0.1315460205078125
1757089265547805200,12.42880517578125,0.0536651611328125,1.53082275390625,-0.099761962890625
1757089265557759000,12.438759033203125,0.160919189453125,1.300079345703125,-0.127166748046875
1757089265567714000,12.448714111328124,0.215362548828125,1.0307769775390625,-0.2156982421875
1757089265577668900,12.4586689453125,0.2148284912109375,0.889190673828125,-0.32598876953125
1757089265587624200,12.468624267578125,0.1762542724609375,0.853179931640625,-0.425811767578125
1757089265597578000,12.478577880859374,0.1214752197265625,0.8360748291015625,-0.4742279052734375
1757089265607533000,12.488532958984376,0.0666961669921875,0.835693359375,-0.418182373046875
1757089265617488000,12.49848779296875,0.0692291259765625,0.83935546875,-0.2786407470703125
1757089265627443200,12.508443115234375,0.1178436279296875,0.8519287109375,-0.1859283447265625
1757089265637397000,12.51839697265625,0.14227294921875,0.8405914306640625,-0.155670166015625
1757089265647352000,12.52835205078125,0.1347503662109375,0.8152313232421875,-0.134246826171875
1757089265657307000,12.538306884765625,0.12335205078125,0.7989349365234375,-0.1327667236328125
1757089265667262000,12.548261962890624,0.10516357421875,0.8058624267578125,-0.12646484375
1757089265677217000,12.558217041015626,0.071258544921875,0.83270263671875,-0.1202850341796875
1757089265687171000,12.568171142578125,0.0509490966796875,0.85357666015625,-0.15576171875
1757089265697126000,12.5781259765625,0.0595245361328125,0.8697967529296875,-0.175018310546875
1757089265707081000,12.5880810546875,0.0971527099609375,0.8567657470703125,-0.2371368408203125
1757089265717036000,12.5980361328125,0.1232757568359375,0.81298828125,-0.251220703125
1757089265726990000,12.607989990234374,0.1343841552734375,0.7818450927734375,-0.2454986572265625
1757089265736945000,12.61794482421875,0.123992919921875,0.7608184814453125,-0.2321319580078125
1757089265746900000,12.62789990234375,0.0853118896484375,0.7607574462890625,-0.206298828125
1757089265756855000,12.63785498046875,0.0489349365234375,0.74749755859375,-0.2010345458984375
1757089265766809000,12.64780908203125,0.0384979248046875,0.745819091796875,-0.196533203125
1757089265776764000,12.657763916015625,0.0639190673828125,0.744903564453125,-0.2042694091796875
1757089265786719000,12.667718994140625,0.122222900390625,0.7839508056640625,-0.1983795166015625
1757089265796674000,12.677674072265624,0.172760009765625,0.80859375,-0.22216796875
1757089265806628900,12.68762890625,0.2323150634765625,0.850128173828125,-0.25103759765625
1757089265816583000,12.6975830078125,0.271270751953125,0.90374755859375,-0.2643890380859375
1757089265826538000,12.7075380859375,0.2610015869140625,0.9487152099609375,-0.2727508544921875
1757089265836493000,12.7174931640625,0.2134857177734375,1.0110015869140625,-0.2625274658203125
1757089265846447900,12.72744775390625,0.1477203369140625,1.0939788818359375,-0.2565460205078125
1757089265856402000,12.73740185546875,0.089935302734375,1.1728515625,-0.2383270263671875
1757089265866357000,12.74735693359375,0.043975830078125,1.2228851318359375,-0.1992645263671875
1757089265876312000,12.75731201171875,0.0146331787109375,1.235107421875,-0.141632080078125
1757089265886267000,12.767266845703125,0.0211029052734375,1.2337493896484375,-0.088409423828125
1757089265896221000,12.777220947265626,0.0433197021484375,1.213897705078125,-0.027313232421875
1757089265906176000,12.787176025390625,0.0799407958984375,1.1885986328125,-0.0162353515625
1757089265916131000,12.797131103515625,0.148895263671875,1.1411895751953125,-0.0928802490234375
1757089265926086000,12.8070859375,0.2203826904296875,1.0982208251953125,-0.2122344970703125
1757089265936041000,12.817041015625,0.251312255859375,1.155487060546875,-0.2595977783203125
1757089265945994800,12.826994873046875,0.278839111328125,1.2335662841796875,-0.3180999755859375
1757089265955950000,12.8369501953125,0.2946014404296875,1.285614013671875,-0.351318359375
1757089265965905000,12.84690478515625,0.2667083740234375,1.3114166259765625,-0.3105316162109375
1757089265975860000,12.85685986328125,0.2090301513671875,1.3157806396484375,-0.261199951171875
1757089265985813800,12.866813720703124,0.162811279296875,1.3185272216796875,-0.2433319091796875
1757089265995769000,12.87676904296875,0.1640625,1.2917022705078125,-0.24713134765625
1757089266005724000,12.886723876953125,0.1580657958984375,1.2673492431640625,-0.2141571044921875
1757089266015679000,12.896678955078125,0.0985107421875,1.242767333984375,-0.17559814453125
1757089266025632800,12.9066328125,-0.043060302734375,1.141693115234375,-0.1020355224609375
1757089266035588000,12.916588134765625,-0.11077880859375,1.0508270263671875,-0.0193939208984375
