time,seconds_elapsed,gyro_x,gyro_y,gyro_z,acc_x,acc_y,acc_z,grav_x,grav_y,grav_z
1757089253136730600,0.017730712890625,-0.1450431048870086,0.563794732093811,0.4361044466495514,2.627545721128582,0.2981708995394408,-2.185988241048157,-9.773489488676187,-0.7467844356112182,0.3026493235951289
1757089253146684700,0.0276845703125,-0.2644222676753998,0.7455255389213562,0.4244555234909057,2.73217806199193,0.3504519986577332,-2.4381318411670625,-9.76798855317235,-0.7885909024663269,0.3672970062030479
1757089253156639700,0.0376396484375,-0.3627570867538452,0.8621131181716919,0.3621247708797455,2.8689135140806434,0.2769119845420122,-2.5533418362766502,-9.761520233941075,-0.8257826420675962,0.4485394479222595
1757089253166594800,0.0475947265625,-0.3379615843296051,0.7928644418716431,0.2407300472259521,3.145377170333266,0.1186414308629929,-1.980861682039499,-9.754870128402114,-0.8538109781347215,0.5328186269888654
1757089253176548600,0.057548583984375,-0.3038691282272339,0.9365904927253724,0.0986314937472343,3.32317937682569,-0.8847164040081202,-1.5442089251354336,-9.748618082270026,-0.8685873992450535,0.6167551300976425
1757089253186503700,0.067503662109375,-0.1447665989398956,0.7429727911949158,-0.1144347414374351,3.3411054941385983,-2.434539515763521,-0.2975649695355445,-9.74275182058513,-0.867363848799467,0.7048785269696265
1757089253196458800,0.077458740234375,-0.0317753218114376,0.3778262436389923,-0.4618030786514282,2.930406970441341,-1.284050653126091,0.6802789232421665,-9.741312143170832,-0.8391573066212237,0.7569902608703821
1757089253206412800,0.087412841796875,0.2834007441997528,0.6469210386276245,-0.7652415037155151,1.8273317470163104,-1.090071657206118,1.0098841678999364,-9.742562435492871,-0.7797998393759131,0.8029753285843878
1757089253216367600,0.09736767578125,0.5372804403305054,0.8090441823005676,-0.9787593483924866,0.8813292457878589,-2.60697990296185,1.9111714752197264,-9.74271850283742,-0.6983651264876127,0.8729858533997088
1757089253226322700,0.10732275390625,0.6916942596435547,0.6582930088043213,-1.1319276094436646,0.9173819714218376,-2.727252296027541,1.1565815534893422,-9.742858203569051,-0.6012864524068311,0.941038376015052
1757089253236277800,0.11727783203125,0.8583945631980896,0.5682094693183899,-1.2194366455078125,0.996401732122898,-2.3743331766039133,1.2642755469456315,-9.743467275378109,-0.4943692154766991,0.9954017613001168
1757089253246231800,0.127231689453125,0.9584721326828004,0.5368533730506897,-1.2538639307022097,0.4862234280198812,-1.9013300262935455,0.9408524249888957,-9.743254509410262,-0.3834865455143153,1.0451378521107135
1757089253256186600,0.1371865234375,0.9627912640571594,0.4820617735385895,-1.2449254989624023,0.2200467725038528,-1.5748103996261953,0.2059215818438678,-9.741936412549018,-0.2723161263854243,1.0912868051495404
1757089253266141700,0.1471416015625,0.8757224082946777,0.4598211944103241,-1.1784623861312866,-0.1310088911354541,-1.283589173094183,-0.3208834474112838,-9.739386728066206,-0.1644539184890687,1.134762374260649
1757089253276095700,0.157095703125,0.7236862778663635,0.4558435082435608,-1.036695122718811,-0.7387778008967637,-0.9045205901525916,-0.6578147241082042,-9.73540496495366,-0.0658792839292203,1.1781045993156731
1757089253286050800,0.16705078125,0.5511891841888428,0.4445859789848327,-0.8325445055961609,-1.22877782484591,-0.6227483060978353,-0.8316478808391838,-9.730231361708045,0.0173145704189781,1.2217531138408928
1757089253296005600,0.177005615234375,0.3981727361679077,0.4351602494716644,-0.6283541321754456,-1.461817349913716,-0.5382584434226155,-0.9244029560998082,-9.724491356751322,0.0821630271628499,1.264080316634476
1757089253305960700,0.186960693359375,0.3250731527805328,0.3381642401218414,-0.4136781096458435,-1.5934066712856292,-0.595888246625103,-0.743160253764689,-9.719046535348893,0.1278217946650926,1.301607790996134
1757089253315914800,0.196914794921875,0.2669392824172973,0.3481574952602386,-0.2339427024126052,-1.8510797023504968,-0.5039586989358067,-0.445467931522429,-9.714111417034268,0.1550038252343423,1.3350634858742356
1757089253325869800,0.206869873046875,0.2098944783210754,0.3480322957038879,-0.1031848341226577,-1.6071324142992496,-0.525045253041014,-0.6576686667010188,-9.709061147907375,0.1678602928664535,1.369793876863271
1757089253335824600,0.21682470703125,0.1734406054019928,0.2457890063524246,0.0275236368179321,-1.3438286838710307,-0.6563546614930034,-0.4884979488231241,-9.705112702542545,0.1686857108399272,1.3973967540599406
1757089253345778700,0.22677880859375,0.1175523623824119,0.2820568978786468,0.1227958872914314,-1.3863304395139218,-0.6321429611045867,-0.7245724576726555,-9.70151672387719,0.1592881332237273,1.4232304296270013
1757089253355733800,0.236733642578125,0.080503799021244,0.3139269649982452,0.2015783190727234,-1.0724889465034009,-0.7015532550044358,-0.7913010382078588,-9.69752736198008,0.1420582454135175,1.4519509126767516
1757089253365688800,0.246688720703125,0.0186723042279481,0.3911577463150024,0.2545176148414612,-0.8669108443349599,-0.6741446582708507,-0.7705503649935126,-9.69256594018042,0.1192884691954124,1.486715936587751
1757089253375643000,0.256642822265625,-0.0257116723805665,0.3540862798690796,0.3248157501220703,-0.8666384571343659,-0.6722726538538932,-0.5527314976722002,-9.687451373645665,0.0910802282504271,1.5216349820166826
1757089253385597700,0.26659765625,-0.0804507955908775,0.3569389581680298,0.3642345368862152,-0.9508908577919004,-0.760855192670226,-0.6817340174213051,-9.682207627773284,0.0586058908261824,1.5562161737933753
1757089253395552500,0.276552490234375,-0.1106861904263496,0.3481553196907043,0.3902783989906311,-0.7503373057872057,-0.906409253443405,-0.7664293395407498,-9.676859837004542,0.0236970379977021,1.5900347106344996
1757089253405507800,0.2865078125,-0.1066111028194427,0.3415303230285644,0.4026473760604858,-0.6895370923876762,-0.9841482536189258,-0.7045847316548228,-9.671370591938494,-0.0128870579915528,1.623209981136024
1757089253415462000,0.2964619140625,-0.0703684091567993,0.3378588855266571,0.4043765664100647,-0.5948164892077445,-1.1065531286686658,-0.7141952944345772,-9.665684362995624,-0.0504448053355328,1.656014372498542
1757089253425416700,0.306416748046875,-0.0143903885036706,0.3197801113128662,0.3923965692520141,-0.4821908115029334,-1.2373456005744636,-0.6606462212070823,-9.65994611160457,-0.0882939220001455,1.6876089496798812
1757089253435371500,0.31637158203125,0.0440614707767963,0.3235279619693756,0.3657969236373901,-0.3389741807013749,-1.2714096366092562,-0.6428698876284062,-9.654124273583292,-0.1251581010143272,1.7183153458498417
1757089253445325600,0.32632568359375,0.0944892019033432,0.3505792021751404,0.33035609126091,-0.2961976997703314,-1.260000499974936,-0.6878134834654629,-9.647819620481132,-0.1599106855688616,1.7505397453673184
1757089253455281000,0.336281005859375,0.1362558305263519,0.380520612001419,0.2936641275882721,-0.2885205892711878,-1.2036455755464732,-0.7243804422318935,-9.64083224581182,-0.1920243547208607,1.7854606904923915
1757089253465235700,0.346235595703125,0.1691391468048095,0.4051452279090881,0.2608621716499328,-0.3097662063956261,-1.0984615921497345,-0.6484763293333351,-9.63320365062952,-0.221491710615158,1.822832243639976
1757089253475190500,0.3561904296875,0.1813279092311859,0.434513509273529,0.2430027574300766,-0.4471674289166927,-1.012057420285791,-0.5665003491751849,-9.624939680153132,-0.2489386665977537,1.862511635338515
1757089253485145600,0.3661455078125,0.1758453398942947,0.4582891166210174,0.2399737387895584,-0.6810942582130431,-0.934370954015106,-0.5283583961769938,-9.615918169307708,-0.2755987282526679,1.9048747131630777
1757089253495100400,0.376100341796875,0.1561227589845657,0.4599346816539764,0.233142465353012,-0.7663076128572225,-0.9127494893155992,-0.5175032401636243,-9.60642144216597,-0.3017093027986586,1.9483380073145031
1757089253505055500,0.386055419921875,0.1307574808597564,0.4947202205657959,0.2094464749097824,-0.6342834071993827,-0.8407050475198775,-0.531439118796587,-9.596439561855792,-0.326019348995015,1.9930992323219772
1757089253515009300,0.39600927734375,0.1081919893622398,0.6031073927879333,0.1835163384675979,-0.49161564245224,-0.714426765102893,-0.5046345523707568,-9.584830957126616,-0.3472520701052621,2.0447047702662644
1757089253524964600,0.405964599609375,0.1010509878396987,0.7229885458946228,0.1703270226716995,-0.548667901495099,-0.6590816753040999,-0.3527669976018369,-9.570425415155292,-0.366384859794192,2.107866452100128
1757089253534919400,0.41591943359375,0.1040643528103828,0.795976996421814,0.1747494786977768,-0.6089180797964334,-0.6706227677550166,-0.3229189718268812,-9.553570141944288,-0.3850705633027478,2.179771996881813
1757089253544874500,0.42587451171875,0.1362565606832504,0.8285449147224426,0.1972909122705459,-0.7544272054493427,-0.6393689668353647,-0.128117407477647,-9.534804066675902,-0.4055504202190786,2.256861958564073
1757089253554828300,0.435828369140625,0.1962466537952423,0.7905328273773193,0.2082785815000534,-0.8692670520722866,-0.651202393296361,0.1963033472143113,-9.515432426729795,-0.4288818306416272,2.333020923006534
1757089253564783600,0.44578369140625,0.2652247250080108,0.7584323287010193,0.1854276657104492,-0.8934130668133496,-0.6380171869002282,0.3860917595766484,-9.496374675038457,-0.4532898573197424,2.4049488257505
1757089253574738400,0.455738525390625,0.3188237845897674,0.7598877549171448,0.1217102035880088,-0.9293196619749068,-0.5233074329303578,0.5197787838801742,-9.477227491497992,-0.4752242969585582,2.4752178553715347
1757089253584692500,0.4656923828125,0.3841603100299835,0.7187852263450623,0.0296986401081085,-0.960157283309102,-0.3241740499218926,0.876817613582313,-9.458360878464578,-0.49135089056883,2.54329945795089
1757089253594647300,0.475647216796875,0.4322468638420105,0.6707777380943298,-0.1084301993250846,-1.0569804117262362,-0.1783334638249128,1.092466735649109,-9.44069604243636,-0.4986270190516486,2.606724466896057
1757089253604602600,0.4856025390625,0.4550780057907104,0.6059859991073608,-0.3061860203742981,-0.9874971256554126,0.0624752339396625,0.8396586802721023,-9.424885894364118,-0.4911869321787729,2.664704362177849
1757089253614556700,0.495556640625,0.4929822385311126,0.5596382021903992,-0.539745569229126,-1.0309797090291977,0.3763199052879586,0.889072407260537,-9.411330831742283,-0.4644564904350787,2.716894568142295
1757089253624511500,0.505511474609375,0.5061337351799011,0.5000926852226257,-0.7712506651878357,-1.2872452113837003,0.6559257685564458,0.7999296042129397,-9.399722811535,-0.416505675606057,2.7644381173446773
1757089253634466300,0.51546630859375,0.4909214377403259,0.4087191224098205,-0.9007412791252136,-1.7407862669855356,0.9072495036598296,0.6710591864109039,-9.390306163892149,-0.35149544329606,2.805171986532211
1757089253644421600,0.525421630859375,0.4399868845939636,0.3183861970901489,-0.8792932629585266,-2.2564216674506663,1.0413961813643575,0.5283461212173104,-9.382989703398945,-0.280638603849709,2.8374525001510977
1757089253654375700,0.535375732421875,0.3514708876609802,0.2745761573314667,-0.7348127961158752,-2.6911317658543585,1.0155492809895426,0.3284171308517455,-9.376692064559458,-0.2160356554326601,2.8638018701553345
1757089253664330500,0.54533056640625,0.260481595993042,0.2601563334465027,-0.5265402793884277,-2.9446593676775694,0.9353145915407688,0.3051692339941859,-9.37021614654362,-0.1657283954042941,2.888246867842972
1757089253674285300,0.555285400390625,0.1896042078733444,0.1998224109411239,-0.3025524616241455,-3.003758037856221,0.9056620883379132,0.3290492912754416,-9.364089188095926,-0.1335320803369861,2.9097067122399807
1757089253684239400,0.5652392578125,0.1430481821298599,0.0923178568482399,-0.0895613357424736,-2.8744693946421145,0.9236546950157732,0.2941042346224188,-9.360050726360084,-0.1201007810921408,2.923253883816302
1757089253694194400,0.5751943359375,0.1061458215117454,-0.0302743725478649,0.089559681713581,-2.557377959924936,1.0194325521636751,0.2423348844185471,-9.35916166856587,-0.123851438862551,2.925941807726025
1757089253704149500,0.5851494140625,0.0607465729117393,-0.1386302709579467,0.2451819479465484,-2.030194160485268,1.0831015989977866,0.2042988760128617,-9.36141733853817,-0.1420307454852387,2.917889726434648
1757089253714104300,0.595104248046875,0.0257627554237842,-0.2312837690114975,0.4023827314376831,-1.5659002402007578,1.1511570442225785,0.2609998374000191,-9.366323815280198,-0.1734248864573426,2.900393817232549
1757089253724058400,0.605058349609375,0.0002371724694967,-0.3009621202945709,0.5527123808860779,-1.1678542773276568,1.1606368202295154,0.3872314311310649,-9.373067444321512,-0.2183687745553441,2.8754668812468647
1757089253734013400,0.615013427734375,-0.0138168605044484,-0.3466196060180664,0.6857873201370239,-0.5811375079452992,1.1563421187102794,0.5175058705121278,-9.380835740235447,-0.2761736785964109,2.8450004313126205
1757089253743968500,0.624968505859375,-0.0119207371026277,-0.3414081931114197,0.7735770344734192,0.0648749154925346,1.173122938445583,0.6992240814045071,-9.388345092952251,-0.344280214687623,2.812620841233432
1757089253753922600,0.634922607421875,0.006673187483102,-0.2844908535480499,0.799968421459198,0.6057715984642505,1.1629625597633422,0.8809010835036635,-9.394137704879045,-0.4180664951819926,2.783125282157957
1757089253763877400,0.64487744140625,0.0611292868852615,-0.20567686855793,0.7663900256156921,0.9911363589406011,1.1008796130768954,1.1086407485976817,-9.397328025352955,-0.4924531161896884,2.760089859007299
1757089253773832400,0.65483251953125,0.152112990617752,-0.1323861479759216,0.6778393983840942,1.2955454222172498,1.011260278558731,1.3729998332977291,-9.398122390601038,-0.563095655298233,2.743829921340942
1757089253783787500,0.66478759765625,0.2523054778575897,-0.0652360320091247,0.5655712485313416,1.4957932692736386,0.9402823700159788,1.5229650615766643,-9.397107076078653,-0.6267914440087974,2.733475992847979
1757089253793741600,0.674741455078125,0.3571328222751617,-0.0283216871321201,0.4486672878265381,1.5249790317475795,0.9253581379327922,1.5473904777809977,-9.395019163888692,-0.6824963070306926,2.7273069488242268
1757089253803696400,0.6846962890625,0.4524522721767425,-0.0237456765025854,0.3441266119480133,1.4609025731563567,0.8757988649938255,1.46930741340816,-9.392892088732124,-0.730500751743093,2.7221915055066344
1757089253813651500,0.6946513671875,0.519488513469696,-0.0473921485245227,0.246827483177185,1.4255121108233928,0.8435067340023815,1.212797873164713,-9.391619584578276,-0.7712317713864147,2.715338863132894
1757089253823605500,0.70460546875,0.5640310049057007,-0.0880592837929725,0.1552771031856537,1.4191583578824996,0.8728872883960604,0.9837430338189004,-9.391849886202811,-0.8046524680163711,2.7048241911202666
1757089253833560600,0.714560546875,0.5966110825538635,-0.118322379887104,0.0723577290773391,1.41848615770936,0.9077093031913042,0.8626125626191496,-9.393721525293588,-0.8307955748587846,2.6903827010527253
1757089253843515400,0.724515380859375,0.6292487978935242,-0.1425621658563614,0.0030818621162325,1.3084995963364838,0.9736093239478766,0.8436080024197697,-9.396860407841205,-0.8506070675268769,2.673174376620352
1757089253853470500,0.734470458984375,0.6616410613059998,-0.2020438760519027,-0.0628761127591133,1.269428984186053,0.999047789652273,0.930928850737214,-9.401634198114277,-0.864972496683523,2.6516946584790944
1757089253863424500,0.744424560546875,0.6908698678016663,-0.2589286863803863,-0.1177891492843627,1.2800479933559894,0.986630498888716,0.9430988887414335,-9.408512267190217,-0.8742526584651321,2.624111947287619
1757089253873379600,0.754379638671875,0.7123010754585266,-0.2985669076442718,-0.163363829255104,1.2348042455285786,1.0272883802305903,0.9043085548371076,-9.416988419112563,-0.8792968631774186,2.5918244194060565
1757089253883334400,0.76433447265625,0.7063727378845215,-0.3484993875026703,-0.2034179270267486,1.3106512214124202,1.0341801125057042,0.721236883509159,-9.426845211738348,-0.880352655840665,2.5553777260184285
1757089253893288400,0.774288330078125,0.6895948052406311,-0.3986163437366485,-0.2369042336940765,1.4754244349837302,0.978453841369599,0.5061024329662323,-9.438239881455898,-0.8772988212279975,2.514033323717117
1757089253903243500,0.784243408203125,0.6679420471191406,-0.4356732964515686,-0.2532341182231903,1.5214473504900932,0.9133505239486692,0.3085810882642865,-9.450743973720073,-0.8710030820846557,2.468842475120723
1757089253913198600,0.794198486328125,0.6380355358123779,-0.4622913300991058,-0.2518726885318756,1.6089678130328655,0.813471295896545,0.1340079268209636,-9.463894547194242,-0.8631509803447872,2.420754882169515
1757089253923153400,0.8041533203125,0.6025483012199402,-0.4621683657169342,-0.2400052994489669,1.7384277211606505,0.6884488587595522,0.0309308525756001,-9.477085452678798,-0.8546961634714156,2.3716503672607243
1757089253933107500,0.814107421875,0.5748346447944641,-0.422014832496643,-0.2309636026620865,1.8395652056455607,0.5476289869014174,0.072391136341542,-9.48948842265606,-0.8461560064021497,2.324653638286144
1757089253943062500,0.8240625,0.5577897429466248,-0.3417633771896362,-0.2114847898483276,1.855752370336652,0.4159054446905851,0.1130666994705796,-9.500138996008038,-0.8381827625006437,2.283678653819114
1757089253953017600,0.834017578125,0.5517324209213257,-0.2555706799030304,-0.1835511624813079,1.803251783248782,0.299208937350288,0.1169501167751848,-9.508540913650393,-0.8319188067350536,2.2507656875155866
1757089253962971400,0.843971435546875,0.5549753308296204,-0.1727113574743271,-0.1484142392873764,1.7610463802039622,0.1818087387200445,0.1119588843591511,-9.514668456619978,-0.8285424621697515,2.2259790367834267
1757089253972926500,0.853926513671875,0.5670828819274902,-0.0871770158410072,-0.1188012287020683,1.716959985718131,0.0892779737345874,0.2147691243618726,-9.518615732941033,-0.8284877363078296,2.209060781338811
1757089253982881500,0.863881591796875,0.5859014987945557,-0.0029965438880026,-0.108765885233879,1.688772002109885,0.0211990015037357,0.2615760298527777,-9.520504907688498,-0.830588800240308,2.2001121895991265
1757089253992836400,0.87383642578125,0.6010133624076843,0.0216222498565912,-0.1437832564115524,1.685034569147229,-0.0189944041315466,0.2743487099252641,-9.521106965234877,-0.8321442860540003,2.1969164622977373
1757089254002790400,0.883790283203125,0.6274455189704895,0.0307883713394403,-0.2186695039272308,1.6950123578041791,-0.0069704965997487,0.3730576520889997,-9.52210649766624,-0.8284562451910227,2.1939754404097798
1757089254012745500,0.893745361328125,0.6401541233062744,0.0338760390877723,-0.2817499339580536,1.5388339540988203,0.0116095545772463,0.4505168854750692,-9.523346853116154,-0.8187547161921859,2.1922328345261515
1757089254022700500,0.903700439453125,0.6357505917549133,0.008873420767486,-0.3539735674858093,1.4108797743588686,-0.0221828249093145,0.3976825363881885,-9.525427751043438,-0.8027692846182733,2.1891027198068795
1757089254032654600,0.913654541015625,0.6419277787208557,-0.0125357303768396,-0.4338585436344147,1.2927987538576124,-0.0785265703566372,0.4273648502074181,-9.528552605065704,-0.7793457389328629,2.183960826873779
1757089254042609400,0.923609375,0.6671119928359985,-0.0443336814641952,-0.5049502849578857,1.0627928973972798,-0.1589000106889754,0.4586152901262044,-9.532730183011292,-0.7489513313215226,2.176353274479508
1757089254052564500,0.933564453125,0.7041581869125366,-0.0669737458229065,-0.5509710311889648,0.8443295946925878,-0.1814011077672243,0.5272381599754095,-9.5378248758018,-0.7134316896509378,2.16593928636238
1757089254062518300,0.943518310546875,0.7392421960830688,-0.0732614248991012,-0.5543448328971863,0.5872364093422889,-0.229967789472267,0.5663818373620509,-9.54319663196802,-0.6762375388968735,2.1541794365942475
1757089254072473600,0.9534736328125,0.7700909376144409,-0.0796367675065994,-0.5112703442573547,0.2220166112720966,-0.2658837369840592,0.5619337719120084,-9.548329903203248,-0.6415186922151594,2.142017728026956
1757089254082428400,0.963428466796875,0.7804004549980164,-0.1048148050904274,-0.4274423718452453,-0.0470960976958274,-0.2802889866944402,0.5167557827971876,-9.553203646719457,-0.6131971453551203,2.128537776467949
1757089254092383500,0.973383544921875,0.765263020992279,-0.151638776063919,-0.3228078484535217,-0.1866840166062116,-0.2826898372910916,0.3315694574028253,-9.558165653041003,-0.5937376444624737,2.1117133367866274
1757089254102337300,0.983337158203125,0.7360599040985107,-0.1770071685314178,-0.2107966542243957,-0.2750239788383245,-0.2505397816514596,0.2451969958513975,-9.563199555554986,-0.5839891345167533,2.091543824461102
1757089254112292600,0.993292724609375,0.7101646661758423,-0.194677785038948,-0.1040728837251663,-0.3174070765376091,-0.2492126612335443,0.2962643352657556,-9.567952303040029,-0.5841191541045904,2.0696558177798985
1757089254122247400,1.003247314453125,0.6854337453842163,-0.2046672999858856,-0.0164383295923471,-0.2331961769342422,-0.2477320672869682,0.3607522972673177,-9.57240635983944,-0.5927823895642533,2.046467834416032
1757089254132202500,1.013202392578125,0.6816262006759644,-0.1850169003009796,0.0408989936113357,-0.107174426561594,-0.2874504027564078,0.4809317513525485,-9.57632382554412,-0.6079810181420296,2.0235528227746484
1757089254142156300,1.02315625,0.7065324783325195,-0.1683327704668045,0.0596983730792999,0.0348433498442172,-0.3251013573672622,0.6530668719939887,-9.579477321138976,-0.6270426422908901,2.002701173403859
1757089254152111600,1.033111572265625,0.7544254660606384,-0.1772927045822143,0.0316334478557109,0.2131611046433448,-0.3143848061069846,0.7820800592675805,-9.58257002645731,-0.6461389724269508,1.9817264821752905
1757089254162066400,1.04306640625,0.8130043745040894,-0.1773432344198227,-0.0163385868072509,0.3195926038831472,-0.2604057439643889,0.8990827830128372,-9.586050854310392,-0.6622597208183258,1.9594443616099653
1757089254172020500,1.0530205078125,0.8615481853485107,-0.15892294049263,-0.0577898882329463,0.2951245175808668,-0.2301947300959378,0.9542506896138192,-9.589564999911188,-0.6749631350468844,1.937795278251171
1757089254181975300,1.062975341796875,0.8995828628540039,-0.147301971912384,-0.0966510400176048,0.2650397604405879,-0.1838243163261562,0.9610893034622072,-9.592998481491207,-0.6845225521612912,1.917339642460644
1757089254191930600,1.0729306640625,0.9345568418502808,-0.1765820980072021,-0.1361936628818512,0.2360889757663011,-0.1491471898943185,0.9147814335346222,-9.5968189165622,-0.6907686800092459,1.8958616778850557
1757089254201885400,1.082885498046875,0.9684939384460448,-0.2357610911130905,-0.1605736464262008,0.1308247667402029,-0.0537946454863995,0.8495107967227696,-9.601687983903288,-0.6943933733124286,1.869703738799691
1757089254211839500,1.092839599609375,0.98485267162323,-0.3101048171520233,-0.1765030771493911,0.1103898814767599,0.0222467569909989,0.691896807256341,-9.607888592109084,-0.6963641619287431,1.8368290586799385
1757089254221794300,1.102794189453125,0.9794692993164062,-0.3817334771156311,-0.1938896179199218,0.1619283455342054,0.1381461956694722,0.4872442955002188,-9.615433600661158,-0.6965937329009175,1.7968240882888435
1757089254231749600,1.11274951171875,0.9611262679100036,-0.4227781295776367,-0.2211135029792785,0.3032370968878269,0.279695258584991,0.3117538730815052,-9.624013797479869,-0.6940417103305458,1.7512997699543833
1757089254241703400,1.122703369140625,0.9386997222900392,-0.4056572318077087,-0.2624767124652862,0.481757096260786,0.4188244008772075,0.1798857347682118,-9.632844754189252,-0.6872741889569908,1.7047998845860362
1757089254251658500,1.132658447265625,0.9326319694519044,-0.3433097004890442,-0.3290051519870758,0.6192120947957038,0.5115894860751926,0.1112896067954599,-9.641162500679492,-0.6748441117770969,1.6622152729652822
1757089254261613300,1.14261328125,0.9440162181854248,-0.2372093051671981,-0.410661369562149,0.7075526415497064,0.6099921387687325,0.0843928320415317,-9.648399466195702,-0.6547337822929025,1.627910267781466
1757089254271568600,1.152568603515625,0.962385892868042,-0.1055186614394187,-0.4884198009967804,0.6021756197988987,0.781333040292561,0.0831166746258735,-9.65405354643464,-0.6267573956087231,1.605244408595562
1757089254281522400,1.1625224609375,0.9904570579528807,0.0392034836113452,-0.5536301136016846,0.3115413993746042,0.8924624880902469,0.1133716737665235,-9.657756492605804,-0.5921398173443972,1.5960883115850388
1757089254291477500,1.1724775390625,1.009837985038757,0.1846504211425781,-0.6094750165939331,-0.0830079535543918,0.96018913975209,0.2636881997011602,-9.659297876828909,-0.5521273577665909,1.601095618353039
1757089254301432300,1.182432373046875,1.0117497444152832,0.3233900666236877,-0.6437334418296814,-0.5003899005383253,1.1123311275482175,0.3846168647184967,-9.658507018712164,-0.5079448459625244,1.6203773880586028
1757089254311386600,1.19238671875,0.9906993508338928,0.4005743563175201,-0.6407496333122253,-0.9971902521520852,1.305910456626117,0.3793948922865092,-9.6556598125875,-0.4622536100959405,1.6507383317917586
1757089254321341400,1.202341552734375,0.951893150806427,0.3858404755592346,-0.5823688507080078,-1.524227921119332,1.4692087753392755,0.3332987654134631,-9.651755790886282,-0.4192016366917639,1.684713958890736
1757089254331296500,1.212296630859375,0.89990234375,0.2667524218559265,-0.4694609344005584,-1.9443243877589704,1.5263240166157483,0.3118295686662197,-9.648250413113832,-0.3841402967153117,1.7129168478071688
1757089254341251300,1.222251220703125,0.8340407609939575,0.071694515645504,-0.324760228395462,-2.096469005903601,1.5086207482732832,0.2298909979090094,-9.646790861955283,-0.360750653299503,1.726171758438647
1757089254351205600,1.23220556640625,0.7628776431083679,-0.1375473737716674,-0.1843551695346832,-1.9826216774493453,1.4835980968281626,0.0667110448785126,-9.648260349985955,-0.3502429224843159,1.7201115816168486
1757089254361160400,1.242160400390625,0.699401319026947,-0.2749636471271515,-0.0968883708119392,-1.5471113685786724,1.4715322498507797,-0.0757150200672447,-9.652365447217225,-0.349699170996435,1.697038456804305
1757089254371115500,1.252115478515625,0.6491362452507019,-0.3104686439037323,-0.0853781849145889,-0.8455448157012462,1.4467361006379127,-0.2260254085220396,-9.657668229800462,-0.3525859054138884,1.6659880695022642
1757089254381069300,1.2620693359375,0.6198754906654358,-0.2591361403465271,-0.120749332010746,-0.2468050155699253,1.4397089784801005,-0.3534600944325328,-9.662795655816792,-0.3531903741130605,1.6358543586537242
1757089254391024600,1.272024658203125,0.6229767799377441,-0.1384800225496292,-0.1608842313289642,0.0680564681380987,1.3988503138691186,-0.3637193303793669,-9.666560561308264,-0.3495915459034964,1.614240784999728
1757089254400979500,1.2819794921875,0.6644195318222046,0.0398461781442165,-0.1852947622537613,0.0992734441787004,1.335935300272703,-0.2385682253614068,-9.667999654200672,-0.3430898358592763,1.607003965613991
1757089254410934500,1.2919345703125,0.7255891561508179,0.2295322269201278,-0.1959396749734878,-0.0900584565877914,1.2887212752856314,-0.0767787037760019,-9.666462361630796,-0.3358289049455896,1.6177467472940683
1757089254420888300,1.301888427734375,0.7894289493560791,0.3656015992164612,-0.1970410048961639,-0.3986608799010515,1.3085714925289154,0.0903778978005051,-9.6622228243649,-0.3291933028560131,1.6442210588522257
1757089254430843400,1.311843505859375,0.8401091694831848,0.4627476036548614,-0.2006876766681671,-0.7956032654464245,1.3827552113756536,0.3291299552962183,-9.655984806758164,-0.3236202519640326,1.68155038029328
1757089254440798500,1.321798583984375,0.8756974935531616,0.5143181085586548,-0.217913880944252,-1.1296481730520724,1.4253284248195588,0.5447817077115178,-9.648298928430677,-0.3181597580684349,1.7261184208162128
1757089254450752500,1.33175244140625,0.90578430891037,0.5020864605903625,-0.2499391883611679,-1.3335592187911272,1.4461660456649958,0.6316035204656422,-9.640114452931284,-0.3113144222183153,1.772474221538752
1757089254460707300,1.341707275390625,0.9196109175682068,0.4279146492481231,-0.2870854437351227,-1.4355197100967168,1.4786974653050302,0.6445378208406269,-9.632575289598106,-0.3017976569355465,1.8146064132168889
1757089254470662400,1.351662353515625,0.9165821075439452,0.3087936043739319,-0.3033501803874969,-1.4722230085939167,1.51591908858791,0.5572635881438851,-9.626697337475418,-0.2900878020552918,1.8474127042755484
1757089254480617000,1.361616943359375,0.8985312581062317,0.1663494259119033,-0.2944956421852112,-1.4649854585558175,1.5159921538241208,0.4371402481600642,-9.623160980042815,-0.2780402396532707,1.8675781249478456
1757089254490571000,1.371571044921875,0.8732919096946716,0.0337796546518802,-0.269851803779602,-1.3599579808950424,1.4743217344388364,0.3039776861220598,-9.622095396637915,-0.2674944235837087,1.874596187016368
1757089254500526000,1.381526123046875,0.8417466878890991,-0.0530697293579578,-0.2390777617692947,-1.1459522421211004,1.4491583593487738,0.1694160709410905,-9.623017187657952,-0.2590905149136669,1.8710422939270732
1757089254510481200,1.391481201171875,0.8163646459579468,-0.0797420889139175,-0.1936130821704864,-0.8687982655167579,1.3832212214522064,0.0501104770809412,-9.624837973344324,-0.2536069506697356,1.862407736572623
1757089254520436000,1.40143603515625,0.7990771532058716,-0.0772026777267456,-0.1363182067871093,-0.5676210237681866,1.3052202824048698,-0.0455064904168248,-9.626740007573366,-0.2526693410260602,1.8526798310235144
1757089254530390000,1.41139013671875,0.7975202798843384,-0.0476066954433918,-0.0659572258591651,-0.27230945918262,1.2317720382258297,-0.0773624950133264,-9.628163318374751,-0.2576311829508282,1.8445825954161583
1757089254540345000,1.421344970703125,0.8106643557548523,0.0003103468334302,0.0002402476966381,0.0122346276730298,1.171399840980023,-0.0302772109724581,-9.628695233294367,-0.2692347644450142,1.8401440284468236
1757089254550300200,1.431300048828125,0.8228145241737366,0.0547727905213832,0.0540174581110477,0.2711298940092325,1.1425739978596567,-0.0490219511918723,-9.628118310189247,-0.286946197827626,1.840483197273314
1757089254560254200,1.441254150390625,0.828093945980072,0.1114941239356994,0.0879615768790245,0.5550508805304766,1.1363692249353974,-0.0724807143211364,-9.626381695654988,-0.3090229502802714,1.8459855940818783
1757089254570209000,1.451208984375,0.8264821767807007,0.1692016422748565,0.1030071079730987,0.8137164297640324,1.163470947676897,-0.0538501020006835,-9.623480713516471,-0.3334311596214771,1.8568335897021
1757089254580164000,1.4611640625,0.8190516829490662,0.2199379354715347,0.0946268588304519,1.000840591353178,1.1936278932705522,-0.0299022401802241,-9.619517070582509,-0.3582011514797806,1.8726891843512652
1757089254590119200,1.471119140625,0.8057201504707336,0.2791719734668731,0.082844503223896,1.1639414877980947,1.2379868210874496,0.0520177720069885,-9.614574938005209,-0.3819100899778306,1.893270930739492
1757089254600073200,1.4810732421875,0.7781388163566589,0.3598680794239044,0.0812252759933471,1.2396493474721908,1.3319849552117289,0.1366528883717954,-9.608132337737082,-0.404830362316221,1.9210138009287416
1757089254610028000,1.491028076171875,0.7561770677566528,0.3909080326557159,0.0655355304479599,1.260958677482605,1.4070634309411048,0.1587517613247036,-9.60056161022186,-0.4267875617761165,1.9538319285556676
1757089254619983000,1.500983154296875,0.7466292977333069,0.4451344609260559,0.0410655438899993,1.264424307766557,1.374560652873665,0.2194539211772382,-9.592205285286903,-0.4466579084919765,1.9900947898089885
1757089254629937200,1.510937255859375,0.7235926389694214,0.5641934871673584,0.0140792001038789,1.3127818037003278,1.4557926827967167,0.2583645204603672,-9.582054478150605,-0.4639946450769901,2.034532335820049
1757089254639892200,1.520892333984375,0.6795679926872253,0.7432975769042969,0.0033535889815539,1.4434709613621235,1.5650855628170073,0.2341751049689948,-9.568643207913636,-0.47916543579977,2.093288330040872
1757089254649847000,1.530846923828125,0.6351345181465149,0.940246045589447,0.0071019879542291,1.4884639492988585,1.6231841160424052,0.2200556864626705,-9.55078840227127,-0.4934201711235567,2.170105758392065
1757089254659802000,1.540802001953125,0.5826627016067505,1.1756541728973389,0.0120402844622731,1.4750304672300816,1.7170384577818214,0.1835340281426906,-9.527478838354348,-0.5078169817991555,2.2670810086309907
1757089254669756200,1.550756103515625,0.4856930375099182,1.499986171722412,0.0145931914448738,1.586540292647481,1.91173773080036,-0.0618031068317592,-9.496533664992452,-0.5214546812031418,2.390463496541232
1757089254679711000,1.5607109375,0.3319688439369201,1.9053633213043213,0.0384877286851406,1.8167378722876308,2.13861581062898,-0.5335261542037129,-9.454690080997349,-0.5337525468381121,2.5483964888289568
1757089254689666000,1.570666015625,0.1622011214494705,2.3628721237182617,0.1179322153329849,1.7991513621926307,2.289036819851398,-1.017357134129107,-9.398048156321048,-0.5471054744839668,2.7473174711957573
1757089254699621000,1.58062109375,0.0172654166817665,2.7765421867370605,0.2476818710565567,1.632062857416272,2.3723436102218924,-1.1602233440577985,-9.323584743750096,-0.5663673704452812,2.9866996432885524
1757089254709575200,1.5905751953125,-0.1003075465559959,3.0896100997924805,0.4112111330032348,1.6269740098446606,2.524833826933801,-1.237146132479608,-9.230210294482111,-0.5951073253804817,3.258750159274041
1757089254719530000,1.600530029296875,-0.1304361373186111,3.1615545749664307,0.6571514010429382,1.8546990618914363,2.7740309983372686,-1.2767276167616248,-9.120352912446856,-0.638852030289173,3.5470293410047886
1757089254729485000,1.610485107421875,-0.0630943849682807,3.209317207336426,0.957911491394043,1.805092442679405,2.932289423187077,-1.0107686956495046,-8.99817147088945,-0.7082256454404443,3.834280348731577
1757089254739439400,1.620439453125,-0.03362438082695,3.313657760620117,1.1954612731933594,1.602870080679655,2.748499958978593,-0.7527785614594816,-8.860892413443326,-0.8026124866213649,4.12441304937452
1757089254749394200,1.630394287109375,-0.1029206290841102,3.3435487747192383,1.3003450632095337,1.6527286288261414,2.735724356296658,-0.918782193608582,-8.70799200849533,-0.91029537416175,4.417309369511902
1757089254759349000,1.640348876953125,-0.2862097918987274,3.042269229888916,1.0787948369979858,2.2606495142787693,2.9108967988073826,-0.899106310018897,-8.551115101131796,-1.00586039227657,4.694364854177833
1757089254769304000,1.650303955078125,-0.6297125220298767,2.9551198482513428,0.6639983654022217,3.0113176594555378,3.1144708676770327,-0.9392682245373726,-8.399168635907769,-1.0584501920178533,4.95015455571413
1757089254779258400,1.66025830078125,-1.149811625480652,2.910224914550781,0.2256189584732055,2.667868963688612,2.4097718619927764,-1.9464701676160097,-8.245759696915746,-1.0503141587700695,5.203332613447309
1757089254789213200,1.670213134765625,-1.468090534210205,2.683921813964844,-0.2487832456827163,2.397265139380097,2.263335684622824,-1.7847499118745327,-8.09681182898581,-0.9791458422217516,5.445484250253439
1757089254799168000,1.68016796875,-1.5554293394088743,2.2352278232574463,-0.7071595788002014,2.435012978494167,2.4222658712543548,-0.412878790345788,-7.964870040914416,-0.8566075500506907,5.656628754377365
1757089254809122000,1.6901220703125,-1.5163240432739258,1.8418477773666384,-1.0942659378051758,1.7738883261203764,2.326112751053273,0.5917541790276766,-7.85590873093605,-0.6971577965244651,5.828297572681308
1757089254819077400,1.700077392578125,-1.4524545669555664,1.512415885925293,-1.3779011964797974,0.5130570744097233,2.246886800255626,1.2672066319614648,-7.764944265419245,-0.5133351606987416,5.967621872219443
1757089254829032200,1.7100322265625,-1.360934495925903,1.1591649055480957,-1.5522191524505615,-0.434753353023529,1.9397785610228773,1.5903905383348464,-7.690868390861153,-0.3156119732817635,6.076292090296745
1757089254838987000,1.719987060546875,-1.1873819828033447,0.8029347062110901,-1.6471866369247437,-1.306916126537323,1.5611074529662727,1.8377882591009136,-7.634678886127471,-0.1154586452415678,6.153757607293128
1757089254848941000,1.729941162109375,-0.9385218620300292,0.4727416634559631,-1.7034155130386353,-1.8681413117885588,1.1410760874520989,2.04773975404799,-7.595837991079688,0.0772732640936039,6.202229669517278
1757089254858896100,1.739896240234375,-0.6431418061256409,0.1758005023002624,-1.7415708303451538,-1.928619453626871,0.672461454424262,2.184717782720923,-7.573069109910726,0.2563392434441484,6.225214823785424
1757089254868851200,1.749851318359375,-0.3275028765201568,-0.099362626671791,-1.78983736038208,-1.8016466861397027,0.1925014341806993,2.283582061576843,-7.564769483599067,0.4193667641256004,6.226458101844787
1757089254878806000,1.759805908203125,-0.0429427810013294,-0.2740635275840759,-1.869120717048645,-1.6042536439925432,-0.1719398172650486,2.2045728222697973,-7.56808255366981,0.5683297930920497,6.210597100368142
1757089254888760000,1.769760009765625,0.1733764708042144,-0.2985190749168396,-1.961685299873352,-1.222794658783078,-0.1276728785805404,1.9433482362031933,-7.573951153442263,0.7084164187721907,6.189006615328789
1757089254898715100,1.779715087890625,0.2801954448223114,-0.0173486061394214,-2.032325506210327,-0.8497054425120353,-0.0009526976149529,1.4421487728476523,-7.571449984276295,0.8443101593397557,6.175003808939457
1757089254908670200,1.789670166015625,0.299471914768219,0.2559734880924225,-2.0566139221191406,-0.1241653088510036,0.041280470219627,0.5768167221367358,-7.543714420610666,0.980894001063332,6.188748256653547
1757089254918624300,1.799624267578125,0.3268141448497772,0.3404482007026672,-1.9887443780899048,-0.4549509223997592,-0.4856356181945651,0.0150309803932905,-7.504273221582173,1.113365365966782,6.214232826521992
1757089254928579000,1.8095791015625,0.3430304229259491,0.4911617934703827,-1.8372834920883176,-1.517833251646161,-0.7950691585697233,-0.2205903778612613,-7.456382758638262,1.2353029888309537,6.248741245323419
1757089254938534100,1.8195341796875,0.3326540887355804,0.6141966581344604,-1.6009962558746338,-2.118444106346369,-0.8224627769298851,-0.3674205229848623,-7.3991060431897635,1.3417052619762715,6.294715645512938
1757089254948489200,1.8294892578125,0.3158849477767944,0.583433985710144,-1.3115545511245728,-2.375021743389964,-0.9120993548437952,-0.4113227930754423,-7.340947284209728,1.428348941684514,6.3435553720057
1757089254958443300,1.839443359375,0.3128459453582763,0.5689550042152405,-1.0171515941619873,-2.330394081634283,-1.039808035390079,-0.2353454639226198,-7.288011812835931,1.4932098286516964,6.389491193750501
1757089254968398000,1.849398193359375,0.3134422302246094,0.6521736979484558,-0.7540051937103271,-1.9119436286360023,-1.0458350405946373,0.0179331315755844,-7.235852002009749,1.5370952937379478,6.438181282639503
1757089254978353000,1.859352783203125,0.3063344359397888,0.7082347869873047,-0.5505615472793579,-1.274817691487074,-0.7541945657372474,-0.1088391449034213,-7.18195148499608,1.5635843644738197,6.491930408483744
1757089254988307200,1.86930712890625,0.2814067304134369,0.8029748201370239,-0.4053156971931457,-0.7696504935443401,-0.4813033611439168,-0.5264321042895317,-7.125977668839693,1.5782966343067586,6.549794568431377
1757089254998262300,1.87926220703125,0.1389768421649933,1.1852669715881348,-0.2675509452819824,-0.6243038649767637,-0.5206960448555648,-0.7797358342289924,-7.057192886427044,1.5877617972664535,6.621587885010242
1757089255008217000,1.889217041015625,-0.0037576754111796,1.467009425163269,-0.159165620803833,-0.2301356203198432,-0.4028641768097877,-1.4298282204568384,-6.964740228179097,1.5984684847198425,6.7162254860818384
1757089255018172000,1.899171875,-0.0413402579724788,1.573541283607483,-0.0548035837709903,-0.0927870047688484,-0.908743760805577,-0.8561398594737052,-6.859824394199252,1.607850645571202,6.821143658149242
1757089255028126200,1.909126220703125,-0.0686254054307937,1.5785338878631592,0.0802900567650795,-0.4491162248969078,-1.2035587740458549,-0.2838683795511722,-6.751894180834293,1.610722693876177,6.927329073673486
1757089255038081300,1.919081298828125,-0.149544209241867,1.5643337965011597,0.2033113539218902,-0.2970107697188854,-1.0767638473436236,-0.4003367041587829,-6.644976359382271,1.6084261073715984,7.030479651546478
1757089255048036000,1.9290361328125,-0.2738493680953979,1.55288565158844,0.2582395672798157,0.2500608024954796,-0.7999297503434121,-0.5948872163563966,-6.539030013310909,1.6078230269119145,7.1292620973378416
1757089255057991000,1.938990966796875,-0.3803518414497375,1.6078773736953735,0.2129030078649521,0.7072855150461197,-0.6314075595021248,-0.5203057303637266,-6.430474946045875,1.615723717033863,7.225566754838824
1757089255067945200,1.9489453125,-0.5416880249977112,1.7306281328201294,0.0597829595208168,0.9100690180599688,-0.2302243215166032,-0.3343067734122276,-6.311836876183748,1.639361636122316,7.324178520238399
1757089255077900300,1.958900390625,-0.8206154108047485,1.80628764629364,-0.1262760013341903,1.1763614089101553,0.4093284043878317,-0.7671820576041937,-6.180991066655516,1.6909850019842383,7.423361948046088
1757089255087855000,1.968855224609375,-1.2251307964324951,1.941399455070496,-0.3052476048469543,1.238318975651264,0.5201964247703552,-1.551468979266286,-6.038543666660785,1.780032820224762,7.519166254809498
1757089255097809200,1.97880908203125,-1.6316369771957395,2.1539673805236816,-0.4264010787010193,1.0783400106191634,0.0816677909918129,-1.7852829958379268,-5.877516653880477,1.9100087150506675,7.614266212695837
1757089255107764200,1.98876416015625,-1.8912878036499023,2.2812976837158203,-0.4670571684837341,0.809600811138749,-0.2705515095993876,-0.6447159538865089,-5.69915915159285,2.071140795640648,7.707161938536166
1757089255117719300,1.99871923828125,-2.07678747177124,2.2549452781677246,-0.4473692774772644,0.829661017870903,-0.441378762512654,-0.3711719844728708,-5.512869102740288,2.250198116760701,7.792000030127167
1757089255127674000,2.008674072265625,-2.1186745166778564,1.9633299112319944,-0.4173668920993805,0.9337678735554218,-1.184741699242592,-0.8163748353183269,-5.337453499123454,2.4378068469963967,7.857422642630338
1757089255137628200,2.018628173828125,-1.988407850265503,1.511559247970581,-0.3964011073112488,1.0837374857485294,-1.6223732380509377,-0.5227127915054559,-5.190391883331537,2.6210548978045582,7.896853904786705
1757089255147583200,2.028583251953125,-1.7225000858306885,0.941228985786438,-0.3904585242271423,0.982291373705864,-1.7855916233956812,0.0546212325036525,-5.082361716723442,2.787415380567312,7.910139502817392
1757089255157538000,2.0385380859375,-1.4546539783477783,0.1799597293138504,-0.4460929632186889,0.903375073379278,-1.6227037851795554,0.1692412988960742,-5.025891056960821,2.933080281303823,7.893532066887617
1757089255167492000,2.0484921875,-1.2645621299743652,-0.4709365665912628,-0.5761622786521912,1.0876035135269164,-1.1408721623778342,-0.0438788892149925,-5.023820680427551,3.0644632664486764,7.844786448419094
1757089255177447200,2.058447265625,-1.1494271755218506,-0.7345800995826721,-0.7395555973052979,0.972872972497344,-0.7922542472794651,0.2908662756145,-5.051694191259146,3.191094380891323,7.776096358552575
1757089255187402200,2.06840234375,-1.0711430311203003,-0.8043383955955505,-0.8915131688117981,0.60290042694211,-0.4103022178560495,0.9415507825165986,-5.085145794484019,3.3177608589082954,7.700918660232424
1757089255197357000,2.078357177734375,-0.9727198481559752,-0.748241126537323,-0.9951825737953186,0.2750514513671398,-0.2211053416460752,1.0696335570722817,-5.112985403046012,3.444000051423907,7.626705423030256
1757089255207311000,2.08831103515625,-0.8541473746299744,-0.5846298336982727,-1.0123414993286133,-0.155841719096899,0.0977010802954435,0.8314286120653152,-5.128610842201113,3.564529341860115,7.56054748198986
1757089255217266200,2.09826611328125,-0.7231276035308838,-0.3467213213443756,-0.9165908098220824,-0.6838041016936302,0.1814452391698956,0.5141285030335188,-5.128868616354465,3.6733690712854266,7.508093072131276
1757089255227221200,2.10822119140625,-0.602365255355835,-0.0229237917810678,-0.7197715044021606,-1.0388444510549306,0.1834688539519905,0.5194382998794317,-5.112757439509034,3.76442092282474,7.4739043868035075
1757089255237175300,2.11817529296875,-0.5558696985244751,0.4189630448818207,-0.4591332972049713,-1.304804833471775,-0.052102527680993,0.2161141092300414,-5.07589281297028,3.837335352388024,7.461940977287292
1757089255247130000,2.128130126953125,-0.5230539441108704,0.774350643157959,-0.1696109175682068,-1.5874959859371185,-0.3259422651708126,0.0276133985906839,-5.018704944849014,3.8933027388036248,7.47162475143373
1757089255257085200,2.138085205078125,-0.4920535981655121,0.9371267557144164,0.1693805605173111,-1.7539181357592344,-0.2154106371358037,0.1529810689687728,-4.953886143457889,3.931211321437359,7.494996274670958
1757089255267040300,2.148040283203125,-0.501583456993103,0.9794595241546632,0.4761926829814911,-2.143538800114393,-0.1526736104547977,0.1208978314876556,-4.894965167933703,3.951972369915247,7.522740606164932
1757089255276994300,2.157994384765625,-0.5197778940200806,1.0022751092910769,0.6415585279464722,-1.6677444116503,-0.1586965240061283,0.2856038250416517,-4.843137657801806,3.9629330321297047,7.550468571045994
1757089255286949000,2.16794921875,-0.5359563231468201,1.0740411281585691,0.7002415060997009,-1.2748811121121049,-0.0802381965801119,0.7277437811851502,-4.791726619516313,3.970217051658034,7.579387207016349
1757089255296904200,2.177904296875,-0.5614979863166809,1.1353960037231443,0.6892199516296387,-1.167780919830501,-0.1336360247686505,0.752354490828514,-4.735721531438827,3.978574253375828,7.610142410764098
1757089255306859300,2.187859375,-0.5878505110740662,1.2164565324783323,0.6283478140830994,-0.7914139970630407,-0.3201937846466898,0.6665875939548015,-4.672902671693265,3.9914027552887794,7.642189992409944
1757089255316813300,2.197813232421875,-0.5938082337379456,1.3434314727783203,0.5757508873939514,-0.6543754703745246,-0.362794032227993,0.7056488537549972,-4.599250867766141,4.008863593177497,7.677647674760222
1757089255326768000,2.20776806640625,-0.5817941427230835,1.4420491456985474,0.5650625824928284,-0.8356035596624016,-0.4159463612228631,0.7252624857634306,-4.514988237975538,4.02819782372266,7.717440171444416
1757089255336723200,2.21772314453125,-0.5749253034591675,1.4714102745056152,0.5920186042785645,-0.9173448542818426,-0.5023422036498785,0.6703314566582441,-4.425615425564349,4.047107106854021,7.759203091418743
1757089255346677000,2.227677001953125,-0.5699113607406616,1.4258211851119995,0.6320981383323669,-0.9647983871132136,-0.5400163930058479,0.6469447358518838,-4.337760031978786,4.064730441828072,7.799500615015625
1757089255356632300,2.23763232421875,-0.5542934536933899,1.3082687854766846,0.6483134031295776,-0.9215177560523152,-0.6387208051249385,0.696387688934803,-4.257140142604708,4.080983949753642,7.835349342510104
1757089255366587100,2.247587158203125,-0.5304940938949585,1.1426986455917358,0.6222690343856812,-0.7647913630753755,-0.7658546083927155,0.7987363027751445,-4.187165858146548,4.096638030481338,7.864832042104005
1757089255376542200,2.257542236328125,-0.5192840695381165,0.9791525602340698,0.5674704313278198,-0.667026862154901,-0.8069204860135912,0.7983990336447954,-4.128409133273363,4.113013411220908,7.88731509206891
1757089255386496000,2.26749609375,-0.5156571269035339,0.8342139720916748,0.5114394426345825,-0.6548752365902066,-0.7133347320824861,0.728767863535881,-4.079359271161258,4.131655860109627,7.903076724824309
1757089255396451300,2.277451416015625,-0.5147081017494202,0.7123340964317322,0.4678266048431396,-0.6314768253460527,-0.6200979377195238,0.6679156276881695,-4.038712203474343,4.152442919811606,7.9130521753937
1757089255406406100,2.28740625,-0.5130478739738464,0.592503011226654,0.4142446219921112,-0.4923644149929285,-0.6323997854098677,0.6001438217103481,-4.005442678818106,4.175219692026079,7.91797677231431
1757089255416360200,2.297360107421875,-0.5102602243423462,0.1078871190547943,0.171815812587738,0.3929997853994369,-0.6492033284336328,0.5011351659476757,-3.987743648259341,4.202946780124306,7.912239105445146
1757089255426315000,2.30731494140625,-0.4963609278202057,-0.0790835693478584,-0.1561612635850906,2.691602305975556,-0.408816655473411,0.531813797327876,-3.9900075015380976,4.242531771537661,7.889939010831713
1757089255436270300,2.317270263671875,-0.486522376537323,0.2793226838111877,-0.3034369349479675,0.9210229582726956,-0.1044642908200621,0.3571305996388196,-3.9739293501794335,4.29087523894608,7.871890143921971
1757089255446225200,2.32722509765625,-0.4783751964569092,0.9227378964424132,-0.1979461908340454,-1.2933376830399037,-0.1328656249180436,-0.2086678848773241,-3.915846579045057,4.339029029001296,7.874602325490117
1757089255456179200,2.33717919921875,-0.4801942408084869,1.4954394102096558,0.0956932976841926,-1.8388059117108584,-0.3054167790144682,-0.3641507075339555,-3.8173455805435776,4.379000681644678,7.900797089454532
1757089255466134000,2.347134033203125,-0.4746298491954803,1.90661096572876,0.5131025314331055,-1.7160077995598315,-0.019976035580039,-0.3263450007528066,-3.695935415619612,4.405555218832195,7.943647220143675
1757089255476089300,2.35708935546875,-0.4742411673069,2.340419292449951,0.966046154499054,-1.7417480977550148,0.5763906056791543,-0.2330833642095327,-3.56051075386852,4.416418265891075,7.999276168385148
1757089255486043100,2.367043212890625,-0.5419211387634277,2.8768436908721924,1.3834664821624756,-1.9261703069090843,0.8479834410250187,-0.454904745170474,-3.4040707766175267,4.415818546432257,8.06741856124103
1757089255495998200,2.376998291015625,-0.6883402466773987,3.435576200485229,1.7230710983276367,-1.892525811460614,0.7309048755645752,-0.9297709128737448,-3.2177477022781966,4.413935509164631,8.144547978150845
1757089255505953000,2.386953125,-0.8310680985450745,3.933440923690796,1.9829908609390257,-1.6988988438487052,0.6399155678674578,-1.238503684568405,-2.998674450981617,4.418583627231419,8.225233041715622
1757089255515908000,2.396908203125,-0.9251341223716736,4.352540016174316,2.207702159881592,-1.4832061749011278,0.6908370690703391,-1.2536018849790096,-2.7498919978588816,4.430958540157974,8.305124324554205
1757089255525862000,2.40686181640625,-1.0074061155319214,4.771096229553223,2.44660758972168,-1.3414455881267786,0.8287979713007807,-1.2697937258452177,-2.4738641026750208,4.4507156722903245,8.38102156932056
1757089255535817200,2.416817138671875,-1.1252691745758057,5.175413131713867,2.745192289352417,-1.5046592972964048,0.8796291638717055,-1.5940309406638145,-2.1719367732115087,4.480090235334634,8.448779931294917
1757089255545772000,2.42677197265625,-1.2564468383789062,5.455339431762695,3.13767409324646,-2.2388234669178724,0.8421496203050017,-1.5959242070645092,-1.854063978858292,4.521759631806612,8.502148533388972
1757089255555727000,2.43672705078125,-1.3919740915298462,5.53278923034668,3.544912338256836,-2.6858377510994678,0.7888654816240072,-1.2492454433351754,-1.538431656908244,4.577737247355282,8.535100370398164
1757089255565681000,2.446680908203125,-1.484547734260559,5.377035140991211,3.8199310302734375,-2.273154775586724,0.8370958440467715,-0.7334270875185728,-1.243029491429776,4.64936719006598,8.544510003778338
1757089255575636200,2.45663623046875,-1.5163869857788086,5.021170139312744,3.8950510025024414,-1.4542524676173925,0.9309601226583124,-0.1714081215411424,-0.9809498959690331,4.734319263425469,8.531959734284877
1757089255585591000,2.466591064453125,-1.5711205005645752,4.546229839324951,3.788771390914917,-0.6713928753446787,0.9362608594149352,0.0113490770101547,-0.7580950072418898,4.83167021510899,8.500037240323424
1757089255595545000,2.476545166015625,-1.67183518409729,3.976782560348511,3.55853009223938,-0.0824186824243515,0.9483458494842052,0.0266693957388401,-0.577034091214463,4.943932904720306,8.449551500189305
1757089255605500000,2.4865,-1.7603453397750854,3.3692736625671387,3.27661657333374,0.4543500338971614,0.965399860137701,0.2544961545944214,-0.4396855852613225,5.070682384845614,8.38243669681549
1757089255615455200,2.496455322265625,-1.7892704010009766,2.769606113433838,2.9753384590148926,1.044569258442521,0.8336462881147861,0.9071376407831908,-0.344714441386424,5.206325950044393,8.303356145837903
1757089255625410000,2.50641015625,-1.7406189441680908,2.183522224426269,2.662565231323242,1.525192382237315,0.6346680226027965,1.522926190871,-0.2891857021164148,5.34305497239232,8.218182538682221
1757089255635364000,2.516364013671875,-1.6611546277999878,1.557983636856079,2.335730791091919,1.6766595395117998,0.3497568560004234,1.945318659493327,-0.2711137283257208,5.474437957537174,8.131876712626218
1757089255645319000,2.52631884765625,-1.6261169910430908,0.7307685017585754,1.92876935005188,1.925159668561816,-0.1587386095821857,2.333019169440865,-0.2953071076061576,5.600608760991692,8.04464734198451
1757089255655274200,2.536274169921875,-1.5844484567642212,-0.4331801533699035,1.3341916799545288,3.020892128008604,-0.7862292879015207,3.0705805802851915,-0.3749999817958101,5.723371801829337,7.95441762048304
1757089255665228000,2.54622802734375,-1.421960473060608,-1.6469621658325195,0.6129962205886841,4.559149743524194,-0.2847966003119945,4.129056783527136,-0.5133979968018829,5.838147351044416,7.8627511441767215
1757089255675183000,2.55618310546875,-1.216219425201416,-2.543562889099121,0.0528127700090408,4.742506077012419,0.8628583540737629,4.043104593214393,-0.6972033161666243,5.938768702700734,7.77272892794609
1757089255685138000,2.566137939453125,-1.083240628242493,-2.926376342773437,-0.252396672964096,3.8108588488727806,0.8383470131516456,3.069001786661148,-0.9034002078205348,6.0277744353652,7.682460043478011
1757089255695093200,2.57609326171875,-1.0481222867965698,-2.8054323196411133,-0.2897456586360931,2.606501179534197,0.3172323044925928,2.3550913005173206,-1.105785505297035,6.111199153026938,7.589524570149183
1757089255705047000,2.586047119140625,-1.1117273569107056,-2.337738275527954,-0.0716447606682777,1.1710099648796022,0.460257212114334,1.5143448250085114,-1.288026717150211,6.1941276116043325,7.492942849272489
1757089255715002000,2.596002197265625,-1.2678271532058716,-1.7311928272247314,0.3478244841098785,0.149286306104064,1.1074234817624091,0.6099976917266845,-1.446943752039224,6.2798857406497,7.391873169326781
1757089255724957000,2.60595703125,-1.439708590507507,-1.017514705657959,0.9127478003501892,-0.7924049077965318,2.012346369105577,-0.0065805474340915,-1.5871322671912609,6.369454367893934,7.28570236684978
1757089255734911200,2.6159111328125,-1.5788902044296265,-0.4289584457874298,1.5575129985809326,-1.891416388913989,2.764339625406265,0.3100713268220424,-1.7164957292072474,6.45797553191185,7.177645312234759
1757089255744866000,2.625865966796875,-1.6571210622787476,-0.1325715333223343,2.218489170074463,-2.5969191121965647,2.975863484236598,1.0838654960423708,-1.8574930765241384,6.539442101243138,7.067942243978381
1757089255754821000,2.635821044921875,-1.6664382219314575,-0.0963134467601776,2.7979423999786377,-2.706248378704488,2.6266718609035014,1.4062129515916109,-2.0296319965578613,6.6068649476528165,6.95703155349791
1757089255764776000,2.64577587890625,-1.6495544910430908,0.0269768014550209,3.1727726459503174,-2.2272813515536485,1.7391881841391323,1.6219588120311497,-2.2313202516809105,6.657276453506946,6.846331875419616
1757089255774730200,2.655730224609375,-1.5433896780014038,0.1788312047719955,3.2697081565856934,-1.1729231050245463,0.7649561982482671,2.338333057940006,-2.438879590794444,6.690437549352645,6.742424341699481
1757089255784685000,2.66568505859375,-1.3204835653305054,0.2346638441085815,3.070158004760742,1.033081065222621,-0.2929500961512327,2.7683389241755005,-2.6377944356814025,6.705819242879748,6.6516475077092645
1757089255794640100,2.67564013671875,-1.0323843955993652,0.2795763611793518,2.595937967300415,3.309772198241949,-1.0095751019507646,2.929881485262513,-2.810580859838426,6.706129624003172,6.580186784085631
1757089255804594000,2.685593994140625,-0.7797896862030029,0.2798107266426086,1.984317183494568,4.962233116042614,-1.417430511176586,2.720126389670372,-2.9454174925684926,6.699189011085033,6.528076073098182
1757089255814549200,2.69554931640625,-0.5861697196960449,0.2663835883140564,1.3409202098846436,5.537901837188005,-1.8001526481896637,2.2253660194516183,-3.0382047895982858,6.693750619423389,6.49102381503284
1757089255824504000,2.705504150390625,-0.403010606765747,0.1186034455895423,0.8374674320220947,5.415963556736707,-2.1070546973258257,1.6336229463398455,-3.096879681406915,6.692998339751362,6.464015396597981
1757089255834459100,2.715459228515625,-0.1558289676904678,-0.0656860545277595,0.5490304231643677,4.014844713413715,-2.148780207899213,1.1281453672736883,-3.14051190238446,6.68998220680058,6.446061222234368
1757089255844413000,2.725412841796875,0.1111611723899841,-0.2312049716711044,0.412650465965271,2.509599725183844,-2.416333412465453,0.4882108024448156,-3.181622203668952,6.67651599150598,6.439860614028572
1757089255854368300,2.7353681640625,0.3671647906303406,-0.4289040863513946,0.3650848567485809,1.7479305857822298,-2.878494412374496,-0.4524322175770998,-3.228146054434776,6.64876347670555,6.4454188326776025
1757089255864323000,2.745322998046875,0.5965942144393921,-0.6485517621040344,0.3378175497055053,1.605559465894103,-3.2214041789591312,-1.4371183774650096,-3.2861393937200307,6.606206776005029,6.459854185265303
1757089255874277000,2.755277099609375,0.8207665085792542,-0.8787032961845398,0.2581301033496856,1.930976830407977,-3.5260014582842585,-2.361459081983566,-3.3550776131287217,6.550626343080401,6.480982313489913
1757089255884232000,2.76523193359375,1.0426040887832642,-1.0680458545684814,0.0882651582360267,2.511656949974596,-3.865416953012347,-3.050884530690312,-3.430132269591093,6.484224071890115,6.508410418641567
1757089255894187300,2.775187255859375,1.1611770391464231,-1.1613835096359253,-0.2155038267374038,3.164431999415159,-3.9280128176569935,-3.90437066078484,-3.4993209566295147,6.41379269131422,6.54128451423943
1757089255904142000,2.78514208984375,1.0938800573349,-1.2265949249267578,-0.6635377407073975,4.115305906072258,-3.5691257297396657,-5.046704712408781,-3.5499750390678644,6.354629723727703,6.571661532324552
1757089255914096000,2.79509619140625,0.9155111312866212,-1.2352732419967651,-1.228695511817932,5.27160652372837,-3.002007394796609,-6.022519583576917,-3.5717224682345985,6.321716465163231,6.591590806153416
1757089255924051000,2.805051025390625,0.6598982810974121,-1.2072376012802124,-1.8923722505569456,6.202966167098284,-2.423653964611888,-6.477510837987065,-3.5540813053429123,6.325004985314608,6.597968524491787
1757089255934006300,2.81500634765625,0.385789692401886,-1.19465434551239,-2.5624141693115234,6.359456705492734,-1.636556077182293,-6.30743250374496,-3.4918010825186965,6.3689943491667504,6.588900251895189
1757089255943960000,2.8249599609375,0.1211034283041954,-1.2176529169082642,-3.1081323623657227,5.470834964609145,-0.2031938373804092,-6.069994451457261,-3.389225966446101,6.449964659413695,6.563648321738839
1757089255953915100,2.8349150390625,-0.1432678401470184,-1.2167150974273682,-3.4578590393066406,4.121271828739345,1.056356142348051,-5.728895533686876,-3.2554689456462857,6.55960050765276,6.522573968550563
1757089255963870000,2.844869873046875,-0.419340968132019,-1.1217097043991089,-3.6271488666534415,2.666131764632463,1.516712138661742,-5.555337540635466,-3.097237701064348,6.690162239542604,6.466780185136199
1757089255973825300,2.8548251953125,-0.7020477056503296,-0.9314616918563844,-3.648409843444824,1.1311743597060442,1.265706164270639,-5.680276171946526,-2.9179966939404607,6.835075152868032,6.39823739478588
1757089255983779000,2.864779052734375,-1.0201596021652222,-0.8306117653846741,-3.5793282985687256,-0.0610235007613897,0.5477133772492409,-5.5806753955096005,-2.722984117189049,6.99162765058279,6.314498204347491
1757089255993734100,2.874734130859375,-1.0155237913131714,-0.9655030965805054,-3.414890766143799,-0.4146531065419316,0.4512777868449688,-4.750156299504638,-2.533356740607321,7.148216973176599,6.217352419847249
1757089256003689000,2.88468896484375,-0.7920169234275818,-0.5931652188301086,-3.1524157524108887,-1.186340220480412,1.988893012803793,-3.414458315119147,-2.3470522248379884,7.283849432459474,6.13247516528964
1757089256013644000,2.89464404296875,-0.7457371950149536,0.1709704846143722,-2.7472851276397705,-2.7381360936135053,2.968614243760705,-2.998577420347929,-2.144538624806702,7.395734520930051,6.072432492259145
1757089256023598000,2.90459814453125,-0.9207279086112976,1.051872730255127,-2.203052043914795,-3.733063661530614,2.994843494516611,-3.0675685389876364,-1.923836457134038,7.495650354665518,6.023658816739917
1757089256033553200,2.91455322265625,-1.1847949028015137,1.7895801067352295,-1.5085369348526,-4.315229928001761,3.214676916530728,-2.397131283867359,-1.6978075414806604,7.5922998800814145,5.970327039524912
1757089256043508000,2.924508056640625,-1.316486120223999,2.3307199478149414,-0.7459911108016968,-5.2523494500726455,3.737960201400518,-1.0158271480828522,-1.490320975342393,7.68492497228682,5.906881280052661
1757089256053462000,2.9344619140625,-1.2686638832092283,2.703557014465332,-0.1009204015135765,-5.372980739578605,4.331708769115806,0.7929162183195352,-1.3101336272791029,7.766791354590654,5.842164769992232
1757089256063417000,2.9444169921875,-1.203105330467224,2.792167901992798,0.4645669460296631,-4.98128209990561,4.552821125024557,2.2124510082989928,-1.164783418514952,7.835824558806419,5.780441012006998
1757089256073372200,2.9543720703125,-1.2252252101898191,2.6203436851501465,0.8967297077178955,-4.805258593523502,4.231094431722164,2.4516917260944844,-1.0630791669927535,7.897332628214359,5.715977599924803
1757089256083327000,2.964326904296875,-1.2836050987243652,2.1724119186401367,1.1206996440887451,-4.070238683855534,3.551691195335984,2.572691848912835,-1.007414051459357,7.957834150928258,5.641663824957609
1757089256093281000,2.974281005859375,-1.262717843055725,1.5713496208190918,1.139410138130188,-3.285996185857057,3.034018151563406,3.4699323650598526,-0.993489790198952,8.017915986925363,5.558451873263716
1757089256103236000,2.984236083984375,-1.1310516595840454,0.9236438274383544,1.0051060914993286,-2.619225052028894,2.864009375426173,4.444395237097144,-1.011431835733354,8.073152136456965,5.47463201880455
1757089256113191200,2.994191162109375,-0.9735345244407654,0.3763867914676666,0.8107910752296448,-1.9226302962146695,2.6377164020091293,4.984690447044373,-1.049771137934551,8.120777226462959,5.396417729267478
1757089256123145200,3.004145263671875,-0.8469387292861938,-0.071795254945755,0.6583978533744812,-1.5911929407589136,2.2115789016395806,5.068127439665794,-1.1010865338258444,8.161448844069241,5.324353194531798
1757089256133100000,3.01410009765625,-0.754962682723999,-0.3952486217021942,0.5708393454551697,-1.4950620323896406,1.7539321642845869,4.957495566126704,-1.1635492005448789,8.196518988406657,5.256767266514897
1757089256143055000,3.02405517578125,-0.7578953504562378,-0.6178497672080994,0.5443795323371887,-1.5333900094792243,1.4795850617945194,4.7556163184762,-1.235504064361006,8.229200776302815,5.1888487455427645
1757089256153010200,3.03401025390625,-0.7046346068382263,-0.833817720413208,0.5881892442703247,-1.7814916407309471,1.3901900375515222,4.904259650501609,-1.318699941702932,8.259937859871982,5.119065015220642
1757089256162964200,3.043964111328125,-0.5445064306259155,-1.1166329383850098,0.7006356716156006,-2.021653126633167,0.9871166019052268,5.665324686530232,-1.4201616897061466,8.283082588616013,5.054114696404338
1757089256172919000,3.0539189453125,-0.326377809047699,-1.7009179592132568,0.8167904615402222,-1.290231533718109,0.2778974884480237,6.097641167795658,-1.5527334462441502,8.29379395224452,4.997238962972164
1757089256182874000,3.0638740234375,-0.0590124353766441,-2.194955587387085,0.8637512922286987,0.146493314384669,-0.1762637448787689,6.454042284116149,-1.7199327179186046,8.2897654273808,4.94894225731492
1757089256192828200,3.073828125,0.2617733180522918,-2.4103763103485107,0.874850332736969,0.9263311476834116,0.2941068649709225,6.631587885499,-1.9052600592188536,8.269204285389185,4.915346861705184
1757089256202783200,3.083783203125,0.5266622304916382,-2.493987798690796,0.903097689151764,1.6062049241907894,0.7065291437208652,5.793249640175699,-2.098363149087131,8.231922894743084,4.899254681821168
1757089256212738000,3.093738037109375,0.6512304544448853,-2.357372999191284,0.9300690293312072,2.591149296623468,0.7155874794453382,4.535893955621123,-2.292173218180984,8.182612043607234,4.89501572907716
1757089256222693000,3.103693115234375,0.655731737613678,-2.0102813243865967,0.9232758283615112,3.3392326860040424,0.8296528345644474,3.2725200336903333,-2.4749255944266912,8.128402314513922,4.896346685419976
1757089256232647200,3.113647216796875,0.6265745162963867,-1.456141471862793,0.8591628074645996,3.91295085760355,1.1376467705905438,2.304281735256314,-2.632202314762771,8.074343392068148,4.903761637851596
1757089256242602000,3.12360205078125,0.5746093392372131,-0.905869483947754,0.737118124961853,3.92142730178684,1.3590496338784694,2.3368103784173724,-2.7533558745771645,8.023526812544464,4.92061281940937
1757089256252557000,3.13355712890625,0.5966904759407043,-0.5570599436759949,0.6161145567893982,3.487659160408377,1.33631407045722,2.723740488514304,-2.8428707258075474,7.976232561928033,4.946533442607522
1757089256262511000,3.143510986328125,0.6599475145339966,-0.0980928987264633,0.5517792701721191,2.641063374349475,1.3502099093407391,2.593363465541601,-2.9057722954005003,7.928519209116697,4.986529352909327
1757089256272466200,3.153466064453125,0.6872851848602295,0.6623742580413818,0.6491266489028931,0.6598007102936506,2.031336316257715,2.3800129758059976,-2.9378835899323223,7.877815442317724,5.047698399621248
1757089256282421000,3.1634208984375,0.5518171191215515,1.2043133974075315,0.9366966485977172,-1.5776131820872423,2.688768543854356,2.094447144687176,-2.951168895702064,7.82237471012473,5.125566652199626
1757089256292376000,3.1733759765625,0.1695940941572189,1.75778067111969,1.2207483053207395,-2.8517966673240065,1.346513977432251,1.9357471135497093,-2.959529020029306,7.771802460750937,5.197177597948908
1757089256302330000,3.183330078125,0.0326279923319816,1.6540396213531494,1.5297932624816897,-5.066191503167152,0.9770482123553752,3.4715953298360107,-2.972340570807457,7.727520835953951,5.255569581162929
1757089256312285200,3.19328515625,0.2584296762943268,1.472681760787964,1.8924968242645264,-5.545652597445249,2.094599120378494,4.677647528132796,-3.0221479732885954,7.669703437757492,5.311559763932228
1757089256322240000,3.203239990234375,0.5409145951271057,1.0016005039215088,2.1910605430603027,-5.663810190314054,2.077508284845948,5.4478609162569045,-3.1124349779352545,7.585489615544676,5.379916091799736
1757089256332194000,3.213194091796875,0.7328956723213196,1.0213159322738647,2.360348463058472,-5.149024100154638,0.90562840526402,5.223280591976643,-3.229334971958399,7.479015446206927,5.4594975780367845
1757089256342149000,3.223149169921875,0.8912855386734009,0.8131987452507019,2.4784011840820312,-5.279937129700183,1.0542360814541578,5.079173734337092,-3.357743909728527,7.354799283951521,5.550034758052229
1757089256352104200,3.233104248046875,0.9879533648490906,0.7027239799499512,2.486071348190308,-4.500480989195406,1.2884423122137785,4.589318087294697,-3.495255022364854,7.217408582824468,5.644697493565082
1757089256362059000,3.24305908203125,1.045886516571045,0.1944741010665893,2.3932244777679443,-3.5503009100213645,1.38566233099401,4.194019377303123,-3.643227615521848,7.072752859130501,5.733538391056657
1757089256372013000,3.253012939453125,1.0902894735336304,0.204392671585083,2.221524715423584,-2.2213027155354617,1.1818576682388782,3.3702854113936422,-3.796073659934103,6.926255891484022,5.812674471613764
1757089256381968100,3.262968017578125,1.2157211303710938,0.5669258236885071,2.0962846279144287,-2.8941566764086484,1.9094208321601152,3.072882427486777,-3.91929233558476,6.77644351567924,5.906720536532998
1757089256391923200,3.272923095703125,1.25846529006958,0.5499536395072937,2.0558762550354004,-2.6243688446581364,1.7377403234183788,2.382457446348667,-4.023431632234156,6.620716362872719,6.012361762177944
1757089256401878000,3.2828779296875,1.239732265472412,0.4315764009952545,2.10792088508606,-2.3861264902502297,0.704901250258088,1.709921173122525,-4.12879579450339,6.461093956193327,6.11373130185306
1757089256411832000,3.29283203125,1.2886860370635986,0.2691728472709656,2.1886417865753174,-2.879211620733141,0.7542208692222834,1.0479670841872692,-4.243987815564871,6.294309402799606,6.208110544249415
1757089256421787100,3.302787109375,1.3655067682266235,0.1064135059714317,2.1873486042022705,-1.711281355559826,0.9414560899704694,0.6124936001956462,-4.367447314234077,6.117398592188954,6.298668767052889
1757089256431742200,3.3127421875,1.3708394765853882,0.0307126939296722,2.1147494316101074,-0.5431956075638532,0.9850795431196688,-0.4726601820915937,-4.493905410197377,5.935809268373251,6.382896617791056
1757089256441696300,3.3226962890625,1.326083421707153,0.1960486471652984,1.9943095445632932,0.0997641503050923,0.7518295901715755,-1.692396037825942,-4.606698553423583,5.756208488026261,6.466433563655614
1757089256451651000,3.332651123046875,1.2608041763305664,0.4756088852882385,1.8596795797348025,0.7241232526004314,0.6686135468244552,-2.5823943277597428,-4.694008880347013,5.583095900654793,6.554823794770241
1757089256461606100,3.342606201171875,1.1246767044067385,0.7212351560592651,1.7623456716537476,0.8867258441343903,1.2721984488993885,-3.4188352150291204,-4.753061665557325,5.41929591602981,6.649061582869291
1757089256471561200,3.352561279296875,0.9521417021751404,0.8842418193817139,1.7048383951187134,0.6386690749377012,2.097487827557325,-4.226912762123346,-4.791561784343421,5.2676750294983385,6.742620156532525
1757089256481514800,3.3625146484375,0.7583754062652588,1.0146677494049072,1.6803748607635498,0.2670218741685152,2.1018197192817927,-4.603347781690955,-4.814508652427793,5.129117622679472,6.832499749422073
1757089256491469600,3.372469482421875,0.6080944538116455,0.9413158893585204,1.7350512742996216,-0.6156716457098722,1.450969208163023,-4.567213807514309,-4.83218430211097,5.001104990750551,6.914429260089993
1757089256501425000,3.3824248046875,0.572647213935852,0.7336897253990173,1.8445913791656492,-1.007112511229515,1.2502025979295373,-4.2454649023801085,-4.8622731509044765,4.874315178614855,6.9835337759763
1757089256511378700,3.392378662109375,0.5456992983818054,0.6556591391563416,1.9036870002746584,-0.7479851897031068,1.3885147978156804,-4.546686567792296,-4.904425654718279,4.74333463679105,7.0439885369390245
1757089256521333800,3.402333740234375,0.3090547919273376,0.6228378415107727,1.8483155965805051,0.3465712117016315,1.35938398039937,-5.871408984655141,-4.948376440125704,4.6198353906333445,7.095144723680615
1757089256531288600,3.41228857421875,0.1822672635316848,0.8964118957519531,1.6055282354354858,2.601196058863401,0.6152659875184298,-5.676964270919561,-4.974298232367635,4.518351284667849,7.142215686935186
1757089256541244000,3.422243896484375,0.2792180478572845,0.6195629835128784,1.5972028970718384,2.585933607801795,0.4409449011400341,-4.603331415078044,-4.988664026850461,4.422426566395163,7.192061375600099
1757089256551197700,3.43219775390625,0.0888271331787109,0.3039587736129761,1.5624008178710938,0.914708952820301,0.4884653617277741,-6.217240776166319,-5.02689994174242,4.3285190331637855,7.222506198224424
1757089256561152800,3.44215283203125,-0.2460754960775375,0.3748446702957153,1.3130162954330444,2.8773224459856745,0.0045016953334212,-7.253824881073832,-5.064875159871578,4.2616666801184415,7.23571931554079
1757089256571107600,3.452107666015625,-0.4027466475963592,0.5521124601364136,1.125798583030701,4.624453698083758,-0.1000417982026934,-5.920940200543403,-5.084439692041277,4.225101621048152,7.243437342572212
1757089256581062000,3.462061767578125,-0.1676513254642486,0.9092990756034852,0.957800269126892,3.622302024132013,-0.74168492051512,-3.046979339945316,-5.074684021702408,4.194871610218287,7.267806644675135
1757089256591016700,3.4720166015625,0.2494974732398986,0.6621357798576355,0.9105793237686156,2.17862531106472,-2.02098647941798,-1.2393985875815152,-5.049871652007103,4.145391539995372,7.313338561794161
1757089256600971800,3.4819716796875,0.4804611802101135,-0.0921769067645073,0.7079668045043945,1.3827525810271502,-1.8712474611103531,-1.605085418641567,-5.065184371951222,4.075110089284181,7.342191146790981
1757089256610926600,3.491926513671875,0.4921637177467346,-0.2972469925880432,-0.0330302529036998,4.117424797922372,-1.216375731651485,-2.9167636450141665,-5.1002451639384025,4.01893870472908,7.348879830774664
1757089256620880600,3.501880615234375,0.2095280438661575,-0.2496307492256164,-1.2479408979415894,9.88296167078614,-1.1199261127218605,-5.307624178048968,-5.091415376272797,4.02528982732147,7.351524207803607
1757089256630835700,3.511835693359375,0.0243091359734535,-0.6061968207359314,-1.8085260391235352,12.435529015558958,-1.5420429792732,-6.451552220866084,-5.058844063013792,4.098002889093756,7.333815532633662
1757089256640790800,3.521790771484375,0.0602258592844009,-0.2440588623285293,-1.5210648775100708,5.404952333378792,-1.1718421779200434,-3.759952837499976,-5.024873404350877,4.181054097267985,7.310254624304175
1757089256650744600,3.53174462890625,0.1380437761545181,0.5775855779647827,-0.8704093098640442,-2.041635591953993,-0.6567036210611462,-2.389119242325425,-4.960955351191759,4.233491263730824,7.323718501511216
1757089256660699600,3.54169970703125,0.1716392785310745,0.9660808444023132,-0.348457932472229,-2.8275965843081474,-0.2785594594880938,-2.4840023425906894,-4.878141458904743,4.250988926498592,7.369071554931998
1757089256670654700,3.55165478515625,0.2145507186651229,1.2591444253921509,-0.1569780707359314,-0.6055661390200257,-0.597133826239407,-3.0030262164503334,-4.786475274859368,4.2479920827701685,7.430652689576148
1757089256680609800,3.56160986328125,0.2786807119846344,1.4787499904632568,-0.3072658479213714,0.4962152452021837,-1.118315170393884,-2.8486487246870995,-4.675443880608678,4.2397555848225945,7.505670228898524
1757089256690563600,3.5715634765625,0.2567596435546875,1.749164342880249,-0.6295067667961121,0.3314543065905571,-1.6701237080022693,-2.436940147164464,-4.534624958598614,4.240149552576244,7.59135704627335
1757089256700518700,3.5815185546875,0.2343083918094635,1.3241562843322754,-1.008553981781006,-0.3440910853236913,-1.8698209354385733,-2.7752637550026176,-4.380267048318684,4.258036799183488,7.671555787625908
1757089256710473700,3.5914736328125,0.2260573655366897,0.5362499952316284,-1.425238847732544,1.0363462044984102,-1.728079345625639,-1.9262597387582063,-4.25669736727327,4.292269323652983,7.721873769977688
1757089256720427800,3.601427734375,0.1880407333374023,-0.3962550461292267,-1.7914031744003296,1.6231453914672136,-1.3810381783246992,-0.4568979648143053,-4.179853489306569,4.344162007975578,7.734822098878025
1757089256730382600,3.611382568359375,0.2196144312620163,-2.01371169090271,-2.078088521957397,2.9699074984416365,-1.2853326557606457,0.9092430886298416,-4.186610562351346,4.409615892399847,7.694020717412233
1757089256740337700,3.621337646484375,0.524868369102478,-2.9582300186157227,-2.5814099311828613,6.0846817329794165,-1.0444710587650536,1.471679987758398,-4.279154406014085,4.480000803485512,7.6018959759444
1757089256750292700,3.631292724609375,0.66493821144104,-2.2263011932373047,-2.459114789962769,5.770152257704734,-1.3155991992086171,2.4368027845203875,-4.369992907063663,4.5452273088946935,7.510954891303181
1757089256760246800,3.641246826171875,0.4567477107048034,-0.257961630821228,-1.538093328475952,-4.577099533973634,-2.7860604588270186,-0.1481125861495733,-4.36539271979183,4.589792134547233,7.48648914308846
1757089256770201600,3.65120166015625,0.3011273443698883,-0.0267121382057666,-0.7760909795761108,-4.6301107009321445,-2.5271292443946,-1.0639292079508305,-4.318068366298079,4.611730702371895,7.500440511551499
1757089256780156700,3.66115673828125,0.2864197790622711,-0.238638237118721,-0.2684572637081146,0.6140221249371767,-0.6483183622926473,0.4488432531744241,-4.304833329410851,4.612068556024134,7.507837051543593
1757089256790110700,3.67111083984375,0.3357603251934051,-0.1256137937307357,0.1073064133524894,1.0406289963841435,0.9558207154095172,1.210545418062806,-4.31784274084866,4.592143373848498,7.51257986215651
1757089256800065800,3.681065673828125,0.2718077301979065,0.4174531996250152,0.4596511423587799,-0.7402344294458627,1.0033867687046527,1.5225953514814377,-4.32050932970941,4.556249053646624,7.532873877644539
1757089256810020600,3.6910205078125,0.106334701180458,0.8356630206108093,0.699562132358551,-2.4310592724323272,0.0350631300747394,0.6672732381314039,-4.298742026798426,4.516912776297331,7.568930110409855
1757089256819975700,3.7009755859375,0.013232990168035,1.0455504655838013,0.7540013790130615,-2.536771809747815,-0.0737660779565572,0.6316951442718506,-4.259918082885444,4.481192643618583,7.611991253501176
1757089256829929700,3.7109296875,-0.0060119209811091,0.8792592287063599,0.5403664708137512,-1.5660522158920764,0.117027127534151,0.9697703303068876,-4.214299072004854,4.45320456649661,7.653695136764645
1757089256839884800,3.720884765625,0.0501658618450164,0.539445698261261,0.1256143152713775,0.1548001010894775,-0.2225415119290351,0.8186673301696776,-4.176011134664714,4.438281722652912,7.683292402648925
1757089256849839600,3.730839599609375,0.2703703343868255,0.1844611912965774,-0.290238082408905,0.5431242958933115,-0.8939517037346959,1.6225819123655556,-4.143405334614217,4.42794299172908,7.706873769244551
1757089256859793700,3.740793701171875,0.2583760023117065,-0.0335717983543872,-0.7282183766365051,0.4104799125105142,-1.078071715071797,-0.1515799699991941,-4.116554737089574,4.42785911283791,7.721297431394458
1757089256869748700,3.750748779296875,0.1637643277645111,0.0298720654100179,-1.1605417728424072,0.8215554528266191,-0.5281371546417475,-1.9674504118025304,-4.075724129529297,4.450139041446149,7.730144170194864
1757089256879703800,3.760703857421875,0.0977767929434776,0.1325598210096359,-1.5461763143539429,1.0085644636034965,-0.1069347725868225,-1.415257843312621,-4.008948056590556,4.494757935373485,7.739242253407835
1757089256889658600,3.77065869140625,0.0351851843297481,0.1675962060689926,-1.8346937894821167,1.0027101846173403,-0.1987564394548535,-0.8995318419545888,-3.92049382032901,4.5565021516248585,7.748444381517172
1757089256899612700,3.78061279296875,-0.1334237903356552,0.2758313119411468,-1.964848041534424,0.5469216423496603,-0.0209931036680936,-1.3505138607233762,-3.8169521973118186,4.63312332675159,7.754703441911936
1757089256909567700,3.790567626953125,-0.508508026599884,0.2290847450494766,-1.8609399795532229,-0.3877268134325742,1.167465570271015,-3.244285288330913,-3.707105921192467,4.7291538434863085,7.750022590619325
1757089256919522800,3.800522705078125,-0.9494279026985168,0.2358651608228683,-1.6881178617477417,0.5397247165828943,1.3883791887372732,-3.3420243625491857,-3.605050737340748,4.849563306935131,7.723712675842642
1757089256929476900,3.810476806640625,-1.4828858375549316,0.438838243484497,-1.524184226989746,1.9677914803251624,0.9622101241856812,-3.066443334349989,-3.50187619407028,4.999501062685251,7.675429998710751
1757089256939431700,3.820431640625,-1.9343228340148928,0.8567188382148743,-1.2759305238723757,2.500327746708691,1.0461755245953797,-3.6215427301973104,-3.381393665385246,5.178598569685221,7.610431749099493
1757089256949386800,3.83038671875,-2.2093617916107178,1.2412421703338623,-0.8387468457221985,1.4375760581046342,1.0714613570213318,-3.3656033910572525,-3.2459464995414016,5.371185672855377,7.535554495030641
1757089256959341800,3.840341796875,-2.225305795669556,1.6236169338226318,-0.3333433270454407,-0.0126572369992733,1.5379291142135858,-2.384900747847557,-3.106838180841505,5.556539317640662,7.459411166548729
1757089256969295600,3.850295654296875,-1.9593874216079712,1.9940229654312132,0.2385494858026504,-1.544146673554182,2.28776548474133,-0.6727303344935178,-2.969821281462908,5.7142550139158965,7.395798233816027
1757089256979250700,3.860250732421875,-1.4162380695343018,2.251544952392578,0.7717193961143494,-3.4280946262836456,2.164066624358296,1.856563102197647,-2.843815605442226,5.822690838715434,7.360664376592636
1757089256989205800,3.870205810546875,-1.20841383934021,2.3645501136779785,0.8882390856742859,-2.373653962168097,1.301315822312236,2.4902742624670267,-2.7244989056661724,5.893110528853535,7.349744923171401
1757089256999160800,3.880160888671875,-1.0136102437973022,2.370877742767334,0.9410961866378784,-0.8479922088533639,0.1182277354955673,0.7972071935117244,-2.606092306472361,5.950774197793007,7.34622084069848
1757089257009114600,3.890114501953125,-0.9649943113327026,2.6765825748443604,0.695701539516449,-0.9872542568102478,-0.1333364573001861,2.30052209046185,-2.4720675746470686,5.999878128179907,7.352599143558741
1757089257019069700,3.900069580078125,-1.0494122505187988,2.8365042209625244,0.4786196053028106,0.7102431958079337,-0.0701332744121551,0.6356944430410861,-2.3041830971874298,6.060575465726852,7.357347799390554
1757089257029024800,3.910024658203125,-1.0913314819335938,2.975590705871582,0.3460514843463897,-0.1739811868995428,0.4739806170403957,1.8463848225325343,-2.1159230634361506,6.129527421399951,7.35677672150433
1757089257038978800,3.919978759765625,-1.104451298713684,2.9320738315582275,0.4011954367160797,-0.7642658778965473,-0.4255506403923034,3.091946024397016,-1.9205317165002225,6.202908883953094,7.3488681403368705
1757089257048933600,3.92993359375,-1.0900441408157349,2.319169521331787,0.4186398983001709,-1.1155666023381057,-1.360572313401103,4.692605443289875,-1.7519386523798106,6.275569046494365,7.329280227291584
1757089257058888700,3.939888671875,-1.174780249595642,1.042155385017395,0.2011416554450988,1.237435178554058,-2.611862414306402,5.362736993461847,-1.6471430837787686,6.351306716784834,7.288224578803777
1757089257068843800,3.94984375,-1.486753225326538,-0.0817635655403137,-0.0176313240081071,3.5129034917801616,-4.407443516796827,4.036390774789452,-1.62088592210263,6.445208989319205,7.21126934941709
1757089257078797800,3.9597978515625,-1.7651833295822144,-0.5190961360931396,-0.115524061024189,1.824206162341684,-5.493384065547585,2.7426655537366864,-1.639852634509653,6.563143294826149,7.099748418083786
1757089257088752600,3.969752685546875,-1.4736067056655884,-0.7396004796028137,-0.1917784959077835,0.8874820693291723,-4.059010018354655,3.3803491247683763,-1.6739774608209728,6.683503950697183,6.978463633105158
1757089257098707700,3.979707763671875,-0.8908095359802246,-0.7780703902244568,-0.2788366973400116,1.9718525922842325,3.028894232678413,4.45667428843379,-1.711931928423047,6.768477066844701,6.886753317657113
1757089257108661800,3.989661865234375,-0.4312108159065246,-0.5659534931182861,-0.2951099574565887,0.143349901792407,4.044527904015779,1.018705333867669,-1.7387861792095003,6.817366477698087,6.831582634577154
1757089257118616800,3.999616943359375,-0.2102709859609604,-0.1488435566425323,-0.1311039626598358,0.5382559592045844,4.955951259294152,-2.8909429750591515,-1.7482257693365215,6.842374662226439,6.804115366458892
1757089257128571600,4.009571533203125,-0.1633535474538803,0.4552673697471618,0.3691527247428894,-0.5100378727190196,5.8264031372368335,-5.878513848224282,-1.744851032206416,6.852689720013737,6.794594673919677
1757089257138526700,4.019526611328125,-0.1125862374901771,0.9968826770782472,0.9267211556434632,-1.15598672940135,4.576563235139846,-6.602281126993894,-1.7400994537651535,6.850811651182174,6.797707837504148
1757089257148480800,4.029480712890625,-0.0262025669217109,1.1776522397994995,1.2708165645599363,0.0999994203656911,1.9084926113992928,-5.2635389526069165,-1.740625961857289,6.83617931471765,6.81228815152049
1757089257158435800,4.039435791015625,-0.1599481105804443,1.2931591272354126,1.5296618938446045,-0.2565449038177728,0.3194441353231668,-5.044059166336059,-1.7520407975800334,6.8163242751687765,6.829235779190063
1757089257168390700,4.049390625,-0.2951661944389343,1.1415126323699951,1.5376721620559692,-1.8904962053291496,-0.81920392126441,-6.020274434998632,-1.773231031255424,6.805006762340664,6.835050602948665
1757089257178344700,4.0593447265625,-0.3712226152420044,0.8589176535606384,1.2346470355987549,-1.0986943779923022,-0.1606798067778349,-4.052690167683362,-1.8005341948531568,6.802644709384441,6.830264537715912
1757089257188299800,4.0692998046875,-0.5256875157356262,0.6745662689208984,0.8115426898002625,-1.1822229944199325,0.4062701858609914,-2.5893951464325187,-1.8174125566788015,6.814193108358979,6.814263250985741
1757089257198254800,4.0792548828125,-0.7835467457771301,0.3443534672260284,0.42935511469841,-1.8911884253770117,0.0977671312689781,-1.4541571905493735,-1.8240137085095047,6.847063696825504,6.779460233151912
1757089257208209000,4.089208984375,-1.0198572874069214,-0.0732974931597709,0.0540670156478881,-1.2679916448593138,-0.3152741561621427,-0.4703367075800895,-1.8324995050430295,6.903668212100863,6.719502315795421
1757089257218163700,4.099163818359375,-1.0736757516860962,-0.0510997809469699,-0.4530534446239471,0.6141935359813273,-0.1269224986046552,0.7598422162353992,-1.8262579803049563,6.977780911538004,6.644225833275914
1757089257228118800,4.109118896484375,-0.9718350172042848,0.5094781517982483,-0.9744573831558228,2.5188421853035687,0.9006552930265664,1.5718360599905252,-1.761975477747619,7.058119938144087,6.576379793018102
1757089257238073900,4.119073974609375,-1.0152077674865725,1.2573137283325195,-1.0635493993759155,1.657949432214349,1.4690063846349717,0.3731774790763855,-1.6296682173646986,7.139644959664344,6.522273524299264
1757089257248028000,4.12902783203125,-1.2552756071090698,1.5682883262634275,-0.8494011163711548,-2.17308638163805,0.9773819743543862,-1.6230378394395113,-1.4671477511562403,7.227247839793563,6.464113596275449
1757089257257982700,4.138982666015625,-1.585430145263672,1.3373866081237793,-0.6709922552108765,-1.058852781469375,0.5624743085294962,-1.573065309524536,-1.3175418577089906,7.3283660350561135,6.381970150595903
1757089257267937500,4.1489375,-2.007906198501587,0.9875655174255372,-0.4218195378780365,-0.3168338066942989,0.5536135412037372,-0.793869573521614,-1.2036339581739155,7.448108266767859,6.264771173626184
1757089257277892900,4.158892822265625,-2.4129478931427,0.699903666973114,-0.1637800186872482,-0.6273540463276207,0.4686708201944827,0.2770622066676616,-1.1308876517191528,7.587818935275077,6.108723118302226
1757089257287847000,4.168846923828125,-2.678076982498169,0.602214515209198,-0.0260979644954204,-0.1944178257286548,0.1954664579987526,1.2754425453871487,-1.0857316552404317,7.742060233438014,5.92048018181622
1757089257297801700,4.1788017578125,-2.7005114555358887,0.4523514807224273,0.0063159014098346,0.5398340221762656,-0.3023948008447885,1.5606009647488592,-1.0541384662985802,7.89874775570929,5.715677155673504
1757089257307756500,4.188756591796875,-2.425504207611084,0.2814172506332397,-0.0352185927331447,0.6979057653475552,-1.0993138250648975,1.7207909421831369,-1.0333931999117136,8.043395880618691,5.514186615079641
1757089257317710600,4.198710693359375,-1.8228693008422847,0.2764981091022491,-0.1834701150655746,0.6571364595204592,-2.1065572691977024,2.989206949934363,-1.010580625731498,8.16014652929902,5.344260256528854
1757089257327666000,4.208666015625,-1.0677658319473269,0.3131484389305115,-0.3934166729450226,0.2750730786770582,-2.786944255924225,4.480701645231247,-0.971486340444535,8.239289039596915,5.228834134450555
1757089257337620700,4.218620849609375,-0.4315712749958038,0.2268809378147125,-0.5645751357078552,-0.1187882189225405,-2.7987983598470687,4.958872699698806,-0.9173025495100766,8.28151957708299,5.171592490315437
1757089257347575600,4.228575439453125,-0.1511737704277038,0.0776532590389251,-0.6723607778549194,-0.2281242074321955,-1.9798329235136507,3.5541035171747204,-0.8580953043904155,8.300823997011781,5.150764221820235
1757089257357529600,4.238529541015625,-0.0971717908978462,-0.0119218928739428,-0.8098443150520325,0.447636799994111,-0.9389438148885964,2.203398517793417,-0.7961424868896603,8.312785652962326,5.141413625150919
1757089257367485000,4.24848486328125,-0.2762150764465332,0.5624355673789978,-0.9126818180084229,0.6527064411837608,-0.7628671170145273,1.7418232088178396,-0.7130103954989463,8.328392971938849,5.12833787047863
1757089257377439700,4.258439697265625,-0.680365264415741,1.6149061918258667,-1.1574656963348389,-0.1268394599637016,-1.900998456251621,0.7669289596259593,-0.5710701413087547,8.359207212397456,5.095871771159768
1757089257387393800,4.268393798828125,-1.0542956590652466,1.740418553352356,-1.5787370204925537,2.096393602579832,-3.231335790386796,0.6718857003629207,-0.3694261637188494,8.409096155682205,5.032000479751825
1757089257397348600,4.2783486328125,-1.45017671585083,1.4128267765045166,-1.789401888847351,3.2719933794677254,-4.452136645004153,0.5106991131067276,-0.1471112727530766,8.47574217250049,4.930573072409629
1757089257407304000,4.288303955078125,-1.680934190750122,0.6741865873336792,-1.6643339395523071,2.9063234995424745,-5.553721922132373,0.277028012137115,0.0541070085043553,8.553207689496874,4.796883856149018
1757089257417258800,4.2982587890625,-1.5796771049499512,-0.6010127067565918,-1.0001407861709597,2.862974187159538,-4.190843085354566,0.3154363609865308,0.1727241360431537,8.629244634994864,4.655824695642292
1757089257427212800,4.308212890625,-1.398973822593689,-0.9003164172172546,-0.1244344487786293,0.1999251909732818,-0.7090829198569059,-0.0682794632390141,0.1816508264782838,8.695840967452526,4.529874256940186
1757089257437167600,4.318167724609375,-1.4063351154327393,-0.3835779428482055,0.20725879073143,-2.308095740586519,1.9585539886415004,-0.4369064394041895,0.1444855547588318,8.758042864343523,4.409784819225966
1757089257447122700,4.328122802734375,-1.462291240692139,-0.0198086835443973,-0.1297511160373687,0.08198388946997,3.1259552615046498,-0.901195098991692,0.1316981337749399,8.820064728492499,4.284801179729402
1757089257457076700,4.33807666015625,-1.5510224103927612,-0.4247532188892364,-0.3914112150669098,1.4603846867620944,2.618404383295774,-1.8208754104837772,0.1495667578801047,8.88289147928357,4.152378914664686
1757089257467031800,4.34803173828125,-1.6262805461883545,-1.0038909912109375,-0.3706846833229065,-0.3647778995215892,2.2997896845340726,-2.07654353146702,0.1545374680979177,8.946972029528022,4.012254989181459
1757089257476986600,4.357986572265625,-1.5336419343948364,-1.0484682321548462,-0.192906454205513,-1.260673430800438,1.914339583861828,-1.4468635264098644,0.1386901937525253,9.009055268475413,3.871441035607457
1757089257486941700,4.367941650390625,-1.2202996015548706,-0.6756683588027954,0.0754449442028999,-1.9567150827765465,0.6307260069787501,-0.5023796130508185,0.1112350818629376,9.061600863748788,3.747719963392615
1757089257496895700,4.377895751953125,-0.9191905856132508,-0.5978841185569763,0.2496095597743988,-1.1918904019534586,-1.052608187991381,0.0197357970833778,0.073050399401295,9.100717068606617,3.652669982127845
1757089257506851000,4.38785107421875,-0.8677903413772583,-0.5751537084579468,0.3018292784690857,0.5943488716959953,-2.3598154064297674,-0.8030959592893719,0.0260482293499051,9.13241218355298,3.573336625432968
1757089257516806000,4.397805908203125,-0.9577248096466064,0.0210447143763303,0.3509595394134521,0.244283972659707,-2.539668700233101,-1.6099898495569824,-0.0150393395129707,9.164422940319776,3.490484739223122
1757089257526760000,4.407760009765625,-1.1733485460281372,0.5119481682777405,0.2958509027957916,-1.702356290826201,-2.211947150430083,-1.442117208665609,-0.0349365080203861,9.200321936696769,3.394588370262086
1757089257536714800,4.41771484375,-1.5838574171066284,0.5089023113250732,0.1580125987529754,-0.4343868577986955,-2.39699976644218,-1.7155460272669791,-0.0383180356508819,9.245911721482871,3.268335149221122
1757089257546670000,4.427670166015625,-1.9124391078948972,0.4113723337650299,0.1059629470109939,0.0882622208207845,-2.343134320741892,-1.831338644570112,-0.0349909713041153,9.301583339822292,3.10640095846802
1757089257556625000,4.437625,-2.12851881980896,0.3457336723804474,0.1694330126047134,0.0584176976105896,-2.835733713534474,-1.5415332761853933,-0.0364206867301138,9.36232860816419,2.9181998152971267
1757089257566579000,4.447578857421875,-2.148124933242798,0.5311614274978638,0.3054985702037811,-0.1660515629440546,-3.408684407892823,-1.589712785203755,-0.0456855230784276,9.422619118475913,2.717082199668884
1757089257576533800,4.45753369140625,-2.0686452388763428,0.9752342104911804,0.4577395021915436,-0.4026227692693471,-4.277495532891154,-1.340581372512877,-0.0631988537727855,9.47740167902112,2.518977209860086
1757089257586489000,4.467489013671875,-1.9167567491531368,1.5895452499389648,0.502554178237915,-0.1176145629001315,-5.443479924693703,-1.1961853226684034,-0.0782612156850285,9.5252938955307,2.330887271978706
1757089257596443000,4.47744287109375,-1.7644433975219729,2.224519729614258,0.4469590783119201,0.2756704600483179,-6.669608696335554,-0.9931940221227704,-0.0811415751606225,9.565994154709577,2.157673708450794
1757089257606398000,4.48739794921875,-1.71895432472229,2.47705340385437,0.1980039626359939,0.1575198814421892,-7.446228444370627,-0.6078614103503525,-0.0642958369629457,9.601457682278753,1.994552792131156
1757089257616352800,4.497352783203125,-1.9214565753936768,1.4654361009597778,-0.6359169483184814,0.5394412234663963,-7.205646248838305,-0.3184147922754287,-0.0046365914549533,9.635909986978769,1.821973142592609
1757089257626307800,4.507307861328125,-2.079488515853882,1.1405367851257324,-0.9070587158203124,1.3608487922549246,-7.615860203889012,-0.8544011991128325,0.0942271845066454,9.670085228303074,1.6281772481545804
1757089257636262000,4.517261962890625,-2.08963942527771,1.435261368751526,-0.8891497254371643,0.2676455772911198,-8.39195037509203,-1.4036302416220308,0.2005709780635312,9.700532389014958,1.42472928988263
1757089257646217000,4.527217041015625,-2.0582408905029297,1.6731536388397217,-0.7749964594841003,0.1044821187376976,-8.384381401142477,-1.2478095653131605,0.3023823797546326,9.725732881245015,1.2202763192865995
1757089257656171800,4.537171875,-2.0057854652404785,1.8575873374938965,-0.6056945323944092,-0.6488146213769912,-8.115878933027386,-0.8739925462242215,0.3884453734980896,9.746030403864385,1.017045949288085
1757089257666125800,4.547125732421875,-1.8612006902694704,2.039323091506958,-0.4907821416854858,-0.5322012988081202,-7.355167532742023,-0.2935344719104468,0.4594774964461103,9.761491592368484,0.8201094187367707
1757089257676081000,4.557080810546875,-1.5180447101593018,2.4642422199249268,-0.3316945135593414,-0.3446316950064152,-4.89670412055552,1.9877800831258297,0.5182115345634519,9.771748782488704,0.6440463840618729
1757089257686036000,4.567035888671875,-3.0029826164245605,3.4648609161376958,-0.5513808727264404,-1.333766724061966,7.043256131011248,3.9035856478869913,0.5719614641252905,9.7804996596992,0.4302185956707224
1757089257695990800,4.57699072265625,-7.381313323974609,3.114327907562256,-0.7235696911811829,3.325855902558565,47.13382507667541,-5.962042026260495,0.6482197972889989,9.784726337483525,-0.0966346749066375
1757089257705944800,4.58694482421875,-8.29728889465332,1.8856356143951416,0.0034379663411527,2.90233939834237,53.37434911327362,-5.60559239462316,0.6747475926000625,9.741893157929182,-0.900351195513457
1757089257715900000,4.59689990234375,-7.044361114501953,0.6815427541732788,0.7604633569717407,-1.701960715637356,14.804337875783444,10.724908169734478,0.619781565246731,9.64644482499659,-1.6529783658035098
1757089257725855000,4.60685498046875,-5.7978835105896,0.3692781031131744,0.9863783717155457,-0.6901122619271278,0.5135626858443022,10.833799921607971,0.5243135412329808,9.526521976020932,-2.267346089307964
1757089257735808800,4.616808837890625,-4.627597808837891,0.7309896945953369,0.659761905670166,0.8695651582360268,-3.0206781929969786,6.798329768794774,0.4304859779026359,9.400028516483308,-2.761256564699113
1757089257745763800,4.626763916015625,-3.5874485969543457,1.5510448217391968,-0.0439190194010734,1.816688187927008,-2.700458397126197,5.3457794289201495,0.3675721698826178,9.28122035075128,-3.145507810975611
1757089257755719000,4.636718994140625,-1.4375486373901367,1.8709557056427,-0.4539709985256195,1.887919194447994,-1.1845891390293837,2.2708988133534787,0.3361449851574376,9.190948543673754,-3.4035055439502
1757089257765674000,4.646674072265625,1.6979159116744995,0.7409216165542603,-0.3333156108856201,1.5780992120385169,1.709356524977088,0.6674924338400363,0.3273858150426298,9.19653131224215,-3.389250808626413
1757089257775627800,4.656627685546875,2.175309896469116,-0.0795599594712257,-0.2259233742952346,-0.0887363046059385,0.0399994174331426,-4.443696733438968,0.3435688515478745,9.265064750242232,-3.1954522838398813
1757089257785582800,4.666582763671875,0.8597521185874939,-0.4798753559589386,-0.0480376780033111,-3.009966244846582,-3.2491654615879058,-10.626762268280984,0.3655706938670948,9.313378407034277,-3.0492163052171466
1757089257795538000,4.676537841796875,-0.2558801174163818,-0.1419063359498977,-0.0629884004592895,-3.2827637798070906,-3.1948996183931824,-10.181734189480542,0.3802436911355704,9.319866015487907,-3.0275249901518224
1757089257805492000,4.686491943359375,-0.2035426646471023,0.4312639832496643,-0.1115815490484237,-1.2157529235780238,-2.5599884346842763,-3.3309649161353705,0.3840670488160103,9.311337841117382,-3.05317381067127
1757089257815446800,4.69644677734375,-0.0515664331614971,0.6165568828582764,-0.0610722936689853,-0.2309352097323164,-0.9937690455317496,0.6997212172716856,0.3756352474920451,9.307635479468107,-3.06549173271358
1757089257825401900,4.70640185546875,-0.0875346958637237,0.4555188417434692,0.0399918593466281,0.2296141902616247,0.0195317989438772,0.122581254529953,0.3599580781497061,9.305583807635308,-3.073584146015346
1757089257835357000,4.71635693359375,-0.1207882612943649,0.1589489579200744,0.1401424258947372,0.63246086794734,0.4272054218620061,0.5921925704449414,0.3419789885405451,9.302680487409232,-3.084406861063838
1757089257845311000,4.72631103515625,-0.1690172553062439,-0.1326151490211486,0.2332873344421386,0.9062719638645648,0.4478787920564412,1.1716501624792814,0.3243479086514562,9.298915581917765,-3.09763546821028
1757089257855265800,4.736265869140625,-0.2068115025758743,-0.3761835992336273,0.3193045258522033,0.8744646207153797,0.6185165137469768,1.0728460893779992,0.3067742215054109,9.293926687589288,-3.114351625211537
1757089257865220900,4.746220947265625,-0.2303183674812317,-0.5305563807487488,0.3938153088092804,0.6132440532367676,0.6233990250915289,1.1072378960624336,0.2880234534040093,9.288145181578397,-3.1333304664477706
1757089257875174700,4.756174560546875,-0.2165649980306625,-0.63694167137146,0.4638993144035339,0.3223111786594614,0.7390963653266429,0.910367124223709,0.2666627402662299,9.28228242702484,-3.1525366866990923
1757089257885130000,4.7661298828125,-0.1757688373327255,-0.6997089385986328,0.5125949382781982,0.150425521000754,0.6008119302302598,0.6636907034695148,0.2425224794125184,9.277364844366907,-3.1689231733545657
1757089257895084800,4.776084716796875,-0.1180900856852531,-0.7467230558395386,0.5446855425834656,0.0028770167410373,0.5311076948851347,0.045722471255064,0.216641421039775,9.273896875995398,-3.1809295452296733
1757089257905040000,4.786039794921875,-0.0533584766089916,-0.7427322268486023,0.5448125600814819,-0.1479050991450436,0.1193681377023458,-0.3514382332161068,0.189654282854963,9.272336787071824,-3.1871915282338854
1757089257914993700,4.79599365234375,-0.0103212613612413,-0.6613481640815735,0.4955933392047882,-0.2692447926486842,-0.1900532007783651,-0.7835735126957297,0.1639005041236989,9.272308730021118,-3.188706608971953
1757089257924949000,4.805948974609375,0.0015413814689964,-0.516412615776062,0.4256269037723541,-0.3705705114483833,-0.4446697668820619,-1.2394713605567813,0.1401284920604899,9.272989113500714,-3.187856421883404
1757089257934903800,4.81590380859375,-0.0282063949853181,-0.390412837266922,0.3917940855026245,-0.5171136563241482,-0.6212818868070841,-1.313459849092364,0.1169832883924245,9.273178498592973,-3.1882378224164247
1757089257944859000,4.82585888671875,-0.0913511738181114,-0.2672685086727142,0.3890381157398224,-0.7122492749333381,-0.4903957452684641,-1.2175851074412465,0.091552750266157,9.27172771526277,-3.19328224632442
1757089257954812700,4.835812744140625,-0.1192903965711593,-0.1001748517155647,0.3873240947723388,-0.6179273156821727,-0.2848164740562439,-0.8150245897531508,0.0614246563076507,9.268609290981292,-3.2030443464040754
1757089257964768000,4.84576806640625,-0.0849826782941818,0.0407731942832469,0.3401673138141632,-0.4338227941751479,0.0780874482870101,-0.4848652914091944,0.0283054382587433,9.265434168076515,-3.212679897494614
1757089257974722800,4.855722900390625,-0.0344947315752506,0.0719819813966751,0.2502448856830597,-0.3397106782823801,0.3759054427355527,-0.409273751591146,-0.0011636564311997,9.26359935386479,-3.218091401149332
1757089257984676900,4.8656767578125,0.0047313813120126,0.0203381162136793,0.1266692876815796,-0.2958037320166826,0.1959650551706552,-0.4143979627370834,-0.0202306998942745,9.26322584437728,-3.219102039496601
1757089257994631700,4.875631591796875,0.0069386092945933,-0.064670518040657,0.0079679423943161,-0.2276718605548143,-0.0687386051833629,-0.3273138457849621,-0.0256644450635532,9.26336963676214,-3.218648158249259
1757089258004587000,4.8855869140625,0.0177960637956857,-0.1170014217495918,-0.0792577490210533,-0.1170060847461223,-0.0682733257591724,-0.0245996037274599,-0.0191642305733868,9.2638027674824,-3.217448427070677
1757089258014541800,4.895541748046875,0.0206704139709472,-0.1375423818826675,-0.1214978769421577,-0.0248053554326295,0.0458148257136344,0.1518503113731741,-0.0055708720638038,9.264486658093332,-3.215530610750615
1757089258024495900,4.905495849609375,0.016397500410676,-0.1631493866443634,-0.1204431504011154,0.0931973391354084,0.0983656816840171,0.1434606686905026,0.0105019301204185,9.265057735979555,-3.213874660237133
1757089258034450700,4.91545068359375,0.0135737499222159,-0.1694448292255401,-0.1039350181818008,0.2271171492815017,0.1491904445141554,0.1883122023299336,0.0262197888078168,9.265559255760907,-3.212338536711037
1757089258044406000,4.925406005859375,0.0074950270354747,-0.1559866070747375,-0.0716365203261375,0.3583551729977131,0.1653407843261957,0.2205003614902496,0.0396812548620626,9.26586963688433,-3.21130744009763
1757089258054359800,4.93535986328125,0.0051919249817729,-0.1314799338579177,-0.0300946719944477,0.4087608336329459,0.1775526156455278,0.2981812748029828,0.0489809935603989,9.2660753885895,-3.210577664518356
1757089258064315000,4.94531494140625,0.000694413552992,-0.1027642637491226,0.0133423237130045,0.4121101440608501,0.1949561703890562,0.3548223226964473,0.053412984658475,9.266178848963976,-3.21020678537935
1757089258074269700,4.955269775390625,-0.0044401613995432,-0.0927707478404045,0.0442837290465831,0.3359083633899689,0.2256523374259471,0.3466463227644562,0.0537474544769618,9.266159559741617,-3.210260853654146
1757089258084225000,4.96522509765625,-0.0077475630678236,-0.0894758105278015,0.0550543293356895,0.2319020454704761,0.2478419574022293,0.3009975012674927,0.0518112987826112,9.26596608299613,-3.210850343979895
1757089258094178800,4.9751787109375,-0.0128070376813411,-0.0685412362217903,0.0451303273439407,0.0871744255840778,0.2249409742861986,0.3054699705064296,0.0495938510620035,9.265674406573176,-3.211731510728597
1757089258104134000,4.9851337890625,-0.0162350535392761,-0.0351892784237861,0.01641053147614,-0.0303951336971251,0.2061906811088323,0.3403165352210402,0.048501114788698,9.265272255513072,-3.2129099068582057
1757089258114088700,4.995088623046875,-0.0128754749894142,0.0093467626720666,-0.0278474763035774,-0.1375672267377376,0.1914846948862075,0.3860653099611401,0.0497303780224407,9.26486367471218,-3.2140663834169505
1757089258124042800,5.005042724609375,-0.0076493709348142,0.0535901449620723,-0.0735332891345024,-0.2260731931865215,0.1782522883474826,0.43051790741086,0.0538408409819938,9.264628696912526,-3.214675162965059
1757089258133997800,5.014997802734375,0.0051050400361418,0.0909154117107391,-0.1105845123529434,-0.2639139712810516,0.2173293302386999,0.4273346011996269,0.0607064250356983,9.264756122684478,-3.2141853336215016
1757089258143953000,5.024952880859375,0.0087157124653458,0.1268444061279297,-0.138260930776596,-0.2241021853744983,0.1260994917839765,0.3710863520160317,0.069526134265284,9.265157104700805,-3.212853792756796
1757089258153907700,5.03490771484375,0.0084917405620217,0.1500330716371536,-0.1438205391168594,-0.1596703192080371,0.0622363836824893,0.3286658449158072,0.0788656935173552,9.26557503785193,-3.211434865869581
1757089258163861800,5.04486181640625,0.0169957242906093,0.1431944221258163,-0.1269869804382324,-0.1208487316489219,0.1019166521638631,0.3308405586063861,0.0871807000612374,9.266145531216264,-3.209568779736757
1757089258173816800,5.05481689453125,0.0186961516737937,0.1364283859729766,-0.0995353907346725,-0.0964355995374266,0.1626958227753639,0.3240945914775133,0.0932930363285355,9.266866246706249,-3.207311940720677
1757089258183772000,5.06477197265625,0.0160023123025894,0.1064077094197273,-0.0745510011911392,-0.0931856578307692,0.1939876176178455,0.2905924271091819,0.0972261562600731,9.267597483590244,-3.205083743277192
1757089258193726000,5.074725830078125,0.0195688176900148,0.068150870501995,-0.05986899882555,-0.1057879406392574,0.1285281802356243,0.2534215111002326,0.1002513858327642,9.268414060670136,-3.202629043601453
1757089258203680800,5.0846806640625,0.0182195100933313,0.0430666655302047,-0.055690374225378,-0.1441734931349754,0.0531207648128271,0.1522992241844535,0.1031732098299078,9.269301949420573,-3.1999682999596
1757089258213635800,5.0946357421875,0.0220512673258781,-0.0005609740037471,-0.0645158216357231,-0.2251870580017566,0.0919417861163616,-0.0233677238449454,0.1072722700460348,9.270285115239025,-3.19698314666897
1757089258223591000,5.1045908203125,0.0184113401919603,0.0088857691735029,-0.0832497477531433,-0.3255015356659889,0.0442032988637685,-0.1614689113289117,0.1134648593421559,9.27118586347103,-3.194154352983832
1757089258233544700,5.114544677734375,0.0101712550967931,0.0208452269434928,-0.0915042161941528,-0.549703089761734,-0.1134802487075328,-0.26482144151479,0.1205419946541544,9.271749342572688,-3.19225582588613
1757089258243499800,5.124499755859375,0.0035277572460472,0.0114066414535045,-0.0957830920815467,-0.5848737718641758,-0.1169628301262855,-0.3123632371515035,0.128628590136487,9.272091872400043,-3.190952634333074
1757089258253454800,5.134454833984375,-0.0017626124899834,0.0015055411495268,-0.0884567350149154,-0.518479099458456,-0.0569166499644517,-0.3751213066205382,0.1369034838656894,9.272198839905858,-3.190293878163397
1757089258263409000,5.144408935546875,-0.0173161998391151,-0.0246328525245189,-0.0708928406238555,-0.5457669193565845,-0.1760328587323427,-0.2548851539120078,0.1444387747413478,9.271904240873456,-3.1908196556031703
1757089258273363700,5.15436376953125,-0.0380608923733234,-0.0300417318940162,-0.0537617951631546,-0.5248562332749367,-0.1997311297059059,-0.2470528528511524,0.1509123364033177,9.271061944830418,-3.1929657277211545
1757089258283318800,5.16431884765625,-0.0446092449128627,-0.0885844454169273,-0.039659209549427,-0.5356032527387142,-0.1024380456894636,-0.0525479333609342,0.1565707274911925,9.269687733867764,-3.196683286939561
1757089258293273900,5.17427392578125,-0.0526203028857708,-0.1572031825780868,-0.0317240543663501,-0.4982312611997127,-0.1739034454882145,0.1030614382848143,0.1633426145126111,9.26812881398797,-3.200858819058537
1757089258303228000,5.184227783203125,-0.0488223135471344,-0.1716579049825668,-0.0174960680305957,-0.5162310282707214,-0.1084498533248901,0.1945882138594984,0.1701191959754563,9.266422010070086,-3.205446731370688
1757089258313182700,5.1941826171875,-0.0493584088981151,-0.1559820026159286,-0.004928876645863,-0.5399006576716899,0.0881844794094562,0.1076551958158612,0.175233433716651,9.264614668387177,-3.2103909097746013
1757089258323137800,5.2041376953125,-0.0447464883327484,-0.1161333546042442,0.0079769343137741,-0.6069523326814175,0.0539987166911363,0.0563707065194845,0.1779417610935866,9.26288682168126,-3.2152205218881367
1757089258333092900,5.2140927734375,-0.0579190179705619,-0.0807636454701423,0.0188972260802984,-0.587490128375031,0.0427735583215951,0.003879179520905,0.1783808831632137,9.260942701876164,-3.2207878006264568
1757089258343047000,5.224046875,-0.0502839758992195,-0.0488342866301536,0.0255950987339019,-0.47003743237257,0.050349546533823,0.1015726610317826,0.1767477107371203,9.259054696172475,-3.226305395004153
1757089258353001700,5.234001708984375,-0.0594689510762691,-0.0225779134780168,0.0294391028583049,-0.3401742041409015,0.0622334610730409,0.0696332159355282,0.1737773714231327,9.257046863481404,-3.232223971398174
1757089258362956800,5.243956787109375,-0.0606455020606517,-0.0107464985921978,0.030486287549138,-0.152417589867115,0.0750882664710283,0.0582964138850569,0.1700752472358755,9.255115603157876,-3.2379458561763164
1757089258372910800,5.253910888671875,-0.0638631358742713,-0.0075208782218396,0.0275690611451864,-0.0077717847789637,0.1162087968885898,0.0777320589780807,0.1662381350247189,9.253201293969154,-3.243615133984387
1757089258382866000,5.263865966796875,-0.0643736869096756,-0.008010028861463,0.0176921710371971,0.1168833351492881,0.1947089176297187,0.0946305868089199,0.1632384965510107,9.251314457309244,-3.249140911668539
1757089258392820700,5.27382080078125,-0.0647819489240646,-0.0056272982619702,0.0040543898940086,0.2224666931271552,0.2472609426438808,0.1522507088676095,0.1616532731861807,9.249339942365884,-3.2548367852225897
1757089258402775800,5.28377587890625,-0.0585695952177047,-0.0113110169768333,-0.0145187620073556,0.2477835052132606,0.2945826657891273,0.2207274482443928,0.1616243941515684,9.247358413159846,-3.260465731020272
1757089258412729900,5.293729736328125,-0.0489169657230377,-0.027025531977415,-0.0391530022025108,0.2783879023134708,0.3210305277317762,0.2468333648815751,0.1640907659987918,9.24560075583756,-3.265323107923567
1757089258422685000,5.303684814453125,-0.0447011739015579,-0.0511596910655498,-0.0716552734375,0.3002969517827034,0.3103273474097252,0.2160994961827993,0.1700138907037675,9.244033652651307,-3.269454800900817
1757089258432639700,5.3136396484375,-0.0425296314060688,-0.0602650381624698,-0.0978783518075943,0.2546668349862098,0.3088753950357437,0.1588973072752356,0.1794320727165788,9.242492852950097,-3.2733047543272376
1757089258442593800,5.32359375,-0.0393514148890972,-0.0529145188629627,-0.1212153732776641,0.2080266826306469,0.2985819645583629,0.1329033265799284,0.1913557347442954,9.240966081774234,-3.2769393114373084
1757089258452548900,5.333548828125,-0.0382994674146175,-0.0248277559876441,-0.1357916444540023,0.1657213080763816,0.2777677245885133,0.1573874872341752,0.2044826898808591,9.2394831497401,-3.280324277700484
1757089258462504000,5.34350390625,-0.038547333329916,0.0011224627960473,-0.1432862430810928,0.1075403372645378,0.2430477088630199,0.1794400368273258,0.2177722699669189,9.23799028083384,-3.283672126823664
1757089258472458800,5.353458740234375,-0.0365297198295593,0.035969391465187,-0.1591581553220749,0.1301706684793345,0.1447270353645086,0.2539309219270944,0.2312038340732455,9.236502672624589,-3.286935220272839
1757089258482413000,5.3634130859375,-0.0375894084572792,0.061032872647047,-0.1693982928991317,0.1495978197386488,0.0896136354297399,0.3478334867224097,0.2449966875063255,9.235052473816276,-3.2900077595859765
1757089258492368100,5.3733681640625,-0.0387438908219337,0.0816380158066749,-0.176087349653244,0.1416226396083831,0.0937783538937568,0.4764373625427484,0.2589572987217456,9.233581816741824,-3.2930659781128164
1757089258502323200,5.3833232421875,-0.0381177924573421,0.106868214905262,-0.1797851622104644,0.1374024280974641,0.11430617813766,0.5780564930647611,0.2727539515471086,9.23206030626297,-3.2962235653609038
1757089258512278000,5.393278076171875,-0.0351486355066299,0.0901502221822738,-0.1748833507299423,0.1025718829358927,0.127737906640768,0.5735252793759107,0.2861870500233955,9.230597247973083,-3.2991739395990964
1757089258522232000,5.403232177734375,-0.0306907128542661,0.0583164356648922,-0.1808349192142486,0.0511024107277393,0.1181038168549537,0.3421168626412749,0.3002465002370998,9.229158739602566,-3.301948665009439
1757089258532187100,5.413187255859375,-0.020748334005475,0.0942387580871582,-0.2044827342033386,0.102400088299252,0.083266896751523,0.2662918063282966,0.315687376605533,9.227933581721782,-3.3039354549124837
1757089258542142200,5.42314208984375,-0.0093642976135015,0.1634153425693512,-0.2226895987987518,0.1001121965577825,0.0744780256181955,0.1797092091575264,0.3311434870757162,9.226994255045057,-3.3050399090230465
1757089258552096300,5.43309619140625,-0.01112677808851,0.219634398818016,-0.227924033999443,0.110952776056528,0.0470095884561538,0.0797922063782811,0.3455911876883357,9.22618235414028,-3.305829305835068
1757089258562051000,5.443051025390625,-0.0127125829458236,0.2550286054611206,-0.2288541793823242,0.1762508853971958,0.0605956307381391,-0.0264896552577614,0.358852856854163,9.225315508177877,-3.3068373138338325
1757089258572006100,5.453006103515625,-0.0138335078954696,0.2638977169990539,-0.2297418117523193,0.2958896567344665,0.1187269171893596,-0.0432563734024763,0.3714935080448165,9.224495423966646,-3.307728125193715
1757089258581961200,5.462961181640625,-0.0163298156112432,0.2479882836341858,-0.2274585515260696,0.3546784937789663,0.2005167271256446,-0.0597390139088034,0.3842314455974847,9.223658973142504,-3.3086034467235206
1757089258591915000,5.4729150390625,-0.0136650558561086,0.2237870693206787,-0.2249155044555664,0.3813081785619259,0.2362637478113174,-0.1055073701322078,0.3972562372675165,9.222778098654748,-3.309522022873163
1757089258601870000,5.4828701171875,-0.0128627568483352,0.2081009596586227,-0.2273225635290146,0.3455669665625319,0.2170019979804754,-0.1672784743905067,0.4108506455190479,9.221687965330482,-3.3108976951405404
1757089258611825200,5.4928251953125,-0.0156015520915389,0.2004835307598114,-0.232628658413887,0.2600467379262671,0.1447866565972566,-0.2766349211663008,0.4252936334239319,9.220431827789543,-3.312572642615437
1757089258621780200,5.5027802734375,-0.0199636556208133,0.2020735144615173,-0.2432361394166946,0.1688310010621324,0.0440969158798456,-0.4039990260586142,0.440492919588834,9.218921423226597,-3.314794994840025
1757089258631734000,5.512734130859375,-0.0263603013008832,0.2098355740308761,-0.2570385038852691,0.0790402189671993,-0.0716524468034505,-0.515920354886353,0.4566624755579977,9.217053291267156,-3.317795053438842
1757089258641689000,5.522689208984375,-0.0383507795631885,0.2128407061100006,-0.2790941298007965,0.0365571680247783,-0.152553783467412,-0.6239449685364962,0.4743060496024787,9.214756704762577,-3.321699367401004
1757089258651644200,5.53264404296875,-0.0501299388706684,0.2035718411207199,-0.304679661989212,-0.0024771307032555,-0.2396253331989049,-0.707648503139615,0.4941858947990462,9.21189663915634,-3.32673122408837
1757089258661599200,5.54259912109375,-0.0639437958598136,0.1860914677381515,-0.3324394226074219,-0.0320632906716316,-0.2665244460403919,-0.7765966594204307,0.5168891633858904,9.208419902956486,-3.332901144894957
1757089258671553000,5.552552978515625,-0.0784827917814254,0.1593293696641922,-0.36653533577919,-0.0041150341033935,-0.2626718622654676,-0.8329360940188169,0.5431098655091599,9.204117237326502,-3.3406063124448058
1757089258681508000,5.562508056640625,-0.0815831199288368,0.1332065761089325,-0.3957639336585998,0.0008124488940462,-0.2341167989104986,-0.8573004276856779,0.5730477615246549,9.199353968447449,-3.348713046532869
1757089258691463200,5.572463134765625,-0.0947481915354728,0.108930803835392,-0.4263798892498016,-0.0113011827478185,-0.1675385866314172,-0.8571545894742012,0.6067088427817449,9.19397753610611,-3.357537865762412
1757089258701418200,5.582418212890625,-0.1089624166488647,0.0933896303176879,-0.4554686844348907,-0.0210183111745864,-0.0788204387366771,-0.8066007525399327,0.6436608188103884,9.18785934548676,-3.3673902744740247
1757089258711372000,5.5923720703125,-0.1172049045562744,0.0748188719153404,-0.4856811761856079,-0.0225345609564334,-0.0584317307025194,-0.6918003611445427,0.6837834972970187,9.18093802179098,-3.3783421688601374
1757089258721327000,5.6023271484375,-0.1005224958062172,0.0864681079983711,-0.5188579559326172,0.0308756152570247,-0.082983403635025,-0.5035647311821579,0.7268890640519559,9.173767107248306,-3.3888086178168653
1757089258731282200,5.6122822265625,-0.0998583063483238,0.1133300811052322,-0.5472357869148254,0.0842518892008811,-0.0754945091843605,-0.380632763518393,0.7722733893938362,9.16642843492329,-3.3986145570382478
1757089258741237200,5.6222373046875,-0.094868004322052,0.1486041992902755,-0.5575120449066162,0.0470996048271656,-0.0544967293411493,-0.2344172431617975,0.8184040761236101,9.15874781729281,-3.4085102203696964
1757089258751191000,5.63219091796875,-0.0814368799328804,0.1659570932388305,-0.5470202565193176,0.0075508537709712,-0.0043447512060403,-0.0316235110148787,0.8633403654370456,9.151092918625473,-3.417972168458998
1757089258761146000,5.64214599609375,-0.0671923756599426,0.164675086736679,-0.5249682068824768,0.0226068955402821,-0.005764554876089,0.1856657794743776,0.906492767008394,9.143833156755566,-3.4262174342349168
1757089258771101200,5.65210107421875,-0.0480865910649299,0.1515004336833953,-0.5157486200332642,0.1355681618750095,0.0973988824784755,0.2662590731024742,0.9482575136136264,9.13703750526607,-3.433039681470394
1757089258781055200,5.66205517578125,-0.0176322367042303,0.1112637892365455,-0.5367954969406128,0.3731774790763855,0.1655412753343582,0.3837850900694727,0.9915177594736218,9.13084449584484,-3.43729003239125
1757089258791010000,5.672010009765625,-0.0025385052431374,0.0381914377212524,-0.5698554515838623,0.5258136801302433,0.192115978527069,0.4066676607459783,1.0392455061364918,9.124919781970975,-3.438923771072924
1757089258800965000,5.681965087890625,0.0219795349985361,-0.0430192425847053,-0.5980075597763062,0.5174537749987095,0.2910673511445522,0.3390598131582141,1.0923471278574317,9.11904241437018,-3.438054294762015
1757089258810920200,5.691920166015625,0.0403321757912635,-0.1600603759288787,-0.6183916926383972,0.4556441653609275,0.4292372199505567,0.276779882594943,1.1510146400772034,9.113302409413455,-3.434133321925997
1757089258820874200,5.701874267578125,0.0343258902430534,-0.3148300945758819,-0.6326941847801208,0.3971390771612524,0.5084656549662351,0.2506114221155643,1.2158045076347888,9.107245009070636,-3.4278657859638333
1757089258830829000,5.7118291015625,0.0437628030776977,-0.4003402292728424,-0.6450190544128418,0.2987174275062978,0.4256687138140201,0.2146133492782712,1.2863934168599545,9.1005592476964,-3.419850529551506
1757089258840784100,5.7217841796875,0.0490071699023246,-0.3451396226882934,-0.6402111649513245,0.0394762703418731,0.2175982103079557,-0.019903262604773,1.3576900359630584,9.09375132124722,-3.410389165984094
1757089258850739200,5.7317392578125,0.0441660769283771,-0.2111884951591491,-0.6178680658340454,-0.1729356233693659,0.0259013339757919,-0.1905819008275866,1.424205266008526,9.086578653138876,-3.4023663107872006
1757089258860693200,5.741693359375,0.0343025140464305,-0.1192618981003761,-0.5725504159927368,-0.3112264882065355,-0.1484592076301574,-0.1708800060138106,1.4833376923263073,9.079428781384228,-3.3961809001505374
