time,seconds_elapsed,z,y,x
1757089253136730600,0.017730712890625,-9.773489488676189,-0.7467844356112182,0.3026493235951289
1757089253146684700,0.0276845703125,-9.76798855317235,-0.7885909024663269,0.3672970062030479
1757089253156639700,0.0376396484375,-9.761520233941077,-0.8257826420675962,0.4485394479222595
1757089253166594800,0.0475947265625,-9.754870128402114,-0.8538109781347215,0.5328186269888654
1757089253176548600,0.057548583984375,-9.748618082270026,-0.8685873992450535,0.6167551300976425
1757089253186503700,0.067503662109375,-9.74275182058513,-0.867363848799467,0.7048785269696265
1757089253196458800,0.077458740234375,-9.741312143170832,-0.8391573066212237,0.7569902608703821
1757089253206412800,0.087412841796875,-9.742562435492873,-0.7797998393759131,0.8029753285843878
1757089253216367600,0.09736767578125,-9.74271850283742,-0.6983651264876127,0.8729858533997088
1757089253226322700,0.10732275390625,-9.742858203569053,-0.6012864524068311,0.9410383760150521
1757089253236277800,0.11727783203125,-9.743467275378107,-0.49436921547669915,0.9954017613001167
1757089253246231800,0.127231689453125,-9.743254509410262,-0.3834865455143153,1.0451378521107137
1757089253256186600,0.1371865234375,-9.741936412549018,-0.2723161263854243,1.0912868051495404
1757089253266141700,0.1471416015625,-9.739386728066206,-0.16445391848906873,1.134762374260649
1757089253276095700,0.157095703125,-9.735404964953661,-0.06587928392922039,1.1781045993156731
1757089253286050800,0.16705078125,-9.730231361708045,0.01731457041897811,1.2217531138408928
1757089253296005600,0.177005615234375,-9.724491356751322,0.0821630271628499,1.264080316634476
1757089253305960700,0.186960693359375,-9.719046535348891,0.1278217946650926,1.301607790996134
1757089253315914800,0.196914794921875,-9.714111417034268,0.15500382523434236,1.3350634858742356
1757089253325869800,0.206869873046875,-9.709061147907375,0.16786029286645351,1.369793876863271
1757089253335824600,0.21682470703125,-9.705112702542543,0.1686857108399272,1.3973967540599406
1757089253345778700,0.22677880859375,-9.70151672387719,0.15928813322372734,1.4232304296270013
1757089253355733800,0.236733642578125,-9.69752736198008,0.14205824541351758,1.4519509126767516
1757089253365688800,0.246688720703125,-9.69256594018042,0.11928846919541246,1.486715936587751
1757089253375643000,0.256642822265625,-9.687451373645663,0.09108022825042716,1.5216349820166826
1757089253385597700,0.26659765625,-9.682207627773284,0.058605890826182436,1.5562161737933753
1757089253395552500,0.276552490234375,-9.676859837004542,0.023697037997702137,1.5900347106344996
1757089253405507800,0.2865078125,-9.671370591938494,-0.012887057991552864,1.6232099811360239
1757089253415462000,0.2964619140625,-9.665684362995624,-0.05044480533553287,1.6560143724985419
1757089253425416700,0.306416748046875,-9.65994611160457,-0.08829392200014553,1.6876089496798812
1757089253435371500,0.31637158203125,-9.654124273583292,-0.12515810101432726,1.7183153458498417
1757089253445325600,0.32632568359375,-9.647819620481133,-0.15991068556886165,1.7505397453673184
1757089253455281000,0.336281005859375,-9.64083224581182,-0.1920243547208607,1.7854606904923915
1757089253465235700,0.346235595703125,-9.63320365062952,-0.22149171061515807,1.8228322436399758
1757089253475190500,0.3561904296875,-9.624939680153132,-0.24893866659775374,1.862511635338515
1757089253485145600,0.3661455078125,-9.615918169307708,-0.2755987282526679,1.9048747131630777
1757089253495100400,0.376100341796875,-9.60642144216597,-0.3017093027986586,1.9483380073145031
1757089253505055500,0.386055419921875,-9.596439561855792,-0.326019348995015,1.9930992323219774
1757089253515009300,0.39600927734375,-9.584830957126616,-0.3472520701052621,2.0447047702662644
1757089253524964600,0.405964599609375,-9.570425415155292,-0.366384859794192,2.107866452100128
1757089253534919400,0.41591943359375,-9.553570141944288,-0.38507056330274786,2.179771996881813
1757089253544874500,0.42587451171875,-9.534804066675902,-0.4055504202190786,2.256861958564073
1757089253554828300,0.435828369140625,-9.515432426729797,-0.42888183064162727,2.3330209230065346
1757089253564783600,0.44578369140625,-9.496374675038457,-0.4532898573197424,2.4049488257504996
1757089253574738400,0.455738525390625,-9.477227491497993,-0.4752242969585582,2.4752178553715347
1757089253584692500,0.4656923828125,-9.458360878464578,-0.49135089056883,2.54329945795089
1757089253594647300,0.475647216796875,-9.440696042436361,-0.49862701905164863,2.606724466896057
1757089253604602600,0.4856025390625,-9.424885894364118,-0.49118693217877296,2.6647043621778486
1757089253614556700,0.495556640625,-9.411330831742285,-0.4644564904350787,2.716894568142295
1757089253624511500,0.505511474609375,-9.399722811535,-0.416505675606057,2.7644381173446773
1757089253634466300,0.51546630859375,-9.390306163892149,-0.35149544329606,2.805171986532211
1757089253644421600,0.525421630859375,-9.382989703398943,-0.280638603849709,2.8374525001510977
1757089253654375700,0.535375732421875,-9.376692064559458,-0.21603565543266012,2.8638018701553345
1757089253664330500,0.54533056640625,-9.370216146543621,-0.16572839540429413,2.8882468678429722
1757089253674285300,0.555285400390625,-9.364089188095926,-0.1335320803369861,2.9097067122399807
1757089253684239400,0.5652392578125,-9.360050726360083,-0.12010078109214081,2.923253883816302
1757089253694194400,0.5751943359375,-9.35916166856587,-0.123851438862551,2.9259418077260255
1757089253704149500,0.5851494140625,-9.36141733853817,-0.14203074548523872,2.9178897264346477
1757089253714104300,0.595104248046875,-9.366323815280198,-0.17342488645734264,2.900393817232549
1757089253724058400,0.605058349609375,-9.373067444321512,-0.21836877455534412,2.8754668812468647
1757089253734013400,0.615013427734375,-9.380835740235447,-0.2761736785964109,2.8450004313126205
1757089253743968500,0.624968505859375,-9.388345092952251,-0.34428021468762304,2.812620841233432
1757089253753922600,0.634922607421875,-9.394137704879045,-0.4180664951819926,2.7831252821579575
1757089253763877400,0.64487744140625,-9.397328025352955,-0.4924531161896884,2.760089859007299
1757089253773832400,0.65483251953125,-9.398122390601038,-0.563095655298233,2.743829921340942
1757089253783787500,0.66478759765625,-9.397107076078653,-0.6267914440087974,2.733475992847979
1757089253793741600,0.674741455078125,-9.395019163888692,-0.6824963070306926,2.7273069488242268
1757089253803696400,0.6846962890625,-9.392892088732124,-0.730500751743093,2.7221915055066344
1757089253813651500,0.6946513671875,-9.391619584578276,-0.7712317713864147,2.715338863132894
1757089253823605500,0.70460546875,-9.391849886202811,-0.8046524680163711,2.7048241911202666
1757089253833560600,0.714560546875,-9.393721525293588,-0.8307955748587846,2.6903827010527253
1757089253843515400,0.724515380859375,-9.396860407841205,-0.8506070675268769,2.673174376620352
1757089253853470500,0.734470458984375,-9.401634198114275,-0.864972496683523,2.6516946584790944
1757089253863424500,0.744424560546875,-9.408512267190217,-0.8742526584651321,2.624111947287619
1757089253873379600,0.754379638671875,-9.416988419112563,-0.8792968631774186,2.5918244194060565
1757089253883334400,0.76433447265625,-9.426845211738348,-0.880352655840665,2.5553777260184285
1757089253893288400,0.774288330078125,-9.438239881455898,-0.8772988212279975,2.514033323717117
1757089253903243500,0.784243408203125,-9.450743973720073,-0.8710030820846557,2.468842475120723
1757089253913198600,0.794198486328125,-9.463894547194242,-0.8631509803447872,2.420754882169515
1757089253923153400,0.8041533203125,-9.477085452678798,-0.8546961634714156,2.3716503672607243
1757089253933107500,0.814107421875,-9.48948842265606,-0.8461560064021497,2.3246536382861436
1757089253943062500,0.8240625,-9.500138996008038,-0.8381827625006437,2.283678653819114
1757089253953017600,0.834017578125,-9.508540913650393,-0.8319188067350536,2.2507656875155866
1757089253962971400,0.843971435546875,-9.514668456619978,-0.8285424621697515,2.2259790367834267
1757089253972926500,0.853926513671875,-9.518615732941031,-0.8284877363078296,2.209060781338811
1757089253982881500,0.863881591796875,-9.520504907688498,-0.830588800240308,2.2001121895991265
1757089253992836400,0.87383642578125,-9.521106965234875,-0.8321442860540003,2.1969164622977373
1757089254002790400,0.883790283203125,-9.52210649766624,-0.8284562451910227,2.1939754404097793
1757089254012745500,0.893745361328125,-9.523346853116154,-0.8187547161921859,2.1922328345261515
1757089254022700500,0.903700439453125,-9.525427751043438,-0.8027692846182733,2.1891027198068795
1757089254032654600,0.913654541015625,-9.528552605065704,-0.7793457389328629,2.183960826873779
1757089254042609400,0.923609375,-9.532730183011292,-0.7489513313215226,2.176353274479508
1757089254052564500,0.933564453125,-9.537824875801801,-0.7134316896509378,2.16593928636238
1757089254062518300,0.943518310546875,-9.543196631968021,-0.6762375388968735,2.1541794365942475
1757089254072473600,0.9534736328125,-9.548329903203248,-0.6415186922151594,2.142017728026956
1757089254082428400,0.963428466796875,-9.553203646719455,-0.6131971453551203,2.128537776467949
1757089254092383500,0.973383544921875,-9.558165653041005,-0.5937376444624737,2.1117133367866274
1757089254102337300,0.983337158203125,-9.563199555554986,-0.5839891345167533,2.091543824461102
1757089254112292600,0.993292724609375,-9.567952303040027,-0.5841191541045904,2.0696558177798985
1757089254122247400,1.003247314453125,-9.572406359839439,-0.5927823895642533,2.0464678344160316
1757089254132202500,1.013202392578125,-9.576323825544119,-0.6079810181420296,2.0235528227746484
1757089254142156300,1.02315625,-9.579477321138977,-0.6270426422908901,2.002701173403859
1757089254152111600,1.033111572265625,-9.58257002645731,-0.6461389724269508,1.9817264821752905
1757089254162066400,1.04306640625,-9.586050854310393,-0.6622597208183258,1.9594443616099655
1757089254172020500,1.0530205078125,-9.589564999911188,-0.6749631350468844,1.937795278251171
1757089254181975300,1.062975341796875,-9.592998481491207,-0.6845225521612912,1.9173396424606441
1757089254191930600,1.0729306640625,-9.5968189165622,-0.6907686800092459,1.8958616778850554
1757089254201885400,1.082885498046875,-9.601687983903288,-0.6943933733124286,1.869703738799691
1757089254211839500,1.092839599609375,-9.607888592109084,-0.6963641619287431,1.8368290586799383
1757089254221794300,1.102794189453125,-9.615433600661158,-0.6965937329009175,1.7968240882888435
1757089254231749600,1.11274951171875,-9.624013797479867,-0.6940417103305458,1.7512997699543833
1757089254241703400,1.122703369140625,-9.632844754189252,-0.6872741889569908,1.7047998845860362
1757089254251658500,1.132658447265625,-9.641162500679492,-0.6748441117770969,1.6622152729652822
1757089254261613300,1.14261328125,-9.648399466195702,-0.6547337822929025,1.627910267781466
1757089254271568600,1.152568603515625,-9.65405354643464,-0.6267573956087231,1.605244408595562
1757089254281522400,1.1625224609375,-9.657756492605804,-0.5921398173443972,1.5960883115850388
1757089254291477500,1.1724775390625,-9.659297876828909,-0.5521273577665909,1.601095618353039
1757089254301432300,1.182432373046875,-9.658507018712163,-0.5079448459625244,1.6203773880586028
1757089254311386600,1.19238671875,-9.6556598125875,-0.4622536100959405,1.6507383317917586
1757089254321341400,1.202341552734375,-9.651755790886282,-0.41920163669176397,1.684713958890736
1757089254331296500,1.212296630859375,-9.648250413113832,-0.3841402967153117,1.7129168478071688
1757089254341251300,1.222251220703125,-9.646790861955285,-0.360750653299503,1.7261717584386467
1757089254351205600,1.23220556640625,-9.648260349985957,-0.35024292248431593,1.7201115816168486
1757089254361160400,1.242160400390625,-9.652365447217225,-0.349699170996435,1.6970384568043053
1757089254371115500,1.252115478515625,-9.657668229800462,-0.3525859054138884,1.6659880695022642
1757089254381069300,1.2620693359375,-9.662795655816792,-0.35319037411306053,1.6358543586537242
1757089254391024600,1.272024658203125,-9.666560561308264,-0.34959154590349645,1.614240784999728
1757089254400979500,1.2819794921875,-9.667999654200672,-0.3430898358592763,1.607003965613991
1757089254410934500,1.2919345703125,-9.666462361630797,-0.3358289049455896,1.6177467472940683
1757089254420888300,1.301888427734375,-9.6622228243649,-0.32919330285601317,1.6442210588522255
1757089254430843400,1.311843505859375,-9.655984806758164,-0.32362025196403266,1.6815503802932799
1757089254440798500,1.321798583984375,-9.648298928430675,-0.3181597580684349,1.7261184208162128
1757089254450752500,1.33175244140625,-9.640114452931284,-0.3113144222183153,1.7724742215387521
1757089254460707300,1.341707275390625,-9.632575289598106,-0.30179765693554655,1.8146064132168889
1757089254470662400,1.351662353515625,-9.626697337475418,-0.29008780205529183,1.8474127042755484
1757089254480617000,1.361616943359375,-9.623160980042815,-0.2780402396532707,1.8675781249478458
1757089254490571000,1.371571044921875,-9.622095396637915,-0.2674944235837087,1.8745961870163679
1757089254500526000,1.381526123046875,-9.623017187657952,-0.25909051491366697,1.8710422939270734
1757089254510481200,1.391481201171875,-9.624837973344325,-0.25360695066973565,1.862407736572623
1757089254520436000,1.40143603515625,-9.626740007573366,-0.25266934102606026,1.8526798310235142
1757089254530390000,1.41139013671875,-9.628163318374753,-0.2576311829508282,1.8445825954161583
1757089254540345000,1.421344970703125,-9.628695233294367,-0.26923476444501426,1.8401440284468233
1757089254550300200,1.431300048828125,-9.628118310189247,-0.286946197827626,1.840483197273314
1757089254560254200,1.441254150390625,-9.626381695654988,-0.30902295028027144,1.8459855940818786
1757089254570209000,1.451208984375,-9.623480713516473,-0.3334311596214771,1.8568335897020996
1757089254580164000,1.4611640625,-9.619517070582509,-0.35820115147978066,1.8726891843512654
1757089254590119200,1.471119140625,-9.614574938005209,-0.3819100899778306,1.8932709307394922
1757089254600073200,1.4810732421875,-9.608132337737082,-0.404830362316221,1.9210138009287416
1757089254610028000,1.491028076171875,-9.600561610221861,-0.4267875617761165,1.9538319285556673
1757089254619983000,1.500983154296875,-9.592205285286903,-0.4466579084919765,1.9900947898089885
1757089254629937200,1.510937255859375,-9.582054478150605,-0.4639946450769901,2.034532335820049
1757089254639892200,1.520892333984375,-9.568643207913636,-0.47916543579977006,2.093288330040872
1757089254649847000,1.530846923828125,-9.55078840227127,-0.49342017112355674,2.1701057583920655
1757089254659802000,1.540802001953125,-9.527478838354348,-0.5078169817991555,2.2670810086309907
1757089254669756200,1.550756103515625,-9.496533664992452,-0.5214546812031418,2.3904634965412317
1757089254679711000,1.5607109375,-9.454690080997347,-0.5337525468381121,2.5483964888289568
1757089254689666000,1.570666015625,-9.398048156321048,-0.5471054744839668,2.7473174711957573
1757089254699621000,1.58062109375,-9.323584743750095,-0.5663673704452812,2.9866996432885524
1757089254709575200,1.5905751953125,-9.230210294482111,-0.5951073253804817,3.2587501592740415
1757089254719530000,1.600530029296875,-9.120352912446856,-0.638852030289173,3.5470293410047886
1757089254729485000,1.610485107421875,-8.99817147088945,-0.7082256454404443,3.834280348731577
1757089254739439400,1.620439453125,-8.860892413443326,-0.8026124866213649,4.12441304937452
1757089254749394200,1.630394287109375,-8.70799200849533,-0.91029537416175,4.417309369511902
1757089254759349000,1.640348876953125,-8.551115101131796,-1.00586039227657,4.694364854177833
1757089254769304000,1.650303955078125,-8.399168635907769,-1.0584501920178533,4.95015455571413
1757089254779258400,1.66025830078125,-8.245759696915746,-1.0503141587700695,5.203332613447309
1757089254789213200,1.670213134765625,-8.09681182898581,-0.9791458422217517,5.445484250253439
1757089254799168000,1.68016796875,-7.964870040914416,-0.8566075500506907,5.656628754377365
1757089254809122000,1.6901220703125,-7.85590873093605,-0.6971577965244651,5.828297572681308
1757089254819077400,1.700077392578125,-7.764944265419245,-0.5133351606987416,5.967621872219443
1757089254829032200,1.7100322265625,-7.690868390861153,-0.3156119732817635,6.076292090296745
1757089254838987000,1.719987060546875,-7.634678886127471,-0.11545864524156786,6.153757607293128
1757089254848941000,1.729941162109375,-7.595837991079688,0.07727326409360394,6.202229669517278
1757089254858896100,1.739896240234375,-7.573069109910726,0.25633924344414843,6.225214823785424
1757089254868851200,1.749851318359375,-7.564769483599067,0.4193667641256004,6.226458101844787
1757089254878806000,1.759805908203125,-7.56808255366981,0.5683297930920497,6.210597100368142
1757089254888760000,1.769760009765625,-7.573951153442263,0.7084164187721907,6.189006615328789
1757089254898715100,1.779715087890625,-7.571449984276295,0.8443101593397557,6.175003808939457
1757089254908670200,1.789670166015625,-7.543714420610666,0.9808940010633319,6.188748256653547
1757089254918624300,1.799624267578125,-7.5042732215821735,1.113365365966782,6.214232826521992
1757089254928579000,1.8095791015625,-7.456382758638262,1.2353029888309537,6.248741245323419
1757089254938534100,1.8195341796875,-7.3991060431897635,1.3417052619762717,6.294715645512938
1757089254948489200,1.8294892578125,-7.340947284209728,1.428348941684514,6.3435553720057
1757089254958443300,1.839443359375,-7.288011812835931,1.4932098286516964,6.389491193750501
1757089254968398000,1.849398193359375,-7.235852002009749,1.5370952937379478,6.438181282639503
1757089254978353000,1.859352783203125,-7.18195148499608,1.5635843644738197,6.491930408483744
1757089254988307200,1.86930712890625,-7.125977668839693,1.5782966343067586,6.549794568431377
1757089254998262300,1.87926220703125,-7.057192886427044,1.5877617972664535,6.621587885010242
1757089255008217000,1.889217041015625,-6.964740228179097,1.5984684847198425,6.7162254860818384
1757089255018172000,1.899171875,-6.859824394199252,1.607850645571202,6.821143658149242
1757089255028126200,1.909126220703125,-6.751894180834293,1.610722693876177,6.927329073673486
1757089255038081300,1.919081298828125,-6.644976359382271,1.6084261073715984,7.030479651546478
1757089255048036000,1.9290361328125,-6.539030013310909,1.6078230269119143,7.1292620973378416
1757089255057991000,1.938990966796875,-6.430474946045875,1.615723717033863,7.225566754838824
1757089255067945200,1.9489453125,-6.311836876183748,1.639361636122316,7.324178520238399
1757089255077900300,1.958900390625,-6.180991066655516,1.6909850019842385,7.423361948046088
1757089255087855000,1.968855224609375,-6.038543666660785,1.780032820224762,7.519166254809498
1757089255097809200,1.97880908203125,-5.877516653880477,1.9100087150506675,7.614266212695837
1757089255107764200,1.98876416015625,-5.69915915159285,2.0711407956406473,7.707161938536166
1757089255117719300,1.99871923828125,-5.512869102740288,2.250198116760701,7.792000030127167
1757089255127674000,2.008674072265625,-5.337453499123454,2.4378068469963967,7.857422642630338
1757089255137628200,2.018628173828125,-5.190391883331537,2.6210548978045582,7.896853904786705
1757089255147583200,2.028583251953125,-5.082361716723442,2.787415380567312,7.910139502817392
1757089255157538000,2.0385380859375,-5.025891056960821,2.933080281303823,7.893532066887617
1757089255167492000,2.0484921875,-5.023820680427551,3.0644632664486764,7.844786448419094
1757089255177447200,2.058447265625,-5.051694191259146,3.191094380891323,7.776096358552575
1757089255187402200,2.06840234375,-5.085145794484019,3.3177608589082954,7.700918660232424
1757089255197357000,2.078357177734375,-5.112985403046012,3.444000051423907,7.6267054230302564
1757089255207311000,2.08831103515625,-5.128610842201113,3.564529341860115,7.56054748198986
1757089255217266200,2.09826611328125,-5.128868616354465,3.6733690712854266,7.508093072131276
1757089255227221200,2.10822119140625,-5.112757439509034,3.76442092282474,7.4739043868035075
1757089255237175300,2.11817529296875,-5.07589281297028,3.837335352388024,7.461940977287292
1757089255247130000,2.128130126953125,-5.018704944849014,3.8933027388036248,7.47162475143373
1757089255257085200,2.138085205078125,-4.953886143457889,3.9312113214373587,7.494996274670958
1757089255267040300,2.148040283203125,-4.8949651679337025,3.951972369915247,7.522740606164932
1757089255276994300,2.157994384765625,-4.843137657801806,3.9629330321297047,7.550468571045994
1757089255286949000,2.16794921875,-4.791726619516313,3.970217051658034,7.579387207016349
1757089255296904200,2.177904296875,-4.735721531438827,3.978574253375828,7.610142410764098
1757089255306859300,2.187859375,-4.672902671693265,3.9914027552887794,7.642189992409944
1757089255316813300,2.197813232421875,-4.599250867766141,4.008863593177497,7.677647674760222
1757089255326768000,2.20776806640625,-4.514988237975538,4.02819782372266,7.717440171444416
1757089255336723200,2.21772314453125,-4.425615425564349,4.047107106854021,7.759203091418743
1757089255346677000,2.227677001953125,-4.337760031978786,4.064730441828072,7.799500615015625
1757089255356632300,2.23763232421875,-4.257140142604708,4.080983949753642,7.835349342510104
1757089255366587100,2.247587158203125,-4.187165858146548,4.096638030481338,7.864832042104005
1757089255376542200,2.257542236328125,-4.128409133273363,4.113013411220908,7.88731509206891
1757089255386496000,2.26749609375,-4.079359271161258,4.131655860109627,7.903076724824309
1757089255396451300,2.277451416015625,-4.038712203474343,4.152442919811606,7.9130521753937
1757089255406406100,2.28740625,-4.005442678818106,4.1752196920260785,7.91797677231431
1757089255416360200,2.297360107421875,-3.9877436482593414,4.202946780124306,7.912239105445146
1757089255426315000,2.30731494140625,-3.9900075015380976,4.242531771537661,7.889939010831713
1757089255436270300,2.317270263671875,-3.9739293501794335,4.29087523894608,7.871890143921971
1757089255446225200,2.32722509765625,-3.915846579045057,4.339029029001296,7.874602325490117
1757089255456179200,2.33717919921875,-3.8173455805435776,4.379000681644678,7.900797089454532
1757089255466134000,2.347134033203125,-3.6959354156196116,4.405555218832195,7.943647220143675
1757089255476089300,2.35708935546875,-3.56051075386852,4.416418265891075,7.999276168385148
1757089255486043100,2.367043212890625,-3.4040707766175267,4.415818546432257,8.06741856124103
1757089255495998200,2.376998291015625,-3.2177477022781966,4.413935509164631,8.144547978150845
1757089255505953000,2.386953125,-2.998674450981617,4.418583627231419,8.225233041715622
1757089255515908000,2.396908203125,-2.7498919978588816,4.430958540157974,8.305124324554205
1757089255525862000,2.40686181640625,-2.4738641026750208,4.4507156722903245,8.38102156932056
1757089255535817200,2.416817138671875,-2.1719367732115087,4.480090235334634,8.448779931294917
1757089255545772000,2.42677197265625,-1.854063978858292,4.521759631806612,8.502148533388972
1757089255555727000,2.43672705078125,-1.538431656908244,4.577737247355282,8.535100370398164
1757089255565681000,2.446680908203125,-1.243029491429776,4.64936719006598,8.544510003778338
1757089255575636200,2.45663623046875,-0.9809498959690331,4.734319263425469,8.531959734284877
1757089255585591000,2.466591064453125,-0.7580950072418898,4.83167021510899,8.500037240323424
1757089255595545000,2.476545166015625,-0.577034091214463,4.943932904720306,8.449551500189305
1757089255605500000,2.4865,-0.4396855852613225,5.070682384845614,8.38243669681549
1757089255615455200,2.496455322265625,-0.344714441386424,5.206325950044393,8.303356145837903
1757089255625410000,2.50641015625,-0.28918570211641487,5.34305497239232,8.218182538682221
1757089255635364000,2.516364013671875,-0.27111372832572084,5.474437957537174,8.131876712626218
1757089255645319000,2.52631884765625,-0.29530710760615764,5.600608760991692,8.04464734198451
1757089255655274200,2.536274169921875,-0.3749999817958101,5.723371801829337,7.95441762048304
1757089255665228000,2.54622802734375,-0.5133979968018829,5.838147351044416,7.8627511441767215
1757089255675183000,2.55618310546875,-0.6972033161666243,5.938768702700734,7.7727289279460905
1757089255685138000,2.566137939453125,-0.9034002078205347,6.0277744353652,7.682460043478011
1757089255695093200,2.57609326171875,-1.105785505297035,6.111199153026938,7.589524570149183
1757089255705047000,2.586047119140625,-1.2880267171502113,6.1941276116043325,7.492942849272489
1757089255715002000,2.596002197265625,-1.4469437520392239,6.2798857406497,7.391873169326781
1757089255724957000,2.60595703125,-1.5871322671912609,6.369454367893934,7.28570236684978
1757089255734911200,2.6159111328125,-1.7164957292072474,6.45797553191185,7.177645312234759
1757089255744866000,2.625865966796875,-1.8574930765241384,6.539442101243138,7.067942243978381
1757089255754821000,2.635821044921875,-2.0296319965578613,6.6068649476528165,6.95703155349791
1757089255764776000,2.64577587890625,-2.2313202516809105,6.657276453506946,6.846331875419616
1757089255774730200,2.655730224609375,-2.438879590794444,6.690437549352645,6.742424341699481
1757089255784685000,2.66568505859375,-2.6377944356814025,6.705819242879748,6.6516475077092645
1757089255794640100,2.67564013671875,-2.810580859838426,6.706129624003172,6.580186784085631
1757089255804594000,2.685593994140625,-2.9454174925684926,6.699189011085033,6.528076073098182
1757089255814549200,2.69554931640625,-3.0382047895982858,6.693750619423389,6.49102381503284
1757089255824504000,2.705504150390625,-3.096879681406915,6.692998339751362,6.464015396597981
1757089255834459100,2.715459228515625,-3.1405119023844597,6.68998220680058,6.446061222234368
1757089255844413000,2.725412841796875,-3.181622203668952,6.67651599150598,6.439860614028572
1757089255854368300,2.7353681640625,-3.228146054434776,6.64876347670555,6.4454188326776025
1757089255864323000,2.745322998046875,-3.2861393937200307,6.606206776005029,6.459854185265303
1757089255874277000,2.755277099609375,-3.3550776131287217,6.550626343080401,6.480982313489913
1757089255884232000,2.76523193359375,-3.430132269591093,6.484224071890115,6.508410418641567
1757089255894187300,2.775187255859375,-3.4993209566295147,6.41379269131422,6.54128451423943
1757089255904142000,2.78514208984375,-3.5499750390678644,6.354629723727703,6.571661532324552
1757089255914096000,2.79509619140625,-3.5717224682345985,6.321716465163231,6.591590806153416
1757089255924051000,2.805051025390625,-3.5540813053429123,6.3250049853146075,6.597968524491787
1757089255934006300,2.81500634765625,-3.4918010825186965,6.3689943491667504,6.588900251895189
1757089255943960000,2.8249599609375,-3.3892259664461015,6.449964659413695,6.563648321738839
1757089255953915100,2.8349150390625,-3.2554689456462857,6.5596005076527595,6.522573968550563
1757089255963870000,2.844869873046875,-3.097237701064348,6.6901622395426035,6.466780185136199
1757089255973825300,2.8548251953125,-2.9179966939404607,6.835075152868032,6.39823739478588
1757089255983779000,2.864779052734375,-2.7229841171890494,6.99162765058279,6.314498204347491
1757089255993734100,2.874734130859375,-2.533356740607321,7.1482169731765985,6.217352419847249
1757089256003689000,2.88468896484375,-2.3470522248379884,7.283849432459474,6.13247516528964
1757089256013644000,2.89464404296875,-2.144538624806702,7.395734520930051,6.072432492259145
1757089256023598000,2.90459814453125,-1.923836457134038,7.495650354665518,6.023658816739917
1757089256033553200,2.91455322265625,-1.6978075414806604,7.5922998800814145,5.970327039524912
1757089256043508000,2.924508056640625,-1.490320975342393,7.68492497228682,5.906881280052661
1757089256053462000,2.9344619140625,-1.3101336272791027,7.766791354590654,5.842164769992232
1757089256063417000,2.9444169921875,-1.164783418514952,7.835824558806419,5.780441012006998
1757089256073372200,2.9543720703125,-1.0630791669927537,7.897332628214359,5.715977599924803
1757089256083327000,2.964326904296875,-1.007414051459357,7.957834150928258,5.641663824957609
1757089256093281000,2.974281005859375,-0.9934897901989519,8.017915986925363,5.558451873263716
1757089256103236000,2.984236083984375,-1.011431835733354,8.073152136456965,5.47463201880455
1757089256113191200,2.994191162109375,-1.0497711379345507,8.120777226462959,5.396417729267478
1757089256123145200,3.004145263671875,-1.1010865338258444,8.161448844069241,5.324353194531798
1757089256133100000,3.01410009765625,-1.1635492005448789,8.196518988406657,5.256767266514897
1757089256143055000,3.02405517578125,-1.235504064361006,8.229200776302815,5.1888487455427645
1757089256153010200,3.03401025390625,-1.3186999417029321,8.259937859871982,5.119065015220642
1757089256162964200,3.043964111328125,-1.4201616897061466,8.283082588616013,5.054114696404338
1757089256172919000,3.0539189453125,-1.5527334462441502,8.29379395224452,4.997238962972164
1757089256182874000,3.0638740234375,-1.7199327179186046,8.2897654273808,4.94894225731492
1757089256192828200,3.073828125,-1.9052600592188536,8.269204285389185,4.915346861705184
1757089256202783200,3.083783203125,-2.098363149087131,8.231922894743084,4.8992546818211675
1757089256212738000,3.093738037109375,-2.292173218180984,8.182612043607234,4.89501572907716
1757089256222693000,3.103693115234375,-2.4749255944266912,8.128402314513922,4.896346685419976
1757089256232647200,3.113647216796875,-2.632202314762771,8.074343392068148,4.903761637851596
1757089256242602000,3.12360205078125,-2.7533558745771645,8.023526812544464,4.92061281940937
1757089256252557000,3.13355712890625,-2.8428707258075474,7.976232561928033,4.946533442607522
1757089256262511000,3.143510986328125,-2.9057722954005003,7.928519209116697,4.986529352909327
1757089256272466200,3.153466064453125,-2.9378835899323223,7.877815442317724,5.047698399621248
1757089256282421000,3.1634208984375,-2.9511688957020636,7.8223747101247305,5.125566652199626
1757089256292376000,3.1733759765625,-2.959529020029306,7.771802460750937,5.197177597948908
1757089256302330000,3.183330078125,-2.972340570807457,7.727520835953951,5.255569581162929
1757089256312285200,3.19328515625,-3.0221479732885954,7.669703437757492,5.311559763932228
1757089256322240000,3.203239990234375,-3.1124349779352545,7.5854896155446765,5.3799160917997355
1757089256332194000,3.213194091796875,-3.229334971958399,7.479015446206927,5.4594975780367845
1757089256342149000,3.223149169921875,-3.357743909728527,7.354799283951521,5.550034758052229
1757089256352104200,3.233104248046875,-3.4952550223648546,7.2174085828244685,5.644697493565082
1757089256362059000,3.24305908203125,-3.643227615521848,7.072752859130501,5.733538391056657
1757089256372013000,3.253012939453125,-3.796073659934103,6.926255891484022,5.812674471613764
1757089256381968100,3.262968017578125,-3.9192923355847595,6.77644351567924,5.906720536532998
1757089256391923200,3.272923095703125,-4.023431632234156,6.620716362872719,6.012361762177944
1757089256401878000,3.2828779296875,-4.12879579450339,6.461093956193327,6.11373130185306
1757089256411832000,3.29283203125,-4.2439878155648705,6.294309402799606,6.208110544249415
1757089256421787100,3.302787109375,-4.367447314234077,6.117398592188954,6.298668767052889
1757089256431742200,3.3127421875,-4.493905410197377,5.935809268373251,6.382896617791056
1757089256441696300,3.3226962890625,-4.606698553423583,5.756208488026261,6.466433563655614
1757089256451651000,3.332651123046875,-4.694008880347013,5.583095900654793,6.554823794770241
1757089256461606100,3.342606201171875,-4.753061665557325,5.41929591602981,6.649061582869291
1757089256471561200,3.352561279296875,-4.791561784343421,5.2676750294983385,6.742620156532525
1757089256481514800,3.3625146484375,-4.814508652427793,5.1291176226794715,6.832499749422073
1757089256491469600,3.372469482421875,-4.83218430211097,5.001104990750551,6.914429260089993
1757089256501425000,3.3824248046875,-4.8622731509044765,4.874315178614855,6.9835337759763
1757089256511378700,3.392378662109375,-4.904425654718279,4.74333463679105,7.0439885369390245
1757089256521333800,3.402333740234375,-4.9483764401257035,4.6198353906333445,7.095144723680615
1757089256531288600,3.41228857421875,-4.974298232367635,4.518351284667849,7.142215686935186
1757089256541244000,3.422243896484375,-4.988664026850461,4.422426566395163,7.192061375600099
1757089256551197700,3.43219775390625,-5.02689994174242,4.3285190331637855,7.2225061982244245
1757089256561152800,3.44215283203125,-5.064875159871578,4.2616666801184415,7.23571931554079
1757089256571107600,3.452107666015625,-5.084439692041277,4.225101621048152,7.243437342572212
1757089256581062000,3.462061767578125,-5.074684021702408,4.194871610218287,7.267806644675135
1757089256591016700,3.4720166015625,-5.049871652007103,4.145391539995372,7.313338561794161
1757089256600971800,3.4819716796875,-5.065184371951222,4.075110089284181,7.342191146790981
1757089256610926600,3.491926513671875,-5.1002451639384025,4.01893870472908,7.348879830774664
1757089256620880600,3.501880615234375,-5.091415376272797,4.02528982732147,7.351524207803607
1757089256630835700,3.511835693359375,-5.058844063013792,4.098002889093756,7.333815532633662
1757089256640790800,3.521790771484375,-5.024873404350877,4.181054097267985,7.310254624304175
1757089256650744600,3.53174462890625,-4.960955351191759,4.233491263730824,7.323718501511216
1757089256660699600,3.54169970703125,-4.878141458904743,4.250988926498592,7.369071554931998
1757089256670654700,3.55165478515625,-4.786475274859368,4.2479920827701685,7.430652689576148
1757089256680609800,3.56160986328125,-4.675443880608678,4.2397555848225945,7.505670228898524
1757089256690563600,3.5715634765625,-4.534624958598614,4.240149552576244,7.59135704627335
1757089256700518700,3.5815185546875,-4.380267048318684,4.258036799183488,7.671555787625908
1757089256710473700,3.5914736328125,-4.25669736727327,4.292269323652983,7.721873769977688
1757089256720427800,3.601427734375,-4.179853489306569,4.344162007975578,7.734822098878025
1757089256730382600,3.611382568359375,-4.186610562351346,4.409615892399847,7.694020717412233
1757089256740337700,3.621337646484375,-4.279154406014085,4.480000803485512,7.6018959759444
1757089256750292700,3.631292724609375,-4.369992907063663,4.5452273088946935,7.510954891303181
1757089256760246800,3.641246826171875,-4.36539271979183,4.589792134547233,7.48648914308846
1757089256770201600,3.65120166015625,-4.318068366298079,4.611730702371895,7.500440511551499
1757089256780156700,3.66115673828125,-4.304833329410851,4.612068556024134,7.507837051543593
1757089256790110700,3.67111083984375,-4.31784274084866,4.592143373848498,7.51257986215651
1757089256800065800,3.681065673828125,-4.32050932970941,4.556249053646624,7.532873877644539
1757089256810020600,3.6910205078125,-4.298742026798426,4.516912776297331,7.568930110409855
1757089256819975700,3.7009755859375,-4.259918082885444,4.481192643618583,7.611991253501176
1757089256829929700,3.7109296875,-4.214299072004854,4.45320456649661,7.653695136764645
1757089256839884800,3.720884765625,-4.176011134664714,4.438281722652912,7.6832924026489255
1757089256849839600,3.730839599609375,-4.143405334614217,4.42794299172908,7.7068737692445515
1757089256859793700,3.740793701171875,-4.116554737089574,4.42785911283791,7.721297431394458
1757089256869748700,3.750748779296875,-4.075724129529297,4.450139041446149,7.730144170194864
1757089256879703800,3.760703857421875,-4.008948056590556,4.494757935373485,7.739242253407835
1757089256889658600,3.77065869140625,-3.92049382032901,4.5565021516248585,7.748444381517172
1757089256899612700,3.78061279296875,-3.8169521973118186,4.63312332675159,7.754703441911936
1757089256909567700,3.790567626953125,-3.707105921192467,4.7291538434863085,7.750022590619325
1757089256919522800,3.800522705078125,-3.605050737340748,4.849563306935131,7.723712675842642
1757089256929476900,3.810476806640625,-3.5018761940702796,4.999501062685251,7.675429998710751
1757089256939431700,3.820431640625,-3.381393665385246,5.178598569685221,7.610431749099493
1757089256949386800,3.83038671875,-3.2459464995414016,5.371185672855377,7.535554495030641
1757089256959341800,3.840341796875,-3.1068381808415055,5.556539317640662,7.459411166548729
1757089256969295600,3.850295654296875,-2.9698212814629077,5.7142550139158965,7.395798233816027
1757089256979250700,3.860250732421875,-2.843815605442226,5.822690838715434,7.360664376592636
1757089256989205800,3.870205810546875,-2.7244989056661724,5.893110528853535,7.349744923171401
1757089256999160800,3.880160888671875,-2.606092306472361,5.950774197793007,7.34622084069848
1757089257009114600,3.890114501953125,-2.4720675746470686,5.999878128179907,7.352599143558741
1757089257019069700,3.900069580078125,-2.3041830971874298,6.060575465726852,7.357347799390554
1757089257029024800,3.910024658203125,-2.1159230634361506,6.129527421399951,7.35677672150433
1757089257038978800,3.919978759765625,-1.9205317165002225,6.202908883953094,7.3488681403368705
1757089257048933600,3.92993359375,-1.7519386523798106,6.275569046494365,7.329280227291584
1757089257058888700,3.939888671875,-1.6471430837787686,6.351306716784834,7.288224578803777
1757089257068843800,3.94984375,-1.62088592210263,6.445208989319205,7.21126934941709
1757089257078797800,3.9597978515625,-1.6398526345096527,6.563143294826149,7.099748418083786
1757089257088752600,3.969752685546875,-1.6739774608209728,6.683503950697183,6.978463633105158
1757089257098707700,3.979707763671875,-1.711931928423047,6.768477066844701,6.886753317657113
1757089257108661800,3.989661865234375,-1.7387861792095005,6.817366477698087,6.831582634577154
1757089257118616800,3.999616943359375,-1.7482257693365215,6.8423746622264385,6.804115366458892
1757089257128571600,4.009571533203125,-1.7448510322064161,6.852689720013737,6.794594673919677
1757089257138526700,4.019526611328125,-1.7400994537651537,6.850811651182174,6.797707837504148
1757089257148480800,4.029480712890625,-1.740625961857289,6.83617931471765,6.81228815152049
1757089257158435800,4.039435791015625,-1.7520407975800334,6.8163242751687765,6.829235779190063
1757089257168390700,4.049390625,-1.773231031255424,6.805006762340664,6.835050602948665
1757089257178344700,4.0593447265625,-1.8005341948531568,6.802644709384441,6.8302645377159115
1757089257188299800,4.0692998046875,-1.8174125566788017,6.814193108358979,6.814263250985741
1757089257198254800,4.0792548828125,-1.8240137085095047,6.847063696825504,6.779460233151912
1757089257208209000,4.089208984375,-1.8324995050430297,6.903668212100863,6.719502315795421
1757089257218163700,4.099163818359375,-1.8262579803049563,6.977780911538004,6.644225833275914
1757089257228118800,4.109118896484375,-1.761975477747619,7.058119938144087,6.576379793018102
1757089257238073900,4.119073974609375,-1.6296682173646986,7.139644959664344,6.522273524299264
1757089257248028000,4.12902783203125,-1.4671477511562405,7.227247839793563,6.464113596275449
1757089257257982700,4.138982666015625,-1.3175418577089906,7.3283660350561135,6.381970150595903
1757089257267937500,4.1489375,-1.2036339581739157,7.448108266767859,6.264771173626184
1757089257277892900,4.158892822265625,-1.1308876517191528,7.587818935275077,6.108723118302226
1757089257287847000,4.168846923828125,-1.0857316552404315,7.742060233438014,5.92048018181622
1757089257297801700,4.1788017578125,-1.0541384662985802,7.89874775570929,5.715677155673504
1757089257307756500,4.188756591796875,-1.0333931999117136,8.043395880618691,5.514186615079641
1757089257317710600,4.198710693359375,-1.010580625731498,8.16014652929902,5.344260256528854
1757089257327666000,4.208666015625,-0.971486340444535,8.239289039596915,5.228834134450555
1757089257337620700,4.218620849609375,-0.9173025495100766,8.28151957708299,5.171592490315437
1757089257347575600,4.228575439453125,-0.8580953043904155,8.300823997011781,5.150764221820235
1757089257357529600,4.238529541015625,-0.7961424868896603,8.312785652962326,5.141413625150919
1757089257367485000,4.24848486328125,-0.7130103954989463,8.328392971938849,5.12833787047863
1757089257377439700,4.258439697265625,-0.5710701413087547,8.359207212397456,5.095871771159768
1757089257387393800,4.268393798828125,-0.3694261637188494,8.409096155682205,5.032000479751825
1757089257397348600,4.2783486328125,-0.14711127275307662,8.47574217250049,4.930573072409629
1757089257407304000,4.288303955078125,0.054107008504355326,8.553207689496874,4.796883856149018
1757089257417258800,4.2982587890625,0.1727241360431537,8.629244634994864,4.655824695642292
1757089257427212800,4.308212890625,0.18165082647828384,8.695840967452526,4.529874256940186
1757089257437167600,4.318167724609375,0.14448555475883185,8.758042864343523,4.409784819225966
1757089257447122700,4.328122802734375,0.1316981337749399,8.820064728492499,4.284801179729402
1757089257457076700,4.33807666015625,0.1495667578801047,8.88289147928357,4.152378914664686
1757089257467031800,4.34803173828125,0.1545374680979177,8.946972029528022,4.012254989181459
1757089257476986600,4.357986572265625,0.13869019375252536,9.009055268475413,3.871441035607457
1757089257486941700,4.367941650390625,0.11123508186293765,9.061600863748788,3.747719963392615
1757089257496895700,4.377895751953125,0.073050399401295,9.100717068606615,3.652669982127845
1757089257506851000,4.38785107421875,0.026048229349905156,9.13241218355298,3.573336625432968
1757089257516806000,4.397805908203125,-0.015039339512970764,9.164422940319776,3.490484739223122
1757089257526760000,4.407760009765625,-0.0349365080203861,9.200321936696767,3.394588370262086
1757089257536714800,4.41771484375,-0.03831803565088194,9.245911721482873,3.268335149221122
1757089257546670000,4.427670166015625,-0.034990971304115374,9.301583339822292,3.10640095846802
1757089257556625000,4.437625,-0.03642068673011381,9.36232860816419,2.9181998152971267
1757089257566579000,4.447578857421875,-0.045685523078427645,9.422619118475913,2.717082199668884
1757089257576533800,4.45753369140625,-0.06319885377278552,9.477401679021119,2.518977209860086
1757089257586489000,4.467489013671875,-0.07826121568502858,9.5252938955307,2.330887271978706
1757089257596443000,4.47744287109375,-0.08114157516062259,9.565994154709577,2.157673708450794
1757089257606398000,4.48739794921875,-0.06429583696294576,9.601457682278753,1.9945527921311557
1757089257616352800,4.497352783203125,-0.004636591454953304,9.635909986978769,1.821973142592609
1757089257626307800,4.507307861328125,0.09422718450664543,9.670085228303074,1.6281772481545804
1757089257636262000,4.517261962890625,0.20057097806353122,9.700532389014958,1.42472928988263
1757089257646217000,4.527217041015625,0.30238237975463267,9.725732881245017,1.2202763192865997
1757089257656171800,4.537171875,0.3884453734980896,9.746030403864383,1.017045949288085
1757089257666125800,4.547125732421875,0.4594774964461103,9.761491592368483,0.8201094187367707
1757089257676081000,4.557080810546875,0.5182115345634519,9.771748782488704,0.6440463840618729
1757089257686036000,4.567035888671875,0.5719614641252905,9.7804996596992,0.4302185956707224
1757089257695990800,4.57699072265625,0.6482197972889989,9.784726337483525,-0.09663467490663752
1757089257705944800,4.58694482421875,0.6747475926000625,9.741893157929182,-0.900351195513457
1757089257715900000,4.59689990234375,0.619781565246731,9.64644482499659,-1.6529783658035098
1757089257725855000,4.60685498046875,0.5243135412329808,9.526521976020932,-2.2673460893079636
1757089257735808800,4.616808837890625,0.43048597790263593,9.400028516483307,-2.761256564699113
1757089257745763800,4.626763916015625,0.36757216988261787,9.28122035075128,-3.145507810975611
1757089257755719000,4.636718994140625,0.3361449851574376,9.190948543673754,-3.4035055439502
1757089257765674000,4.646674072265625,0.3273858150426298,9.19653131224215,-3.389250808626413
1757089257775627800,4.656627685546875,0.3435688515478745,9.265064750242233,-3.1954522838398813
1757089257785582800,4.666582763671875,0.3655706938670948,9.313378407034277,-3.0492163052171466
1757089257795538000,4.676537841796875,0.3802436911355704,9.319866015487909,-3.0275249901518224
1757089257805492000,4.686491943359375,0.38406704881601034,9.311337841117382,-3.05317381067127
1757089257815446800,4.69644677734375,0.37563524749204513,9.307635479468107,-3.0654917327135798
1757089257825401900,4.70640185546875,0.3599580781497061,9.305583807635307,-3.073584146015346
1757089257835357000,4.71635693359375,0.3419789885405451,9.302680487409233,-3.084406861063838
1757089257845311000,4.72631103515625,0.32434790865145624,9.298915581917763,-3.09763546821028
1757089257855265800,4.736265869140625,0.30677422150541095,9.293926687589288,-3.114351625211537
1757089257865220900,4.746220947265625,0.2880234534040093,9.288145181578397,-3.1333304664477706
1757089257875174700,4.756174560546875,0.26666274026622994,9.28228242702484,-3.1525366866990923
1757089257885130000,4.7661298828125,0.24252247941251842,9.277364844366907,-3.1689231733545657
1757089257895084800,4.776084716796875,0.216641421039775,9.273896875995398,-3.1809295452296733
1757089257905040000,4.786039794921875,0.18965428285496308,9.272336787071824,-3.1871915282338854
1757089257914993700,4.79599365234375,0.16390050412369891,9.272308730021118,-3.188706608971953
1757089257924949000,4.805948974609375,0.14012849206048994,9.272989113500714,-3.1878564218834042
1757089257934903800,4.81590380859375,0.11698328839242457,9.273178498592973,-3.1882378224164247
1757089257944859000,4.82585888671875,0.09155275026615708,9.27172771526277,-3.19328224632442
1757089257954812700,4.835812744140625,0.061424656307650725,9.268609290981292,-3.2030443464040754
1757089257964768000,4.84576806640625,0.028305438258743376,9.265434168076515,-3.212679897494614
1757089257974722800,4.855722900390625,-0.0011636564311997063,9.26359935386479,-3.2180914011493322
1757089257984676900,4.8656767578125,-0.020230699894274583,9.26322584437728,-3.2191020394966006
1757089257994631700,4.875631591796875,-0.02566444506355328,9.26336963676214,-3.218648158249259
1757089258004587000,4.8855869140625,-0.019164230573386884,9.2638027674824,-3.217448427070677
1757089258014541800,4.895541748046875,-0.005570872063803836,9.264486658093332,-3.215530610750615
1757089258024495900,4.905495849609375,0.010501930120418546,9.265057735979557,-3.2138746602371335
1757089258034450700,4.91545068359375,0.0262197888078168,9.265559255760907,-3.212338536711037
1757089258044406000,4.925406005859375,0.03968125486206263,9.26586963688433,-3.21130744009763
1757089258054359800,4.93535986328125,0.04898099356039893,9.2660753885895,-3.210577664518356
1757089258064315000,4.94531494140625,0.05341298465847503,9.266178848963975,-3.21020678537935
1757089258074269700,4.955269775390625,0.053747454476961866,9.266159559741615,-3.210260853654146
1757089258084225000,4.96522509765625,0.051811298782611266,9.26596608299613,-3.210850343979895
1757089258094178800,4.9751787109375,0.04959385106200352,9.265674406573176,-3.2117315107285975
1757089258104134000,4.9851337890625,0.04850111478869803,9.265272255513072,-3.2129099068582057
1757089258114088700,4.995088623046875,0.04973037802244071,9.264863674712181,-3.2140663834169505
1757089258124042800,5.005042724609375,0.05384084098199382,9.264628696912526,-3.214675162965059
1757089258133997800,5.014997802734375,0.060706425035698335,9.264756122684478,-3.2141853336215016
1757089258143953000,5.024952880859375,0.06952613426528405,9.265157104700803,-3.2128537927567957
1757089258153907700,5.03490771484375,0.07886569351735524,9.26557503785193,-3.2114348658695815
1757089258163861800,5.04486181640625,0.08718070006123743,9.266145531216264,-3.209568779736757
1757089258173816800,5.05481689453125,0.09329303632853553,9.266866246706247,-3.207311940720677
1757089258183772000,5.06477197265625,0.09722615626007318,9.267597483590245,-3.205083743277192
1757089258193726000,5.074725830078125,0.1002513858327642,9.268414060670137,-3.202629043601453
1757089258203680800,5.0846806640625,0.10317320982990785,9.269301949420571,-3.1999682999596
1757089258213635800,5.0946357421875,0.10727227004603482,9.270285115239023,-3.19698314666897
1757089258223591000,5.1045908203125,0.11346485934215597,9.27118586347103,-3.194154352983832
1757089258233544700,5.114544677734375,0.1205419946541544,9.271749342572688,-3.19225582588613
1757089258243499800,5.124499755859375,0.12862859013648703,9.272091872400045,-3.190952634333074
1757089258253454800,5.134454833984375,0.13690348386568948,9.272198839905858,-3.190293878163397
1757089258263409000,5.144408935546875,0.14443877474134786,9.271904240873456,-3.1908196556031703
1757089258273363700,5.15436376953125,0.15091233640331775,9.271061944830418,-3.1929657277211545
1757089258283318800,5.16431884765625,0.15657072749119252,9.269687733867764,-3.196683286939561
1757089258293273900,5.17427392578125,0.16334261451261117,9.26812881398797,-3.200858819058537
1757089258303228000,5.184227783203125,0.17011919597545638,9.266422010070086,-3.2054467313706874
1757089258313182700,5.1941826171875,0.17523343371665104,9.264614668387175,-3.2103909097746013
1757089258323137800,5.2041376953125,0.17794176109358667,9.26288682168126,-3.2152205218881367
1757089258333092900,5.2140927734375,0.1783808831632137,9.260942701876163,-3.2207878006264568
1757089258343047000,5.224046875,0.17674771073712034,9.259054696172475,-3.226305395004153
1757089258353001700,5.234001708984375,0.1737773714231327,9.257046863481403,-3.2322239713981746
1757089258362956800,5.243956787109375,0.17007524723587555,9.255115603157877,-3.2379458561763164
1757089258372910800,5.253910888671875,0.16623813502471893,9.253201293969154,-3.243615133984387
1757089258382866000,5.263865966796875,0.16323849655101075,9.251314457309245,-3.249140911668539
1757089258392820700,5.27382080078125,0.16165327318618072,9.249339942365884,-3.2548367852225897
1757089258402775800,5.28377587890625,0.1616243941515684,9.247358413159846,-3.2604657310202714
1757089258412729900,5.293729736328125,0.16409076599879188,9.24560075583756,-3.265323107923567
1757089258422685000,5.303684814453125,0.17001389070376752,9.244033652651309,-3.269454800900817
1757089258432639700,5.3136396484375,0.17943207271657882,9.242492852950095,-3.2733047543272376
1757089258442593800,5.32359375,0.19135573474429546,9.240966081774234,-3.2769393114373084
1757089258452548900,5.333548828125,0.2044826898808591,9.2394831497401,-3.2803242777004837
1757089258462504000,5.34350390625,0.21777226996691895,9.23799028083384,-3.2836721268236637
1757089258472458800,5.353458740234375,0.23120383407324552,9.236502672624587,-3.286935220272839
1757089258482413000,5.3634130859375,0.24499668750632553,9.235052473816275,-3.2900077595859765
1757089258492368100,5.3733681640625,0.2589572987217456,9.233581816741824,-3.2930659781128164
1757089258502323200,5.3833232421875,0.2727539515471086,9.23206030626297,-3.2962235653609033
1757089258512278000,5.393278076171875,0.28618705002339556,9.230597247973083,-3.2991739395990964
1757089258522232000,5.403232177734375,0.3002465002370998,9.229158739602566,-3.301948665009439
1757089258532187100,5.413187255859375,0.31568737660553303,9.227933581721782,-3.3039354549124833
1757089258542142200,5.42314208984375,0.3311434870757162,9.226994255045057,-3.3050399090230465
1757089258552096300,5.43309619140625,0.34559118768833574,9.226182354140281,-3.305829305835068
1757089258562051000,5.443051025390625,0.35885285685416307,9.225315508177875,-3.3068373138338325
1757089258572006100,5.453006103515625,0.3714935080448165,9.224495423966646,-3.307728125193715
1757089258581961200,5.462961181640625,0.3842314455974847,9.223658973142504,-3.3086034467235206
1757089258591915000,5.4729150390625,0.3972562372675165,9.222778098654747,-3.309522022873163
1757089258601870000,5.4828701171875,0.41085064551904793,9.221687965330482,-3.3108976951405404
1757089258611825200,5.4928251953125,0.4252936334239319,9.220431827789545,-3.312572642615437
1757089258621780200,5.5027802734375,0.440492919588834,9.218921423226595,-3.3147949948400255
1757089258631734000,5.512734130859375,0.45666247555799777,9.217053291267156,-3.317795053438842
1757089258641689000,5.522689208984375,0.47430604960247874,9.214756704762577,-3.3216993674010036
1757089258651644200,5.53264404296875,0.4941858947990462,9.211896639156341,-3.3267312240883706
1757089258661599200,5.54259912109375,0.5168891633858904,9.208419902956486,-3.3329011448949575
1757089258671553000,5.552552978515625,0.5431098655091599,9.204117237326502,-3.3406063124448058
1757089258681508000,5.562508056640625,0.5730477615246549,9.199353968447447,-3.348713046532869
1757089258691463200,5.572463134765625,0.6067088427817449,9.19397753610611,-3.357537865762412
1757089258701418200,5.582418212890625,0.6436608188103884,9.187859345486759,-3.3673902744740247
1757089258711372000,5.5923720703125,0.6837834972970187,9.18093802179098,-3.3783421688601374
1757089258721327000,5.6023271484375,0.7268890640519559,9.173767107248306,-3.3888086178168653
1757089258731282200,5.6122822265625,0.7722733893938362,9.16642843492329,-3.3986145570382473
1757089258741237200,5.6222373046875,0.8184040761236101,9.15874781729281,-3.4085102203696964
1757089258751191000,5.63219091796875,0.8633403654370456,9.151092918625473,-3.417972168458998
1757089258761146000,5.64214599609375,0.906492767008394,9.143833156755566,-3.4262174342349168
1757089258771101200,5.65210107421875,0.9482575136136263,9.13703750526607,-3.433039681470394
1757089258781055200,5.66205517578125,0.9915177594736218,9.13084449584484,-3.43729003239125
1757089258791010000,5.672010009765625,1.0392455061364918,9.124919781970977,-3.438923771072924
1757089258800965000,5.681965087890625,1.0923471278574317,9.11904241437018,-3.438054294762015
1757089258810920200,5.691920166015625,1.1510146400772034,9.113302409413457,-3.4341333219259975
1757089258820874200,5.701874267578125,1.2158045076347888,9.107245009070635,-3.4278657859638333
1757089258830829000,5.7118291015625,1.2863934168599545,9.100559247696399,-3.419850529551506
1757089258840784100,5.7217841796875,1.3576900359630584,9.09375132124722,-3.410389165984094
1757089258850739200,5.7317392578125,1.424205266008526,9.086578653138876,-3.4023663107872006
1757089258860693200,5.741693359375,1.4833376923263073,9.079428781384228,-3.3961809001505374
1757089258870648000,5.75164794921875,1.5352555110901593,9.072567663443088,-3.3914451038002964
1757089258880603100,5.76160302734375,1.5794459504723548,9.066363548105954,-3.387743618933856
1757089258890558200,5.77155810546875,1.6176657910123466,9.060131960240007,-3.3863743764072654
1757089258900512300,5.78151220703125,1.6497499052762985,9.054296678215264,-3.386507647398114
1757089258910467000,5.791467041015625,1.6757191899217665,9.04932590406537,-3.3870439462319015
1757089258920422100,5.801422119140625,1.6948874162502585,9.045551646223664,-3.3875811218485232
1757089258930377200,5.811377197265625,1.7060115984633564,9.043552581360936,-3.38733533039391
1757089258940331300,5.821331298828125,1.7088316243201493,9.043710986793041,-3.385489702527225
1757089258950286000,5.8312861328125,1.703240672445297,9.046428429058194,-3.3810464593827723
1757089258960241200,5.8412412109375,1.6891089789792895,9.051758099648357,-3.3738623930975793
1757089258970196200,5.8511962890625,1.6668866257771848,9.059660251075028,-3.363693173521757
1757089258980150300,5.861150390625,1.638474770285189,9.069594785112143,-3.350860287694633
1757089258990105000,5.87110498046875,1.606927393246442,9.08074921633303,-3.3358903898388146
1757089259000060200,5.88106005859375,1.5744649471893906,9.092366004368662,-3.3196886121004816
1757089259010015200,5.89101513671875,1.5431459720790386,9.103950059178471,-3.302606544396281
1757089259019969300,5.90096923828125,1.5151827371373772,9.114631612190603,-3.286045577956736
1757089259029924000,5.910924072265625,1.4926286677628755,9.12390739005804,-3.270591988237202
1757089259039879200,5.920879150390625,1.4762499260224402,9.131782068955898,-3.2560192730054256
1757089259049834200,5.930834228515625,1.464125042334199,9.13841814596951,-3.2428459031775594
1757089259059789000,5.9407890625,1.4531483057677745,9.144716369330883,-3.2300045417830345
1757089259069743000,5.9507431640625,1.4412578153572975,9.14807795471847,-3.2258097204416987
1757089259079698200,5.9606982421875,1.4266151036292314,9.152749453660846,-3.219063168790936
1757089259089653200,5.9706533203125,1.4096023017689585,9.155398506864906,-3.2190140689522027
1757089259099607300,5.980607177734375,1.3921340112261473,9.159327663007378,-3.215437671770155
1757089259109562000,5.99056201171875,1.3763691636003552,9.160428902247547,-3.219085965144634
1757089259119517200,6.00051708984375,1.3633027612783013,9.162799138510227,-3.2179026005789635
1757089259129472300,6.01047216796875,1.353549721287936,9.16296222011745,-3.221556446911394
1757089259139427000,6.020427001953125,1.346169840169698,9.16583046903014,-3.216482796908915
1757089259149381000,6.030381103515625,1.3406896551929413,9.16795871323049,-3.2127062009796497
1757089259159336200,6.040336181640625,1.3366282509729266,9.17355317223668,-3.198392428945005
1757089259169291300,6.050291259765625,1.3332317404024303,9.178095491841434,-3.1867581052526828
1757089259179246000,6.06024609375,1.3286045189931988,9.18559899933934,-3.1670079873830077
1757089259189200100,6.0702001953125,1.3198941199235616,9.191580996358393,-3.1532693848878144
1757089259199155200,6.0801552734375,1.3049927572593092,9.200421305418015,-3.1336274035677314
1757089259209110000,6.090110107421875,1.2842713101394474,9.207344967201351,-3.121831751833856
1757089259219065000,6.100065185546875,1.259899523818493,9.215959066289663,-3.1063118188798424
1757089259229019100,6.11001904296875,1.235255204166472,9.221333745065332,-3.1002479887962338
1757089259238974200,6.11997412109375,1.213924100715667,9.227114666554332,-3.091456779575348
1757089259248929000,6.129928955078125,1.1980817308742553,9.229394886445998,-3.090829295326769
1757089259258884000,6.139884033203125,1.1870080367393792,9.232886235693096,-3.0846707726970313
1757089259268838100,6.149838134765625,1.1794669006448237,9.233056331562995,-3.087056791050732
1757089259278793200,6.159793212890625,1.1743628555040806,9.234510622024535,-3.0846511912137267
1757089259288748000,6.169748046875,1.171235517263785,9.233315274760127,-3.0894165059193965
1757089259298703000,6.179703125,1.1699762379176915,9.23395883336067,-3.087972444590926
1757089259308657200,6.1896572265625,1.170729905829206,9.232408096787333,-3.092313980926573
1757089259318612200,6.1996123046875,1.1726995984669775,9.233138164627551,-3.089384941737354
1757089259328567000,6.209567138671875,1.1745197265662253,9.232370687386393,-3.0909871162369846
1757089259338522000,6.219522216796875,1.1739645769014955,9.234398393821715,-3.0851363443821667
1757089259348476200,6.22947607421875,1.170327170247212,9.235181068632006,-3.0841786052659153
1757089259358431000,6.239430908203125,1.163976924437657,9.238547914716602,-3.0764845436319708
1757089259368386000,6.249385986328125,1.1562580206234008,9.240373376578091,-3.073910016968846
1757089259378341000,6.259341064453125,1.147934136653319,9.244242326965928,-3.0653879800781607
1757089259388295200,6.269295166015625,1.1400490824919194,9.246209243124722,-3.0623961047857997
1757089259398250000,6.27925,1.1328976763673126,9.249696500718594,-3.054512365798652
1757089259408205000,6.289205078125,1.1268710364889354,9.251190538668633,-3.052219578686356
1757089259418160000,6.29916015625,1.121575706559792,9.254033068618178,-3.0455396625310183
1757089259428114200,6.3091142578125,1.1162781846735625,9.255275762155652,-3.0437133238866925
1757089259438069000,6.319069091796875,1.1102090208277107,9.25828137371242,-3.0367867394939063
1757089259448024000,6.329024169921875,1.102936764802411,9.260496127152443,-3.0326778428703545
1757089259457979100,6.338979248046875,1.0944831900380552,9.26316446957886,-3.0275901643425223
1757089259467934200,6.348934326171875,1.0852089465405792,9.265904123675822,-3.02254047973752
1757089259477888000,6.358887939453125,1.0760836099945008,9.268547916182875,-3.0176851486608385
1757089259487842600,6.368842529296875,1.0676474978215993,9.27085385503769,-3.0135970025643704
1757089259497797400,6.37879736328125,1.0603916814744472,9.272824278327823,-3.010091917052865
1757089259507752400,6.38875244140625,1.0546315835777669,9.27437559942305,-3.0073379421696065
1757089259517706500,6.39870654296875,1.0503309637743978,9.27564518096745,-3.0049297119840976
1757089259527661600,6.40866162109375,1.047165047089383,9.276780906999111,-3.002531418670714
1757089259537616400,6.418616455078125,1.0443881297219544,9.277681070709228,-3.000715893681347
1757089259547571500,6.428571533203125,1.040602035311982,9.278456146734952,-2.9996318978369234
1757089259557525500,6.438525390625,1.035177160719037,9.279157573002577,-2.999341682718694
1757089259567480600,6.44848046875,1.0280601683206856,9.27970819262266,-3.000081979691982
1757089259577435400,6.458435302734375,1.0195483605630695,9.280154767346382,-3.0016078740850087
1757089259587390500,6.468390380859375,1.0104146945800632,9.280577376672625,-3.003388327760994
1757089259597344500,6.478344482421875,1.0012622508313507,9.28112741177082,-3.0047476334154606
1757089259607299600,6.488299560546875,0.9925362158011645,9.281848711782693,-3.005415449674427
1757089259617254400,6.49825439453125,0.9848073751147836,9.28276874923706,-3.005117635771632
1757089259627209500,6.50820947265625,0.9787721135385334,9.283902721703052,-3.003585311637819
1757089259637163500,6.51816357421875,0.9755296244859695,9.284995777636766,-3.0012635906919836
1757089259647118600,6.52811865234375,0.9730893917270004,9.286451237142085,-2.997546031473577
1757089259657073400,6.538073486328125,0.9698813164006919,9.287994374930857,-2.9938109365984795
1757089259667028500,6.548028564453125,0.9656319883931428,9.289756123906374,-2.9897102232813833
1757089259676983300,6.5579833984375,0.9604505671672523,9.291651728394626,-2.985492313325405
1757089259686937600,6.5679375,0.9548296585455537,9.293598770809172,-2.981221211877465
1757089259696892400,6.577892333984375,0.9495780216276645,9.29560309636891,-2.9766479126125573
1757089259706847500,6.587847412109375,0.9457139666106551,9.297528511473535,-2.9718618473798033
1757089259716802300,6.59780224609375,0.9433665267016738,9.299197321468592,-2.9673823638781904
1757089259726756600,6.607756591796875,0.9420361548807471,9.300488530322909,-2.963761250771582
1757089259736711400,6.61771142578125,0.9415743095226585,9.30134368584752,-2.9612203341171144
1757089259746666500,6.62766650390625,0.9416422601923345,9.301952173134683,-2.959283520835638
1757089259756621300,6.637621337890625,0.9414496602296829,9.302606837651133,-2.957294685105979
1757089259766575600,6.64757568359375,0.9398911056760698,9.303511677536369,-2.954935847020149
1757089259776530400,6.657530517578125,0.9363988065809011,9.30468422844708,-2.9523557673990726
1757089259786485500,6.667485595703125,0.9313126624230295,9.30612039873004,-2.949437541864812
1757089259796440300,6.6774404296875,0.9255717076182365,9.307862858483194,-2.9457351802155376
1757089259806394600,6.68739453125,0.9198426624469459,9.30999928599,-2.9407790191128846
1757089259816349400,6.697349365234375,0.9139534582778811,9.312326852154731,-2.935242720034718
1757089259826304500,6.707304443359375,0.9076178985808044,9.314700011026858,-2.9296733954697847
1757089259836259300,6.71725927734375,0.9011904228165745,9.317043359282613,-2.924194964058697
1757089259846213600,6.727213623046875,0.8945988425318151,9.319130102428794,-2.9195728572160005
1757089259856168400,6.73716845703125,0.8886173569694161,9.321029214048385,-2.9153385806471106
1757089259866123500,6.74712353515625,0.8836972170282155,9.322721989440918,-2.9114143929406997
1757089259876078300,6.757078369140625,0.8798441217966377,9.324250514182447,-2.9076792980656028
1757089259886032600,6.76703271484375,0.8768757735103369,9.325684930899738,-2.9039740138068795
1757089259895987500,6.776987548828125,0.8739724532842635,9.327146820145845,-2.9001556245625015
1757089259905942500,6.786942626953125,0.8701373321007937,9.328836088407039,-2.8958678642407056
1757089259915897300,6.7968974609375,0.864747601886466,9.330666226443649,-2.8915803961798545
1757089259925851600,6.8068515625,0.8576437612306326,9.332551894059776,-2.8876120770707723
1757089259935806500,6.816806396484375,0.8491184364043176,9.334528747090697,-2.8837384505078196
1757089259945761500,6.826761474609375,0.8397986001994461,9.33642610514462,-2.8803254271939394
1757089259955716400,6.83671630859375,0.8303619326818734,9.338100760358572,-2.877630196760595
1757089259965670700,6.846670654296875,0.821969586585462,9.339494260543585,-2.875514812041819
1757089259975625500,6.85662548828125,0.8152907664086669,9.340652198407053,-2.8736604163467883
1757089259985580500,6.86658056640625,0.8097795287065207,9.34158918699622,-2.8721693010061977
1757089259995535400,6.876535400390625,0.8036489900622517,9.342419208079576,-2.8711881810143587
1757089260005489700,6.88648974609375,0.7958249453730881,9.34328605404198,-2.870548129545152
1757089260015444500,6.896444580078125,0.7862695468466728,9.344140040522813,-2.8704011222898957
1757089260025399600,6.906399658203125,0.775944552187249,9.344941420033573,-2.8706071662560104
1757089260035354400,6.916354248046875,0.7659647177036851,9.345666811698674,-2.8709225158154963
1757089260045308700,6.92630859375,0.7570652258027345,9.346443056768178,-2.870760603252053
1757089260055263500,6.936263427734375,0.748369951236993,9.34686975774765,-2.8716438158273694
1757089260065218600,6.946218505859375,0.7385576553400606,9.347258464804291,-2.872920996156335
1757089260075173400,6.95617333984375,0.726925158278644,9.34778219641745,-2.874182686655223
1757089260085127400,6.96612744140625,0.7136627219278365,9.348377824223041,-2.875566249968111
1757089260095082500,6.97608251953125,0.6998519309792667,9.348917337927222,-2.877208171956241
1757089260105037600,6.98603759765625,0.6866531344491988,9.349282664108276,-2.8791996380344034
1757089260114992400,6.995992431640625,0.6748803521342576,9.349417104142903,-2.881545908899605
1757089260124946400,7.005946533203125,0.6648666153810918,9.34932942585945,-2.8841566759198902
1757089260134901500,7.015901611328125,0.6569703091733157,9.349040087524056,-2.8869027597576378
1757089260144856600,7.025856689453125,0.650971945541352,9.348704571959376,-2.8893498606488106
1757089260154811400,7.035811279296875,0.6460053361099213,9.348330477949977,-2.891671581594646
1757089260164765400,7.045765380859375,0.6416008175406605,9.34789617818594,-2.894063445167243
1757089260174720500,7.055720458984375,0.6375755075473338,9.34746538555324,-2.896335481752455
1757089260184675300,7.06567529296875,0.6342828957427292,9.347097721284628,-2.8982483296364543
1757089260194630400,7.07563037109375,0.6321078897912055,9.346836439999937,-2.899562042583525
1757089260204584400,7.08558447265625,0.6309367271199822,9.34670316900909,-2.900252362935245
1757089260214539500,7.09553955078125,0.6306736922696232,9.34666459056437,-2.9004318111553786
1757089260224494300,7.105494384765625,0.6314015681527555,9.346631272816657,-2.900378327402472
1757089260234449400,7.115449462890625,0.6334251829348504,9.346549439752101,-2.9002009250089524
1757089260244403500,7.125403564453125,0.6369592022798956,9.346484557822347,-2.8996342310369014
1757089260254358500,7.135358642578125,0.6416637997742742,9.346434873461723,-2.898762708899379
1757089260264313300,7.145313232421875,0.6470595944032073,9.346427859199046,-2.897583143725991
1757089260274268400,7.155268310546875,0.653069721538201,9.346483388778566,-2.896052865418792
1757089260284222500,7.165222412109375,0.6591572978235781,9.346617244291306,-2.8942399707779285
1757089260294177500,7.175177490234375,0.6648762599922716,9.346829425737262,-2.8922511350482702
1757089260304132400,7.18513232421875,0.6698406044013798,9.34710882720053,-2.890198001910746
1757089260314087400,7.19508740234375,0.6742093940701335,9.347485259297489,-2.887966005074978
1757089260324041500,7.20504150390625,0.6781841429200023,9.347882149660586,-2.885751251634955
1757089260333996500,7.21499658203125,0.6822367793116718,9.348325217252968,-2.8833576344966887
1757089260343951400,7.224951416015625,0.6868048178795725,9.348688205346464,-2.881096703827381
1757089260353906400,7.234906494140625,0.6917873555324972,9.34904943987429,-2.8787308514788745
1757089260363860500,7.244860595703125,0.6968611516654492,9.349398399442434,-2.8763752282634374
1757089260373815600,7.254815673828125,0.7015326506078243,9.349743267357349,-2.874117804725468
1757089260383770400,7.264770263671875,0.7057235994916409,9.350102163797617,-2.871925263117254
1757089260393725400,7.274725341796875,0.7094600826062262,9.350403777092694,-2.8700203062787653
1757089260403679500,7.284679443359375,0.7123896332520991,9.350630571585894,-2.868558124771714
1757089260413634600,7.294634521484375,0.7143908170066774,9.350774363970755,-2.8675857726082206
1757089260423589400,7.30458935546875,0.7159927723105997,9.350815865024924,-2.8670494737744328
1757089260433544400,7.31454443359375,0.7176335252549498,9.350811188849807,-2.8666572595864532
1757089260443498500,7.32449853515625,0.7195546295106411,9.350810604327917,-2.8661811665073036
1757089260453453600,7.33445361328125,0.7216820699933916,9.350810604327917,-2.865645159934461
1757089260463408400,7.344408447265625,0.7241369157996028,9.350788977017999,-2.865093079009652
1757089260473363500,7.354363525390625,0.7272521252106875,9.350658628636598,-2.864734767091274
1757089260483317200,7.364317138671875,0.7309092594787479,9.350475673285127,-2.8643986670047044
1757089260493272600,7.3742724609375,0.7349119192488491,9.350285703670979,-2.863992716552317
1757089260503227400,7.384227294921875,0.7387551506735384,9.350107424494624,-2.8635853047952056
1757089260513182500,7.394182373046875,0.742120535453409,9.349991689160465,-2.8630934296250343
1757089260523136300,7.40413623046875,0.7450905642401426,9.349940835756064,-2.8624864036425945
1757089260533091600,7.414091552734375,0.7481088160827756,9.349896996614337,-2.861840214693546
1757089260543046400,7.42404638671875,0.751472081970796,9.349745605444907,-2.861453261202574
1757089260553001500,7.43400146484375,0.7550790934868157,9.349500690773128,-2.8613024545550343
1757089260562955300,7.443955322265625,0.7585894396953284,9.349210767915844,-2.861325543169677
1757089260572910600,7.45391064453125,0.7620173683173954,9.348854794085025,-2.861577179843187
1757089260582865400,7.463865478515625,0.7654004348844289,9.348477192944287,-2.861905681145191
1757089260592820500,7.473820556640625,0.7689390573393553,9.348227602097392,-2.8617744559809566
1757089260602774300,7.483774169921875,0.7723843024224042,9.347980933859944,-2.86165638255924
1757089260612729600,7.4937294921875,0.7752659222733229,9.347788041636347,-2.861504406867921
1757089260622684400,7.503684326171875,0.7775494301006197,9.34766996821463,-2.8612673832416533
1757089260632639500,7.513639404296875,0.779106669479981,9.347696856221557,-2.86076089502424
1757089260642593300,7.52359326171875,0.7801334552444518,9.347759984585641,-2.860273988290131
1757089260652548600,7.533548583984375,0.7808797435671091,9.347851170000434,-2.859770130421221
1757089260662503400,7.54350341796875,0.7819220191616565,9.347920728105306,-2.8592592582896352
1757089260672458500,7.55345849609375,0.783454416360706,9.347923066192864,-2.858826712091267
1757089260682412300,7.563412353515625,0.7855809069953859,9.347850585478543,-2.8584844745248557
1757089260692367600,7.57336767578125,0.7879586689773946,9.347700363352894,-2.8583219774395228
1757089260702322400,7.583322509765625,0.7902097358398139,9.347513316348195,-2.8583108715236185
1757089260712277500,7.593277587890625,0.7920862703014164,9.347183061480521,-2.8588775654956695
1757089260722231300,7.603231201171875,0.7939255414925516,9.346709014227987,-2.8599127537623046
1757089260732186600,7.6131865234375,0.796196116773039,9.346095850765705,-2.8612808272451162
1757089260742141400,7.623141357421875,0.7988466312818229,9.345409037545323,-2.8627871401548384
1757089260752096500,7.633096435546875,0.801607108971104,9.344658511438965,-2.8644653025001285
1757089260762050300,7.64305029296875,0.8041512404959649,9.343974620828032,-2.8659815522819754
1757089260772005600,7.653005615234375,0.8061961172617972,9.34343686068952,-2.867162871021032
1757089260781960400,7.66296044921875,0.8077024301715194,9.343049907198548,-2.8680019521936773
1757089260791915500,7.67291552734375,0.809061881956458,9.342810253223776,-2.868396504469216
1757089260801869300,7.682869384765625,0.8105855843923986,9.34261736100018,-2.8685952419117093
1757089260811824600,7.69282470703125,0.812414261124283,9.342456617480515,-2.8685943651288746
1757089260821779500,7.702779541015625,0.8140283452574163,9.342387059375643,-2.868369908723235
1757089260831734500,7.712734619140625,0.8151352835860103,9.342308148920536,-2.8683091184467076
1757089260841688300,7.722688232421875,0.8158074837591499,9.342222224202752,-2.8684011806443332
1757089260851643600,7.7326435546875,0.8162887644700706,9.342024071282149,-2.868912052775919
1757089260861598500,7.742598388671875,0.816848663375154,9.341705506852268,-2.8697879588276147
1757089260871553500,7.752553466796875,0.8178051603823899,9.341267699956893,-2.870942097298801
1757089260881507300,7.76250732421875,0.8188806806594133,9.34075273617208,-2.8723092939987778
1757089260891462700,7.772462646484375,0.8201777347326278,9.340271674656867,-2.873505810306966
1757089260901417500,7.78241748046875,0.8216064523614942,9.339780091747642,-2.874692097482085
1757089260911372500,7.79237255859375,0.8230323935113847,9.339360989552736,-2.8756477907717226
1757089260921326300,7.802326416015625,0.8241567213661968,9.338974620583652,-2.8765809799686073
1757089260931281700,7.81228173828125,0.8250110001079738,9.338521616119145,-2.877806430110335
1757089260941236500,7.822236572265625,0.825605093543604,9.338004314246772,-2.879315665629506
1757089260951191600,7.832191650390625,0.8260188619762658,9.337527344384789,-2.8807445293888447
1757089260961145300,7.842145263671875,0.8266764491021633,9.337055050697922,-2.8820874684303996
1757089260971100700,7.8521005859375,0.826874236696586,9.336438964626193,-2.8840269120603796
1757089260981055500,7.862055419921875,0.8262581506248563,9.335835738036035,-2.886151064607501
1757089260991010300,7.87201025390625,0.8252967582467943,9.33521556031108,-2.8884245624974367
1757089261000964400,7.88196435546875,0.8242940840102732,9.334543360137939,-2.890887445479631
1757089261010919700,7.891919677734375,0.8234529570110142,9.333866483789683,-2.8933137958437203
1757089261020874500,7.90187451171875,0.8228267148714512,9.333196037182212,-2.895655390533805
1757089261030829300,7.911829345703125,0.8222271415431052,9.332624374774097,-2.897663515485823
1757089261040783400,7.921783447265625,0.8217971526280045,9.332118763339519,-2.8994141585454343
1757089261050738700,7.93173876953125,0.8216482456766069,9.331652899393438,-2.9009537892028687
1757089261060693500,7.941693603515625,0.821878766496852,9.331143780827523,-2.9025296602174637
1757089261070648300,7.9516484375,0.822343534464389,9.33058556242287,-2.9041864875137806
1757089261080602400,7.961602294921875,0.8229974683284759,9.330052478459477,-2.905715012255311
1757089261090557700,7.9715576171875,0.8236513291273265,9.329583107382058,-2.907036616247892
1757089261100512500,7.981512451171875,0.8243295937150716,9.329209597894549,-2.9080452087685464
1757089261110467300,7.99146728515625,0.8250393494196235,9.328930196431278,-2.908739620773494
1757089261120421400,8.00142138671875,0.8254883352961391,9.328753670820593,-2.9091788889735937
1757089261130376700,8.011376708984375,0.8257369762949645,9.328626829570531,-2.9095146967992185
1757089261140331500,8.02133154296875,0.8258939204223453,9.328524538239837,-2.9097967286109925
1757089261150286300,8.031286376953124,0.8263376456018536,9.32846257891953,-2.9098706706300375
1757089261160240400,8.041240478515626,0.8269280857756733,9.328454980134964,-2.909726878245175
1757089261170195500,8.051195556640625,0.8278913047846406,9.328466086050868,-2.909415328077972
1757089261180150500,8.061150634765625,0.8289504584487527,9.32855259529054,-2.9088369436681267
1757089261190105300,8.071105224609376,0.8298624587271362,9.32866599253714,-2.9082097516804932
1757089261200059400,8.081059326171875,0.8305016334135085,9.328801017093658,-2.907598049522936
1757089261210014500,8.091014404296875,0.8309447010058909,9.32896526774466,-2.9069503992691637
1757089261219969500,8.100969482421876,0.8311178656157105,9.329153483793139,-2.9062904740557074
1757089261229924400,8.11092431640625,0.8310401972696184,9.329306628528236,-2.9058199339345094
1757089261239878400,8.12087841796875,0.83117726765275,9.329300783309339,-2.905804151843488
1757089261249833500,8.13083349609375,0.8317354129921645,9.329237070423364,-2.9058421457663175
1757089261259788500,8.14078857421875,0.8325951716266572,9.329117243435979,-2.905980677454173
1757089261269743400,8.150743408203125,0.8335698618777095,9.32900150810182,-2.9060777080878615
1757089261279697400,8.160697509765624,0.8344085046589375,9.328907400077581,-2.9061376215815544
1757089261289652500,8.170652587890626,0.8351170182544737,9.32885596215129,-2.9061002121806143
1757089261299607600,8.180607666015625,0.8357824233606457,9.328820890837907,-2.906021009464562
1757089261309562400,8.190562255859374,0.8364374532032758,9.328785819524526,-2.9059435603141783
1757089261319516400,8.200516357421876,0.8370252630285918,9.328711585244536,-2.9060139952018855
1757089261329471500,8.210471435546875,0.8376396685998886,9.328550841724873,-2.906355940507352
1757089261339426600,8.220426513671875,0.8386703998871147,9.328390682727099,-2.9065695832580327
1757089261349381400,8.23038134765625,0.8406141543660313,9.328208896419405,-2.906597348047793
1757089261359335400,8.24033544921875,0.8431500295192003,9.32801366610825,-2.9064880424544213
1757089261369290500,8.25029052734375,0.8464416914757341,9.327781026396154,-2.9062773223131892
1757089261379245600,8.26024560546875,0.8505359750520437,9.327541372421383,-2.905852374899387
1757089261389200400,8.270200439453125,0.855323939980939,9.327375368204713,-2.904972377194464
1757089261399154400,8.280154541015625,0.8606224117152392,9.327170785543322,-2.9040613998293874
1757089261409109200,8.290109130859374,0.8662847483258694,9.326990752801299,-2.902962206415832
1757089261419064600,8.300064697265626,0.8721882002159953,9.326827086672186,-2.901720097400248
1757089261429019400,8.310019287109375,0.8779825657084583,9.326754605957865,-2.9002076470106837
1757089261438973400,8.319973388671874,0.8832784070942551,9.326814227190614,-2.898404104720056
1757089261448928300,8.32992822265625,0.8878778637137263,9.326965618360042,-2.8965067466661334
1757089261458883600,8.339883544921875,0.8918828615713864,9.327162017714977,-2.8946485515788196
1757089261468838400,8.34983837890625,0.8952525572001934,9.327389981251955,-2.89287628120929
1757089261478792400,8.35979248046875,0.8981642068631946,9.327549555727838,-2.8914561852782965
1757089261488748300,8.369748291015625,0.9007356647863983,9.327674643412232,-2.890253823751211
1757089261498703400,8.379703369140625,0.9030003217827528,9.327779857352375,-2.8892104521781206
1757089261508658200,8.389658203125,0.9046901745658368,9.327872211810947,-2.8883821846604345
1757089261518612200,8.3996123046875,0.9054497607614844,9.328037046983837,-2.8876082776784897
1757089261528567300,8.4095673828125,0.9051097882173955,9.328265595042705,-2.8869688107311724
1757089261538522400,8.4195224609375,0.904092062542215,9.32846199439764,-2.886659890912473
1757089261548477200,8.429477294921876,0.9030467182077467,9.328604033216834,-2.886529250270128
1757089261558431200,8.43943115234375,0.9023660424672066,9.328644949749112,-2.8866102065518495
1757089261568386300,8.44938623046875,0.9020828416116535,9.32863150574565,-2.886736463280022
1757089261578341000,8.459341064453126,0.9020137218981981,9.328570715469121,-2.886956828032434
1757089261588296200,8.469296142578125,0.9020676440425217,9.32848011457622,-2.887235060451925
1757089261598250200,8.479250244140625,0.9024155076321214,9.328327554363012,-2.8876193835943935
1757089261608205300,8.489205322265626,0.903260653219372,9.328072702819108,-2.8881781865209337
1757089261618160000,8.49916015625,0.9044784315112978,9.327743032473325,-2.888861200349033
1757089261628115200,8.509115234375,0.9054580901984125,9.327440834656358,-2.8895272630423308
1757089261638069200,8.5190693359375,0.9058192516610026,9.32713863683939,-2.890387679263949
1757089261648024300,8.5290244140625,0.9055122315384447,9.326817149800062,-2.8915242820784446
1757089261657979100,8.538979248046875,0.9052481007095425,9.326454161706566,-2.892777497009933
1757089261667934200,8.548934326171874,0.9054060677502304,9.32607422247827,-2.8939512169644237
1757089261677888300,8.55888818359375,0.9065027769457549,9.325803004321456,-2.894483716405928
1757089261687843300,8.56884326171875,0.9083779962331056,9.32531025236845,-2.8954844178810712
1757089261697798100,8.578798095703124,0.9103433049567043,9.32469416629672,-2.896856290756166
1757089261707753200,8.588753173828126,0.9104116209525615,9.32443346953392,-2.8976681916609404
1757089261717708000,8.5987080078125,0.9087013829685747,9.324297275933622,-2.8986379134759304
1757089261727662300,8.608662353515625,0.906717004218325,9.324259282010793,-2.899384640190005
1757089261737617200,8.6186171875,0.9049751289870589,9.32424583800733,-2.8999700388625262
1757089261747572200,8.628572265625,0.9036030369162559,9.32418972390592,-2.9005808642372486
1757089261757527000,8.638527099609375,0.9023872313857078,9.324064051699638,-2.9013644158303737
1757089261767481300,8.6484814453125,0.9013827305182814,9.323869405910372,-2.902300235375762
1757089261777436200,8.658436279296875,0.9005759441800415,9.323707493346928,-2.9030729733139276
1757089261787391200,8.66839111328125,0.8998243220951407,9.323480114331842,-2.904036557649076
1757089261797346000,8.678345947265624,0.8990042378839105,9.323290144717692,-2.904899604219198
1757089261807300400,8.68830029296875,0.897984466382116,9.323200712868571,-2.9055075069844722
1757089261817255200,8.698255126953125,0.8969992547370493,9.323137584504485,-2.9060122416362164
1757089261827210200,8.708210205078124,0.8964530190311372,9.323044061002134,-2.90648132045269
1757089261837165000,8.7181650390625,0.8965418663583695,9.322897930529713,-2.906923219001293
1757089261847119400,8.728119384765625,0.8972020107675344,9.322695685955882,-2.907363071723282
1757089261857074200,8.73807421875,0.8978479805208742,9.322545463830233,-2.9076418886646627
1757089261867029200,8.748029296875,0.8980418225925415,9.322428559452295,-2.9079589917898176
1757089261876984000,8.757984130859375,0.8978047989662736,9.322366015610099,-2.908233132556081
1757089261886938400,8.7679384765625,0.8974763707295059,9.322340881168842,-2.9084181337341666
1757089261896893200,8.77789306640625,0.8973427344124764,9.322297042027115,-2.908596120649576
1757089261906848300,8.78784814453125,0.8973672843318432,9.322326852643489,-2.9084926602751016
1757089261916803000,8.797802978515625,0.897362388961017,9.322424467799067,-2.9081808178469535
1757089261926757400,8.80775732421875,0.897542202507332,9.322595148190855,-2.9075822674319145
1757089261936712200,8.817712158203125,0.8977680471524596,9.322807329636811,-2.9068311568036673
1757089261946667300,8.827667236328125,0.8980004676688462,9.323028863433002,-2.9060528659075495
1757089261956622000,8.8376220703125,0.8983759499177336,9.323242213922738,-2.905247979265451
1757089261966576400,8.847576416015626,0.8989910130761564,9.323397112223505,-2.9045588279575107
1757089261976531200,8.85753125,0.8996984306931495,9.323540904608368,-2.9038763986513016
1757089261986486300,8.867486328125,0.9004602819111198,9.323598187753557,-2.9034578809782863
1757089261996441000,8.877441162109376,0.9013868221715092,9.32359409610033,-2.9031822789072987
1757089262006395400,8.8873955078125,0.902566460410133,9.323563700962065,-2.902915736925602
1757089262016350200,8.89735009765625,0.903890037164092,9.323514601123332,-2.9026643925130364
1757089262026305300,8.90730517578125,0.904965119049698,9.323471346503496,-2.9024630247220395
1757089262036260000,8.917260009765625,0.9057700056917964,9.323402957442402,-2.9024276611477133
1757089262046215200,8.927215087890625,0.9061440266359597,9.323353273081779,-2.9024738383769986
1757089262056169200,8.937169189453124,0.906395371048525,9.323228769919275,-2.9027967867210505
1757089262066124300,8.947124267578126,0.9066042645588517,9.323076794227957,-2.9032237799614666
1757089262076079000,8.9570791015625,0.906880597282201,9.322853506866096,-2.903857401689887
1757089262086034200,8.9670341796875,0.9073377664651722,9.322501040166616,-2.9048429055958986
1757089262095988200,8.97698828125,0.9078812987573445,9.322067324924468,-2.9060645563453433
1757089262105943300,8.986943359375,0.9079643739309161,9.32159970741272,-2.9075366747245193
1757089262115898000,8.996898193359375,0.9075210140775889,9.321164823126793,-2.90907367503345
1757089262125853200,9.006853271484376,0.9067559479892253,9.32066622595489,-2.9109058588966725
1757089262135807200,9.01680712890625,0.9058955317676067,9.320065921974182,-2.9130937243297694
1757089262145762300,9.02676220703125,0.9049770286832004,9.319373848056793,-2.915593432191014
1757089262155717000,9.036717041015624,0.9042789634164422,9.318586497071385,-2.918326364286244
1757089262165672200,9.046672119140625,0.9039403791118412,9.31775589146614,-2.9210815082132813
1757089262175626200,9.056626220703125,0.9036590779524296,9.316949251258373,-2.9237416673332453
1757089262185581300,9.066581298828124,0.9027909898810088,9.316260684472322,-2.9262051348373292
1757089262195536100,9.0765361328125,0.9013912060856819,9.315694282761216,-2.928435670368373
1757089262205491200,9.0864912109375,0.8998365970548242,9.31512437391877,-2.9307237813055513
1757089262215445200,9.0964453125,0.8983866174422204,9.314556218641997,-2.9329765286684033
1757089262225400300,9.106400390625,0.896861892092973,9.31400501450002,-2.9351918666303156
1757089262235355100,9.116355224609375,0.8951523116961121,9.313422246176003,-2.937562979675829
1757089262245310200,9.126310302734375,0.8934779487431049,9.312859351596236,-2.9398581048756838
1757089262255265300,9.136265380859374,0.8920451394610106,9.312325683110952,-2.9419787502914665
1757089262265219300,9.14621923828125,0.8906683712150901,9.311792014625668,-2.9440841981381176
1757089262275174100,9.156174072265625,0.8891554824341088,9.311292248409986,-2.9461183343142268
1757089262285129200,9.166129150390624,0.8874834575686603,9.310822292810679,-2.948109508131444
1757089262295084300,9.176084228515625,0.8856299386564642,9.310299145719409,-2.9503207544401286
1757089262305038300,9.186038330078125,0.8836768318273126,9.309791780719161,-2.952507158568501
1757089262314993200,9.1959931640625,0.8820084602236747,9.309219533789157,-2.9548060831606384
1757089262324948200,9.2059482421875,0.8807545877050608,9.308553178834915,-2.957278026232123
1757089262334903300,9.2159033203125,0.879760023709759,9.307828956213593,-2.959853721939027
1757089262344857000,9.225857177734374,0.878721693637967,9.307056218275427,-2.962591914731264
1757089262354812200,9.235812255859376,0.8772655034802853,9.306274127987027,-2.965478283822536
1757089262364767200,9.245767333984375,0.8756781612236052,9.305479762738942,-2.968438594932854
1757089262374722300,9.255722412109375,0.874046395303309,9.304689489144087,-2.971395106650889
1757089262384676000,9.265676025390626,0.872532264413312,9.303892785808443,-2.974333790451288
1757089262394631200,9.275631103515625,0.8711079306986182,9.303082053947449,-2.9772797807753086
1757089262404586200,9.285586181640625,0.8701220614664256,9.302283012524247,-2.9800691192328927
1757089262414541300,9.295541259765624,0.8695172274410724,9.301491569885611,-2.982716711132228
1757089262424496000,9.30549609375,0.8692300810627639,9.300731691429018,-2.985166442371905
1757089262434450200,9.3154501953125,0.8692432328052818,9.300034356814622,-2.9873326804950833
1757089262444405200,9.3254052734375,0.8697622882433235,9.299426454049348,-2.989071340855956
1757089262454360300,9.3353603515625,0.871063141708821,9.299074571871756,-2.9897882569536565
1757089262464315100,9.345315185546875,0.8729900181181728,9.29864202567339,-2.9905735621124503
1757089262474269200,9.355269287109374,0.8753769863199442,9.29834041237831,-2.9908158464357255
1757089262484224300,9.365224365234376,0.8777738913938402,9.298338658812641,-2.9901164659947157
1757089262494178800,9.3751787109375,0.8800584951996803,9.298522783207893,-2.9888688040211795
1757089262504133600,9.385133544921874,0.8822190342344343,9.298740809872745,-2.9875536297693848
1757089262514087700,9.395087646484376,0.8846106786113231,9.298998584026098,-2.986047316859662
1757089262524042500,9.40504248046875,0.8875267121884971,9.299230639216303,-2.9844612167119977
1757089262533997800,9.414997802734375,0.8909611436165868,9.299409502914548,-2.9828821308270097
1757089262543952600,9.42495263671875,0.894632744801417,9.29945918727517,-2.9816265778079627
1757089262553906700,9.43490673828125,0.8984374708466232,9.299509456157685,-2.980326893386245
1757089262563861500,9.444861572265625,0.9013293198306113,9.299526407292484,-2.9793942887112497
1757089262573816800,9.45481689453125,0.9032241206012666,9.299375600644945,-2.9792884902492163
1757089262583771600,9.464771728515625,0.9053111560083925,9.299528745380043,-2.978181698051095
1757089262593725700,9.4747255859375,0.9078790337350219,9.299483152672648,-2.977541938842833
1757089262603680500,9.484680419921874,0.9103501000236719,9.299107889619469,-2.9779616255596277
1757089262613635800,9.4946357421875,0.9118919226381927,9.298952991318702,-2.977973900519311
1757089262623590700,9.504590576171875,0.9121745389718562,9.298644363760948,-2.978849514310062
1757089262633545700,9.514545654296874,0.9117391432292759,9.2982503960073,-2.9802117425739763
1757089262643499500,9.52449951171875,0.9111739836271852,9.29787337938845,-2.981560819095373
1757089262653454800,9.534454833984375,0.9102698013290762,9.297471228328346,-2.9830910974025726
1757089262663409700,9.54440966796875,0.9088441524401306,9.297136297285556,-2.984572860392928
1757089262673364700,9.55436474609375,0.9069287472728639,9.296797859111427,-2.9862051377698777
1757089262683318500,9.564318603515625,0.904894026574865,9.296441300758719,-2.9879321076929566
1757089262693273900,9.57427392578125,0.902943550094217,9.296189956346154,-2.9893077799603343
1757089262703228700,9.584228759765624,0.9010953649442642,9.295933935758471,-2.9906574410036204
1757089262713183700,9.594183837890625,0.8993517361473291,9.295732275706529,-2.9918086568653584
1757089262723137500,9.604137451171875,0.8977218699231744,9.295591990453005,-2.992734247277677
1757089262733092900,9.6140927734375,0.8958420475259423,9.295465733724832,-2.993687017957866
1757089262743047700,9.624047607421875,0.8938888676315545,9.29530148307383,-2.9947824119791386
1757089262753002800,9.634002685546875,0.8918642299361527,9.295147753816842,-2.995865823301673
1757089262762956500,9.64395654296875,0.8897755870938301,9.294996362647414,-2.9969536185383796
1757089262772911900,9.653911865234376,0.8873127041116357,9.294885888010263,-2.9980221245527265
1757089262782866700,9.66386669921875,0.8840941804565489,9.294775413373111,-2.9993194708868858
1757089262792821800,9.67382177734375,0.8800034770768135,9.294565570014715,-3.0011709439724683
1757089262802776800,9.68377685546875,0.8755277929674834,9.294178032001852,-3.003678250618279
1757089262812731000,9.69373095703125,0.8709894188854843,9.293532135313749,-3.0069968736469743
1757089262822685700,9.703685791015625,0.8666028743643314,9.292639570388197,-3.011022475901246
1757089262832640800,9.713640869140624,0.8622401491101831,9.291585092899203,-3.015527678366005
1757089262842595800,9.723595947265625,0.8578563080027699,9.290442352604865,-3.020290947245061
1757089262852550000,9.7335498046875,0.8533348119903356,9.289310133704543,-3.0250498322099446
1757089262862504700,9.743504638671874,0.8486599520470947,9.28825039551854,-3.0296169939950106
1757089262872459800,9.753459716796876,0.8437226417753845,9.287268983265758,-3.0339985700801013
1757089262882414800,9.763414794921875,0.8387889117002487,9.286343100592493,-3.038200697945058
1757089262892369000,9.773368896484374,0.834002188880369,9.28550840333402,-3.0420702328547833
1757089262902323700,9.78332373046875,0.8291828058999031,9.284618761017917,-3.046093789282441
1757089262912278500,9.793278564453125,0.8245482779670507,9.283688202169538,-3.0501828121617436
1757089262922233900,9.80323388671875,0.8205727253995835,9.28271146609187,-3.0542282881602643
1757089262932188700,9.813188720703126,0.8172408044978976,9.281790259593725,-3.0579154522404073
1757089262942142700,9.823142822265625,0.81489117263183,9.28092399815321,-3.0611747462973
1757089262952097500,9.83309765625,0.8122447497762739,9.279614669120312,-3.0658456607177853
1757089262962052900,9.843052978515624,0.8087291428707539,9.278317615047097,-3.070696315619349
1757089262972007700,9.853007568359375,0.8046326673373579,9.277178381884097,-3.075212039478123
1757089262981961700,9.862961669921875,0.8003430803846567,9.276165405449271,-3.0793793882906435
1757089262991916500,9.87291650390625,0.7960884186148643,9.27523484660089,-3.083287793906033
1757089263001872000,9.882871826171876,0.7924601451151072,9.274324746018648,-3.086955668763816
1757089263011826700,9.89282666015625,0.7896013946831226,9.273333981415629,-3.090663875631988
1757089263021780700,9.90278076171875,0.7871586777061224,9.272332110896706,-3.0942887881308794
1757089263031735600,9.912735595703126,0.7849024962771683,9.271289908367395,-3.0979847200393675
1757089263041691000,9.92269091796875,0.7832062137532979,9.270295052111148,-3.1013845916107297
1757089263051645700,9.932645751953125,0.7827556204415858,9.269249342450498,-3.1046243041843176
1757089263061599700,9.942599853515626,0.7840468292959034,9.268135828250646,-3.107619978868961
1757089263071554600,9.952554443359375,0.7867978085044771,9.266906578716636,-3.1105875965028997
1757089263081510000,9.962510009765625,0.7908535136360675,9.265512494009732,-3.113714496351778
1757089263091464700,9.972464599609374,0.7961432906072586,9.263956496739388,-3.1169933718919753
1757089263101419800,9.982419677734375,0.8023506938800216,9.262386470943689,-3.1200647421613334
1757089263111373600,9.99237353515625,0.8090748145032673,9.260914060303568,-3.1226991823181507
1757089263121329000,10.002328857421874,0.8159027608271687,9.259582519438862,-3.124875941835344
1757089263131283700,10.01228369140625,0.8222366400238126,9.258417567312717,-3.126665747861564
1757089263141238800,10.02223876953125,0.8276656062699854,9.257415696793794,-3.128194857124984
1757089263151192600,10.032192626953124,0.8319926026236265,9.256531899696588,-3.129663176111877
1757089263161148000,10.04214794921875,0.8355668078485876,9.255662715646624,-3.131285224355757
1757089263171102700,10.052102783203125,0.8387116086803377,9.254728649666905,-3.1332015793710943
1757089263181057800,10.062057861328125,0.8419445261869579,9.253640854430198,-3.135545219887793
1757089263191011600,10.072011474609376,0.8452340692516416,9.252287101733684,-3.138648446600139
1757089263200967000,10.081966796875,0.8489319739215075,9.250561593115329,-3.1427415611326692
1757089263210921700,10.091921630859375,0.8533430683620273,9.248394770470261,-3.147919548292458
1757089263220876800,10.101876708984374,0.8585894445829093,9.24587898825705,-3.153875826348364
1757089263230830600,10.11183056640625,0.8650818022768944,9.24311829137206,-3.160186032408476
1757089263240786000,10.121785888671875,0.8733940688744187,9.240193343836069,-3.166448015412688
1757089263250740700,10.13174072265625,0.8843192213840783,9.237197084629535,-3.1721485651418564
1757089263260695800,10.14169580078125,0.8988052081804722,9.234059955647588,-3.1772154931426044
1757089263270650600,10.151650634765625,0.9180850051246583,9.230689602431655,-3.181493608853221
1757089263280605000,10.16160498046875,0.9441017091084271,9.226958599209786,-3.184695619764924
1757089263290559700,10.171559814453126,0.9789841488540172,9.222666454973817,-3.186593270079791
1757089263300514800,10.181514892578125,1.0247517744250596,9.21777108414769,-3.1863723208054897
1757089263310469600,10.1914697265625,1.0830474576577545,9.212091284945606,-3.1835172236353158
1757089263320424000,10.201423828125,1.155556959681958,9.205680833381415,-3.1765573214948177
1757089263330378800,10.211378662109375,1.2428342611186205,9.198846018925309,-3.1633798600137233
1757089263340333800,10.221333740234375,1.3462040347002446,9.19050430703759,-3.145270787349343
1757089263350288600,10.23128857421875,1.462410931892693,9.180723502257466,-3.1218647773206234
1757089263360242700,10.24124267578125,1.5896343131400643,9.168948893311619,-3.0941651617512105
1757089263370197800,10.25119775390625,1.733543456250429,9.152875710389017,-3.0643215198904272
1757089263380152600,10.261152587890624,1.8947931718707083,9.130391491380333,-3.0358012355878947
1757089263390107600,10.271107666015626,2.0638222893208265,9.101469348278641,-3.012359569723904
1757089263400062700,10.281062744140625,2.2311155228890476,9.068034696188569,-2.9938679274827242
1757089263410016800,10.291016845703124,2.3925150222435594,9.032116410589218,-2.9777704869017003
1757089263419971600,10.3009716796875,2.547185943995416,8.993817951855062,-2.9653812531888484
1757089263429926700,10.3109267578125,2.6916356237232684,8.952762887889147,-2.9620108999729156
1757089263439881700,10.3208818359375,2.8264418613150712,8.907347875148057,-2.9733415645435453
1757089263449835800,10.330835693359376,2.9555411194369197,8.85784763891995,-2.9956092181921004
1757089263459790600,10.34079052734375,3.0744439777150747,8.807073144972325,-3.025502252152562
1757089263469745700,10.35074560546875,3.1734786447018384,8.759887030905485,-3.060034928612411
1757089263479700700,10.36070068359375,3.25066826736629,8.719809287539125,-3.093296854484081
1757089263489655600,10.370655517578125,3.3067087190181015,8.688722075358033,-3.121242553769052
1757089263499610400,10.3806103515625,3.3477012391418217,8.665065889960527,-3.1432313904762266
1757089263509565400,10.3905654296875,3.380425112614035,8.647220436668395,-3.1573180757567285
1757089263519520500,10.4005205078125,3.4086797317177053,8.63445857025087,-3.161862148927152
1757089263529474600,10.410474609375,3.4322315799579024,8.625918705442547,-3.15970175602287
1757089263539429400,10.420429443359374,3.453155710043013,8.61959359407425,-3.1541569813773034
1757089263549384400,10.430384521484376,3.470708610129356,8.615754454302786,-3.145367525722086
1757089263559339500,10.440339599609375,3.4835727678775785,8.61396055662334,-3.1360476164519784
1757089263569294300,10.45029443359375,3.4913238203957673,8.613454360666871,-3.1288056824997064
1757089263579248400,10.460248291015626,3.4929280407220125,8.614684194722772,-3.1236230191648007
1757089263589203500,10.470203369140625,3.487943822568655,8.616799579441548,-3.1233640759676695
1757089263599158500,10.480158447265625,3.4785581545859574,8.619116039690375,-3.1274343941465017
1757089263609113300,10.49011328125,3.4676889700472353,8.621181155526637,-3.1338074363097546
1757089263619067400,10.5000673828125,3.4585315578624605,8.622031050354241,-3.141576609006524
1757089263629022500,10.5100224609375,3.4525764488503334,8.619716343671083,-3.1544568411067124
1757089263638977500,10.5199775390625,3.450790442216396,8.613982183933258,-3.1720296149373053
1757089263648932400,10.529932373046876,3.452131043170392,8.60614316087067,-3.191783824460208
1757089263658886400,10.539886474609375,3.455284831026196,8.597263104322552,-3.21223975251168
1757089263668841500,10.549841552734375,3.460805640274286,8.587889711299539,-3.2313077333360907
1757089263678796500,10.559796630859376,3.47121509834677,8.576806591749191,-3.2495281574204564
1757089263688751400,10.56975146484375,3.487126660966873,8.563011290630698,-3.2688208869114517
1757089263698705400,10.579705322265625,3.508531560306251,8.546123284193873,-3.2900472148135305
1757089263708660500,10.589660400390626,3.532911091542244,8.527112878775597,-3.313196327471733
1757089263718615600,10.599615478515625,3.55713513995558,8.50781956476271,-3.3367966910287734
1757089263728570400,10.6095703125,3.578672433502972,8.490117903855442,-3.3587826051264997
1757089263738525400,10.619525390625,3.5957770052999254,8.475086338940262,-3.3784164031401276
1757089263748479500,10.6294794921875,3.6076346163541078,8.463364336964487,-3.395117070311308
1757089263758434600,10.6394345703125,3.6144931039467454,8.454905136176944,-3.408874962028861
1757089263768389400,10.649389404296874,3.6162902164965867,8.44998696899712,-3.4191473497182128
1757089263778344400,10.659344482421876,3.612897359187901,8.448424541985988,-3.426580422328412
1757089263788298500,10.669298583984375,3.604546879471838,8.449694708052277,-3.432239471003413
1757089263798253600,10.679253662109375,3.5913138884112237,8.453217621481418,-3.4374385009512305
1757089263808208400,10.68920849609375,3.5740272380456326,8.458283088177442,-3.442989413076639
1757089263818163500,10.69916357421875,3.5542359113827344,8.464155779603123,-3.4490403836786747
1757089263828117200,10.7091171875,3.5335829994544383,8.470256434565782,-3.4552708025008436
1757089263838072600,10.719072509765626,3.5134783690586686,8.476064244061709,-3.4615342468097805
1757089263848027400,10.72902734375,3.4952842484593387,8.481082949006558,-3.467650683863461
1757089263857982500,10.738982421875,3.479330308002233,8.485245913904905,-3.4735078854590653
1757089263867936300,10.748936279296874,3.4652468375921246,8.488982762345671,-3.4784500180363653
1757089263877891600,10.7588916015625,3.452603921379149,8.492667588338255,-3.482029337827861
1757089263887846400,10.768846435546875,3.440872567053139,8.496742874953151,-3.4836996091276404
1757089263897801500,10.778801513671874,3.429030153568089,8.501806003561615,-3.483023609562218
1757089263907756500,10.788756591796876,3.414008817785978,8.50880974484384,-3.480673539304733
1757089263917710600,10.798710693359375,3.3905537079185244,8.518867028477787,-3.479003268004954
1757089263927665400,10.80866552734375,3.356309200750291,8.531887253570556,-3.4802976917296644
1757089263937620500,10.818620361328126,3.3134169844850896,8.54646464497745,-3.485627362319827
1757089263947575600,10.828575439453125,3.2673031758248805,8.561341896113753,-3.492644547605514
1757089263957529600,10.838529541015625,3.2210902907043693,8.576352418240905,-3.498741695436835
1757089263967484400,10.848484375,3.1768419836550947,8.590790693438052,-3.5037703372538087
1757089263977439500,10.858439453125,3.1395489025712013,8.602356043547392,-3.5090003468617796
1757089263987394600,10.86839453125,3.1152412675276397,8.60952052834928,-3.51309346139431
1757089263997348600,10.8783486328125,3.108212976326048,8.611800748240947,-3.513731467036903
1757089264007303400,10.888303466796875,3.1184841949716207,8.61039731118381,-3.508061312445998
1757089264017258500,10.898258544921875,3.1432799057930705,8.608236333757638,-3.4911949333190915
1757089264027213600,10.908213623046874,3.177712921270728,8.608127612686157,-3.4601527293235064
1757089264037168400,10.91816845703125,3.2135026120543477,8.612652396634221,-3.4155569240108132
1757089264047122400,10.928122314453125,3.239203747282922,8.624745570009946,-3.360317559608817
1757089264057077500,10.938077392578125,3.2446056063264606,8.646202199536562,-3.2994165161833164
1757089264067032600,10.948032470703126,3.224617295786738,8.675501943778992,-3.241590934680402
1757089264076987400,10.9579873046875,3.1812986708030104,8.708118849745393,-3.196624250228703
1757089264086941400,10.96794140625,3.1217779758200046,8.738754226505757,-3.171597068738937
1757089264096896500,10.977896484375,3.054421180383861,8.764105525383354,-3.167235074137151
1757089264106851600,10.9878515625,2.985163519762456,8.783612189885973,-3.1792037443503736
1757089264116806400,10.997806396484375,2.9178064320653676,8.798628557232021,-3.200149209484458
1757089264126760400,11.007760498046874,2.8530335156425832,8.812087173742055,-3.2214465567961335
1757089264136715500,11.017715576171875,2.790900884595513,8.826657550886273,-3.2359538055762647
1757089264146670600,11.027670654296875,2.730223420792818,8.845028489357233,-3.237545750942826
1757089264156625400,11.03762548828125,2.670081086780131,8.868263818994164,-3.2241189908757804
1757089264166580500,11.04758056640625,2.609559398061037,8.895340041968225,-3.198983380575478
1757089264176534500,11.057534423828125,2.5416534443095324,8.925570929580926,-3.169314510759711
1757089264186489600,11.067489501953125,2.4627672468602655,8.957814910581707,-3.140494074466824
1757089264196444400,11.0774443359375,2.3755415294803677,8.9898315125674,-3.116105483141541
1757089264206399500,11.0873994140625,2.2857003689050672,9.020449938192963,-3.094745884248614
1757089264216353500,11.097353515625,2.199612277252972,9.049019614595174,-3.073647858901322
1757089264226308600,11.10730859375,2.118877090936154,9.076458241140841,-3.049370326735079
1757089264236263400,11.117263427734375,2.037296685966849,9.10493848569393,-3.019918899062276
1757089264246218500,11.127218505859375,1.9476133463017642,9.136064276319741,-2.9848887944743034
1757089264256172500,11.137172607421874,1.8467638849779962,9.170115014481544,-2.944287904016673
1757089264266127600,11.147127685546875,1.7364022066824136,9.205226075351238,-2.901568998491764
1757089264276082400,11.15708251953125,1.6262945031479,9.238664819094538,-2.8587811193838712
1757089264286037500,11.16703759765625,1.5272702114246786,9.268798676073551,-2.8155273763298987
1757089264295992300,11.176992431640626,1.44576199490875,9.294974735337496,-2.7719328570142387
1757089264305946600,11.186946533203125,1.38170380262658,9.31717663027346,-2.729747035452723
1757089264315901400,11.1969013671875,1.3315550393618643,9.335966670939326,-2.6901807487398384
1757089264325856500,11.2068564453125,1.2894022432871162,9.351981986194849,-2.6548610135555264
1757089264335811300,11.216811279296875,1.2478979742489755,9.36578254801035,-2.625887140266597
1757089264345765600,11.226765625,1.1994992695219815,9.379139457711577,-2.60063900950253
1757089264355720400,11.236720458984376,1.1404164544995874,9.392024658247827,-2.580641638873517
1757089264365675500,11.246675537109375,1.0714731935895978,9.403204223909974,-2.569457104775309
1757089264375630300,11.25663037109375,0.9967186160523444,9.413547923269867,-2.561652568504214
1757089264385584400,11.26658447265625,0.9216145674902945,9.423578318896888,-2.552883571115136
1757089264395539500,11.27653955078125,0.8496445791702717,9.43312531492114,-2.542568221066892
1757089264405494500,11.28649462890625,0.7802974136345088,9.441738244965672,-2.532803198377788
1757089264415449300,11.296449462890624,0.7107767181627452,9.44912660165131,-2.52570330324471
1757089264425404700,11.30640478515625,0.6378284593950957,9.455152437812089,-2.5226287181049583
1757089264435358500,11.3163583984375,0.5607336388746276,9.459227139905094,-2.5256664783656597
1757089264445313500,11.3263134765625,0.48066984901335086,9.46138168759048,-2.534085931664705
1757089264455268400,11.336268310546876,0.39940008089579637,9.46115723118484,-2.548997377331555
1757089264465223400,11.346223388671875,0.3174618754647672,9.458647878712416,-2.5697441050231453
1757089264475177500,11.356177490234375,0.23391285556992514,9.45412484833002,-2.595226629064977
1757089264485132500,11.366132568359374,0.14800762793775646,9.44767289571166,-2.6248683186128736
1757089264495086600,11.376086669921875,0.059662436974677255,9.43933410643339,-2.6581600551009177
1757089264505041700,11.386041748046875,-0.02896894138548523,9.429026647430657,-2.6949963323280213
1757089264514995500,11.395995361328126,-0.11508885294795036,9.416961531105636,-2.7345862921774384
1757089264524950500,11.405950439453125,-0.19689888368835673,9.402702119606733,-2.778633231435716
1757089264534905600,11.415905517578125,-0.27340810460690407,9.386555286926031,-2.8263500913783908
1757089264544860700,11.425860595703124,-0.3438171272205189,9.368963516134023,-2.8765798109248277
1757089264554814500,11.435814453125,-0.40654684737790375,9.350089888837934,-2.929325897206366
1757089264564769500,11.44576953125,-0.4609446463892236,9.330693698972462,-2.98262990963161
1757089264574724600,11.455724609375,-0.506671757286787,9.312248526221513,-3.032437604373693
1757089264584679700,11.4656796875,-0.5438173196587711,9.295910554882884,-3.0758228648528454
1757089264594634500,11.475634521484375,-0.5739523822141811,9.282565335619449,-3.1104578326433896
1757089264604588500,11.485588623046874,-0.5986767082998529,9.272546045908332,-3.135579998940229
1757089264614543600,11.495543701171876,-0.6178066119119524,9.265886003497242,-3.151517280523479
1757089264624498700,11.505498779296875,-0.631482524434477,9.262109407567978,-3.159896694073081
1757089264634453500,11.51545361328125,-0.6407337523825466,9.261427270522713,-3.1600308418467637
1757089264644407600,11.525407470703126,-0.6493911791559308,9.262654766491055,-3.1546620082899928
1757089264654362600,11.535362548828125,-0.6608063071396202,9.26437969058752,-3.1472175375029443
1757089264664317700,11.545317626953125,-0.6730630005139857,9.26603856371045,-3.1397295198351145
1757089264674272500,11.5552724609375,-0.6818857008516788,9.267303469079732,-3.134084207424521
1757089264684227600,11.5652275390625,-0.6850469413615763,9.26857714227736,-3.129626643493771
1757089264694181600,11.575181640625,-0.6829428817544132,9.269688902911543,-3.126792589111626
1757089264704136700,11.58513671875,-0.6770682175673544,9.270326616293191,-3.1261823482587934
1757089264714091500,11.595091552734376,-0.6646252078406513,9.270226663050055,-3.129145874239504
1757089264724046600,11.605046630859375,-0.6412182479638606,9.269660261338949,-3.135695734274387
1757089264734000600,11.615000732421874,-0.5996545403560624,9.270036693435907,-3.1428023514091965
1757089264743955700,11.624955810546876,-0.5355299683067948,9.272370104819535,-3.1474966467052696
1757089264753910500,11.63491064453125,-0.4510120851134881,9.276029796370864,-3.1499589451655745
1757089264763865600,11.644865478515625,-0.3460634448425844,9.281112798723578,-3.148264708468318
1757089264773819600,11.654819580078126,-0.22307240393534303,9.288432766348123,-3.1377769244626164
1757089264783774700,11.664774658203125,-0.09519839502582327,9.299010858985781,-3.112828945688903
1757089264793729500,11.6747294921875,0.022802922719169873,9.312992622587084,-3.072136577555537
1757089264803684600,11.6846845703125,0.14051321706175804,9.328062181425095,-3.022893530958891
1757089264813638700,11.694638671875,0.2819048974584788,9.337786872103809,-2.9827234331339594
1757089264823593700,11.70459375,0.45754853767752646,9.334981751555205,-2.9697075919553635
1757089264833548500,11.714548583984374,0.6591223726406693,9.316011678147316,-2.9913001228213307
1757089264843503600,11.724503662109376,0.8689427885539829,9.284245251530407,-3.0361367511525748
1757089264853458700,11.734458740234375,1.0726189295586197,9.24755890416801,-3.082617931820452
1757089264863412700,11.744412841796875,1.2668338531263172,9.209743260514736,-3.121881728455424
1757089264873367600,11.754367431640626,1.4575038706287742,9.170839237102866,-3.153063048660755
1757089264883322600,11.764322509765625,1.6540741982161997,9.127851743769645,-3.180681415687501
1757089264893277700,11.774277587890625,1.8624654581092297,9.077642482489347,-3.209056154039502
1757089264903231700,11.784231689453126,2.078319455098361,9.022375937819481,-3.232294114024937
1757089264913186600,11.7941865234375,2.2906835641451178,8.966523702216147,-3.244170429779589
1757089264923141400,11.804141357421875,2.489985800914466,8.912270718502997,-3.2468183139398694
1757089264933096700,11.8140966796875,2.677111423808336,8.858560755625367,-3.244901666663587
1757089264943051500,11.824051513671876,2.8611846733942627,8.80165462705493,-3.242667624001205
1757089264953005600,11.834005615234375,3.0432182338461278,8.740431804329157,-3.2425451666653156
1757089264962960400,11.84396044921875,3.226762491121888,8.67261148303449,-3.2471848091647026
1757089264972915700,11.853915771484376,3.414270391331613,8.596517254391312,-3.2577687470212577
1757089264982870500,11.86387060546875,3.6077442142084237,8.51129104026556,-3.2730002184227107
1757089264992824600,11.873824462890624,3.805360543717444,8.417916006475686,-3.2906355360955
1757089265002779400,11.883779296875,3.9999426200971007,8.320230123749376,-3.308270561507344
1757089265012734700,11.893734619140625,4.183672170811891,8.223153897354006,-3.3237121685281394
1757089265022689500,11.903689453125,4.341213387303054,8.134287280899287,-3.3402973926261064
1757089265032643600,11.9136435546875,4.45633877286911,8.063331584188342,-3.3606671036988494
1757089265042598400,11.923598388671875,4.532212344498932,8.013625596255064,-3.378055753134191
1757089265052553700,11.9335537109375,4.583929672254622,7.981350635594129,-3.384670495098829
1757089265062508500,11.943508544921874,4.620296578404307,7.959999804529547,-3.385504315574467
1757089265072463600,11.953463623046876,4.639007124093174,7.949054047623276,-3.3856314490854738
1757089265082417400,11.96341748046875,4.637767937687039,7.949764241719246,-3.385673534661531
1757089265092372700,11.973372802734374,4.623476962006092,7.957350751325488,-3.3873893986687063
1757089265102327600,11.98332763671875,4.601271559938788,7.969062231907248,-3.3900857981458303
1757089265112282600,11.99328271484375,4.569074632950127,7.985913997986912,-3.393982805584371
1757089265122236400,12.003236328125,4.521873321314156,8.010398450902104,-3.3994913398727773
1757089265132191700,12.013191650390626,4.456982915991545,8.044473154461384,-3.404721057219803
1757089265142146600,12.023146484375,4.372173173712194,8.089473156660794,-3.40806569147259
1757089265152101600,12.0331015625,4.266727762900293,8.145237129458785,-3.408889867337048
1757089265162055400,12.043055419921876,4.140593199802935,8.21025759090185,-3.408454690790176
1757089265172010800,12.0530107421875,3.9936996340543027,8.282868653604387,-3.408059553992748
1757089265181965600,12.062965576171875,3.827883341170847,8.36124953188002,-3.4069393177911635
1757089265191920600,12.072920654296874,3.6475755815982818,8.44172416756451,-3.406295466929674
1757089265201875700,12.082875732421876,3.462433825998008,8.519096161058545,-3.406892263779044
1757089265211829800,12.092829833984375,3.281847834005952,8.590167593103647,-3.4071856937676666
1757089265221784600,12.10278466796875,3.114248164837062,8.653194250380992,-3.4050124413818117
1757089265231739600,12.11273974609375,2.970628506192565,8.704879429432749,-3.401597079980373
1757089265241694700,12.12269482421875,2.861275566548109,8.740655091691016,-3.403596437104046
1757089265251648800,12.132648681640624,2.79497266407907,8.754835592734814,-3.422189493893087
1757089265261603600,12.142603515625,2.7795143981844186,8.744047656738758,-3.4621289978325365
1757089265271558400,12.152558349609375,2.8250357939094304,8.710437063559889,-3.509674885122478
1757089265281513700,12.162513671875,2.9332229046449063,8.663238090011477,-3.537634905193746
1757089265291467800,12.1724677734375,3.080350571410358,8.614487795367836,-3.5316315731257197
1757089265301422600,12.182422607421875,3.235563637214899,8.569243463018536,-3.5027971083074805
1757089265311377400,12.19237744140625,3.3806057298779484,8.526048464414476,-3.4710783202245827
1757089265321332700,12.202332763671874,3.4934850900828835,8.485842126232384,-3.457808796545863
1757089265331287600,12.21228759765625,3.5591394655153152,8.452814301377535,-3.4717169103890657
1757089265341241600,12.22224169921875,3.582883621457219,8.429090895962714,-3.504816339175403
1757089265351196400,12.232196533203124,3.582691606016457,8.414841421335936,-3.5390853962630033
1757089265361151700,12.24215185546875,3.5774461065784093,8.408255028682946,-3.559985268689692
1757089265371106600,12.2521064453125,3.5751705628618597,8.40671948967874,-3.565893615950644
1757089265381060600,12.262060546875,3.567446690611541,8.411413200452923,-3.56256184117943
1757089265391015400,12.272015380859376,3.53754284299612,8.427399289613962,-3.554595684605837
1757089265400970800,12.281970703125,3.4806393447741866,8.456845164328813,-3.5408091513156887
1757089265410925600,12.291925537109375,3.410193643411994,8.494835580027102,-3.5183453905731437
1757089265420879600,12.301879638671876,3.359173942531645,8.528921389502287,-3.48480084836781
1757089265430834400,12.31183447265625,3.36259690271765,8.546122699671983,-3.4390599646732207
1757089265440789800,12.321789794921875,3.423574518510699,8.545782507932186,-3.3792201207384465
1757089265450744600,12.33174462890625,3.4998782982513306,8.544200791698694,-3.3042192402899264
1757089265460699600,12.34169970703125,3.540362868852913,8.558387137961388,-3.223390384340286
1757089265470653400,12.3516533203125,3.526840247195959,8.59023656668663,-3.152716719441116
1757089265480608800,12.36160888671875,3.4646666996166107,8.631187001234293,-3.1095173369228837
1757089265490563800,12.371563720703126,3.366087082920968,8.672173091617227,-3.1037498594373463
1757089265500519000,12.381518798828125,3.2384479604795575,8.709105522695184,-3.1359768893033264
1757089265510473000,12.391472900390625,3.08557765840888,8.742128086853027,-3.197621152311563
1757089265520428000,12.401427978515626,2.9134464832901954,8.776863884669542,-3.2632629605233667
1757089265530382800,12.4113828125,2.7265114145323635,8.82356543008983,-3.2986700817301866
1757089265540338000,12.421337890625,2.535760586878657,8.885189234831929,-3.2853824378728866
1757089265550293000,12.43129296875,2.3637504077911378,8.95217836599946,-3.231342804649472
1757089265560247000,12.4412470703125,2.2314035460501906,9.012544279634952,-3.156781776922941
1757089265570201900,12.451201904296875,2.150039121919125,9.059773648321627,-3.0770477304726835
1757089265580157000,12.461156982421874,2.1094252258494497,9.096904816842079,-2.994498626601696
1757089265590112000,12.471112060546876,2.081897459715605,9.128785809749365,-2.9157047836109995
1757089265600066000,12.481066162109375,2.037945359133929,9.158079708772897,-2.8542487366512415
1757089265610020900,12.491020751953124,1.9574995111525058,9.187391143453121,-2.816095531606674
1757089265619976000,12.500975830078126,1.8472475768417118,9.218312351417541,-2.789405093079805
1757089265629931000,12.510930908203125,1.726355590572953,9.249536926242708,-2.7633620125457643
1757089265639885000,12.520885009765625,1.6092127277046442,9.27842399803102,-2.737088338126242
1757089265649839900,12.53083984375,1.5038425740860402,9.302934754431247,-2.713713015496731
1757089265659795000,12.540794921875,1.4133411960363387,9.322056219008564,-2.696681216675043
1757089265669750000,12.55075,1.3355264272108673,9.336481634724139,-2.686418473596871
1757089265679704800,12.560704833984374,1.2629630030423402,9.347730173969268,-2.6823978397786616
1757089265689659000,12.570658935546875,1.1880842876687645,9.356879110586643,-2.684711669678986
1757089265699614000,12.580614013671875,1.1061968625769019,9.365383904081583,-2.690041632530093
1757089265709569000,12.590569091796874,1.0183288287054746,9.372675814655423,-2.6993212097898125
1757089265719523800,12.60052392578125,0.9284437559232115,9.37782837511301,-2.7138024473458526
1757089265729478000,12.610477783203125,0.8390650982931256,9.380511330586671,-2.7335604562610385
1757089265739433000,12.620432861328124,0.7507263781700283,9.380784302309156,-2.758200391998887
1757089265749388000,12.630387939453126,0.6616533524230123,9.37921076938212,-2.786220033302903
1757089265759342800,12.6403427734375,0.5687463014710694,9.375641094201802,-2.8185584145888685
1757089265769297000,12.650296875,0.4702917359272018,9.369866017931699,-2.855661818319559
1757089265779252000,12.660251953125,0.36790410525072365,9.361263024759293,-2.8985806303307413
1757089265789207000,12.67020703125,0.2656653449930251,9.350143664851783,-2.945269900791347
1757089265799161900,12.680161865234375,0.16570196405509485,9.335686100432277,-2.9979826693251725
1757089265809117200,12.6901171875,0.07126575817395933,9.318089653465151,-3.0558988517209884
1757089265819071000,12.700071044921875,-0.012674349105922737,9.29811770953834,-3.1169246905699373
1757089265829026000,12.710026123046875,-0.08274633434298448,9.276202230328321,-3.1805019674673676
1757089265838980900,12.71998095703125,-0.13879783711177296,9.252998464873432,-3.245476251681149
1757089265848936200,12.729936279296876,-0.183336258814577,9.229302531987429,-3.3100980691954494
1757089265858890000,12.739889892578125,-0.219981324318517,9.206205734038353,-3.371611691561341
1757089265868845000,12.749844970703125,-0.25045623155385255,9.185180481666325,-3.426386945582926
1757089265878800000,12.7597998046875,-0.2744098655279726,9.167159671807289,-3.472504845896363
1757089265888755200,12.769755126953125,-0.2913390624917112,9.152596893447637,-3.5093437534719705
