time,seconds_elapsed,z,y,x
1757089253136730600,0.017730712890625,-0.14504310488700867,0.563794732093811,0.4361044466495514
1757089253146684700,0.0276845703125,-0.2644222676753998,0.7455255389213562,0.42445552349090576
1757089253156639700,0.0376396484375,-0.3627570867538452,0.8621131181716919,0.3621247708797455
1757089253166594800,0.0475947265625,-0.3379615843296051,0.7928644418716431,0.24073004722595215
1757089253176548600,0.057548583984375,-0.3038691282272339,0.9365904927253723,0.09863149374723434
1757089253186503700,0.067503662109375,-0.14476659893989563,0.7429727911949158,-0.11443474143743515
1757089253196458800,0.077458740234375,-0.03177532181143761,0.3778262436389923,-0.4618030786514282
1757089253206412800,0.087412841796875,0.2834007441997528,0.6469210386276245,-0.7652415037155151
1757089253216367600,0.09736767578125,0.5372804403305054,0.8090441823005676,-0.9787593483924866
1757089253226322700,0.10732275390625,0.6916942596435547,0.6582930088043213,-1.1319276094436646
1757089253236277800,0.11727783203125,0.8583945631980896,0.5682094693183899,-1.2194366455078125
1757089253246231800,0.127231689453125,0.9584721326828003,0.5368533730506897,-1.2538639307022095
1757089253256186600,0.1371865234375,0.9627912640571594,0.4820617735385895,-1.2449254989624023
1757089253266141700,0.1471416015625,0.8757224082946777,0.4598211944103241,-1.1784623861312866
1757089253276095700,0.157095703125,0.7236862778663635,0.4558435082435608,-1.036695122718811
1757089253286050800,0.16705078125,0.5511891841888428,0.44458597898483276,-0.8325445055961609
1757089253296005600,0.177005615234375,0.3981727361679077,0.43516024947166443,-0.6283541321754456
1757089253305960700,0.186960693359375,0.32507315278053284,0.33816424012184143,-0.4136781096458435
1757089253315914800,0.196914794921875,0.26693928241729736,0.34815749526023865,-0.23394270241260529
1757089253325869800,0.206869873046875,0.20989447832107544,0.34803229570388794,-0.10318483412265778
1757089253335824600,0.21682470703125,0.1734406054019928,0.24578900635242462,0.02752363681793213
1757089253345778700,0.22677880859375,0.11755236238241196,0.28205689787864685,0.12279588729143143
1757089253355733800,0.236733642578125,0.08050379902124405,0.31392696499824524,0.2015783190727234
1757089253365688800,0.246688720703125,0.01867230422794819,0.39115774631500244,0.2545176148414612
1757089253375643000,0.256642822265625,-0.025711672380566597,0.3540862798690796,0.3248157501220703
1757089253385597700,0.26659765625,-0.08045079559087753,0.3569389581680298,0.3642345368862152
1757089253395552500,0.276552490234375,-0.11068619042634964,0.34815531969070435,0.3902783989906311
1757089253405507800,0.2865078125,-0.10661110281944275,0.34153032302856445,0.40264737606048584
1757089253415462000,0.2964619140625,-0.07036840915679932,0.3378588855266571,0.4043765664100647
1757089253425416700,0.306416748046875,-0.014390388503670692,0.3197801113128662,0.39239656925201416
1757089253435371500,0.31637158203125,0.04406147077679634,0.3235279619693756,0.36579692363739014
1757089253445325600,0.32632568359375,0.0944892019033432,0.3505792021751404,0.33035609126091003
1757089253455281000,0.336281005859375,0.13625583052635193,0.38052061200141907,0.2936641275882721
1757089253465235700,0.346235595703125,0.16913914680480957,0.40514522790908813,0.26086217164993286
1757089253475190500,0.3561904296875,0.1813279092311859,0.43451350927352905,0.2430027574300766
1757089253485145600,0.3661455078125,0.17584533989429474,0.45828911662101746,0.2399737387895584
1757089253495100400,0.376100341796875,0.15612275898456573,0.45993468165397644,0.23314246535301208
1757089253505055500,0.386055419921875,0.13075748085975647,0.4947202205657959,0.2094464749097824
1757089253515009300,0.39600927734375,0.10819198936223984,0.6031073927879333,0.18351633846759796
1757089253524964600,0.405964599609375,0.10105098783969879,0.7229885458946228,0.17032702267169952
1757089253534919400,0.41591943359375,0.10406435281038284,0.795976996421814,0.1747494786977768
1757089253544874500,0.42587451171875,0.13625656068325043,0.8285449147224426,0.19729091227054596
1757089253554828300,0.435828369140625,0.1962466537952423,0.7905328273773193,0.2082785815000534
1757089253564783600,0.44578369140625,0.26522472500801086,0.7584323287010193,0.18542766571044922
1757089253574738400,0.455738525390625,0.31882378458976746,0.7598877549171448,0.12171020358800888
1757089253584692500,0.4656923828125,0.3841603100299835,0.7187852263450623,0.02969864010810852
1757089253594647300,0.475647216796875,0.4322468638420105,0.6707777380943298,-0.10843019932508469
1757089253604602600,0.4856025390625,0.45507800579071045,0.6059859991073608,-0.3061860203742981
1757089253614556700,0.495556640625,0.49298223853111267,0.5596382021903992,-0.539745569229126
1757089253624511500,0.505511474609375,0.5061337351799011,0.5000926852226257,-0.7712506651878357
1757089253634466300,0.51546630859375,0.4909214377403259,0.40871912240982056,-0.9007412791252136
1757089253644421600,0.525421630859375,0.4399868845939636,0.3183861970901489,-0.8792932629585266
1757089253654375700,0.535375732421875,0.3514708876609802,0.2745761573314667,-0.7348127961158752
1757089253664330500,0.54533056640625,0.260481595993042,0.2601563334465027,-0.5265402793884277
1757089253674285300,0.555285400390625,0.18960420787334442,0.19982241094112396,-0.3025524616241455
1757089253684239400,0.5652392578125,0.14304818212985992,0.0923178568482399,-0.0895613357424736
1757089253694194400,0.5751943359375,0.10614582151174545,-0.030274372547864914,0.08955968171358109
1757089253704149500,0.5851494140625,0.06074657291173935,-0.13863027095794678,0.24518194794654846
1757089253714104300,0.595104248046875,0.025762755423784256,-0.2312837690114975,0.4023827314376831
1757089253724058400,0.605058349609375,0.000237172469496727,-0.3009621202945709,0.5527123808860779
1757089253734013400,0.615013427734375,-0.013816860504448414,-0.3466196060180664,0.6857873201370239
1757089253743968500,0.624968505859375,-0.011920737102627754,-0.3414081931114197,0.7735770344734192
1757089253753922600,0.634922607421875,0.006673187483102083,-0.2844908535480499,0.799968421459198
1757089253763877400,0.64487744140625,0.061129286885261536,-0.20567686855793,0.7663900256156921
1757089253773832400,0.65483251953125,0.15211299061775208,-0.13238614797592163,0.6778393983840942
1757089253783787500,0.66478759765625,0.2523054778575897,-0.06523603200912476,0.5655712485313416
1757089253793741600,0.674741455078125,0.35713282227516174,-0.028321687132120132,0.4486672878265381
1757089253803696400,0.6846962890625,0.45245227217674255,-0.02374567650258541,0.3441266119480133
1757089253813651500,0.6946513671875,0.519488513469696,-0.04739214852452278,0.24682748317718506
1757089253823605500,0.70460546875,0.5640310049057007,-0.08805928379297256,0.1552771031856537
1757089253833560600,0.714560546875,0.5966110825538635,-0.11832237988710403,0.07235772907733917
1757089253843515400,0.724515380859375,0.6292487978935242,-0.1425621658563614,0.0030818621162325144
1757089253853470500,0.734470458984375,0.6616410613059998,-0.20204387605190277,-0.06287611275911331
1757089253863424500,0.744424560546875,0.6908698678016663,-0.25892868638038635,-0.11778914928436279
1757089253873379600,0.754379638671875,0.7123010754585266,-0.29856690764427185,-0.16336382925510406
1757089253883334400,0.76433447265625,0.7063727378845215,-0.3484993875026703,-0.20341792702674866
1757089253893288400,0.774288330078125,0.6895948052406311,-0.39861634373664856,-0.23690423369407654
1757089253903243500,0.784243408203125,0.6679420471191406,-0.4356732964515686,-0.2532341182231903
1757089253913198600,0.794198486328125,0.6380355358123779,-0.46229133009910583,-0.2518726885318756
1757089253923153400,0.8041533203125,0.6025483012199402,-0.4621683657169342,-0.24000529944896698
1757089253933107500,0.814107421875,0.5748346447944641,-0.42201483249664307,-0.2309636026620865
1757089253943062500,0.8240625,0.5577897429466248,-0.34176337718963623,-0.21148478984832764
1757089253953017600,0.834017578125,0.5517324209213257,-0.2555706799030304,-0.18355116248130798
1757089253962971400,0.843971435546875,0.5549753308296204,-0.1727113574743271,-0.1484142392873764
1757089253972926500,0.853926513671875,0.5670828819274902,-0.08717701584100723,-0.11880122870206833
1757089253982881500,0.863881591796875,0.5859014987945557,-0.002996543888002634,-0.10876588523387909
1757089253992836400,0.87383642578125,0.6010133624076843,0.021622249856591225,-0.14378325641155243
1757089254002790400,0.883790283203125,0.6274455189704895,0.030788371339440346,-0.21866950392723083
1757089254012745500,0.893745361328125,0.6401541233062744,0.03387603908777237,-0.2817499339580536
1757089254022700500,0.903700439453125,0.6357505917549133,0.008873420767486095,-0.3539735674858093
1757089254032654600,0.913654541015625,0.6419277787208557,-0.012535730376839638,-0.4338585436344147
1757089254042609400,0.923609375,0.6671119928359985,-0.04433368146419525,-0.5049502849578857
1757089254052564500,0.933564453125,0.7041581869125366,-0.0669737458229065,-0.5509710311889648
1757089254062518300,0.943518310546875,0.7392421960830688,-0.07326142489910126,-0.5543448328971863
1757089254072473600,0.9534736328125,0.7700909376144409,-0.07963676750659943,-0.5112703442573547
1757089254082428400,0.963428466796875,0.7804004549980164,-0.1048148050904274,-0.42744237184524536
1757089254092383500,0.973383544921875,0.765263020992279,-0.15163877606391907,-0.32280784845352173
1757089254102337300,0.983337158203125,0.7360599040985107,-0.17700716853141785,-0.21079665422439575
1757089254112292600,0.993292724609375,0.7101646661758423,-0.19467778503894806,-0.10407288372516632
1757089254122247400,1.003247314453125,0.6854337453842163,-0.20466729998588562,-0.016438329592347145
1757089254132202500,1.013202392578125,0.6816262006759644,-0.18501690030097961,0.040898993611335754
1757089254142156300,1.02315625,0.7065324783325195,-0.1683327704668045,0.05969837307929993
1757089254152111600,1.033111572265625,0.7544254660606384,-0.17729270458221436,0.03163344785571098
1757089254162066400,1.04306640625,0.8130043745040894,-0.1773432344198227,-0.016338586807250977
1757089254172020500,1.0530205078125,0.8615481853485107,-0.15892294049263,-0.057789888232946396
1757089254181975300,1.062975341796875,0.8995828628540039,-0.14730197191238403,-0.09665104001760483
1757089254191930600,1.0729306640625,0.9345568418502808,-0.17658209800720215,-0.1361936628818512
1757089254201885400,1.082885498046875,0.9684939384460449,-0.23576109111309052,-0.16057364642620087
1757089254211839500,1.092839599609375,0.98485267162323,-0.3101048171520233,-0.17650307714939117
1757089254221794300,1.102794189453125,0.9794692993164062,-0.3817334771156311,-0.19388961791992188
1757089254231749600,1.11274951171875,0.9611262679100037,-0.4227781295776367,-0.22111350297927856
1757089254241703400,1.122703369140625,0.9386997222900391,-0.40565723180770874,-0.26247671246528625
1757089254251658500,1.132658447265625,0.9326319694519043,-0.3433097004890442,-0.3290051519870758
1757089254261613300,1.14261328125,0.9440162181854248,-0.23720930516719818,-0.41066136956214905
1757089254271568600,1.152568603515625,0.962385892868042,-0.10551866143941879,-0.4884198009967804
1757089254281522400,1.1625224609375,0.9904570579528809,0.03920348361134529,-0.5536301136016846
1757089254291477500,1.1724775390625,1.0098379850387573,0.18465042114257812,-0.6094750165939331
1757089254301432300,1.182432373046875,1.0117497444152832,0.32339006662368774,-0.6437334418296814
1757089254311386600,1.19238671875,0.9906993508338928,0.40057435631752014,-0.6407496333122253
1757089254321341400,1.202341552734375,0.951893150806427,0.3858404755592346,-0.5823688507080078
1757089254331296500,1.212296630859375,0.89990234375,0.2667524218559265,-0.46946093440055847
1757089254341251300,1.222251220703125,0.8340407609939575,0.071694515645504,-0.32476022839546204
1757089254351205600,1.23220556640625,0.7628776431083679,-0.13754737377166748,-0.18435516953468323
1757089254361160400,1.242160400390625,0.699401319026947,-0.2749636471271515,-0.09688837081193924
1757089254371115500,1.252115478515625,0.6491362452507019,-0.3104686439037323,-0.08537818491458893
1757089254381069300,1.2620693359375,0.6198754906654358,-0.2591361403465271,-0.120749332010746
1757089254391024600,1.272024658203125,0.6229767799377441,-0.1384800225496292,-0.16088423132896423
1757089254400979500,1.2819794921875,0.6644195318222046,0.03984617814421654,-0.1852947622537613
1757089254410934500,1.2919345703125,0.7255891561508179,0.22953222692012787,-0.19593967497348785
1757089254420888300,1.301888427734375,0.7894289493560791,0.3656015992164612,-0.19704100489616394
1757089254430843400,1.311843505859375,0.8401091694831848,0.46274760365486145,-0.20068767666816711
1757089254440798500,1.321798583984375,0.8756974935531616,0.5143181085586548,-0.21791388094425201
1757089254450752500,1.33175244140625,0.9057843089103699,0.5020864605903625,-0.2499391883611679
1757089254460707300,1.341707275390625,0.9196109175682068,0.42791464924812317,-0.2870854437351227
1757089254470662400,1.351662353515625,0.9165821075439453,0.3087936043739319,-0.30335018038749695
1757089254480617000,1.361616943359375,0.8985312581062317,0.16634942591190338,-0.2944956421852112
1757089254490571000,1.371571044921875,0.8732919096946716,0.033779654651880264,-0.26985180377960205
1757089254500526000,1.381526123046875,0.8417466878890991,-0.05306972935795784,-0.23907776176929474
1757089254510481200,1.391481201171875,0.8163646459579468,-0.07974208891391754,-0.19361308217048645
1757089254520436000,1.40143603515625,0.7990771532058716,-0.0772026777267456,-0.13631820678710938
1757089254530390000,1.41139013671875,0.7975202798843384,-0.0476066954433918,-0.06595722585916519
1757089254540345000,1.421344970703125,0.8106643557548523,0.0003103468334302306,0.0002402476966381073
1757089254550300200,1.431300048828125,0.8228145241737366,0.054772790521383286,0.054017458111047745
1757089254560254200,1.441254150390625,0.828093945980072,0.11149412393569946,0.0879615768790245
1757089254570209000,1.451208984375,0.8264821767807007,0.16920164227485657,0.10300710797309875
1757089254580164000,1.4611640625,0.8190516829490662,0.21993793547153473,0.09462685883045197
1757089254590119200,1.471119140625,0.8057201504707336,0.27917197346687317,0.08284450322389603
1757089254600073200,1.4810732421875,0.7781388163566589,0.3598680794239044,0.08122527599334717
1757089254610028000,1.491028076171875,0.7561770677566528,0.39090803265571594,0.0655355304479599
1757089254619983000,1.500983154296875,0.7466292977333069,0.4451344609260559,0.04106554388999939
1757089254629937200,1.510937255859375,0.7235926389694214,0.5641934871673584,0.014079200103878975
1757089254639892200,1.520892333984375,0.6795679926872253,0.7432975769042969,0.003353588981553912
1757089254649847000,1.530846923828125,0.6351345181465149,0.940246045589447,0.0071019879542291164
1757089254659802000,1.540802001953125,0.5826627016067505,1.1756541728973389,0.012040284462273121
1757089254669756200,1.550756103515625,0.4856930375099182,1.499986171722412,0.01459319144487381
1757089254679711000,1.5607109375,0.33196884393692017,1.9053633213043213,0.03848772868514061
1757089254689666000,1.570666015625,0.16220112144947052,2.3628721237182617,0.11793221533298492
1757089254699621000,1.58062109375,0.01726541668176651,2.7765421867370605,0.2476818710565567
1757089254709575200,1.5905751953125,-0.10030754655599594,3.0896100997924805,0.41121113300323486
1757089254719530000,1.600530029296875,-0.13043613731861115,3.1615545749664307,0.6571514010429382
1757089254729485000,1.610485107421875,-0.06309438496828079,3.209317207336426,0.957911491394043
1757089254739439400,1.620439453125,-0.03362438082695007,3.313657760620117,1.1954612731933594
1757089254749394200,1.630394287109375,-0.10292062908411026,3.3435487747192383,1.3003450632095337
1757089254759349000,1.640348876953125,-0.2862097918987274,3.042269229888916,1.0787948369979858
1757089254769304000,1.650303955078125,-0.6297125220298767,2.9551198482513428,0.6639983654022217
1757089254779258400,1.66025830078125,-1.1498116254806519,2.9102249145507812,0.22561895847320557
1757089254789213200,1.670213134765625,-1.468090534210205,2.6839218139648438,-0.24878324568271637
1757089254799168000,1.68016796875,-1.5554293394088745,2.2352278232574463,-0.7071595788002014
1757089254809122000,1.6901220703125,-1.5163240432739258,1.8418477773666382,-1.0942659378051758
1757089254819077400,1.700077392578125,-1.4524545669555664,1.512415885925293,-1.3779011964797974
1757089254829032200,1.7100322265625,-1.3609344959259033,1.1591649055480957,-1.5522191524505615
1757089254838987000,1.719987060546875,-1.1873819828033447,0.8029347062110901,-1.6471866369247437
1757089254848941000,1.729941162109375,-0.9385218620300293,0.47274166345596313,-1.7034155130386353
1757089254858896100,1.739896240234375,-0.6431418061256409,0.17580050230026245,-1.7415708303451538
1757089254868851200,1.749851318359375,-0.32750287652015686,-0.09936262667179108,-1.78983736038208
1757089254878806000,1.759805908203125,-0.04294278100132942,-0.2740635275840759,-1.869120717048645
1757089254888760000,1.769760009765625,0.17337647080421448,-0.2985190749168396,-1.961685299873352
1757089254898715100,1.779715087890625,0.2801954448223114,-0.017348606139421463,-2.032325506210327
1757089254908670200,1.789670166015625,0.299471914768219,0.2559734880924225,-2.0566139221191406
1757089254918624300,1.799624267578125,0.3268141448497772,0.34044820070266724,-1.9887443780899048
1757089254928579000,1.8095791015625,0.3430304229259491,0.4911617934703827,-1.8372834920883179
1757089254938534100,1.8195341796875,0.33265408873558044,0.6141966581344604,-1.6009962558746338
1757089254948489200,1.8294892578125,0.31588494777679443,0.583433985710144,-1.3115545511245728
1757089254958443300,1.839443359375,0.31284594535827637,0.5689550042152405,-1.0171515941619873
1757089254968398000,1.849398193359375,0.3134422302246094,0.6521736979484558,-0.7540051937103271
1757089254978353000,1.859352783203125,0.3063344359397888,0.7082347869873047,-0.5505615472793579
1757089254988307200,1.86930712890625,0.2814067304134369,0.8029748201370239,-0.40531569719314575
1757089254998262300,1.87926220703125,0.1389768421649933,1.1852669715881348,-0.2675509452819824
1757089255008217000,1.889217041015625,-0.0037576754111796618,1.467009425163269,-0.159165620803833
1757089255018172000,1.899171875,-0.04134025797247887,1.573541283607483,-0.05480358377099037
1757089255028126200,1.909126220703125,-0.06862540543079376,1.5785338878631592,0.0802900567650795
1757089255038081300,1.919081298828125,-0.14954420924186707,1.5643337965011597,0.20331135392189026
1757089255048036000,1.9290361328125,-0.27384936809539795,1.55288565158844,0.2582395672798157
1757089255057991000,1.938990966796875,-0.38035184144973755,1.6078773736953735,0.2129030078649521
1757089255067945200,1.9489453125,-0.5416880249977112,1.7306281328201294,0.0597829595208168
1757089255077900300,1.958900390625,-0.8206154108047485,1.8062876462936401,-0.12627600133419037
1757089255087855000,1.968855224609375,-1.2251307964324951,1.9413994550704956,-0.30524760484695435
1757089255097809200,1.97880908203125,-1.6316369771957397,2.1539673805236816,-0.4264010787010193
1757089255107764200,1.98876416015625,-1.8912878036499023,2.2812976837158203,-0.46705716848373413
1757089255117719300,1.99871923828125,-2.0767874717712402,2.2549452781677246,-0.4473692774772644
1757089255127674000,2.008674072265625,-2.1186745166778564,1.9633299112319946,-0.4173668920993805
1757089255137628200,2.018628173828125,-1.988407850265503,1.511559247970581,-0.3964011073112488
1757089255147583200,2.028583251953125,-1.7225000858306885,0.941228985786438,-0.39045852422714233
1757089255157538000,2.0385380859375,-1.4546539783477783,0.1799597293138504,-0.44609296321868896
1757089255167492000,2.0484921875,-1.2645621299743652,-0.4709365665912628,-0.5761622786521912
1757089255177447200,2.058447265625,-1.1494271755218506,-0.7345800995826721,-0.7395555973052979
1757089255187402200,2.06840234375,-1.0711430311203003,-0.8043383955955505,-0.8915131688117981
1757089255197357000,2.078357177734375,-0.9727198481559753,-0.748241126537323,-0.9951825737953186
1757089255207311000,2.08831103515625,-0.8541473746299744,-0.5846298336982727,-1.0123414993286133
1757089255217266200,2.09826611328125,-0.7231276035308838,-0.3467213213443756,-0.9165908098220825
1757089255227221200,2.10822119140625,-0.602365255355835,-0.022923791781067848,-0.7197715044021606
1757089255237175300,2.11817529296875,-0.5558696985244751,0.4189630448818207,-0.4591332972049713
1757089255247130000,2.128130126953125,-0.5230539441108704,0.774350643157959,-0.1696109175682068
1757089255257085200,2.138085205078125,-0.4920535981655121,0.9371267557144165,0.1693805605173111
1757089255267040300,2.148040283203125,-0.501583456993103,0.9794595241546631,0.4761926829814911
1757089255276994300,2.157994384765625,-0.5197778940200806,1.0022751092910767,0.6415585279464722
1757089255286949000,2.16794921875,-0.5359563231468201,1.0740411281585693,0.7002415060997009
1757089255296904200,2.177904296875,-0.5614979863166809,1.1353960037231445,0.6892199516296387
1757089255306859300,2.187859375,-0.5878505110740662,1.2164565324783325,0.6283478140830994
1757089255316813300,2.197813232421875,-0.5938082337379456,1.3434314727783203,0.5757508873939514
1757089255326768000,2.20776806640625,-0.5817941427230835,1.4420491456985474,0.5650625824928284
1757089255336723200,2.21772314453125,-0.5749253034591675,1.4714102745056152,0.5920186042785645
1757089255346677000,2.227677001953125,-0.5699113607406616,1.4258211851119995,0.6320981383323669
1757089255356632300,2.23763232421875,-0.5542934536933899,1.3082687854766846,0.6483134031295776
1757089255366587100,2.247587158203125,-0.5304940938949585,1.1426986455917358,0.6222690343856812
1757089255376542200,2.257542236328125,-0.5192840695381165,0.9791525602340698,0.5674704313278198
1757089255386496000,2.26749609375,-0.5156571269035339,0.8342139720916748,0.5114394426345825
1757089255396451300,2.277451416015625,-0.5147081017494202,0.7123340964317322,0.46782660484313965
1757089255406406100,2.28740625,-0.5130478739738464,0.592503011226654,0.4142446219921112
1757089255416360200,2.297360107421875,-0.5102602243423462,0.10788711905479431,0.17181581258773804
1757089255426315000,2.30731494140625,-0.4963609278202057,-0.07908356934785843,-0.15616126358509064
1757089255436270300,2.317270263671875,-0.486522376537323,0.27932268381118774,-0.30343693494796753
1757089255446225200,2.32722509765625,-0.4783751964569092,0.9227378964424133,-0.1979461908340454
1757089255456179200,2.33717919921875,-0.48019424080848694,1.4954394102096558,0.09569329768419266
1757089255466134000,2.347134033203125,-0.47462984919548035,1.9066109657287598,0.5131025314331055
1757089255476089300,2.35708935546875,-0.4742411673069,2.340419292449951,0.966046154499054
1757089255486043100,2.367043212890625,-0.5419211387634277,2.8768436908721924,1.3834664821624756
1757089255495998200,2.376998291015625,-0.6883402466773987,3.4355762004852295,1.7230710983276367
1757089255505953000,2.386953125,-0.8310680985450745,3.933440923690796,1.9829908609390259
1757089255515908000,2.396908203125,-0.9251341223716736,4.352540016174316,2.207702159881592
1757089255525862000,2.40686181640625,-1.0074061155319214,4.771096229553223,2.4466075897216797
1757089255535817200,2.416817138671875,-1.1252691745758057,5.175413131713867,2.745192289352417
1757089255545772000,2.42677197265625,-1.2564468383789062,5.455339431762695,3.13767409324646
1757089255555727000,2.43672705078125,-1.3919740915298462,5.53278923034668,3.544912338256836
1757089255565681000,2.446680908203125,-1.484547734260559,5.377035140991211,3.8199310302734375
1757089255575636200,2.45663623046875,-1.5163869857788086,5.021170139312744,3.8950510025024414
1757089255585591000,2.466591064453125,-1.5711205005645752,4.546229839324951,3.788771390914917
1757089255595545000,2.476545166015625,-1.67183518409729,3.9767825603485107,3.55853009223938
1757089255605500000,2.4865,-1.7603453397750854,3.3692736625671387,3.2766165733337402
1757089255615455200,2.496455322265625,-1.7892704010009766,2.769606113433838,2.9753384590148926
1757089255625410000,2.50641015625,-1.7406189441680908,2.1835222244262695,2.662565231323242
1757089255635364000,2.516364013671875,-1.6611546277999878,1.557983636856079,2.335730791091919
1757089255645319000,2.52631884765625,-1.6261169910430908,0.7307685017585754,1.9287693500518799
1757089255655274200,2.536274169921875,-1.5844484567642212,-0.43318015336990356,1.3341916799545288
1757089255665228000,2.54622802734375,-1.421960473060608,-1.6469621658325195,0.6129962205886841
1757089255675183000,2.55618310546875,-1.216219425201416,-2.543562889099121,0.05281277000904083
1757089255685138000,2.566137939453125,-1.0832406282424927,-2.9263763427734375,-0.25239667296409607
1757089255695093200,2.57609326171875,-1.0481222867965698,-2.8054323196411133,-0.28974565863609314
1757089255705047000,2.586047119140625,-1.1117273569107056,-2.337738275527954,-0.07164476066827774
1757089255715002000,2.596002197265625,-1.2678271532058716,-1.7311928272247314,0.34782448410987854
1757089255724957000,2.60595703125,-1.4397085905075073,-1.017514705657959,0.9127478003501892
1757089255734911200,2.6159111328125,-1.5788902044296265,-0.4289584457874298,1.5575129985809326
1757089255744866000,2.625865966796875,-1.6571210622787476,-0.1325715333223343,2.218489170074463
1757089255754821000,2.635821044921875,-1.6664382219314575,-0.09631344676017761,2.7979423999786377
1757089255764776000,2.64577587890625,-1.6495544910430908,0.026976801455020905,3.1727726459503174
1757089255774730200,2.655730224609375,-1.5433896780014038,0.17883120477199554,3.2697081565856934
1757089255784685000,2.66568505859375,-1.3204835653305054,0.23466384410858154,3.070158004760742
1757089255794640100,2.67564013671875,-1.0323843955993652,0.2795763611793518,2.595937967300415
1757089255804594000,2.685593994140625,-0.7797896862030029,0.27981072664260864,1.9843171834945679
1757089255814549200,2.69554931640625,-0.5861697196960449,0.2663835883140564,1.3409202098846436
1757089255824504000,2.705504150390625,-0.40301060676574707,0.11860344558954239,0.8374674320220947
1757089255834459100,2.715459228515625,-0.15582896769046783,-0.06568605452775955,0.5490304231643677
1757089255844413000,2.725412841796875,0.11116117238998413,-0.23120497167110443,0.412650465965271
1757089255854368300,2.7353681640625,0.3671647906303406,-0.42890408635139465,0.36508485674858093
1757089255864323000,2.745322998046875,0.5965942144393921,-0.6485517621040344,0.33781754970550537
1757089255874277000,2.755277099609375,0.8207665085792542,-0.8787032961845398,0.25813010334968567
1757089255884232000,2.76523193359375,1.0426040887832642,-1.0680458545684814,0.08826515823602676
1757089255894187300,2.775187255859375,1.1611770391464233,-1.1613835096359253,-0.21550382673740387
1757089255904142000,2.78514208984375,1.0938800573349,-1.2265949249267578,-0.6635377407073975
1757089255914096000,2.79509619140625,0.9155111312866211,-1.2352732419967651,-1.2286955118179321
1757089255924051000,2.805051025390625,0.6598982810974121,-1.2072376012802124,-1.8923722505569458
1757089255934006300,2.81500634765625,0.385789692401886,-1.1946543455123901,-2.5624141693115234
1757089255943960000,2.8249599609375,0.1211034283041954,-1.2176529169082642,-3.1081323623657227
1757089255953915100,2.8349150390625,-0.14326784014701843,-1.2167150974273682,-3.4578590393066406
1757089255963870000,2.844869873046875,-0.41934096813201904,-1.1217097043991089,-3.6271488666534424
1757089255973825300,2.8548251953125,-0.7020477056503296,-0.9314616918563843,-3.648409843444824
1757089255983779000,2.864779052734375,-1.0201596021652222,-0.8306117653846741,-3.5793282985687256
1757089255993734100,2.874734130859375,-1.0155237913131714,-0.9655030965805054,-3.414890766143799
1757089256003689000,2.88468896484375,-0.7920169234275818,-0.5931652188301086,-3.1524157524108887
1757089256013644000,2.89464404296875,-0.7457371950149536,0.17097048461437225,-2.7472851276397705
1757089256023598000,2.90459814453125,-0.9207279086112976,1.051872730255127,-2.203052043914795
1757089256033553200,2.91455322265625,-1.1847949028015137,1.7895801067352295,-1.5085369348526
1757089256043508000,2.924508056640625,-1.316486120223999,2.3307199478149414,-0.7459911108016968
1757089256053462000,2.9344619140625,-1.2686638832092285,2.703557014465332,-0.10092040151357651
1757089256063417000,2.9444169921875,-1.2031053304672241,2.792167901992798,0.4645669460296631
1757089256073372200,2.9543720703125,-1.2252252101898193,2.6203436851501465,0.8967297077178955
1757089256083327000,2.964326904296875,-1.2836050987243652,2.1724119186401367,1.1206996440887451
1757089256093281000,2.974281005859375,-1.262717843055725,1.5713496208190918,1.139410138130188
1757089256103236000,2.984236083984375,-1.1310516595840454,0.9236438274383545,1.0051060914993286
1757089256113191200,2.994191162109375,-0.9735345244407654,0.3763867914676666,0.8107910752296448
1757089256123145200,3.004145263671875,-0.8469387292861938,-0.071795254945755,0.6583978533744812
1757089256133100000,3.01410009765625,-0.754962682723999,-0.3952486217021942,0.5708393454551697
1757089256143055000,3.02405517578125,-0.7578953504562378,-0.6178497672080994,0.5443795323371887
1757089256153010200,3.03401025390625,-0.7046346068382263,-0.833817720413208,0.5881892442703247
1757089256162964200,3.043964111328125,-0.5445064306259155,-1.1166329383850098,0.7006356716156006
1757089256172919000,3.0539189453125,-0.326377809047699,-1.7009179592132568,0.8167904615402222
1757089256182874000,3.0638740234375,-0.059012435376644135,-2.194955587387085,0.8637512922286987
1757089256192828200,3.073828125,0.26177331805229187,-2.4103763103485107,0.874850332736969
1757089256202783200,3.083783203125,0.5266622304916382,-2.493987798690796,0.9030976891517639
1757089256212738000,3.093738037109375,0.6512304544448853,-2.357372999191284,0.9300690293312073
1757089256222693000,3.103693115234375,0.655731737613678,-2.0102813243865967,0.9232758283615112
1757089256232647200,3.113647216796875,0.6265745162963867,-1.456141471862793,0.8591628074645996
1757089256242602000,3.12360205078125,0.5746093392372131,-0.9058694839477539,0.737118124961853
1757089256252557000,3.13355712890625,0.5966904759407043,-0.5570599436759949,0.6161145567893982
1757089256262511000,3.143510986328125,0.6599475145339966,-0.09809289872646332,0.5517792701721191
1757089256272466200,3.153466064453125,0.6872851848602295,0.6623742580413818,0.6491266489028931
1757089256282421000,3.1634208984375,0.5518171191215515,1.2043133974075317,0.9366966485977173
1757089256292376000,3.1733759765625,0.16959409415721893,1.75778067111969,1.2207483053207397
1757089256302330000,3.183330078125,0.03262799233198166,1.6540396213531494,1.5297932624816895
1757089256312285200,3.19328515625,0.2584296762943268,1.4726817607879639,1.8924968242645264
1757089256322240000,3.203239990234375,0.5409145951271057,1.0016005039215088,2.1910605430603027
1757089256332194000,3.213194091796875,0.7328956723213196,1.0213159322738647,2.3603484630584717
1757089256342149000,3.223149169921875,0.8912855386734009,0.8131987452507019,2.4784011840820312
1757089256352104200,3.233104248046875,0.9879533648490906,0.7027239799499512,2.4860713481903076
1757089256362059000,3.24305908203125,1.045886516571045,0.19447410106658936,2.3932244777679443
1757089256372013000,3.253012939453125,1.0902894735336304,0.204392671585083,2.221524715423584
1757089256381968100,3.262968017578125,1.2157211303710938,0.5669258236885071,2.0962846279144287
1757089256391923200,3.272923095703125,1.25846529006958,0.5499536395072937,2.0558762550354004
1757089256401878000,3.2828779296875,1.239732265472412,0.4315764009952545,2.1079208850860596
1757089256411832000,3.29283203125,1.2886860370635986,0.2691728472709656,2.1886417865753174
1757089256421787100,3.302787109375,1.3655067682266235,0.10641350597143173,2.1873486042022705
1757089256431742200,3.3127421875,1.3708394765853882,0.03071269392967224,2.1147494316101074
1757089256441696300,3.3226962890625,1.3260834217071533,0.19604864716529846,1.9943095445632935
1757089256451651000,3.332651123046875,1.2608041763305664,0.4756088852882385,1.8596795797348022
1757089256461606100,3.342606201171875,1.1246767044067383,0.7212351560592651,1.7623456716537476
1757089256471561200,3.352561279296875,0.9521417021751404,0.8842418193817139,1.7048383951187134
1757089256481514800,3.3625146484375,0.7583754062652588,1.0146677494049072,1.6803748607635498
1757089256491469600,3.372469482421875,0.6080944538116455,0.9413158893585205,1.7350512742996216
1757089256501425000,3.3824248046875,0.572647213935852,0.7336897253990173,1.8445913791656494
1757089256511378700,3.392378662109375,0.5456992983818054,0.6556591391563416,1.9036870002746582
1757089256521333800,3.402333740234375,0.30905479192733765,0.6228378415107727,1.8483155965805054
1757089256531288600,3.41228857421875,0.18226726353168488,0.8964118957519531,1.6055282354354858
1757089256541244000,3.422243896484375,0.27921804785728455,0.6195629835128784,1.5972028970718384
1757089256551197700,3.43219775390625,0.08882713317871094,0.3039587736129761,1.5624008178710938
1757089256561152800,3.44215283203125,-0.24607549607753754,0.37484467029571533,1.3130162954330444
1757089256571107600,3.452107666015625,-0.40274664759635925,0.5521124601364136,1.1257985830307007
1757089256581062000,3.462061767578125,-0.16765132546424866,0.9092990756034851,0.9578002691268921
1757089256591016700,3.4720166015625,0.24949747323989868,0.6621357798576355,0.9105793237686157
1757089256600971800,3.4819716796875,0.4804611802101135,-0.0921769067645073,0.7079668045043945
1757089256610926600,3.491926513671875,0.4921637177467346,-0.2972469925880432,-0.033030252903699875
1757089256620880600,3.501880615234375,0.20952804386615753,-0.24963074922561646,-1.2479408979415894
1757089256630835700,3.511835693359375,0.02430913597345352,-0.6061968207359314,-1.8085260391235352
1757089256640790800,3.521790771484375,0.06022585928440094,-0.24405886232852936,-1.5210648775100708
1757089256650744600,3.53174462890625,0.13804377615451813,0.5775855779647827,-0.8704093098640442
1757089256660699600,3.54169970703125,0.17163927853107452,0.9660808444023132,-0.348457932472229
1757089256670654700,3.55165478515625,0.21455071866512299,1.2591444253921509,-0.1569780707359314
1757089256680609800,3.56160986328125,0.2786807119846344,1.4787499904632568,-0.30726584792137146
1757089256690563600,3.5715634765625,0.2567596435546875,1.749164342880249,-0.6295067667961121
1757089256700518700,3.5815185546875,0.2343083918094635,1.3241562843322754,-1.0085539817810059
1757089256710473700,3.5914736328125,0.22605736553668976,0.5362499952316284,-1.425238847732544
1757089256720427800,3.601427734375,0.18804073333740234,-0.3962550461292267,-1.7914031744003296
1757089256730382600,3.611382568359375,0.2196144312620163,-2.01371169090271,-2.0780885219573975
1757089256740337700,3.621337646484375,0.524868369102478,-2.9582300186157227,-2.5814099311828613
1757089256750292700,3.631292724609375,0.66493821144104,-2.2263011932373047,-2.4591147899627686
1757089256760246800,3.641246826171875,0.45674771070480347,-0.257961630821228,-1.5380933284759521
1757089256770201600,3.65120166015625,0.3011273443698883,-0.026712138205766678,-0.7760909795761108
1757089256780156700,3.66115673828125,0.2864197790622711,-0.238638237118721,-0.2684572637081146
1757089256790110700,3.67111083984375,0.33576032519340515,-0.12561379373073578,0.10730641335248947
1757089256800065800,3.681065673828125,0.2718077301979065,0.41745319962501526,0.4596511423587799
1757089256810020600,3.6910205078125,0.10633470118045807,0.8356630206108093,0.699562132358551
1757089256819975700,3.7009755859375,0.01323299016803503,1.0455504655838013,0.7540013790130615
1757089256829929700,3.7109296875,-0.006011920981109142,0.8792592287063599,0.5403664708137512
1757089256839884800,3.720884765625,0.05016586184501648,0.539445698261261,0.12561431527137756
1757089256849839600,3.730839599609375,0.27037033438682556,0.18446119129657745,-0.29023808240890503
1757089256859793700,3.740793701171875,0.25837600231170654,-0.03357179835438728,-0.7282183766365051
1757089256869748700,3.750748779296875,0.1637643277645111,0.029872065410017967,-1.1605417728424072
1757089256879703800,3.760703857421875,0.09777679294347763,0.13255982100963593,-1.5461763143539429
1757089256889658600,3.77065869140625,0.035185184329748154,0.16759620606899261,-1.8346937894821167
1757089256899612700,3.78061279296875,-0.1334237903356552,0.27583131194114685,-1.9648480415344238
1757089256909567700,3.790567626953125,-0.508508026599884,0.22908474504947662,-1.8609399795532227
1757089256919522800,3.800522705078125,-0.9494279026985168,0.23586516082286835,-1.6881178617477417
1757089256929476900,3.810476806640625,-1.4828858375549316,0.43883824348449707,-1.524184226989746
1757089256939431700,3.820431640625,-1.9343228340148926,0.8567188382148743,-1.2759305238723755
1757089256949386800,3.83038671875,-2.2093617916107178,1.2412421703338623,-0.8387468457221985
1757089256959341800,3.840341796875,-2.2253057956695557,1.6236169338226318,-0.3333433270454407
1757089256969295600,3.850295654296875,-1.9593874216079712,1.9940229654312134,0.23854948580265045
1757089256979250700,3.860250732421875,-1.4162380695343018,2.251544952392578,0.7717193961143494
1757089256989205800,3.870205810546875,-1.20841383934021,2.3645501136779785,0.8882390856742859
1757089256999160800,3.880160888671875,-1.0136102437973022,2.370877742767334,0.9410961866378784
1757089257009114600,3.890114501953125,-0.9649943113327026,2.6765825748443604,0.695701539516449
1757089257019069700,3.900069580078125,-1.0494122505187988,2.8365042209625244,0.47861960530281067
1757089257029024800,3.910024658203125,-1.0913314819335938,2.975590705871582,0.34605148434638977
1757089257038978800,3.919978759765625,-1.104451298713684,2.9320738315582275,0.4011954367160797
1757089257048933600,3.92993359375,-1.0900441408157349,2.319169521331787,0.4186398983001709
1757089257058888700,3.939888671875,-1.174780249595642,1.042155385017395,0.20114165544509888
1757089257068843800,3.94984375,-1.486753225326538,-0.08176356554031372,-0.017631324008107185
1757089257078797800,3.9597978515625,-1.7651833295822144,-0.5190961360931396,-0.115524061024189
1757089257088752600,3.969752685546875,-1.4736067056655884,-0.7396004796028137,-0.1917784959077835
1757089257098707700,3.979707763671875,-0.8908095359802246,-0.7780703902244568,-0.2788366973400116
1757089257108661800,3.989661865234375,-0.43121081590652466,-0.5659534931182861,-0.29510995745658875
1757089257118616800,3.999616943359375,-0.2102709859609604,-0.14884355664253235,-0.13110396265983582
1757089257128571600,4.009571533203125,-0.1633535474538803,0.45526736974716187,0.3691527247428894
1757089257138526700,4.019526611328125,-0.11258623749017715,0.9968826770782471,0.9267211556434631
1757089257148480800,4.029480712890625,-0.026202566921710968,1.1776522397994995,1.2708165645599365
1757089257158435800,4.039435791015625,-0.15994811058044434,1.2931591272354126,1.5296618938446045
1757089257168390700,4.049390625,-0.2951661944389343,1.1415126323699951,1.5376721620559692
1757089257178344700,4.0593447265625,-0.3712226152420044,0.8589176535606384,1.2346470355987549
1757089257188299800,4.0692998046875,-0.5256875157356262,0.6745662689208984,0.8115426898002625
1757089257198254800,4.0792548828125,-0.7835467457771301,0.34435346722602844,0.42935511469841003
1757089257208209000,4.089208984375,-1.0198572874069214,-0.07329749315977097,0.054067015647888184
1757089257218163700,4.099163818359375,-1.0736757516860962,-0.051099780946969986,-0.45305344462394714
1757089257228118800,4.109118896484375,-0.9718350172042847,0.5094781517982483,-0.9744573831558228
1757089257238073900,4.119073974609375,-1.0152077674865723,1.2573137283325195,-1.0635493993759155
1757089257248028000,4.12902783203125,-1.2552756071090698,1.5682883262634277,-0.8494011163711548
1757089257257982700,4.138982666015625,-1.5854301452636719,1.3373866081237793,-0.6709922552108765
1757089257267937500,4.1489375,-2.007906198501587,0.9875655174255371,-0.4218195378780365
1757089257277892900,4.158892822265625,-2.4129478931427,0.699903666973114,-0.16378001868724823
1757089257287847000,4.168846923828125,-2.678076982498169,0.602214515209198,-0.026097964495420456
1757089257297801700,4.1788017578125,-2.7005114555358887,0.45235148072242737,0.006315901409834623
1757089257307756500,4.188756591796875,-2.425504207611084,0.28141725063323975,-0.03521859273314476
1757089257317710600,4.198710693359375,-1.8228693008422852,0.27649810910224915,-0.18347011506557465
1757089257327666000,4.208666015625,-1.0677658319473267,0.3131484389305115,-0.3934166729450226
1757089257337620700,4.218620849609375,-0.43157127499580383,0.22688093781471252,-0.5645751357078552
1757089257347575600,4.228575439453125,-0.15117377042770386,0.07765325903892517,-0.6723607778549194
1757089257357529600,4.238529541015625,-0.09717179089784622,-0.011921892873942852,-0.8098443150520325
1757089257367485000,4.24848486328125,-0.2762150764465332,0.5624355673789978,-0.9126818180084229
1757089257377439700,4.258439697265625,-0.680365264415741,1.6149061918258667,-1.1574656963348389
1757089257387393800,4.268393798828125,-1.0542956590652466,1.740418553352356,-1.5787370204925537
1757089257397348600,4.2783486328125,-1.45017671585083,1.4128267765045166,-1.789401888847351
1757089257407304000,4.288303955078125,-1.680934190750122,0.6741865873336792,-1.6643339395523071
1757089257417258800,4.2982587890625,-1.5796771049499512,-0.6010127067565918,-1.0001407861709595
1757089257427212800,4.308212890625,-1.398973822593689,-0.9003164172172546,-0.1244344487786293
1757089257437167600,4.318167724609375,-1.4063351154327393,-0.38357794284820557,0.20725879073143005
1757089257447122700,4.328122802734375,-1.4622912406921387,-0.019808683544397354,-0.12975111603736877
1757089257457076700,4.33807666015625,-1.5510224103927612,-0.42475321888923645,-0.3914112150669098
1757089257467031800,4.34803173828125,-1.6262805461883545,-1.0038909912109375,-0.3706846833229065
1757089257476986600,4.357986572265625,-1.5336419343948364,-1.0484682321548462,-0.192906454205513
1757089257486941700,4.367941650390625,-1.2202996015548706,-0.6756683588027954,0.07544494420289993
1757089257496895700,4.377895751953125,-0.9191905856132507,-0.5978841185569763,0.2496095597743988
1757089257506851000,4.38785107421875,-0.8677903413772583,-0.5751537084579468,0.3018292784690857
1757089257516806000,4.397805908203125,-0.9577248096466064,0.021044714376330376,0.35095953941345215
1757089257526760000,4.407760009765625,-1.1733485460281372,0.5119481682777405,0.2958509027957916
1757089257536714800,4.41771484375,-1.5838574171066284,0.5089023113250732,0.15801259875297546
1757089257546670000,4.427670166015625,-1.9124391078948975,0.4113723337650299,0.10596294701099396
1757089257556625000,4.437625,-2.12851881980896,0.3457336723804474,0.16943301260471344
1757089257566579000,4.447578857421875,-2.148124933242798,0.5311614274978638,0.30549857020378113
1757089257576533800,4.45753369140625,-2.0686452388763428,0.9752342104911804,0.4577395021915436
1757089257586489000,4.467489013671875,-1.9167567491531372,1.5895452499389648,0.502554178237915
1757089257596443000,4.47744287109375,-1.7644433975219727,2.224519729614258,0.44695907831192017
1757089257606398000,4.48739794921875,-1.71895432472229,2.47705340385437,0.19800396263599396
1757089257616352800,4.497352783203125,-1.9214565753936768,1.4654361009597778,-0.6359169483184814
1757089257626307800,4.507307861328125,-2.079488515853882,1.1405367851257324,-0.9070587158203125
1757089257636262000,4.517261962890625,-2.08963942527771,1.4352613687515259,-0.8891497254371643
1757089257646217000,4.527217041015625,-2.0582408905029297,1.6731536388397217,-0.7749964594841003
1757089257656171800,4.537171875,-2.0057854652404785,1.8575873374938965,-0.6056945323944092
1757089257666125800,4.547125732421875,-1.8612006902694702,2.039323091506958,-0.49078214168548584
1757089257676081000,4.557080810546875,-1.5180447101593018,2.4642422199249268,-0.33169451355934143
1757089257686036000,4.567035888671875,-3.0029826164245605,3.4648609161376953,-0.5513808727264404
1757089257695990800,4.57699072265625,-7.381313323974609,3.114327907562256,-0.7235696911811829
1757089257705944800,4.58694482421875,-8.29728889465332,1.8856356143951416,0.003437966341152787
1757089257715900000,4.59689990234375,-7.044361114501953,0.6815427541732788,0.7604633569717407
1757089257725855000,4.60685498046875,-5.7978835105896,0.36927810311317444,0.9863783717155457
1757089257735808800,4.616808837890625,-4.627597808837891,0.7309896945953369,0.659761905670166
1757089257745763800,4.626763916015625,-3.5874485969543457,1.5510448217391968,-0.043919019401073456
1757089257755719000,4.636718994140625,-1.4375486373901367,1.8709557056427002,-0.4539709985256195
1757089257765674000,4.646674072265625,1.6979159116744995,0.7409216165542603,-0.3333156108856201
1757089257775627800,4.656627685546875,2.175309896469116,-0.07955995947122574,-0.22592337429523468
1757089257785582800,4.666582763671875,0.8597521185874939,-0.4798753559589386,-0.04803767800331116
1757089257795538000,4.676537841796875,-0.25588011741638184,-0.14190633594989777,-0.06298840045928955
1757089257805492000,4.686491943359375,-0.20354266464710236,0.4312639832496643,-0.11158154904842377
1757089257815446800,4.69644677734375,-0.051566433161497116,0.6165568828582764,-0.06107229366898537
1757089257825401900,4.70640185546875,-0.08753469586372375,0.45551884174346924,0.03999185934662819
1757089257835357000,4.71635693359375,-0.12078826129436493,0.15894895792007446,0.14014242589473724
1757089257845311000,4.72631103515625,-0.1690172553062439,-0.13261514902114868,0.23328733444213867
1757089257855265800,4.736265869140625,-0.20681150257587433,-0.3761835992336273,0.31930452585220337
1757089257865220900,4.746220947265625,-0.2303183674812317,-0.5305563807487488,0.3938153088092804
1757089257875174700,4.756174560546875,-0.21656499803066254,-0.63694167137146,0.46389931440353394
1757089257885130000,4.7661298828125,-0.17576883733272552,-0.6997089385986328,0.5125949382781982
1757089257895084800,4.776084716796875,-0.11809008568525314,-0.7467230558395386,0.5446855425834656
1757089257905040000,4.786039794921875,-0.05335847660899162,-0.7427322268486023,0.5448125600814819
1757089257914993700,4.79599365234375,-0.01032126136124134,-0.6613481640815735,0.4955933392047882
1757089257924949000,4.805948974609375,0.0015413814689964056,-0.516412615776062,0.4256269037723541
1757089257934903800,4.81590380859375,-0.028206394985318184,-0.390412837266922,0.3917940855026245
1757089257944859000,4.82585888671875,-0.09135117381811142,-0.26726850867271423,0.3890381157398224
1757089257954812700,4.835812744140625,-0.11929039657115936,-0.10017485171556473,0.38732409477233887
1757089257964768000,4.84576806640625,-0.08498267829418182,0.040773194283246994,0.3401673138141632
1757089257974722800,4.855722900390625,-0.034494731575250626,0.07198198139667511,0.2502448856830597
1757089257984676900,4.8656767578125,0.004731381312012672,0.020338116213679314,0.1266692876815796
1757089257994631700,4.875631591796875,0.006938609294593334,-0.06467051804065704,0.007967942394316196
1757089258004587000,4.8855869140625,0.017796063795685768,-0.11700142174959183,-0.07925774902105331
1757089258014541800,4.895541748046875,0.020670413970947266,-0.13754238188266754,-0.12149787694215775
1757089258024495900,4.905495849609375,0.016397500410676003,-0.1631493866443634,-0.12044315040111542
1757089258034450700,4.91545068359375,0.013573749922215939,-0.16944482922554016,-0.10393501818180084
1757089258044406000,4.925406005859375,0.007495027035474777,-0.15598660707473755,-0.07163652032613754
1757089258054359800,4.93535986328125,0.0051919249817729,-0.13147993385791779,-0.030094671994447708
1757089258064315000,4.94531494140625,0.0006944135529920459,-0.10276426374912262,0.013342323713004589
1757089258074269700,4.955269775390625,-0.004440161399543285,-0.09277074784040451,0.044283729046583176
1757089258084225000,4.96522509765625,-0.0077475630678236485,-0.08947581052780151,0.055054329335689545
1757089258094178800,4.9751787109375,-0.012807037681341171,-0.06854123622179031,0.045130327343940735
1757089258104134000,4.9851337890625,-0.016235053539276123,-0.03518927842378616,0.016410531476140022
1757089258114088700,4.995088623046875,-0.012875474989414215,0.009346762672066689,-0.027847476303577423
1757089258124042800,5.005042724609375,-0.007649370934814215,0.05359014496207237,-0.07353328913450241
1757089258133997800,5.014997802734375,0.005105040036141872,0.09091541171073914,-0.11058451235294342
1757089258143953000,5.024952880859375,0.00871571246534586,0.1268444061279297,-0.13826093077659607
1757089258153907700,5.03490771484375,0.008491740562021732,0.15003307163715363,-0.14382053911685944
1757089258163861800,5.04486181640625,0.01699572429060936,0.14319442212581635,-0.12698698043823242
1757089258173816800,5.05481689453125,0.018696151673793793,0.13642838597297668,-0.09953539073467255
1757089258183772000,5.06477197265625,0.016002312302589417,0.10640770941972733,-0.07455100119113922
1757089258193726000,5.074725830078125,0.01956881769001484,0.06815087050199509,-0.05986899882555008
1757089258203680800,5.0846806640625,0.018219510093331337,0.04306666553020477,-0.055690374225378036
1757089258213635800,5.0946357421875,0.022051267325878143,-0.0005609740037471056,-0.06451582163572311
1757089258223591000,5.1045908203125,0.018411340191960335,0.008885769173502922,-0.08324974775314331
1757089258233544700,5.114544677734375,0.010171255096793175,0.02084522694349289,-0.09150421619415283
1757089258243499800,5.124499755859375,0.0035277572460472584,0.011406641453504562,-0.09578309208154678
1757089258253454800,5.134454833984375,-0.0017626124899834394,0.0015055411495268345,-0.08845673501491547
1757089258263409000,5.144408935546875,-0.017316199839115143,-0.024632852524518967,-0.07089284062385559
1757089258273363700,5.15436376953125,-0.03806089237332344,-0.030041731894016266,-0.0537617951631546
1757089258283318800,5.16431884765625,-0.04460924491286278,-0.08858444541692734,-0.03965920954942703
1757089258293273900,5.17427392578125,-0.0526203028857708,-0.15720318257808685,-0.031724054366350174
1757089258303228000,5.184227783203125,-0.0488223135471344,-0.17165790498256683,-0.01749606803059578
1757089258313182700,5.1941826171875,-0.04935840889811516,-0.15598200261592865,-0.004928876645863056
1757089258323137800,5.2041376953125,-0.04474648833274841,-0.11613335460424423,0.007976934313774109
1757089258333092900,5.2140927734375,-0.05791901797056198,-0.08076364547014236,0.018897226080298424
1757089258343047000,5.224046875,-0.05028397589921951,-0.048834286630153656,0.025595098733901978
1757089258353001700,5.234001708984375,-0.05946895107626915,-0.022577913478016853,0.029439102858304977
1757089258362956800,5.243956787109375,-0.06064550206065178,-0.010746498592197895,0.03048628754913807
1757089258372910800,5.253910888671875,-0.06386313587427139,-0.007520878221839666,0.027569061145186424
1757089258382866000,5.263865966796875,-0.0643736869096756,-0.00801002886146307,0.017692171037197113
1757089258392820700,5.27382080078125,-0.06478194892406464,-0.005627298261970282,0.0040543898940086365
1757089258402775800,5.28377587890625,-0.05856959521770477,-0.011311016976833344,-0.01451876200735569
1757089258412729900,5.293729736328125,-0.04891696572303772,-0.027025531977415085,-0.039153002202510834
1757089258422685000,5.303684814453125,-0.04470117390155792,-0.05115969106554985,-0.0716552734375
1757089258432639700,5.3136396484375,-0.0425296314060688,-0.060265038162469864,-0.0978783518075943
1757089258442593800,5.32359375,-0.039351414889097214,-0.05291451886296272,-0.12121537327766418
1757089258452548900,5.333548828125,-0.03829946741461754,-0.024827755987644196,-0.13579164445400238
1757089258462504000,5.34350390625,-0.038547333329916,0.00112246279604733,-0.14328624308109283
1757089258472458800,5.353458740234375,-0.036529719829559326,0.03596939146518707,-0.1591581553220749
1757089258482413000,5.3634130859375,-0.037589408457279205,0.06103287264704704,-0.16939829289913177
1757089258492368100,5.3733681640625,-0.038743890821933746,0.08163801580667496,-0.17608734965324402
1757089258502323200,5.3833232421875,-0.03811779245734215,0.106868214905262,-0.17978516221046448
1757089258512278000,5.393278076171875,-0.035148635506629944,0.09015022218227386,-0.17488335072994232
1757089258522232000,5.403232177734375,-0.030690712854266167,0.0583164356648922,-0.18083491921424866
1757089258532187100,5.413187255859375,-0.020748334005475044,0.0942387580871582,-0.20448273420333862
1757089258542142200,5.42314208984375,-0.009364297613501549,0.1634153425693512,-0.22268959879875183
1757089258552096300,5.43309619140625,-0.011126778088510036,0.21963439881801605,-0.22792403399944305
1757089258562051000,5.443051025390625,-0.01271258294582367,0.2550286054611206,-0.22885417938232422
1757089258572006100,5.453006103515625,-0.013833507895469666,0.26389771699905396,-0.22974181175231934
1757089258581961200,5.462961181640625,-0.016329815611243248,0.2479882836341858,-0.22745855152606964
1757089258591915000,5.4729150390625,-0.013665055856108665,0.2237870693206787,-0.2249155044555664
1757089258601870000,5.4828701171875,-0.012862756848335266,0.20810095965862274,-0.2273225635290146
1757089258611825200,5.4928251953125,-0.015601552091538906,0.2004835307598114,-0.23262865841388702
1757089258621780200,5.5027802734375,-0.01996365562081337,0.20207351446151733,-0.24323613941669464
1757089258631734000,5.512734130859375,-0.026360301300883293,0.20983557403087616,-0.25703850388526917
1757089258641689000,5.522689208984375,-0.03835077956318855,0.2128407061100006,-0.2790941298007965
1757089258651644200,5.53264404296875,-0.05012993887066841,0.2035718411207199,-0.30467966198921204
1757089258661599200,5.54259912109375,-0.06394379585981369,0.18609146773815155,-0.3324394226074219
1757089258671553000,5.552552978515625,-0.07848279178142548,0.1593293696641922,-0.36653533577919006
1757089258681508000,5.562508056640625,-0.08158311992883682,0.1332065761089325,-0.39576393365859985
1757089258691463200,5.572463134765625,-0.09474819153547287,0.108930803835392,-0.42637988924980164
1757089258701418200,5.582418212890625,-0.10896241664886475,0.09338963031768799,-0.45546868443489075
1757089258711372000,5.5923720703125,-0.11720490455627441,0.07481887191534042,-0.4856811761856079
1757089258721327000,5.6023271484375,-0.1005224958062172,0.08646810799837112,-0.5188579559326172
1757089258731282200,5.6122822265625,-0.09985830634832382,0.11333008110523224,-0.5472357869148254
1757089258741237200,5.6222373046875,-0.094868004322052,0.14860419929027557,-0.5575120449066162
1757089258751191000,5.63219091796875,-0.0814368799328804,0.16595709323883057,-0.5470202565193176
1757089258761146000,5.64214599609375,-0.06719237565994263,0.16467508673667908,-0.5249682068824768
1757089258771101200,5.65210107421875,-0.04808659106492996,0.15150043368339539,-0.5157486200332642
1757089258781055200,5.66205517578125,-0.01763223670423031,0.11126378923654556,-0.5367954969406128
1757089258791010000,5.672010009765625,-0.002538505243137479,0.03819143772125244,-0.5698554515838623
1757089258800965000,5.681965087890625,0.02197953499853611,-0.04301924258470535,-0.5980075597763062
1757089258810920200,5.691920166015625,0.04033217579126358,-0.16006037592887878,-0.6183916926383972
1757089258820874200,5.701874267578125,0.034325890243053436,-0.31483009457588196,-0.6326941847801208
1757089258830829000,5.7118291015625,0.043762803077697754,-0.4003402292728424,-0.6450190544128418
1757089258840784100,5.7217841796875,0.049007169902324677,-0.34513962268829346,-0.6402111649513245
1757089258850739200,5.7317392578125,0.04416607692837715,-0.21118849515914917,-0.6178680658340454
1757089258860693200,5.741693359375,0.03430251404643059,-0.11926189810037613,-0.5725504159927368
1757089258870648000,5.75164794921875,0.05091424658894539,-0.005724952556192875,-0.5262657403945923
1757089258880603100,5.76160302734375,0.04701335355639458,0.104811891913414,-0.4931950271129608
1757089258890558200,5.77155810546875,0.03672849386930466,0.19990724325180054,-0.46565741300582886
1757089258900512300,5.78151220703125,0.043951697647571564,0.2638377845287323,-0.4193301796913147
1757089258910467000,5.791467041015625,0.0469895675778389,0.29740533232688904,-0.36537134647369385
1757089258920422100,5.801422119140625,0.0566670261323452,0.3202529549598694,-0.2900887727737427
1757089258930377200,5.811377197265625,0.06949680298566818,0.31735649704933167,-0.19576705992221832
1757089258940331300,5.821331298828125,0.08959132432937622,0.29448309540748596,-0.09637480229139328
1757089258950286000,5.8312861328125,0.11085613071918488,0.2538573741912842,0.014381005428731441
1757089258960241200,5.8412412109375,0.13807672262191772,0.22130857408046722,0.12220509350299835
1757089258970196200,5.8511962890625,0.1661834567785263,0.20759116113185883,0.20844143629074097
1757089258980150300,5.861150390625,0.19202391803264618,0.18408368527889252,0.27006015181541443
1757089258990105000,5.87110498046875,0.19638724625110626,0.1366139054298401,0.3081207275390625
1757089259000060200,5.88106005859375,0.20302920043468475,0.09456546604633331,0.32238781452178955
1757089259010015200,5.89101513671875,0.197745218873024,0.06139206141233444,0.3092472553253174
1757089259019969300,5.90096923828125,0.18165084719657898,0.02866710163652897,0.2716566324234009
1757089259029924000,5.910924072265625,0.16414909064769745,0.0004343996406532824,0.21263566613197327
1757089259039879200,5.920879150390625,0.1508832573890686,-0.03540276363492012,0.16449522972106934
1757089259049834200,5.930834228515625,0.12321434915065765,-0.051012083888053894,0.13920265436172485
1757089259059789000,5.9407890625,0.13521012663841248,-0.04039771854877472,0.13525938987731934
1757089259069743000,5.9507431640625,0.004072333220392466,-0.039353493601083755,0.15777082741260529
1757089259079698200,5.9606982421875,0.07698173820972443,-0.021878104656934738,0.1834155172109604
1757089259089653200,5.9706533203125,-0.022125938907265663,-0.01773449219763279,0.20079343020915985
1757089259099607300,5.980607177734375,0.03894445672631264,0.007447479292750359,0.18208883702754974
1757089259109562000,5.99056201171875,-0.04781094193458557,0.03220289200544357,0.14840012788772583
1757089259119517200,6.00051708984375,0.026990830898284912,0.07096389681100845,0.10133911669254303
1757089259129472300,6.01047216796875,-0.011785060167312622,0.07702071964740753,0.06814946979284286
1757089259139427000,6.020427001953125,0.09141772985458374,0.06669793277978897,0.04720580577850342
1757089259149381000,6.030381103515625,0.08248655498027802,0.013997437432408333,0.047732848674058914
1757089259159336200,6.040336181640625,0.16123048961162567,-0.05741450935602188,0.05846337229013443
1757089259169291300,6.050291259765625,0.1407795399427414,-0.15032660961151123,0.08951849490404129
1757089259179246000,6.06024609375,0.17319394648075104,-0.19894154369831085,0.1350039541721344
1757089259189200100,6.0702001953125,0.14461849629878998,-0.20510730147361755,0.19656959176063538
1757089259199155200,6.0801552734375,0.1648472547531128,-0.14573951065540314,0.24714666604995728
1757089259209110000,6.090110107421875,0.13666115701198578,-0.06294049322605133,0.2751239538192749
1757089259219065000,6.100065185546875,0.12394702434539795,0.02173011004924774,0.266573429107666
1757089259229019100,6.11001904296875,0.09093660861253738,0.0655074194073677,0.23677240312099457
1757089259238974200,6.11997412109375,0.046293288469314575,0.057827118784189224,0.18321625888347626
1757089259248929000,6.129928955078125,0.05052771419286728,0.05134578421711922,0.1287522166967392
1757089259258884000,6.139884033203125,0.01844952441751957,0.062434837222099304,0.0779607966542244
1757089259268838100,6.149838134765625,0.018363770097494125,0.08714631199836731,0.039585985243320465
1757089259278793200,6.159793212890625,-0.015875935554504395,0.122715063393116,0.004447457380592823
1757089259288748000,6.169748046875,0.01665217988193035,0.14948409795761108,-0.024828672409057617
1757089259298703000,6.179703125,-0.018070882186293602,0.1582239866256714,-0.04997021332383156
1757089259308657200,6.1896572265625,0.031665779650211334,0.12868528068065643,-0.05882469192147255
1757089259318612200,6.1996123046875,-0.007074125111103058,0.07682734727859497,-0.049685221165418625
1757089259328567000,6.209567138671875,0.05695705488324165,0.027441950514912605,-0.017609309405088425
1757089259338522000,6.219522216796875,0.009003644809126854,-0.01149053405970335,0.02694697305560112
1757089259348476200,6.22947607421875,0.08069594204425812,-0.03638123348355293,0.07070856541395187
1757089259358431000,6.239430908203125,0.015249728225171566,-0.04816367104649544,0.09522606432437897
1757089259368386000,6.249385986328125,0.09800053387880325,-0.03584841638803482,0.10379798710346222
1757089259378341000,6.259341064453125,0.017647264525294304,-0.025825168937444687,0.10113391280174255
1757089259388295200,6.269295166015625,0.10103563219308853,-0.017686547711491585,0.09153987467288971
1757089259398250000,6.27925,0.0010986163979396224,-0.02953062579035759,0.08492269366979599
1757089259408205000,6.289205078125,0.08963301032781601,-0.042134568095207214,0.07919582724571228
1757089259418160000,6.29916015625,-0.02015601098537445,-0.0698896273970604,0.08112481981515884
1757089259428114200,6.3091142578125,0.08378396928310394,-0.09843232482671738,0.09488457441329956
1757089259438069000,6.319069091796875,0.020162686705589294,-0.13756118714809418,0.11789724975824356
1757089259448024000,6.329024169921875,0.035034310072660446,-0.15716364979743958,0.13774392008781433
1757089259457979100,6.338979248046875,0.03674764931201935,-0.16756758093833923,0.14898419380187988
1757089259467934200,6.348934326171875,0.039913613349199295,-0.17070665955543518,0.15362288057804108
1757089259477888000,6.358887939453125,0.0366869680583477,-0.17445717751979828,0.14754584431648254
1757089259487842600,6.368842529296875,0.031156383454799652,-0.17844313383102417,0.1398482471704483
1757089259497797400,6.37879736328125,0.019483396783471107,-0.19165906310081482,0.12757845222949982
1757089259507752400,6.38875244140625,0.009626505896449089,-0.20963911712169647,0.11746855825185776
1757089259517706500,6.39870654296875,0.005125709343701601,-0.22898969054222107,0.10623449832201004
1757089259527661600,6.40866162109375,0.0006681103259325027,-0.23920825123786926,0.09885168075561523
1757089259537616400,6.418616455078125,-0.007868524640798569,-0.23027284443378448,0.10042653232812881
1757089259547571500,6.428571533203125,-0.011327171698212624,-0.21966972947120667,0.11226828396320343
1757089259557525500,6.438525390625,-0.018386999145150185,-0.19656498730182648,0.12485139816999435
1757089259567480600,6.44848046875,-0.023998811841011047,-0.1687445342540741,0.13253729045391083
1757089259577435400,6.458435302734375,-0.0261624064296484,-0.1483425796031952,0.13792747259140015
1757089259587390500,6.468390380859375,-0.024920575320720673,-0.12970392405986786,0.13496124744415283
1757089259597344500,6.478344482421875,-0.016835272312164307,-0.11763612180948257,0.1297624409198761
1757089259607299600,6.488299560546875,-0.008375473320484161,-0.10486280173063278,0.119412861764431
1757089259617254400,6.49825439453125,0.0012974041746929288,-0.1064252257347107,0.10693436115980148
1757089259627209500,6.50820947265625,0.010486375540494919,-0.13160595297813416,0.09355757385492325
1757089259637163500,6.51816357421875,0.021328290924429893,-0.17129024863243103,0.07836416363716125
1757089259647118600,6.52811865234375,0.021647337824106216,-0.15572035312652588,0.07803526520729065
1757089259657073400,6.538073486328125,0.027639146894216537,-0.14221589267253876,0.08512908220291138
1757089259667028500,6.548028564453125,0.027565911412239075,-0.1326487511396408,0.09236595779657364
1757089259676983300,6.5579833984375,0.02941266819834709,-0.1267947107553482,0.09849268198013306
1757089259686937600,6.5679375,0.027005435898900032,-0.11607521772384644,0.09989962726831436
1757089259696892400,6.577892333984375,0.027826931327581406,-0.11279628425836563,0.09016381949186325
1757089259706847500,6.587847412109375,0.026633836328983307,-0.10654264688491821,0.0732455626130104
1757089259716802300,6.59780224609375,0.0220246110111475,-0.08291835337877274,0.05156414210796356
1757089259726756600,6.607756591796875,0.016095349565148354,-0.057587429881095886,0.033875688910484314
1757089259736711400,6.61771142578125,0.011860470287501812,-0.04301965609192848,0.017298124730587006
1757089259746666500,6.62766650390625,0.011547015979886055,-0.031725190579891205,0.011809084564447403
1757089259756621300,6.637621337890625,0.018782399594783783,-0.03519226983189583,0.018534738570451736
1757089259766575600,6.64757568359375,0.025913812220096588,-0.03123161382973194,0.037721216678619385
1757089259776530400,6.657530517578125,0.027319736778736115,-0.031829770654439926,0.05704249069094658
1757089259786485500,6.667485595703125,0.034598689526319504,-0.045415088534355164,0.07310188561677933
1757089259796440300,6.6774404296875,0.041308607906103134,-0.0639301985502243,0.08345633745193481
1757089259806394600,6.68739453125,0.0492408350110054,-0.08043727278709412,0.0887770727276802
1757089259816349400,6.697349365234375,0.049722932279109955,-0.07473400980234146,0.09379798918962479
1757089259826304500,6.707304443359375,0.05026621371507645,-0.05096423253417015,0.09250076860189438
1757089259836259300,6.71725927734375,0.04650566354393959,-0.015768390148878098,0.081761933863163
1757089259846213600,6.727213623046875,0.04085097461938858,0.03401780501008034,0.0669528916478157
1757089259856168400,6.73716845703125,0.040883131325244904,0.06756314635276794,0.04373086243867874
1757089259866123500,6.74712353515625,0.03976380452513695,0.09741851687431335,0.021434612572193146
1757089259876078300,6.757078369140625,0.042185086756944656,0.11181733012199402,0.0047639585100114346
1757089259886032600,6.76703271484375,0.040688656270504,0.10795894265174866,-0.002847888506948948
1757089259895987500,6.776987548828125,0.044688913971185684,0.09711515158414841,0.00432632677257061
1757089259905942500,6.786942626953125,0.05015851557254791,0.08207601308822632,0.019763872027397156
1757089259915897300,6.7968974609375,0.046045221388339996,0.08135563880205154,0.03943447023630142
1757089259925851600,6.8068515625,0.04745962843298912,0.08501242101192474,0.05562382563948631
1757089259935806500,6.816806396484375,0.04616999626159668,0.09357957541942596,0.06612294912338257
1757089259945761500,6.826761474609375,0.04071531072258949,0.1139325201511383,0.06752776354551315
1757089259955716400,6.83671630859375,0.03497420996427536,0.12916237115859985,0.05944361165165901
1757089259965670700,6.846670654296875,0.031212758272886276,0.14121504127979279,0.03974660485982895
1757089259975625500,6.85662548828125,0.032396350055933,0.14623454213142395,0.01937776803970337
1757089259985580500,6.86658056640625,0.023598333820700645,0.16315440833568573,0.008599421940743923
1757089259995535400,6.876535400390625,0.02332533709704876,0.18241266906261444,0.016779299825429916
1757089260005489700,6.88648974609375,0.01936202123761177,0.19772930443286896,0.029715869575738907
1757089260015444500,6.896444580078125,0.015620718710124493,0.21180669963359833,0.0405881330370903
1757089260025399600,6.906399658203125,0.011920256540179253,0.2151859849691391,0.03926320746541023
1757089260035354400,6.916354248046875,0.014386873692274094,0.22064684331417084,0.030746154487133026
1757089260045308700,6.92630859375,0.010608647018671036,0.20906315743923187,0.02341606840491295
1757089260055263500,6.936263427734375,0.001022801036015153,0.22497060894966125,0.02664295583963394
1757089260065218600,6.946218505859375,0.0009410419734194875,0.20590797066688538,0.04932749271392822
1757089260075173400,6.95617333984375,-0.002127021783962846,0.18179665505886078,0.07509720325469971
1757089260085127400,6.96612744140625,-0.004829331301152706,0.16561688482761383,0.09658198803663254
1757089260095082500,6.97608251953125,-0.008419987745583057,0.15472960472106934,0.09888757020235062
1757089260105037600,6.98603759765625,-0.012334034778177738,0.14059913158416748,0.09173352271318436
1757089260114992400,6.995992431640625,-0.018380057066679,0.13171996176242828,0.07922187447547913
1757089260124946400,7.005946533203125,-0.017374979332089424,0.11350581794977188,0.06186792254447937
1757089260134901500,7.015901611328125,-0.017863847315311432,0.08648491650819778,0.045873600989580154
1757089260144856600,7.025856689453125,-0.017641473561525345,0.07151129096746445,0.03512295335531235
1757089260154811400,7.035811279296875,-0.02019946090877056,0.06231129541993141,0.028239987790584564
1757089260164765400,7.045765380859375,-0.021561667323112488,0.052885569632053375,0.027002420276403427
1757089260174720500,7.055720458984375,-0.01821821741759777,0.04145915433764458,0.02417266182601452
1757089260184675300,7.06567529296875,-0.01334436610341072,0.021217798814177513,0.020047424361109734
1757089260194630400,7.07563037109375,-0.006577424705028534,0.0010639799293130636,0.015708718448877335
1757089260204584400,7.08558447265625,-0.0018740154337137938,-0.010320767760276794,0.011481484398245811
1757089260214539500,7.09553955078125,0.0033173924311995506,-0.012060252018272877,0.004143252037465572
1757089260224494300,7.105494384765625,0.006388283334672451,-0.005140294786542654,-0.01030785869807005
1757089260234449400,7.115449462890625,0.009211936965584755,-0.0010664942674338818,-0.026848318055272102
1757089260244403500,7.125403564453125,0.011093726381659508,-0.007152882404625416,-0.03986717760562897
1757089260254358500,7.135358642578125,0.014992337673902512,-0.016203539445996284,-0.04827183857560158
1757089260264313300,7.145313232421875,0.016564136371016502,-0.03425178304314613,-0.0505637563765049
1757089260274268400,7.155268310546875,0.01909143477678299,-0.04939508065581322,-0.05055873841047287
1757089260284222500,7.165222412109375,0.019372131675481796,-0.05811586603522301,-0.04813366383314133
1757089260294177500,7.175177490234375,0.021269815042614937,-0.05234957113862038,-0.04341063275933266
1757089260304132400,7.18513232421875,0.023409666493535042,-0.0385807640850544,-0.03927234560251236
1757089260314087400,7.19508740234375,0.024760590866208076,-0.01985504850745201,-0.038879889994859695
1757089260324041500,7.20504150390625,0.02497071400284767,0.0017570354975759983,-0.04131694883108139
1757089260333996500,7.21499658203125,0.024351783096790314,0.01162851881235838,-0.04862174764275551
1757089260343951400,7.224951416015625,0.02511584386229515,0.020951181650161743,-0.05417736619710922
1757089260353906400,7.234906494140625,0.025119561702013016,0.022926924750208855,-0.05920729041099548
1757089260363860500,7.244860595703125,0.022684898227453232,0.011810891330242157,-0.05509883165359497
1757089260373815600,7.254815673828125,0.022329026833176613,-0.0009053637622855604,-0.04921784996986389
1757089260383770400,7.264770263671875,0.02105390653014183,-0.0058921328745782375,-0.04405051842331886
1757089260393725400,7.274725341796875,0.019059687852859497,-0.004469995386898518,-0.042836423963308334
1757089260403679500,7.284679443359375,0.014053745195269585,0.0056865019723773,-0.03448395058512688
1757089260413634600,7.294634521484375,0.009128461591899395,0.017543531954288483,-0.030104946345090866
1757089260423589400,7.30458935546875,0.00723255705088377,0.01728493720293045,-0.028056442737579346
1757089260433544400,7.31454443359375,0.007460896857082844,0.01569751836359501,-0.02866726741194725
1757089260443498500,7.32449853515625,0.008305384777486324,0.016830692067742348,-0.030914708971977234
1757089260453453600,7.33445361328125,0.009544087573885918,0.022744078189134598,-0.035396743565797806
1757089260463408400,7.344408447265625,0.009349143132567406,0.030010245740413666,-0.04137127846479416
1757089260473363500,7.354363525390625,0.007458033040165901,0.03161773085594177,-0.049646783620119095
1757089260483317200,7.364317138671875,0.008694272488355637,0.0246138833463192,-0.054770708084106445
1757089260493272600,7.3742724609375,0.00694122351706028,0.011183922179043293,-0.051905035972595215
1757089260503227400,7.384227294921875,0.006551070138812065,-0.00017019914230331779,-0.04350702464580536
1757089260513182500,7.394182373046875,0.004629050847142935,-0.009161049500107765,-0.034552693367004395
1757089260523136300,7.40413623046875,0.007376367691904306,-0.008733612485229969,-0.03247809037566185
1757089260533091600,7.414091552734375,0.005172580946236849,-0.0060162730515003204,-0.035678431391716
1757089260543046400,7.42404638671875,0.003349913517013192,0.0014192728558555245,-0.03950459510087967
1757089260553001500,7.43400146484375,0.001041783601976931,0.0069303554482758045,-0.04051283746957779
1757089260562955300,7.443955322265625,-0.0017364262603223324,0.013860433362424374,-0.040847595781087875
1757089260572910600,7.45391064453125,-0.002574106678366661,0.015593699179589748,-0.03832383453845978
1757089260582865400,7.463865478515625,-0.005866040475666523,0.006165577098727226,-0.03711875528097153
1757089260592820500,7.473820556640625,0.0026021096855401993,-0.011967849917709827,-0.035844605416059494
1757089260602774300,7.483774169921875,-0.00019234512001276016,-0.007566177286207676,-0.032362520694732666
1757089260612729600,7.4937294921875,0.0007958462228998542,-0.007527919486165047,-0.026653876528143883
1757089260622684400,7.503684326171875,0.006163713522255421,-0.007552419789135456,-0.02013099566102028
1757089260632639500,7.513639404296875,0.0065640611574053764,-0.007443301845341921,-0.012852766551077366
1757089260642593300,7.52359326171875,0.00664848368614912,-0.00525578111410141,-0.009418088011443615
1757089260652548600,7.533548583984375,0.009227009490132332,-0.003633073065429926,-0.009647865779697895
1757089260662503400,7.54350341796875,0.006773438770323992,-0.004553195089101791,-0.012679608538746834
1757089260672458500,7.55345849609375,0.004247238859534264,-0.008943753316998482,-0.017907315865159035
1757089260682412300,7.563412353515625,0.000696978997439146,-0.018819820135831833,-0.020427731797099113
1757089260692367600,7.57336767578125,-0.0013856105506420135,-0.03219931572675705,-0.01703406684100628
1757089260702322400,7.583322509765625,-0.004284461494535208,-0.03404621779918671,-0.013114692643284798
1757089260712277500,7.593277587890625,-0.009453436359763145,-0.021280039101839066,-0.015332083217799664
1757089260722231300,7.603231201171875,-0.011906473897397518,-0.010038303211331367,-0.022037126123905182
1757089260732186600,7.6131865234375,-0.012856200337409973,-0.002002472523599863,-0.028248455375432968
1757089260742141400,7.623141357421875,-0.011720627546310425,0.007541231345385313,-0.03300832584500313
1757089260752096500,7.633096435546875,-0.01248970627784729,0.01347687654197216,-0.032342758029699326
1757089260762050300,7.64305029296875,-0.010039864107966423,0.015863601118326187,-0.02786758542060852
1757089260772005600,7.653005615234375,-0.0074767423793673515,0.013777581974864006,-0.020422089844942093
1757089260781960400,7.66296044921875,-0.004081211984157562,0.008124756626784801,-0.015339712612330914
1757089260791915500,7.67291552734375,-0.0017212233506143093,-0.0009719334775581956,-0.014056973159313202
1757089260801869300,7.682869384765625,-0.0006056251004338264,-0.006859649904072285,-0.016288435086607933
1757089260811824600,7.69282470703125,0.00022781570442020893,-0.00981515645980835,-0.016065921634435654
1757089260821779500,7.702779541015625,0.0010110513539984822,-0.01345889363437891,-0.011261578649282455
1757089260831734500,7.712734619140625,-0.0015995712019503117,-0.009553482756018639,-0.005243828520178795
1757089260841688300,7.722688232421875,-0.0024965237826108932,-0.0030495114624500275,-0.004013448022305965
1757089260851643600,7.7326435546875,-0.0074667492881417274,0.00759348226711154,-0.006859002634882927
1757089260861598500,7.742598388671875,-0.010965078137814999,0.011480632238090038,-0.01121380366384983
1757089260871553500,7.752553466796875,-0.013325469568371773,0.005073396023362875,-0.01241092849522829
1757089260881507300,7.76250732421875,-0.013476204127073288,-0.005298817530274391,-0.010628473944962025
1757089260891462700,7.772462646484375,-0.014395144768059254,-0.01662026345729828,-0.010326354764401913
1757089260901417500,7.78241748046875,-0.012765822932124138,-0.02541801519691944,-0.008097820915281773
1757089260911372500,7.79237255859375,-0.010758161544799805,-0.029860470443964005,-0.007676869630813599
1757089260921326300,7.802326416015625,-0.01006813533604145,-0.024104047566652298,-0.0035449760034680367
1757089260931281700,7.81228173828125,-0.012304157949984074,-0.017654607072472572,-0.003892018925398588
1757089260941236500,7.822236572265625,-0.014136146754026413,-0.010308276861906052,-0.00239745294675231
1757089260951191600,7.832191650390625,-0.005459290463477373,-0.016804205253720284,-0.002284524030983448
1757089260961145300,7.842145263671875,-0.018757518380880356,-0.011217426508665085,-0.0027859974652528763
1757089260971100700,7.8521005859375,-0.016720391809940338,0.000072706607170403,0.004799026995897293
1757089260981055500,7.862055419921875,-0.02184458076953888,0.0010045466478914022,0.010303780436515808
1757089260991010300,7.87201025390625,-0.02233935333788395,-0.0044626654125750065,0.013650617562234402
1757089261000964400,7.88196435546875,-0.026424109935760498,-0.01757979951798916,0.016167039051651955
1757089261010919700,7.891919677734375,-0.029729263857007027,-0.0358772799372673,0.018513912335038185
1757089261020874500,7.90187451171875,-0.027928700670599937,-0.05439690127968788,0.022380821406841278
1757089261030829300,7.911829345703125,-0.024430667981505394,-0.06630511581897736,0.025905754417181015
1757089261040783400,7.921783447265625,-0.022376306354999542,-0.07275981456041336,0.02647620253264904
1757089261050738700,7.93173876953125,-0.022003093734383583,-0.07536430656909943,0.022861596196889877
1757089261060693500,7.941693603515625,-0.021000413224101067,-0.07163801044225693,0.019107872620224953
1757089261070648300,7.9516484375,-0.02084549143910408,-0.06613664329051971,0.015342353843152523
1757089261080602400,7.961602294921875,-0.01728537678718567,-0.0655004158616066,0.01655702106654644
1757089261090557700,7.9715576171875,-0.014004181139171124,-0.06327079981565475,0.01573668234050274
1757089261100512500,7.981512451171875,-0.012561014853417873,-0.06700322031974792,0.013707885518670082
1757089261110467300,7.99146728515625,-0.008393676951527596,-0.06841378659009933,0.01610155962407589
1757089261120421400,8.00142138671875,-0.005593895446509123,-0.06378494948148727,0.017048312351107597
1757089261130376700,8.011376708984375,-0.005141991190612316,-0.05551173537969589,0.015376612544059753
1757089261140331500,8.02133154296875,-0.004127593711018562,-0.04946848750114441,0.013356338255107403
1757089261150286300,8.031286376953124,-0.002615269273519516,-0.04312429204583168,0.009208380244672298
1757089261160240400,8.041240478515626,-0.0019894265569746494,-0.038280799984931946,0.005014434456825256
1757089261170195500,8.051195556640625,-0.00007069297134876251,-0.0328686498105526,0.0015514511615037918
1757089261180150500,8.061150634765625,0.0024992574471980333,-0.03534458950161934,-0.0005194228142499924
1757089261190105300,8.071105224609376,0.003285944228991866,-0.037077032029628754,0.0066335503943264484
1757089261200059400,8.081059326171875,0.0007548759458586574,-0.03963126987218857,0.006823966279625893
1757089261210014500,8.091014404296875,0.0026595687959343195,-0.0422171987593174,0.010982759296894073
1757089261219969500,8.100969482421876,0.0024923221208155155,-0.04174395650625229,0.013786002062261105
1757089261229924400,8.11092431640625,-0.0024965128395706415,-0.034024640917778015,0.014449195936322212
1757089261239878400,8.12087841796875,-0.0016480295453220606,-0.02424577809870243,0.00614732364192605
1757089261249833500,8.13083349609375,-0.0006147027015686035,-0.017038093879818916,0.00011315243318676949
1757089261259788500,8.14078857421875,-0.001778503879904747,-0.016048463061451912,-0.0033657345920801163
1757089261269743400,8.150743408203125,-0.0025428945664316416,-0.021116023883223534,-0.0017854771576821804
1757089261279697400,8.160697509765624,-0.001865918980911374,-0.025746194645762444,0.0017655817791819572
1757089261289652500,8.170652587890626,0.000034085940569639206,-0.029552830383181572,0.004291694611310959
1757089261299607600,8.180607666015625,-0.00020346790552139282,-0.029994647949934006,0.0025912662968039513
1757089261309562400,8.190562255859374,-0.0010702733416110277,-0.02370634861290455,0.0004839599132537842
1757089261319516400,8.200516357421876,-0.0032972085755318403,-0.013879816047847271,-0.0007637310773134232
1757089261329471500,8.210471435546875,-0.0034921406768262386,-0.013171626254916191,-0.004140075761824846
1757089261339426600,8.220426513671875,-0.003645538818091154,-0.02334117330610752,-0.008980637416243553
1757089261349381400,8.23038134765625,-0.0022055129520595074,-0.032458726316690445,-0.01336467731744051
1757089261359335400,8.24033544921875,-0.0019740844145417213,-0.02526712417602539,-0.022745128720998764
1757089261369290500,8.25029052734375,0.0007578054210171103,-0.01079056691378355,-0.03646225482225418
1757089261379245600,8.26024560546875,0.007771506439894438,-0.004054633900523186,-0.046716488897800446
1757089261389200400,8.270200439453125,0.00973565224558115,-0.006352265831083059,-0.053761281073093414
1757089261399154400,8.280154541015625,0.012208930216729641,-0.013422692194581032,-0.05482734739780426
1757089261409109200,8.290109130859374,0.012363031506538391,-0.027585994452238083,-0.056726012378931046
1757089261419064600,8.300064697265626,0.01123944390565157,-0.036752864718437195,-0.05394167825579643
1757089261429019400,8.310019287109375,0.014864495024085045,-0.04060005396604538,-0.04983086138963699
1757089261438973400,8.319973388671874,0.015779025852680206,-0.03554830327630043,-0.04469682276248932
1757089261448928300,8.32992822265625,0.019264038652181625,-0.018909139558672905,-0.04296763241291046
1757089261458883600,8.339883544921875,0.020100537687540054,0.0021753718610852957,-0.04152392968535423
1757089261468838400,8.34983837890625,0.017812412232160568,0.018426652997732162,-0.04069029912352562
1757089261478792400,8.35979248046875,0.014418479055166245,0.0283511895686388,-0.03845297545194626
1757089261488748300,8.369748291015625,0.012895683757960796,0.026620401069521904,-0.03467235341668129
1757089261498703400,8.379703369140625,0.009504147805273533,0.017058055847883224,-0.027968376874923706
1757089261508658200,8.389658203125,0.008157058618962765,0.011524931527674198,-0.018855372443795204
1757089261518612200,8.3996123046875,0.008184488862752914,0.015007547102868557,-0.009973997250199318
1757089261528567300,8.4095673828125,0.006748639512807131,0.03015984036028385,-0.0024911854416131973
1757089261538522400,8.4195224609375,0.004317706450819969,0.039804209023714066,-0.004395877942442894
1757089261548477200,8.429477294921876,0.004920048639178276,0.040293071419000626,-0.004825775045901537
1757089261558431200,8.43943115234375,0.0021508941426873207,0.03623494505882263,-0.008032754063606262
1757089261568386300,8.44938623046875,0.00046147010289132595,0.031633518636226654,-0.009089943021535873
1757089261578341000,8.459341064453126,-0.0014389615971595049,0.02752719074487686,-0.008932017721235752
1757089261588296200,8.469296142578125,-0.00449130404740572,0.019664131104946136,-0.008164057508111
1757089261598250200,8.479250244140625,-0.004575460217893124,0.012381716631352901,-0.010886074043810368
1757089261608205300,8.489205322265626,-0.006535122636705637,-0.0020023745018988848,-0.01284786593168974
1757089261618160000,8.49916015625,-0.006956700701266527,-0.01264596451073885,-0.01110962126404047
1757089261628115200,8.509115234375,-0.007863410748541355,-0.016930153593420982,-0.004957890138030052
1757089261638069200,8.5190693359375,-0.008380063809454441,-0.015989258885383606,0.0020392995793372393
1757089261648024300,8.5290244140625,-0.009600751101970673,-0.009642548859119415,0.005680480506271124
1757089261657979100,8.538979248046875,-0.011791201308369637,-0.0059016067534685135,-0.00011775363236665726
1757089261667934200,8.548934326171874,-0.0061502642929553986,-0.010921363718807697,-0.003946751356124878
1757089261677888300,8.55888818359375,-0.006266644224524498,-0.03510472923517227,-0.007197406142950058
1757089261687843300,8.56884326171875,-0.022483984008431435,-0.05440875515341759,-0.005411241669207811
1757089261697798100,8.578798095703124,-0.005881837569177151,-0.05881096050143242,0.004706107079982758
1757089261707753200,8.588753173828126,-0.012316823936998844,-0.029420798644423485,0.019752442836761475
1757089261717708000,8.5987080078125,-0.007591044530272484,-0.02343960478901863,0.028186408802866936
1757089261727662300,8.608662353515625,-0.005942290648818016,-0.027095645666122437,0.027995184063911438
1757089261737617200,8.6186171875,-0.00651034340262413,-0.031063487753272057,0.02499193698167801
1757089261747572200,8.628572265625,-0.007928082719445229,-0.027132155373692513,0.022411463782191277
1757089261757527000,8.638527099609375,-0.009367253631353378,-0.026535606011748314,0.02105538174510002
1757089261767481300,8.6484814453125,-0.012498864904046059,-0.029248569160699844,0.020004764199256897
1757089261777436200,8.658436279296875,-0.013206062838435173,-0.030516209080815315,0.018778515979647636
1757089261787391200,8.66839111328125,-0.011655536480247974,-0.032155174762010574,0.018964705988764763
1757089261797346000,8.678345947265624,-0.011145807802677155,-0.031315214931964874,0.019713055342435837
1757089261807300400,8.68830029296875,-0.007150663994252682,-0.0236530564725399,0.02030973508954048
1757089261817255200,8.698255126953125,-0.00861886516213417,-0.0168425552546978,0.014748255722224712
1757089261827210200,8.708210205078124,-0.007854131981730461,-0.019200444221496582,0.009278264828026295
1757089261837165000,8.7181650390625,-0.005751832388341427,-0.02610016241669655,0.005456096027046442
1757089261847119400,8.728119384765625,-0.007837139070034027,-0.035154152661561966,0.0043814596720039845
1757089261857074200,8.73807421875,-0.006852569058537483,-0.033116571605205536,0.007248086389154196
1757089261867029200,8.748029296875,-0.006174338050186634,-0.02158847637474537,0.007976915687322617
1757089261876984000,8.757984130859375,-0.004320511594414711,-0.011717736721038818,0.007037884555757046
1757089261886938400,8.7679384765625,-0.0028121499344706535,-0.005325926002115011,0.004625275731086731
1757089261896893200,8.77789306640625,-0.001420381711795926,-0.005917414091527462,0.0027381598483771086
1757089261906848300,8.78784814453125,0.001193722477182746,-0.007425387389957905,0.0031500933691859245
1757089261916803000,8.797802978515625,0.0029889594297856092,-0.0031808416824787855,0.0027660655323415995
1757089261926757400,8.80775732421875,0.006209009326994419,-0.0009265902335755527,0.00044514425098896027
1757089261936712200,8.817712158203125,0.007103565149009228,0.0017331086564809084,-0.0012829811312258244
1757089261946667300,8.827667236328125,0.008976300247013569,0.0006300273817032576,-0.0019988389685750008
1757089261956622000,8.8376220703125,0.004644934553653002,-0.0002767789992503822,-0.00393442390486598
1757089261966576400,8.847576416015626,0.004563449881970882,-0.0037343024741858244,-0.004412980750203133
1757089261976531200,8.85753125,0.0024145450443029404,-0.006511180195957422,-0.004234815016388893
1757089261986486300,8.867486328125,-0.00012431596405804157,-0.006462862715125084,-0.006110020447522402
1757089261996441000,8.877441162109376,-0.000013794982805848122,-0.004482269752770662,-0.009050149470567703
1757089262006395400,8.8873955078125,-0.0007723916787654161,-0.00568546075373888,-0.012314250692725182
1757089262016350200,8.89735009765625,-0.0023649621289223433,-0.00788256898522377,-0.009970935061573982
1757089262026305300,8.90730517578125,-0.002622532658278942,-0.011821109801530838,-0.005985024385154247
1757089262036260000,8.917260009765625,-0.003912035375833511,-0.010846925899386406,-0.0026531433686614037
1757089262046215200,8.927215087890625,-0.004272859543561935,-0.00477098161354661,0.000010053161531686783
1757089262056169200,8.937169189453124,-0.0050369203090667725,0.0010703958105295897,-0.003885885700583458
1757089262066124300,8.947124267578126,-0.006772579159587622,0.0012899072607979178,-0.002725358121097088
1757089262076079000,8.9570791015625,-0.008688457310199738,0.00026352499844506383,-0.005200233310461044
1757089262086034200,8.9670341796875,-0.0140304584056139,-0.013034495525062084,-0.003083517774939537
1757089262095988200,8.97698828125,-0.01769976131618023,-0.022834129631519318,0.0013903267681598663
1757089262105943300,8.986943359375,-0.019519833847880363,-0.027276696637272835,0.011055134236812592
1757089262115898000,8.996898193359375,-0.020599212497472763,-0.02430114708840847,0.014496737159788609
1757089262125853200,9.006853271484376,-0.021479148417711258,-0.020631195977330208,0.013900699093937874
1757089262135807200,9.01680712890625,-0.027007071301341057,-0.011008395813405514,0.012582967057824135
1757089262145762300,9.02676220703125,-0.028411071747541428,-0.003432401455938816,0.011332094669342041
1757089262155717000,9.036717041015624,-0.029070472344756126,-0.006936056073755026,0.007819651626050472
1757089262165672200,9.046672119140625,-0.029856350272893906,-0.02331572398543358,0.010323839262127876
1757089262175626200,9.056626220703125,-0.028539415448904037,-0.03227752819657326,0.0156437698751688
1757089262185581300,9.066581298828124,-0.026578275486826897,-0.036908816546201706,0.0237530879676342
1757089262195536100,9.0765361328125,-0.025725796818733215,-0.034616369754076004,0.027251414954662323
1757089262205491200,9.0864912109375,-0.02507038228213787,-0.03247193992137909,0.02588096261024475
1757089262215445200,9.0964453125,-0.024062110111117363,-0.025019880384206772,0.023393303155899048
1757089262225400300,9.106400390625,-0.023666683584451675,-0.015001911669969559,0.022813482210040092
1757089262235355100,9.116355224609375,-0.026253145188093185,-0.01181703805923462,0.02454160712659359
1757089262245310200,9.126310302734375,-0.025157660245895386,-0.016652032732963562,0.023702573031187057
1757089262255265300,9.136265380859374,-0.026831189170479774,-0.023210600018501282,0.024656251072883606
1757089262265219300,9.14621923828125,-0.026965679600834846,-0.031156407669186592,0.027296774089336395
1757089262275174100,9.156174072265625,-0.02639256790280342,-0.03991314396262169,0.030667003244161606
1757089262285129200,9.166129150390624,-0.027963103726506233,-0.04854912310838699,0.03509550914168358
1757089262295084300,9.176084228515625,-0.02885020337998867,-0.05226210132241249,0.03863777965307236
1757089262305038300,9.186038330078125,-0.028747066855430603,-0.052033182233572006,0.03762318938970566
1757089262314993200,9.1959931640625,-0.030153214931488037,-0.05163796991109848,0.033032432198524475
1757089262324948200,9.2059482421875,-0.03173905983567238,-0.05171612650156021,0.029563460499048233
1757089262334903300,9.2159033203125,-0.032620035111904144,-0.04700925573706627,0.026323992758989334
1757089262344857000,9.225857177734374,-0.03480466827750206,-0.03966664895415306,0.028381241485476494
1757089262354812200,9.235812255859376,-0.036633994430303574,-0.036987774074077606,0.029968485236167908
1757089262364767200,9.245767333984375,-0.03425817936658859,-0.037215687334537506,0.031408730894327164
1757089262374722300,9.255722412109375,-0.03599269688129425,-0.04523766413331032,0.030756521970033646
1757089262384676000,9.265676025390626,-0.03556247055530548,-0.04718925431370735,0.03240914270281792
1757089262394631200,9.275631103515625,-0.03580162301659584,-0.04857409745454788,0.02828497253358364
1757089262404586200,9.285586181640625,-0.033437442034482956,-0.044613197445869446,0.022967789322137833
1757089262414541300,9.295541259765624,-0.031998805701732635,-0.039360642433166504,0.017936279997229576
1757089262424496000,9.30549609375,-0.02867099642753601,-0.037943772971630096,0.013712961226701736
1757089262434450200,9.3154501953125,-0.025225132703781128,-0.03308297321200371,0.00849289819598198
1757089262444405200,9.3254052734375,-0.018714159727096558,-0.03019297495484352,0.0028747725300490856
1757089262454360300,9.3353603515625,-0.017257411032915115,-0.03332006186246872,-0.006509141996502876
1757089262464315100,9.345315185546875,-0.010349865071475506,-0.02202763967216015,-0.015403730794787407
1757089262474269200,9.355269287109374,-0.004234449006617069,-0.021684890612959862,-0.01849273219704628
1757089262484224300,9.365224365234376,0.004377604462206364,-0.020612360909581184,-0.016541238874197006
1757089262494178800,9.3751787109375,0.009063702076673508,-0.01291529182344675,-0.017375873401761055
1757089262504133600,9.385133544921874,0.009445478208363056,-0.006167035549879074,-0.018939539790153503
1757089262514087700,9.395087646484376,0.01109983492642641,-0.008503959514200687,-0.024956418201327324
1757089262524042500,9.40504248046875,0.010098795406520367,-0.015822334215044975,-0.028639528900384903
1757089262533997800,9.414997802734375,0.008754164911806583,-0.01801304891705513,-0.03211095929145813
1757089262543952600,9.42495263671875,0.005270406603813171,-0.015595367178320885,-0.03428284451365471
1757089262553906700,9.43490673828125,0.007785229943692684,-0.018601808696985245,-0.033725712448358536
1757089262563861500,9.444861572265625,-0.005193832330405712,-0.006853614468127489,-0.01966223493218422
1757089262573816800,9.45481689453125,0.004323240369558334,-0.010943430475890636,-0.015015285462141037
1757089262583771600,9.464771728515625,0.007926257327198982,-0.025583742186427116,-0.017582815140485764
1757089262593725700,9.4747255859375,0.0021786235738545656,-0.015462398529052734,-0.01943770796060562
1757089262603680500,9.484680419921874,-0.000931501155719161,-0.006173265166580677,-0.019163746386766434
1757089262613635800,9.4946357421875,-0.003263897728174925,0.029967162758111954,-0.016155971214175224
1757089262623590700,9.504590576171875,-0.006074854172766209,0.05774210765957832,-0.012688535265624523
1757089262633545700,9.514545654296874,-0.008176088333129883,0.059688080102205276,-0.012871759943664074
1757089262643499500,9.52449951171875,-0.009376154281198978,0.058573562651872635,-0.011682165786623955
1757089262653454800,9.534454833984375,-0.010249670594930649,0.0667894184589386,-0.008670929819345474
1757089262663409700,9.54440966796875,-0.008064530789852142,0.07926402986049652,-0.005957155022770166
1757089262673364700,9.55436474609375,-0.007529768161475658,0.08156153559684753,-0.00483702914789319
1757089262683318500,9.564318603515625,-0.007493349723517895,0.08125672489404678,-0.004856806248426437
1757089262693273900,9.57427392578125,-0.0046397726982831955,0.08373665809631348,-0.009194828569889069
1757089262703228700,9.584228759765624,-0.005628623533993959,0.08258340507745743,-0.010476360097527504
1757089262713183700,9.594183837890625,-0.0023018023930490017,0.08350326120853424,-0.011443354189395905
1757089262723137500,9.604137451171875,-0.0035385400988161564,0.0843287780880928,-0.010224653407931328
1757089262733092900,9.6140927734375,-0.004580901004374027,0.08070714771747589,-0.006813677493482828
1757089262743047700,9.624047607421875,-0.005784003995358944,0.07292100042104721,-0.003555456642061472
1757089262753002800,9.634002685546875,-0.006858323700726032,0.060737572610378265,0.002907502930611372
1757089262762956500,9.64395654296875,-0.007646629121154547,0.03897630050778389,0.010187777690589428
1757089262772911900,9.653911865234376,-0.010241879150271416,0.0260450541973114,0.01986304298043251
1757089262782866700,9.66386669921875,-0.013700011186301708,0.022977260872721672,0.03070582076907158
1757089262792821800,9.67382177734375,-0.018951766192913055,0.023519214242696762,0.036336276680231094
1757089262802776800,9.68377685546875,-0.024990655481815338,0.027641551569104195,0.03911617398262024
1757089262812731000,9.69373095703125,-0.033340729773044586,0.025416746735572815,0.036697227507829666
1757089262822685700,9.703685791015625,-0.038567572832107544,0.02303941920399666,0.03814852610230446
1757089262832640800,9.713640869140624,-0.04342065006494522,0.017978347837924957,0.04056428000330925
1757089262842595800,9.723595947265625,-0.04507364705204964,0.006100009195506573,0.04486158862709999
1757089262852550000,9.7335498046875,-0.04407975450158119,-0.004682863596826792,0.050181783735752106
1757089262862504700,9.743504638671874,-0.04224039614200592,-0.017059089615941048,0.05661696195602417
1757089262872459800,9.753459716796876,-0.04011599346995354,-0.027919728308916092,0.060482803732156754
1757089262882414800,9.763414794921875,-0.03862946480512619,-0.04303453862667084,0.06511532515287399
1757089262892369000,9.773368896484374,-0.041312068700790405,-0.060577843338251114,0.06940088421106339
1757089262902323700,9.78332373046875,-0.046355538070201874,-0.07201331108808517,0.07554774731397629
1757089262912278500,9.793278564453125,-0.04903494566679001,-0.08729559183120728,0.07497943192720413
1757089262922233900,9.80323388671875,-0.05298859626054764,-0.0882626548409462,0.06783024966716766
1757089262932188700,9.813188720703126,-0.041060034185647964,-0.08868343383073807,0.05624416843056679
1757089262942142700,9.823142822265625,-0.05591505765914917,-0.06809587776660919,0.0464070700109005
1757089262952097500,9.83309765625,-0.06163578853011131,-0.039674628525972366,0.04461236670613289
1757089262962052900,9.843052978515624,-0.057071734219789505,-0.027656452730298042,0.049857400357723236
1757089262972007700,9.853007568359375,-0.05216272920370102,-0.028815727680921555,0.05408889800310135
1757089262981961700,9.862961669921875,-0.0473676398396492,-0.030820949003100395,0.05690019205212593
1757089262991916500,9.87291650390625,-0.045820608735084534,-0.02935461327433586,0.052829284220933914
1757089263001872000,9.882871826171876,-0.043542999774217606,-0.023888539522886276,0.04518928751349449
1757089263011826700,9.89282666015625,-0.04108570143580437,-0.010851568542420864,0.034611742943525314
1757089263021780700,9.90278076171875,-0.03968830406665802,0.01081585418432951,0.025563424453139305
1757089263031735600,9.912735595703126,-0.0393223837018013,0.02445203810930252,0.017339583486318588
1757089263041691000,9.92269091796875,-0.039311595261096954,0.01933985762298107,0.007534226402640343
1757089263051645700,9.932645751953125,-0.03656933829188347,-0.0008722030906938016,-0.0022816527634859085
1757089263061599700,9.942599853515626,-0.038040563464164734,-0.03220538794994354,-0.010523696430027485
1757089263071554600,9.952554443359375,-0.041837967932224274,-0.060502275824546814,-0.017072409391403198
1757089263081510000,9.962510009765625,-0.04314916208386421,-0.07723617553710938,-0.02545962855219841
1757089263091464700,9.972464599609374,-0.04528661444783211,-0.08655937016010284,-0.03398999944329262
1757089263101419800,9.982419677734375,-0.04294339567422867,-0.08617404103279114,-0.04265441745519638
1757089263111373600,9.99237353515625,-0.036345675587654114,-0.0801457092165947,-0.046222787350416183
1757089263121329000,10.002328857421874,-0.03316717594861984,-0.07272737473249435,-0.04328637570142746
1757089263131283700,10.01228369140625,-0.02761661820113659,-0.06690037995576859,-0.03714725747704506
1757089263141238800,10.02223876953125,-0.026828108355402946,-0.06307266652584076,-0.023937493562698364
1757089263151192600,10.032192626953124,-0.025953259319067,-0.05884489044547081,-0.01494346559047699
1757089263161148000,10.04214794921875,-0.030879352241754532,-0.0500042550265789,-0.009828375652432442
1757089263171102700,10.052102783203125,-0.03320002928376198,-0.03744851425290108,-0.015503305941820145
1757089263181057800,10.062057861328125,-0.038196928799152374,-0.019075950607657433,-0.02102298103272915
1757089263191011600,10.072011474609376,-0.04757258668541908,0.005254689138382673,-0.03233129158616066
1757089263200967000,10.081966796875,-0.05576230213046074,0.02653062716126442,-0.0468289740383625
1757089263210921700,10.091921630859375,-0.06379732489585876,0.04800130054354668,-0.06061722710728645
1757089263220876800,10.101876708984374,-0.06856174021959305,0.05249500274658203,-0.07246245443820953
1757089263230830600,10.11183056640625,-0.07294050604104996,0.04738679528236389,-0.08713886886835098
1757089263240786000,10.121785888671875,-0.0715581625699997,0.03265037760138512,-0.10594195127487183
1757089263250740700,10.13174072265625,-0.06567870080471039,0.014720911160111427,-0.13358396291732788
1757089263260695800,10.14169580078125,-0.06201714277267456,-0.008619394153356552,-0.17015743255615234
1757089263270650600,10.151650634765625,-0.055296652019023895,-0.03393140807747841,-0.22332344949245453
1757089263280605000,10.16160498046875,-0.04591977596282959,-0.07380200922489166,-0.29476314783096313
1757089263290559700,10.171559814453126,-0.03358108177781105,-0.13434764742851257,-0.38367941975593567
1757089263300514800,10.181514892578125,-0.013545529916882515,-0.2165052741765976,-0.4833948016166687
1757089263310469600,10.1914697265625,-0.0009932536631822586,-0.33440205454826355,-0.5935641527175903
1757089263320424000,10.201423828125,0.05375927686691284,-0.4410732388496399,-0.7153230309486389
1757089263330378800,10.211378662109375,0.10540835559368134,-0.5315093994140625,-0.8574143648147583
1757089263340333800,10.221333740234375,0.13827764987945557,-0.5732266306877136,-1.0171185731887817
1757089263350288600,10.23128857421875,0.21941137313842773,-0.4162293076515198,-1.1830347776412964
1757089263360242700,10.24124267578125,0.28628838062286377,-0.19542348384857178,-1.405563473701477
1757089263370197800,10.25119775390625,0.3310798406600952,0.0025010460522025824,-1.688453197479248
1757089263380152600,10.261152587890624,0.3310936391353607,0.19632479548454285,-1.904427170753479
1757089263390107600,10.271107666015626,0.3154350519180298,0.38635119795799255,-1.9971773624420166
1757089263400062700,10.281062744140625,0.3058144152164459,0.49141475558280945,-1.987688660621643
1757089263410016800,10.291016845703124,0.33851510286331177,0.6328091621398926,-1.9667292833328247
1757089263419971600,10.3009716796875,0.3465835154056549,0.8675829768180847,-1.9687342643737793
1757089263429926700,10.3109267578125,0.30611783266067505,1.1394792795181274,-1.928936243057251
1757089263439881700,10.3208818359375,0.19979168474674225,1.2680751085281372,-1.9090005159378052
1757089263449835800,10.330835693359376,0.1346704661846161,1.29708993434906,-1.8695143461227417
1757089263459790600,10.34079052734375,0.05143921077251434,1.2330549955368042,-1.6781219244003296
1757089263469745700,10.35074560546875,-0.039364464581012726,1.0016402006149292,-1.3649139404296875
1757089263479700700,10.36070068359375,-0.08066900074481964,0.7370019555091858,-1.0211459398269653
1757089263489655600,10.370655517578125,-0.09766289591789246,0.502070963382721,-0.7207733392715454
1757089263499610400,10.3806103515625,-0.09909771382808685,0.3017336428165436,-0.5268128514289856
1757089263509565400,10.3905654296875,-0.02693537063896656,0.20816239714622498,-0.42686063051223755
1757089263519520500,10.4005205078125,0.08496121317148209,0.22580991685390472,-0.3832038640975952
1757089263529474600,10.410474609375,0.15852224826812744,0.28139516711235046,-0.36262747645378113
1757089263539429400,10.420429443359374,0.23551076650619507,0.3764723539352417,-0.3647044599056244
1757089263549384400,10.430384521484376,0.30217260122299194,0.46388742327690125,-0.34808582067489624
1757089263559339500,10.440339599609375,0.30144691467285156,0.4986555874347687,-0.30071189999580383
1757089263569294300,10.45029443359375,0.2626670300960541,0.4657711386680603,-0.2266342043876648
1757089263579248400,10.460248291015626,0.23701515793800354,0.49351194500923157,-0.1551118642091751
1757089263589203500,10.470203369140625,0.17722906172275543,0.5035011768341064,-0.09320960938930511
1757089263599158500,10.480158447265625,0.12608808279037476,0.47570347785949707,-0.04706212133169174
1757089263609113300,10.49011328125,0.09162996709346771,0.41920238733291626,-0.028789637610316277
1757089263619067400,10.5000673828125,0.03954264521598816,0.3828059136867523,-0.04548647254705429
1757089263629022500,10.5100224609375,-0.03234619274735451,0.37980878353118896,-0.09258846938610077
1757089263638977500,10.5199775390625,-0.07581926882266998,0.3589985966682434,-0.13402371108531952
1757089263648932400,10.529932373046876,-0.1085982546210289,0.3189835548400879,-0.14652085304260254
1757089263658886400,10.539886474609375,-0.12524521350860596,0.2742515802383423,-0.14583836495876312
1757089263668841500,10.549841552734375,-0.13458146154880524,0.1929154396057129,-0.16353321075439453
1757089263678796500,10.559796630859376,-0.1565699726343155,0.14476659893989563,-0.2070898413658142
1757089263688751400,10.56975146484375,-0.17744942009449005,0.14518950879573822,-0.27580660581588745
1757089263698705400,10.579705322265625,-0.18489839136600494,0.18959371745586395,-0.3500383198261261
1757089263708660500,10.589660400390626,-0.17630250751972198,0.2550523579120636,-0.38877612352371216
1757089263718615600,10.599615478515625,-0.14972278475761414,0.29279056191444397,-0.39024829864501953
1757089263728570400,10.6095703125,-0.1101604625582695,0.326820433139801,-0.35894471406936646
1757089263738525400,10.619525390625,-0.06827524304389954,0.3476352095603943,-0.3103741407394409
1757089263748479500,10.6294794921875,-0.032157186418771744,0.3549780547618866,-0.25311484932899475
1757089263758434600,10.6394345703125,0.01678919792175293,0.3692023754119873,-0.20028451085090637
1757089263768389400,10.649389404296874,0.06083095818758011,0.3877510130405426,-0.14523564279079437
1757089263778344400,10.659344482421876,0.10205357521772385,0.4083870053291321,-0.09653034061193466
1757089263788298500,10.669298583984375,0.1306103765964508,0.4533129334449768,-0.05399193614721298
1757089263798253600,10.679253662109375,0.15277612209320068,0.5024188756942749,-0.020018799230456352
1757089263808208400,10.68920849609375,0.16532254219055176,0.5619359612464905,-0.003359395544975996
1757089263818163500,10.69916357421875,0.17885994911193848,0.5990278720855713,-0.0014362875372171402
1757089263828117200,10.7091171875,0.18877436220645905,0.6342319846153259,-0.01208813302218914
1757089263838072600,10.719072509765626,0.2021242380142212,0.6624442934989929,-0.04232809692621231
1757089263848027400,10.72902734375,0.20995473861694336,0.6841368079185486,-0.07739074528217316
1757089263857982500,10.738982421875,0.21997876465320587,0.6945158839225769,-0.10561314970254898
1757089263867936300,10.748936279296874,0.23026256263256073,0.6875229477882385,-0.12439083307981491
1757089263877891600,10.7588916015625,0.23435133695602417,0.6575315594673157,-0.127681702375412
1757089263887846400,10.768846435546875,0.24113386869430542,0.614405632019043,-0.11361727863550186
1757089263897801500,10.778801513671874,0.24655020236968994,0.5517973899841309,-0.07757832109928131
1757089263907756500,10.788756591796876,0.23405438661575317,0.5123530626296997,0.008691060356795788
1757089263917710600,10.798710693359375,0.20741312205791473,0.4973736107349396,0.1370159238576889
1757089263927665400,10.80866552734375,0.1549307256937027,0.5001465082168579,0.26116690039634705
1757089263937620500,10.818620361328126,0.09808804094791412,0.45966243743896484,0.34700441360473633
1757089263947575600,10.828575439453125,0.06106557324528694,0.3778165578842163,0.3934131860733032
1757089263957529600,10.838529541015625,0.05447186157107353,0.3050742447376251,0.4120691418647766
1757089263967484400,10.848484375,0.028922557830810547,0.23995329439640045,0.39438149333000183
1757089263977439500,10.858439453125,-0.0130914356559515,0.12583838403224945,0.3196471035480499
1757089263987394600,10.86839453125,-0.04166049510240555,-0.031374137848615646,0.20121155679225922
1757089263997348600,10.8783486328125,-0.0550035685300827,-0.2067715972661972,0.06217287853360176
1757089264007303400,10.888303466796875,-0.01617414690554142,-0.37968987226486206,-0.05787656828761101
1757089264017258500,10.898258544921875,0.05892035365104675,-0.5972596406936646,-0.1168205589056015
1757089264027213600,10.908213623046874,0.131710946559906,-0.8539465069770813,-0.08930904418230057
1757089264037168400,10.91816845703125,0.17722004652023315,-1.10491943359375,0.05438735708594322
1757089264047122400,10.928122314453125,0.20063988864421844,-1.3105369806289673,0.31048384308815
1757089264057077500,10.938077392578125,0.20332707464694977,-1.3535676002502441,0.5995281934738159
1757089264067032600,10.948032470703126,0.17035606503486633,-1.1948972940444946,0.8227439522743225
1757089264076987400,10.9579873046875,0.10516051948070526,-0.8424994349479675,0.9221360683441162
1757089264086941400,10.96794140625,0.016411473974585533,-0.41087955236434937,0.8943374156951904
1757089264096896500,10.977896484375,-0.0610848143696785,-0.014596317894756794,0.8002408742904663
1757089264106851600,10.9878515625,-0.11533713340759277,0.26085418462753296,0.6917380690574646
1757089264116806400,10.997806396484375,-0.13250280916690826,0.38582301139831543,0.6138137578964233
1757089264126760400,11.007760498046874,-0.09666997194290161,0.3614329695701599,0.5916338562965393
1757089264136715500,11.017715576171875,-0.04134155437350273,0.20290806889533997,0.6183335781097412
1757089264146670600,11.027670654296875,0.06012009084224701,-0.030957700684666634,0.7001770734786987
1757089264156625400,11.03762548828125,0.13477984070777893,-0.3218192458152771,0.7895843386650085
1757089264166580500,11.04758056640625,0.16535584628582,-0.5340457558631897,0.9034576416015625
1757089264176534500,11.057534423828125,0.17567341029644012,-0.5805673003196716,1.033068060874939
1757089264186489600,11.067489501953125,0.13786716759204865,-0.5890278816223145,1.1471368074417114
1757089264196444400,11.0774443359375,0.09397399425506592,-0.590359091758728,1.2089921236038208
1757089264206399500,11.0873994140625,0.057304397225379944,-0.6818373799324036,1.225318431854248
1757089264216353500,11.097353515625,0.02957444079220295,-0.8896931409835815,1.223240852355957
1757089264226308600,11.10730859375,0.03609439358115196,-1.1163872480392456,1.254539132118225
1757089264236263400,11.117263427734375,0.07972796261310577,-1.225042700767517,1.3416717052459717
1757089264246218500,11.127218505859375,0.15416890382766724,-1.247138261795044,1.4516924619674683
1757089264256172500,11.137172607421874,0.22501252591609955,-1.1845544576644897,1.549337387084961
1757089264266127600,11.147127685546875,0.2605782747268677,-1.0925850868225098,1.5709798336029053
1757089264276082400,11.15708251953125,0.2895321547985077,-1.019172191619873,1.4727556705474854
1757089264286037500,11.16703759765625,0.3091830909252167,-0.991847813129425,1.285010814666748
1757089264295992300,11.176992431640626,0.32230156660079956,-0.937404215335846,1.0614733695983887
1757089264305946600,11.186946533203125,0.31637924909591675,-0.8423061966896057,0.8523337244987488
1757089264315901400,11.1969013671875,0.30310434103012085,-0.7411909699440002,0.6967544555664062
1757089264325856500,11.2068564453125,0.2619909942150116,-0.6157422065734863,0.6081689596176147
1757089264335811300,11.216811279296875,0.23057183623313904,-0.42163610458374023,0.5887307524681091
1757089264345765600,11.226765625,0.21378566324710846,-0.2877770960330963,0.6521131992340088
1757089264355720400,11.236720458984376,0.15091462433338165,-0.1373530924320221,0.7319031953811646
1757089264365675500,11.246675537109375,0.0748257115483284,-0.07876195758581161,0.7978230714797974
1757089264375630300,11.25663037109375,0.056613028049468994,-0.2605716586112976,0.8850191235542297
1757089264385584400,11.26658447265625,0.04971836507320404,-0.5630742907524109,0.9403612017631531
1757089264395539500,11.27653955078125,0.038627829402685165,-0.812135636806488,0.9692396521568298
1757089264405494500,11.28649462890625,0.016324123367667198,-0.9186796545982361,0.9784925580024719
1757089264415449300,11.296449462890624,-0.007279705256223679,-0.8937248587608337,0.9923969507217407
1757089264425404700,11.30640478515625,-0.04972756281495094,-0.7738988399505615,1.0062294006347656
1757089264435358500,11.3163583984375,-0.10263950377702713,-0.6523459553718567,1.0133029222488403
1757089264445313500,11.3263134765625,-0.149562805891037,-0.5759723782539368,1.0151211023330688
1757089264455268400,11.336268310546876,-0.21452972292900085,-0.5532151460647583,1.0144000053405762
1757089264465223400,11.346223388671875,-0.2641846239566803,-0.5412279963493347,1.0246095657348633
1757089264475177500,11.356177490234375,-0.3057023584842682,-0.5082804560661316,1.0386624336242676
1757089264485132500,11.366132568359374,-0.3419383764266968,-0.46212655305862427,1.0563626289367676
1757089264495086600,11.376086669921875,-0.3777516186237335,-0.4174204468727112,1.0657248497009277
1757089264505041700,11.386041748046875,-0.40588366985321045,-0.40838193893432617,1.0525810718536377
1757089264514995500,11.395995361328126,-0.43810057640075684,-0.4227176904678345,1.0214890241622925
1757089264524950500,11.405950439453125,-0.4834723174571991,-0.46374237537384033,0.9845635294914246
1757089264534905600,11.415905517578125,-0.5115686058998108,-0.4775051176548004,0.9329949021339417
1757089264544860700,11.425860595703124,-0.5328850746154785,-0.5023849010467529,0.871314525604248
1757089264554814500,11.435814453125,-0.5531812310218811,-0.5600734949111938,0.8054383993148804
1757089264564769500,11.44576953125,-0.5333483815193176,-0.624471127986908,0.7390681505203247
1757089264574724600,11.455724609375,-0.46836695075035095,-0.72475665807724,0.6828781962394714
1757089264584679700,11.4656796875,-0.3792668879032135,-0.8056634664535522,0.6244180798530579
1757089264594634500,11.475634521484375,-0.2711161673069,-0.826050877571106,0.5725615620613098
1757089264604588500,11.485588623046874,-0.1702127307653427,-0.8019372820854187,0.5105687975883484
1757089264614543600,11.495543701171876,-0.07581470906734467,-0.8025665283203125,0.4503899812698364
1757089264624498700,11.505498779296875,0.007094553671777248,-0.8180959820747375,0.39804181456565857
1757089264634453500,11.51545361328125,0.09253788739442825,-0.7944360375404358,0.36032381653785706
1757089264644407600,11.525407470703126,0.1266375333070755,-0.7066171765327454,0.34631744027137756
1757089264654362600,11.535362548828125,0.13047045469284058,-0.635307788848877,0.3545730710029602
1757089264664317700,11.545317626953125,0.12007029354572296,-0.6780751943588257,0.35171017050743103
1757089264674272500,11.5552724609375,0.1148737445473671,-0.8424348831176758,0.3537105619907379
1757089264684227600,11.5652275390625,0.10950668156147003,-0.9612312912940979,0.32838523387908936
1757089264694181600,11.575181640625,0.08578002452850342,-0.8987289071083069,0.26437562704086304
1757089264704136700,11.58513671875,0.04523925855755806,-0.7555903792381287,0.1654098927974701
1757089264714091500,11.595091552734376,-0.009247343987226486,-0.6387466788291931,0.032505981624126434
1757089264724046600,11.605046630859375,-0.047265831381082535,-0.4769841432571411,-0.17154806852340698
1757089264734000600,11.615000732421874,-0.04258551448583603,-0.3767516016960144,-0.4455113708972931
1757089264743955700,11.624955810546876,-0.021856267005205154,-0.3007258176803589,-0.7064199447631836
1757089264753910500,11.63491064453125,-0.0005466316360980272,-0.21478399634361267,-0.951636791229248
1757089264763865600,11.644865478515625,0.05788791924715042,-0.10075251013040543,-1.2121509313583374
1757089264773819600,11.654819580078126,0.177110493183136,0.18710030615329742,-1.4588565826416016
1757089264783774700,11.664774658203125,0.34972700476646423,0.728518009185791,-1.5829044580459595
1757089264793729500,11.6747294921875,0.5137133002281189,1.2695075273513794,-1.6430351734161377
1757089264803684600,11.6846845703125,0.5475301146507263,1.4478254318237305,-1.8200287818908691
1757089264813638700,11.694638671875,0.3566547930240631,1.4337676763534546,-2.1658244132995605
1757089264823593700,11.70459375,0.027967454865574837,1.4634588956832886,-2.524566650390625
1757089264833548500,11.714548583984374,-0.3024424612522125,1.4417296648025513,-2.7200639247894287
1757089264843503600,11.724503662109376,-0.4172963500022888,1.1818102598190308,-2.641758680343628
1757089264853458700,11.734458740234375,-0.3789582848548889,0.7828662395477295,-2.417482614517212
1757089264863412700,11.744412841796875,-0.3183061480522156,0.47061648964881897,-2.2406373023986816
1757089264873367600,11.754367431640626,-0.2612481415271759,0.2779630720615387,-2.1968936920166016
1757089264883322600,11.764322509765625,-0.29494592547416687,0.07646885514259338,-2.2499117851257324
1757089264893277700,11.774277587890625,-0.339580237865448,-0.16007967293262482,-2.313866138458252
1757089264903231700,11.784231689453126,-0.26729723811149597,-0.3028078079223633,-2.2957603931427
1757089264913186600,11.7941865234375,-0.17034752666950226,-0.3693791329860687,-2.1927926540374756
1757089264923141400,11.804141357421875,-0.0746617317199707,-0.29368916153907776,-2.0447824001312256
1757089264933096700,11.8140966796875,-0.009697569534182549,-0.12775194644927979,-2.053196430206299
1757089264943051500,11.824051513671876,0.07234882563352585,0.16824403405189514,-2.1459224224090576
1757089264953005600,11.834005615234375,0.1251877099275589,0.420517235994339,-2.2483272552490234
1757089264962960400,11.84396044921875,0.1279131919145584,0.5798051953315735,-2.3630712032318115
1757089264972915700,11.853915771484376,0.14841711521148682,0.7674636244773865,-2.511046886444092
1757089264982870500,11.86387060546875,0.21078301966190338,0.9656656384468079,-2.6925466060638428
1757089264992824600,11.873824462890624,0.29461535811424255,1.1333352327346802,-2.80279803276062
1757089265002779400,11.883779296875,0.4101102650165558,1.2692954540252686,-2.8051183223724365
1757089265012734700,11.893734619140625,0.5218676924705505,1.3829848766326904,-2.696183919906616
1757089265022689500,11.903689453125,0.5379348397254944,1.4430607557296753,-2.2921595573425293
1757089265032643600,11.9136435546875,0.49319422245025635,1.3629785776138306,-1.7273811101913452
1757089265042598400,11.923598388671875,0.43115508556365967,1.041579246520996,-1.206749677658081
1757089265052553700,11.9335537109375,0.35682061314582825,0.6531389355659485,-0.815144419670105
1757089265062508500,11.943508544921874,0.23060408234596252,0.4213631749153137,-0.5504749417304993
1757089265072463600,11.953463623046876,0.2595004737377167,0.43236836791038513,-0.27867692708969116
1757089265082417400,11.96341748046875,0.27591487765312195,0.49210894107818604,-0.0963904932141304
1757089265092372700,11.973372802734374,0.28841185569763184,0.5497869849205017,0.005232635419815779
1757089265102327600,11.98332763671875,0.29804396629333496,0.586604654788971,0.08224593102931976
1757089265112282600,11.99328271484375,0.2887043058872223,0.6104990839958191,0.23024290800094604
1757089265122236400,12.003236328125,0.268628865480423,0.605334997177124,0.4427567720413208
1757089265132191700,12.013191650390626,0.26781749725341797,0.5846976041793823,0.683620035648346
1757089265142146600,12.023146484375,0.27965790033340454,0.5646756887435913,0.9457888007164001
1757089265152101600,12.0331015625,0.2750983238220215,0.522722601890564,1.2092814445495605
1757089265162055400,12.043055419921876,0.2642536461353302,0.5164130330085754,1.4593310356140137
1757089265172010800,12.0530107421875,0.2532644271850586,0.5041601657867432,1.691743016242981
1757089265181965600,12.062965576171875,0.23523293435573578,0.4855835437774658,1.8999965190887451
1757089265191920600,12.072920654296874,0.19918078184127808,0.4597263038158417,2.01223087310791
1757089265201875700,12.082875732421876,0.17740677297115326,0.46731072664260864,1.986120581626892
1757089265211829800,12.092829833984375,0.2309950739145279,0.5783410668373108,1.8269579410552979
1757089265221784600,12.10278466796875,0.29371997714042664,0.70609450340271,1.5542113780975342
1757089265231739600,12.11273974609375,0.31396931409835815,0.8332987427711487,1.1529051065444946
1757089265241694700,12.12269482421875,0.24100667238235474,1.0172182321548462,0.6300897598266602
1757089265251648800,12.132648681640624,0.031727150082588196,1.1774848699569702,0.02808423712849617
1757089265261603600,12.142603515625,-0.1528584063053131,1.2575902938842773,-0.647898256778717
1757089265271558400,12.152558349609375,-0.12684068083763123,1.1512397527694702,-1.367579460144043
1757089265281513700,12.162513671875,0.09379767626523972,0.6359450221061707,-1.8192747831344604
1757089265291467800,12.1724677734375,0.3029724657535553,0.16837194561958313,-1.8792035579681396
1757089265301422600,12.182422607421875,0.3987855613231659,-0.011587690562009811,-1.7953087091445923
