time,seconds_elapsed,z,y,x
1757088626333295000,0.017295166015625,-1.039642333984375,-0.18536376953125,-0.163360595703125
1757088626343250200,0.027250244140625,-1.041015625,-0.199554443359375,-0.19830322265625
1757088626353204200,0.037204345703125,-1.0290679931640625,-0.1950531005859375,-0.255767822265625
1757088626363159300,0.0471591796875,-1.0090179443359375,-0.183319091796875,-0.29730224609375
1757088626373114000,0.057114013671875,-0.9954681396484375,-0.1717376708984375,-0.2877655029296875
1757088626383068400,0.067068359375,-0.9753265380859375,-0.150848388671875,-0.248291015625
1757088626393023200,0.077023193359375,-0.9611663818359375,-0.100006103515625,-0.1795196533203125
1757088626402977300,0.086977294921875,-0.96551513671875,-0.09259033203125,-0.115020751953125
1757088626412932000,0.09693212890625,-1.000335693359375,-0.167633056640625,-0.0904388427734375
1757088626422886100,0.10688623046875,-1.0359649658203125,-0.273406982421875,-0.1008148193359375
1757088626432841200,0.11684130859375,-1.0181121826171875,-0.3229522705078125,-0.1437530517578125
1757088626442795300,0.126795166015625,-1.0034942626953125,-0.345977783203125,-0.18402099609375
1757088626452750000,0.13675,-1.01458740234375,-0.3701629638671875,-0.1920928955078125
1757088626462704000,0.1467041015625,-1.01007080078125,-0.37579345703125,-0.184051513671875
1757088626472659200,0.1566591796875,-0.9759521484375,-0.3492584228515625,-0.180572509765625
1757088626482614300,0.1666142578125,-0.938140869140625,-0.3263397216796875,-0.18536376953125
1757088626492568300,0.176568359375,-0.9104461669921875,-0.30413818359375,-0.1793365478515625
1757088626502523100,0.186523193359375,-0.904632568359375,-0.237335205078125,-0.19793701171875
1757088626512477200,0.196477294921875,-0.944000244140625,-0.15185546875,-0.2186279296875
1757088626522432000,0.206431884765625,-0.98291015625,-0.3459014892578125,-0.169403076171875
1757088626532386300,0.21638623046875,-0.9486083984375,-0.4030303955078125,-0.1341552734375
1757088626542341000,0.226341064453125,-0.9242706298828125,-0.423187255859375,-0.0716094970703125
1757088626552295200,0.236295166015625,-0.9030303955078125,-0.462615966796875,-0.0847320556640625
1757088626562250200,0.246250244140625,-0.8566131591796875,-0.4387359619140625,-0.1302642822265625
1757088626572204000,0.2562041015625,-0.8405609130859375,-0.397705078125,-0.14141845703125
1757088626582159400,0.266159423828125,-0.8316650390625,-0.377227783203125,-0.1417083740234375
1757088626592113200,0.276113037109375,-0.8250885009765625,-0.376495361328125,-0.1334686279296875
1757088626602068200,0.286068115234375,-0.82379150390625,-0.3759613037109375,-0.11627197265625
1757088626612023000,0.29602294921875,-0.8220062255859375,-0.378631591796875,-0.10467529296875
1757088626621977000,0.30597705078125,-0.8253021240234375,-0.382904052734375,-0.0951080322265625
1757088626631932200,0.31593212890625,-0.821624755859375,-0.377685546875,-0.0877685546875
1757088626641886200,0.32588623046875,-0.816253662109375,-0.3598480224609375,-0.0705718994140625
1757088626651841300,0.33584130859375,-0.8217620849609375,-0.3455963134765625,-0.052093505859375
1757088626661795000,0.345795166015625,-0.8285064697265625,-0.335357666015625,-0.0426025390625
1757088626671750400,0.35575048828125,-0.83349609375,-0.3279266357421875,-0.0410919189453125
1757088626681704200,0.3657041015625,-0.8448944091796875,-0.3248138427734375,-0.0409393310546875
1757088626691659300,0.3756591796875,-0.854461669921875,-0.32659912109375,-0.0468292236328125
1757088626701613300,0.38561328125,-0.875946044921875,-0.338348388671875,-0.069427490234375
1757088626711568100,0.395568115234375,-0.909637451171875,-0.3538055419921875,-0.09228515625
1757088626721523200,0.405523193359375,-0.94171142578125,-0.3619537353515625,-0.10955810546875
1757088626731477200,0.415477294921875,-0.9707183837890625,-0.3606414794921875,-0.1219024658203125
1757088626741432000,0.42543212890625,-0.9915924072265625,-0.3487701416015625,-0.11981201171875
1757088626751386000,0.43538623046875,-1.0051116943359375,-0.3363800048828125,-0.1189422607421875
1757088626761341200,0.445341064453125,-1.0218353271484375,-0.32305908203125,-0.1324615478515625
1757088626771295200,0.455295166015625,-1.031280517578125,-0.3140869140625,-0.1517791748046875
1757088626781250300,0.465250244140625,-1.0255126953125,-0.3179168701171875,-0.18365478515625
1757088626791204000,0.4752041015625,-1.0097503662109375,-0.33544921875,-0.222900390625
1757088626801159200,0.4851591796875,-0.981170654296875,-0.35791015625,-0.2540740966796875
1757088626811113200,0.49511328125,-0.904022216796875,-0.417816162109375,-0.26043701171875
1757088626821068300,0.505068359375,-0.811492919921875,-0.4327545166015625,-0.2618408203125
1757088626831023000,0.515023193359375,-0.68975830078125,-0.3673095703125,-0.24267578125
1757088626840977200,0.52497705078125,-0.6723480224609375,-0.4301605224609375,-0.2544403076171875
1757088626850932200,0.53493212890625,-0.70733642578125,-0.44073486328125,-0.221435546875
1757088626860886000,0.544885986328125,-0.7292938232421875,-0.350555419921875,-0.282073974609375
1757088626870841300,0.55484130859375,-0.7638702392578125,-0.2874298095703125,-0.3534088134765625
1757088626880795100,0.564795166015625,-0.8181610107421875,-0.2574005126953125,-0.3578338623046875
1757088626890750200,0.574750244140625,-0.921478271484375,-0.223724365234375,-0.3441619873046875
1757088626900704300,0.584704345703125,-0.9905853271484375,-0.1805877685546875,-0.3228302001953125
1757088626910659300,0.594659423828125,-1.0213470458984375,-0.1766510009765625,-0.299072265625
1757088626920612600,0.604612548828125,-1.0324554443359375,-0.2146148681640625,-0.2846221923828125
1757088626930567400,0.6145673828125,-1.0181884765625,-0.263763427734375,-0.2945709228515625
1757088626940521700,0.624521728515625,-0.997406005859375,-0.30255126953125,-0.2859649658203125
1757088626950476500,0.6344765625,-0.9798583984375,-0.3013763427734375,-0.2816009521484375
1757088626960431600,0.644431640625,-0.9510955810546875,-0.249664306640625,-0.296661376953125
1757088626970385700,0.6543857421875,-0.9833221435546875,-0.223419189453125,-0.3250885009765625
1757088626980340700,0.6643408203125,-1.041290283203125,-0.2343902587890625,-0.3802337646484375
1757088626990294800,0.674294677734375,-1.05657958984375,-0.2246246337890625,-0.4335784912109375
1757088627000249600,0.68424951171875,-1.05682373046875,-0.2232666015625,-0.484130859375
1757088627010203600,0.69420361328125,-1.0381011962890625,-0.25103759765625,-0.4990234375
1757088627020158500,0.704158447265625,-0.98828125,-0.275634765625,-0.4993133544921875
1757088627030112500,0.714112548828125,-0.923675537109375,-0.2821044921875,-0.4957733154296875
1757088627040067600,0.724067626953125,-0.864349365234375,-0.2437591552734375,-0.47442626953125
1757088627050021600,0.734021728515625,-0.8013458251953125,-0.2029571533203125,-0.4381866455078125
1757088627059976700,0.743976806640625,-0.7518157958984375,-0.1962127685546875,-0.351898193359375
1757088627069931500,0.753931640625,-0.719207763671875,-0.307708740234375,0.0349578857421875
1757088627079885800,0.7638857421875,-0.7202606201171875,-0.3685302734375,0.05401611328125
1757088627089840600,0.773840576171875,-0.69580078125,-0.17401123046875,-0.51116943359375
1757088627099794700,0.783794677734375,-0.7539520263671875,-0.2282867431640625,-0.641571044921875
1757088627109749500,0.79374951171875,-0.7875518798828125,-0.4167022705078125,-0.576019287109375
1757088627119703600,0.80370361328125,-0.7723236083984375,-0.4069671630859375,-0.5756072998046875
1757088627129658600,0.81365869140625,-0.762451171875,-0.3623504638671875,-0.584686279296875
1757088627139612700,0.82361279296875,-0.7688446044921875,-0.3542022705078125,-0.5473785400390625
1757088627149567500,0.8335673828125,-0.7683258056640625,-0.3300933837890625,-0.500823974609375
1757088627159521500,0.843521484375,-0.7776336669921875,-0.3140869140625,-0.4733428955078125
1757088627169476600,0.8534765625,-0.7957916259765625,-0.309844970703125,-0.4626617431640625
1757088627179430700,0.8634306640625,-0.81683349609375,-0.31695556640625,-0.457611083984375
1757088627189385700,0.8733857421875,-0.83935546875,-0.30682373046875,-0.443695068359375
1757088627199340500,0.883340576171875,-0.861328125,-0.2897796630859375,-0.4386444091796875
1757088627209294600,0.893294677734375,-0.876434326171875,-0.2790374755859375,-0.4306488037109375
1757088627219249700,0.903249755859375,-0.895660400390625,-0.270416259765625,-0.4122314453125
1757088627229203700,0.91320361328125,-0.912933349609375,-0.255523681640625,-0.407379150390625
1757088627239158500,0.923158447265625,-0.9290618896484375,-0.2421722412109375,-0.408843994140625
1757088627249112600,0.933112548828125,-0.949432373046875,-0.239105224609375,-0.419097900390625
1757088627259067600,0.943067626953125,-0.9514617919921875,-0.2471771240234375,-0.4232940673828125
1757088627269021400,0.953021484375,-0.9441070556640625,-0.256500244140625,-0.424407958984375
1757088627278976800,0.962976806640625,-0.9343719482421875,-0.260589599609375,-0.430084228515625
1757088627288930600,0.9729306640625,-0.918670654296875,-0.2624664306640625,-0.441986083984375
1757088627298885600,0.9828857421875,-0.9013214111328125,-0.2601776123046875,-0.4499359130859375
1757088627308840400,0.99284033203125,-0.876190185546875,-0.2503662109375,-0.482635498046875
1757088627318794800,1.002794677734375,-0.8676910400390625,-0.244964599609375,-0.4666900634765625
1757088627328749600,1.01274951171875,-0.8647613525390625,-0.246063232421875,-0.4417572021484375
1757088627338703600,1.02270361328125,-0.865325927734375,-0.239990234375,-0.4622650146484375
1757088627348658700,1.03265869140625,-0.8638458251953125,-0.23675537109375,-0.4770050048828125
1757088627358612500,1.042612548828125,-0.848236083984375,-0.2428741455078125,-0.487823486328125
1757088627368567800,1.05256787109375,-0.8382568359375,-0.24273681640625,-0.487518310546875
1757088627378521600,1.062521484375,-0.8399810791015625,-0.2356414794921875,-0.4950408935546875
1757088627388476700,1.0724765625,-0.8500518798828125,-0.22552490234375,-0.509033203125
1757088627398430500,1.082430419921875,-0.8621978759765625,-0.2124786376953125,-0.5193939208984375
1757088627408385500,1.092385498046875,-0.871002197265625,-0.192230224609375,-0.5257110595703125
1757088627418340600,1.102340576171875,-0.868927001953125,-0.1740570068359375,-0.5233917236328125
1757088627428294700,1.112294677734375,-0.8609771728515625,-0.15142822265625,-0.5163726806640625
1757088627438249500,1.12224951171875,-0.8518218994140625,-0.12890625,-0.5141448974609375
1757088627448203500,1.13220361328125,-0.827362060546875,-0.1120452880859375,-0.5140380859375
1757088627458158800,1.142158935546875,-0.8071441650390625,-0.109588623046875,-0.5027923583984375
1757088627468112600,1.152112548828125,-0.7859344482421875,-0.1099700927734375,-0.4852447509765625
1757088627478067700,1.162067626953125,-0.7548980712890625,-0.1140594482421875,-0.4830474853515625
1757088627488021500,1.172021484375,-0.7095489501953125,-0.118377685546875,-0.4862060546875
1757088627497976600,1.1819765625,-0.6723785400390625,-0.117523193359375,-0.4920654296875
1757088627507930600,1.1919306640625,-0.6271820068359375,-0.1189117431640625,-0.501922607421875
1757088627517885700,1.2018857421875,-0.5830841064453125,-0.1146087646484375,-0.5153656005859375
1757088627527839700,1.21183984375,-0.530426025390625,-0.039459228515625,-0.5587921142578125
1757088627537794600,1.221794677734375,-0.5304718017578125,0.019500732421875,-0.5373687744140625
1757088627547749600,1.23174951171875,-0.55853271484375,-0.0545654296875,-0.4575042724609375
1757088627557703700,1.24170361328125,-0.56005859375,-0.05548095703125,-0.5088653564453125
1757088627567658800,1.25165869140625,-0.5712127685546875,-0.003692626953125,-0.5549468994140625
1757088627577612500,1.261612548828125,-0.587982177734375,0.0269317626953125,-0.56549072265625
1757088627587567600,1.271567626953125,-0.6179351806640625,0.04400634765625,-0.5812225341796875
1757088627597521700,1.281521728515625,-0.6500244140625,0.06951904296875,-0.614288330078125
1757088627607476700,1.291476806640625,-0.67950439453125,0.1058349609375,-0.6422882080078125
1757088627617430800,1.3014306640625,-0.7101287841796875,0.13934326171875,-0.6282196044921875
1757088627627385600,1.311385498046875,-0.7632293701171875,0.1768798828125,-0.645751953125
1757088627637339600,1.321339599609375,-1.0775604248046875,0.188262939453125,-0.6154937744140625
1757088627647294500,1.33129443359375,-1.3442230224609375,0.1846466064453125,-0.5211944580078125
1757088627657249800,1.341249755859375,-1.1974029541015625,0.3183135986328125,-0.63714599609375
1757088627667203600,1.35120361328125,-1.1198272705078125,0.390380859375,-0.657440185546875
1757088627677158700,1.36115869140625,-1.0633392333984375,0.3224639892578125,-0.549072265625
1757088627687112400,1.371112548828125,-0.9429473876953125,0.2647857666015625,-0.4910125732421875
1757088627697067800,1.38106787109375,-0.852081298828125,0.2651519775390625,-0.477813720703125
1757088627707021800,1.391021728515625,-0.8266448974609375,0.260284423828125,-0.46826171875
1757088627716976600,1.4009765625,-0.8241119384765625,0.253814697265625,-0.4734649658203125
1757088627726930700,1.4109306640625,-0.8228302001953125,0.256317138671875,-0.4900054931640625
1757088627736885500,1.420885498046875,-0.826324462890625,0.2489471435546875,-0.4899139404296875
1757088627746839600,1.430839599609375,-0.827392578125,0.250885009765625,-0.4719696044921875
1757088627756794600,1.440794677734375,-0.8144378662109375,0.2622528076171875,-0.4729461669921875
1757088627766749700,1.450749755859375,-0.8186798095703125,0.2624053955078125,-0.50531005859375
1757088627776703500,1.460703369140625,-0.8264923095703125,0.24420166015625,-0.5503692626953125
1757088627786658600,1.470658447265625,-0.85040283203125,0.246429443359375,-0.6022796630859375
1757088627796612900,1.48061279296875,-0.8746795654296875,0.2504730224609375,-0.647491455078125
1757088627806567700,1.490567626953125,-0.8831787109375,0.25665283203125,-0.6659393310546875
1757088627816521700,1.500521728515625,-0.891326904296875,0.276580810546875,-0.660888671875
1757088627826476500,1.5104765625,-0.9182586669921875,0.3238067626953125,-0.634490966796875
1757088627836430600,1.5204306640625,-0.9507293701171875,0.4423980712890625,-0.5532989501953125
1757088627846385700,1.5303857421875,-1.0150604248046875,0.4131622314453125,-0.5548553466796875
1757088627856339700,1.540339599609375,-1.0468292236328125,0.3371734619140625,-0.602325439453125
1757088627866294500,1.55029443359375,-1.014068603515625,0.300323486328125,-0.6756591796875
1757088627876249600,1.56024951171875,-0.9893798828125,0.2938385009765625,-0.72637939453125
1757088627886203600,1.57020361328125,-0.96246337890625,0.2945556640625,-0.7328643798828125
1757088627896158700,1.58015869140625,-0.9452362060546875,0.2897186279296875,-0.7151641845703125
1757088627906112800,1.59011279296875,-0.92352294921875,0.3032073974609375,-0.684906005859375
1757088627916067600,1.600067626953125,-0.905517578125,0.3149871826171875,-0.6435394287109375
1757088627926021600,1.610021728515625,-0.9105224609375,0.2989349365234375,-0.583160400390625
1757088627935976400,1.6199765625,-0.915985107421875,0.29901123046875,-0.567596435546875
1757088627945930500,1.629930419921875,-0.8715972900390625,0.3332366943359375,-0.593536376953125
1757088627955885600,1.639885498046875,-0.803680419921875,0.4222259521484375,-0.5619964599609375
1757088627965839600,1.649839599609375,-0.74078369140625,0.4518585205078125,-0.538055419921875
1757088627975794400,1.65979443359375,-0.71600341796875,0.4276123046875,-0.5184783935546875
1757088627985749500,1.66974951171875,-0.712615966796875,0.4005126953125,-0.469818115234375
1757088627995703800,1.679703857421875,-0.6686553955078125,0.35430908203125,-0.4632110595703125
1757088628005658600,1.68965869140625,-0.65472412109375,0.3241424560546875,-0.477294921875
1757088628015612700,1.69961279296875,-0.655609130859375,0.3182830810546875,-0.497100830078125
1757088628025567500,1.7095673828125,-0.6627960205078125,0.32171630859375,-0.504608154296875
1757088628035521500,1.719521484375,-0.680419921875,0.328887939453125,-0.4932098388671875
1757088628045476600,1.7294765625,-0.706878662109375,0.341094970703125,-0.466949462890625
1757088628055430700,1.7394306640625,-0.7437744140625,0.359954833984375,-0.42236328125
1757088628065385500,1.749385498046875,-0.73236083984375,0.4088897705078125,-0.3739166259765625
1757088628075339500,1.759339599609375,-0.6694488525390625,0.448974609375,-0.35052490234375
1757088628085294600,1.769294677734375,-0.704315185546875,0.48907470703125,-0.3869171142578125
1757088628095249700,1.779249755859375,-0.8778839111328125,0.5347442626953125,-0.461669921875
1757088628105203700,1.78920361328125,-1.066070556640625,0.5666351318359375,-0.5506744384765625
1757088628115158500,1.799158447265625,-1.1516571044921875,0.5678253173828125,-0.6238250732421875
1757088628125112600,1.809112548828125,-1.0962982177734375,0.5504150390625,-0.6544036865234375
1757088628135067400,1.8190673828125,-0.94012451171875,0.5204925537109375,-0.663787841796875
1757088628145021700,1.829021728515625,-0.7775115966796875,0.494598388671875,-0.6216583251953125
1757088628154976500,1.8389765625,-0.6392364501953125,0.495025634765625,-0.581817626953125
1757088628164930600,1.8489306640625,-0.5751495361328125,0.539459228515625,-0.570556640625
1757088628174885600,1.8588857421875,-0.585906982421875,0.5732421875,-0.64495849609375
1757088628184839400,1.86883935546875,-0.65704345703125,0.5441436767578125,-0.791290283203125
1757088628194794800,1.878794677734375,-0.7008514404296875,0.4681549072265625,-0.9271392822265625
1757088628204749600,1.88874951171875,-0.6475982666015625,0.3912353515625,-1.010711669921875
1757088628214703600,1.89870361328125,-0.5246429443359375,0.3418731689453125,-1.0216827392578125
1757088628224658400,1.908658447265625,-0.371368408203125,0.307037353515625,-0.988067626953125
1757088628234612500,1.918612548828125,-0.2387237548828125,0.292205810546875,-0.9710693359375
1757088628244567600,1.928567626953125,-0.163970947265625,0.2862396240234375,-0.9683837890625
1757088628254521600,1.938521484375,-0.151824951171875,0.2768707275390625,-0.96514892578125
1757088628264476400,1.948476318359375,-0.1605377197265625,0.2798614501953125,-0.9624786376953125
1757088628274430500,1.958430419921875,-0.175872802734375,0.2998504638671875,-0.934906005859375
1757088628284385800,1.9683857421875,-0.1966400146484375,0.3180389404296875,-0.8765411376953125
1757088628294339600,1.978339599609375,-0.2293853759765625,0.327667236328125,-0.808807373046875
1757088628304294700,1.988294677734375,-0.2522430419921875,0.3423309326171875,-0.7416839599609375
1757088628314248400,1.99824853515625,-0.2685394287109375,0.383941650390625,-0.672760009765625
1757088628324203500,2.00820361328125,-0.283935546875,0.43804931640625,-0.5901947021484375
1757088628334158600,2.01815869140625,-0.33984375,0.4728240966796875,-0.4881591796875
1757088628344112600,2.028112548828125,-0.4314727783203125,0.4961090087890625,-0.413421630859375
1757088628354067500,2.0380673828125,-0.4912261962890625,0.53668212890625,-0.37188720703125
1757088628364021500,2.048021484375,-0.55596923828125,0.5653839111328125,-0.3589324951171875
1757088628373976600,2.0579765625,-0.6244049072265625,0.5648956298828125,-0.3693389892578125
1757088628383930600,2.0679306640625,-0.660064697265625,0.5405731201171875,-0.38995361328125
1757088628393885700,2.0778857421875,-0.6580810546875,0.518798828125,-0.41534423828125
1757088628403839500,2.087839599609375,-0.6311492919921875,0.4990234375,-0.4388427734375
1757088628413794600,2.097794677734375,-0.59619140625,0.480194091796875,-0.4612884521484375
1757088628423748600,2.10774853515625,-0.576629638671875,0.47869873046875,-0.4819793701171875
1757088628433703700,2.11770361328125,-0.5801849365234375,0.4940643310546875,-0.489471435546875
1757088628443658500,2.127658447265625,-0.594818115234375,0.5114593505859375,-0.5029296875
1757088628453612500,2.137612548828125,-0.647003173828125,0.5251007080078125,-0.51959228515625
1757088628463567600,2.147567626953125,-0.7013397216796875,0.5247344970703125,-0.5467987060546875
1757088628473521400,2.157521484375,-0.71697998046875,0.5176849365234375,-0.59063720703125
1757088628483476700,2.167476806640625,-0.736328125,0.506072998046875,-0.6124267578125
1757088628493430500,2.177430419921875,-0.7992706298828125,0.434356689453125,-0.5744171142578125
1757088628503385600,2.187385498046875,-0.8515167236328125,0.3162841796875,-0.5594635009765625
1757088628513339400,2.19733935546875,-0.7906341552734375,0.3509674072265625,-0.6058197021484375
1757088628523294700,2.207294677734375,-0.7193603515625,0.495819091796875,-0.6287384033203125
1757088628533248800,2.217248779296875,-0.746795654296875,0.6087493896484375,-0.6515045166015625
1757088628543203600,2.22720361328125,-0.7264404296875,0.622314453125,-0.674957275390625
1757088628553158400,2.237158447265625,-0.65777587890625,0.592926025390625,-0.71075439453125
1757088628563112400,2.247112548828125,-0.6149139404296875,0.595245361328125,-0.6974945068359375
1757088628573067800,2.25706787109375,-0.587677001953125,0.62591552734375,-0.643310546875
1757088628583021600,2.267021484375,-0.5858306884765625,0.6420440673828125,-0.6021728515625
1757088628592976600,2.2769765625,-0.5953826904296875,0.699493408203125,-0.6184234619140625
1757088628602930400,2.286930419921875,-0.6229248046875,0.780731201171875,-0.6481170654296875
1757088628612885500,2.296885498046875,-0.671875,0.8259429931640625,-0.649139404296875
1757088628622839800,2.30683984375,-0.72332763671875,0.808929443359375,-0.6121826171875
1757088628632794600,2.316794677734375,-0.7686920166015625,0.748291015625,-0.5547637939453125
1757088628642748700,2.326748779296875,-0.7632598876953125,0.71185302734375,-0.50634765625
1757088628652703500,2.336703369140625,-0.7266082763671875,0.7116546630859375,-0.5004730224609375
1757088628662657500,2.346657470703125,-0.67236328125,0.705810546875,-0.5036163330078125
1757088628672612600,2.356612548828125,-0.6071014404296875,0.67852783203125,-0.51165771484375
1757088628682567700,2.366567626953125,-0.54766845703125,0.6364898681640625,-0.50152587890625
1757088628692521500,2.376521484375,-0.4889678955078125,0.610198974609375,-0.4488983154296875
1757088628702476500,2.3864765625,-0.43304443359375,0.598388671875,-0.37237548828125
1757088628712430600,2.3964306640625,-0.3801727294921875,0.594451904296875,-0.2982177734375
1757088628722385700,2.4063857421875,-0.3335723876953125,0.5985565185546875,-0.2379150390625
1757088628732339700,2.416339599609375,-0.321014404296875,0.607452392578125,-0.2517547607421875
1757088628742294500,2.42629443359375,-0.1796112060546875,0.5856475830078125,-0.5449676513671875
1757088628752248600,2.43624853515625,0.4781494140625,0.432525634765625,-1.12493896484375
1757088628762203600,2.44620361328125,0.369384765625,0.323822021484375,-1.1434326171875
1757088628772157700,2.45615771484375,0.0667266845703125,0.4207916259765625,-0.9398956298828125
1757088628782112500,2.466112548828125,-0.0011749267578125,0.535247802734375,-0.8081817626953125
1757088628792067600,2.476067626953125,-0.0455322265625,0.6207275390625,-0.7322998046875
1757088628802021400,2.486021484375,-0.1955413818359375,0.7033843994140625,-0.6899261474609375
1757088628811976700,2.495976806640625,-0.3145599365234375,0.6978912353515625,-0.6074981689453125
1757088628821930800,2.5059306640625,-0.2713165283203125,0.67254638671875,-0.50848388671875
1757088628831885600,2.515885498046875,-0.33685302734375,0.740814208984375,-0.4922332763671875
1757088628841839600,2.525839599609375,-0.4887847900390625,0.8544769287109375,-0.61566162109375
1757088628851794400,2.53579443359375,-0.5220184326171875,0.8031463623046875,-0.655364990234375
1757088628861748700,2.545748779296875,-0.458465576171875,0.7374420166015625,-0.6825408935546875
1757088628871703600,2.55570361328125,-0.37188720703125,0.7522735595703125,-0.7502593994140625
1757088628881657600,2.56565771484375,-0.2940673828125,0.77728271484375,-0.780487060546875
1757088628891612400,2.5756123046875,-0.2159271240234375,0.7660064697265625,-0.732086181640625
1757088628901566500,2.58556640625,-0.175018310546875,0.791595458984375,-0.68377685546875
1757088628911521800,2.595521728515625,-0.13946533203125,0.8301239013671875,-0.648773193359375
1757088628921476600,2.6054765625,-0.11309814453125,0.8251495361328125,-0.60894775390625
1757088628931431000,2.615430908203125,-0.080108642578125,0.808746337890625,-0.58953857421875
1757088628941385700,2.6253857421875,-0.0836029052734375,0.8188323974609375,-0.5850372314453125
1757088628951339800,2.63533984375,-0.1024322509765625,0.8370513916015625,-0.5863800048828125
1757088628961294600,2.645294677734375,-0.136505126953125,0.8520660400390625,-0.5713348388671875
1757088628971248600,2.65524853515625,-0.2235870361328125,0.898162841796875,-0.5869598388671875
1757088628981203700,2.66520361328125,-0.325103759765625,0.9180755615234375,-0.6195831298828125
1757088628991157800,2.67515771484375,-0.3022003173828125,0.904510498046875,-0.605194091796875
1757088629001112600,2.685112548828125,-0.1437225341796875,0.930267333984375,-0.525054931640625
1757088629011066600,2.695066650390625,0.0030975341796875,0.9600677490234375,-0.361541748046875
1757088629021021700,2.705021728515625,0.1295166015625,0.9701995849609375,-0.06109619140625
1757088629030976800,2.714976806640625,0.152618408203125,1.015289306640625,0.385986328125
1757088629040930800,2.724930908203125,-0.11602783203125,1.077423095703125,0.574981689453125
1757088629050885600,2.7348857421875,-0.2819366455078125,1.1118011474609375,0.2479095458984375
1757088629060839700,2.744839599609375,-0.2709197998046875,1.0226898193359375,0.0187835693359375
1757088629070794800,2.754794677734375,-0.233123779296875,0.9742889404296875,-0.2279510498046875
1757088629080748800,2.764748779296875,-0.1434173583984375,0.9468994140625,-0.4019012451171875
1757088629090703600,2.77470361328125,0.068878173828125,0.90106201171875,-0.3062744140625
1757088629100657700,2.78465771484375,0.0442352294921875,0.919403076171875,-0.24517822265625
1757088629110612700,2.79461279296875,-0.08380126953125,0.816162109375,-0.73431396484375
1757088629120566500,2.80456640625,-0.124908447265625,0.65447998046875,-1.2451629638671875
1757088629130521900,2.81452197265625,-0.1313323974609375,0.58819580078125,-1.5133819580078125
1757088629140475600,2.8244755859375,-0.153106689453125,0.585205078125,-1.67474365234375
1757088629150430700,2.8344306640625,-0.141143798828125,0.741241455078125,-1.47003173828125
1757088629160385500,2.844385498046875,0.0064544677734375,1.05157470703125,-0.7303619384765625
1757088629170339800,2.85433984375,0.3052978515625,1.182891845703125,-0.4959259033203125
1757088629180294700,2.864294677734375,0.3634796142578125,1.1974029541015625,-0.313690185546875
1757088629190248700,2.874248779296875,0.32427978515625,1.1805572509765625,-0.2293701171875
1757088629200203800,2.884203857421875,0.248779296875,1.1427764892578125,-0.3719329833984375
1757088629210157600,2.894157470703125,0.1330108642578125,1.1080169677734375,-0.5419921875
1757088629220113000,2.90411279296875,-0.0483245849609375,1.111297607421875,-0.6626739501953125
1757088629230066700,2.914066650390625,-0.251220703125,1.09918212890625,-0.8954925537109375
1757088629240021800,2.924021728515625,-0.344635009765625,1.0136566162109375,-1.13592529296875
1757088629249975800,2.933975830078125,-0.3458251953125,1.017364501953125,-1.1349334716796875
1757088629259930600,2.9439306640625,-0.2392730712890625,1.065643310546875,-0.929351806640625
1757088629269885700,2.9538857421875,0.0660247802734375,1.114959716796875,-0.6388092041015625
1757088629279839700,2.96383984375,0.08843994140625,1.0365753173828125,-0.4504852294921875
1757088629289794600,2.973794677734375,-0.1944580078125,0.992828369140625,-0.4772796630859375
1757088629299748600,2.98374853515625,-0.51861572265625,0.884124755859375,-0.645721435546875
1757088629309703700,2.99370361328125,-0.49591064453125,0.9701690673828125,-0.3989105224609375
1757088629319657700,3.00365771484375,-0.1053314208984375,1.0467071533203125,-0.22613525390625
1757088629329612800,3.01361279296875,-0.0711212158203125,0.8739166259765625,-0.1627044677734375
1757088629339566600,3.023566650390625,-0.0526275634765625,0.7079620361328125,-0.12335205078125
1757088629349521700,3.033521728515625,0.0788726806640625,0.6501312255859375,-0.1825103759765625
1757088629359475700,3.043475830078125,0.112060546875,0.6157989501953125,-0.139312744140625
1757088629369430800,3.0534306640625,0.060760498046875,0.6373291015625,0.01190185546875
1757088629379384800,3.063384765625,0.001373291015625,0.67877197265625,0.15118408203125
1757088629389339600,3.073339599609375,-0.058624267578125,0.718597412109375,0.29937744140625
1757088629399293700,3.083293701171875,-0.186126708984375,0.758697509765625,0.32421875
1757088629409248500,3.09324853515625,-0.2491607666015625,0.6503753662109375,0.044464111328125
1757088629419203800,3.103203857421875,-0.17816162109375,0.58416748046875,-0.041015625
1757088629429157600,3.11315771484375,-0.100128173828125,0.728912353515625,-0.052001953125
1757088629439112700,3.12311279296875,0.00384521484375,0.71337890625,-0.0192718505859375
1757088629449066800,3.133066650390625,0.03546142578125,0.679534912109375,0.032440185546875
1757088629459021800,3.143021728515625,-0.0692291259765625,0.7801666259765625,-0.055328369140625
1757088629468975900,3.152975830078125,-0.178741455078125,0.8629150390625,-0.1997222900390625
1757088629478930700,3.1629306640625,-0.4110260009765625,0.9709014892578125,-0.5613250732421875
1757088629488884700,3.172884765625,-0.5799713134765625,1.1191864013671875,-1.054534912109375
1757088629498839600,3.182839599609375,-0.369110107421875,1.1260223388671875,-1.26409912109375
1757088629508793600,3.192793701171875,-0.08453369140625,1.0573272705078125,-1.060821533203125
1757088629518748700,3.202748779296875,-0.057464599609375,1.0772857666015625,-0.9909820556640625
1757088629528702700,3.21270263671875,-0.04901123046875,1.1150970458984375,-0.949981689453125
1757088629538657800,3.22265771484375,0.0151214599609375,1.0892791748046875,-0.708465576171875
1757088629548612600,3.232612548828125,0.0446624755859375,1.05792236328125,-0.5200653076171875
1757088629558567000,3.24256689453125,0.0225067138671875,1.0439910888671875,-0.40142822265625
1757088629568521700,3.252521728515625,-0.0768280029296875,0.92254638671875,-0.2152862548828125
1757088629578475800,3.262475830078125,-0.2012481689453125,0.921234130859375,-0.209320068359375
1757088629588430600,3.2724306640625,-0.2637939453125,1.1800384521484375,-0.218109130859375
1757088629598384600,3.282384521484375,-0.2808837890625,1.2510223388671875,-0.319610595703125
1757088629608339700,3.292339599609375,-0.2594146728515625,1.1652069091796875,-0.445068359375
1757088629618293800,3.302293701171875,-0.2305450439453125,1.1778411865234375,-0.4477996826171875
1757088629628248600,3.31224853515625,-0.187255859375,1.151885986328125,-0.3517913818359375
1757088629638202600,3.32220263671875,-0.15203857421875,1.1187896728515625,-0.2296905517578125
1757088629648157700,3.33215771484375,-0.13897705078125,1.1491241455078125,-0.134002685546875
1757088629658111700,3.34211181640625,-0.1447296142578125,1.25018310546875,0.0680694580078125
1757088629668066800,3.35206689453125,-0.132171630859375,1.296966552734375,0.1284637451171875
1757088629678021600,3.362021728515625,-0.1190643310546875,1.1875,0.0190277099609375
1757088629687975700,3.3719755859375,-0.1107025146484375,1.041961669921875,-0.0441741943359375
1757088629697930800,3.3819306640625,0.043670654296875,0.8866729736328125,-0.108001708984375
1757088629707884800,3.391884765625,0.1774444580078125,0.7577056884765625,-0.2396392822265625
1757088629717839600,3.401839599609375,0.1174163818359375,0.663360595703125,-0.2320709228515625
1757088629727793700,3.411793701171875,0.058349609375,0.636383056640625,-0.30450439453125
1757088629737748700,3.421748779296875,0.0174713134765625,0.5565643310546875,-0.4936370849609375
1757088629747702500,3.43170263671875,-0.074249267578125,0.5189666748046875,-0.5308837890625
1757088629757657900,3.441657958984375,-0.110076904296875,0.5248870849609375,-0.7606658935546875
1757088629767611600,3.451611572265625,-0.2520904541015625,0.6518096923828125,-0.6888580322265625
1757088629777566700,3.461566650390625,-0.3530731201171875,0.83929443359375,-0.4374542236328125
1757088629787520800,3.471520751953125,-0.3320159912109375,0.8945159912109375,-0.3368072509765625
1757088629797475800,3.481475830078125,-0.36944580078125,0.8226470947265625,-0.2051849365234375
1757088629807430700,3.4914306640625,-0.3610992431640625,0.8089447021484375,-0.1974945068359375
1757088629817384700,3.501384765625,-0.3259429931640625,0.9007720947265625,-0.268280029296875
1757088629827339800,3.51133984375,-0.2594757080078125,0.9337005615234375,-0.3089752197265625
1757088629837293600,3.52129345703125,-0.1885528564453125,0.914031982421875,-0.353607177734375
1757088629847249000,3.531248779296875,-0.1021270751953125,0.7937469482421875,-0.4873809814453125
1757088629857202700,3.54120263671875,-0.082183837890625,0.6715240478515625,-0.475555419921875
1757088629867157800,3.55115771484375,-0.1088714599609375,0.719329833984375,-0.3410491943359375
1757088629877111600,3.561111572265625,-0.14166259765625,0.8516693115234375,-0.2101593017578125
1757088629887066600,3.571066650390625,-0.1837310791015625,0.9730987548828125,-0.1884918212890625
1757088629897021000,3.58102099609375,-0.279937744140625,1.10931396484375,-0.1695556640625
1757088629906975700,3.590975830078125,0.157867431640625,0.79852294921875,-0.3846893310546875
1757088629916929800,3.6009296875,0.568634033203125,0.126739501953125,-0.76605224609375
1757088629926884900,3.610884765625,-0.627471923828125,1.0292510986328125,-0.6790924072265625
1757088629936840000,3.62083984375,-0.3152313232421875,0.829620361328125,-0.5068511962890625
1757088629946793700,3.630793701171875,-0.2725830078125,1.1471405029296875,-0.4053955078125
1757088629956748800,3.640748779296875,-0.4526824951171875,1.326385498046875,-0.0213623046875
1757088629966702800,3.650702880859375,-0.4257049560546875,1.480194091796875,0.2546844482421875
1757088629976658000,3.660657958984375,-0.3336639404296875,1.290740966796875,0.181427001953125
1757088629986612000,3.670612060546875,-0.1945953369140625,1.110260009765625,-0.0882720947265625
1757088629996566800,3.68056689453125,-0.0871124267578125,1.0807647705078125,-0.2618408203125
1757088630006520800,3.690520751953125,-0.0627899169921875,1.0842742919921875,-0.2909698486328125
1757088630016476000,3.700475830078125,-0.0384063720703125,1.1026763916015625,-0.2744293212890625
1757088630026430000,3.710429931640625,-0.0514068603515625,1.148712158203125,-0.275665283203125
1757088630036384800,3.720384765625,-0.0166015625,1.0260467529296875,-0.2145538330078125
1757088630046338800,3.7303388671875,0.0147857666015625,0.9827728271484375,-0.2139892578125
1757088630056293600,3.740293701171875,-0.0200958251953125,0.9865264892578125,-0.251800537109375
1757088630066248000,3.750248046875,-0.0421295166015625,0.9402313232421875,-0.2766876220703125
1757088630076202800,3.76020263671875,-0.0051422119140625,0.8906402587890625,-0.31915283203125
1757088630086157800,3.77015771484375,0.060821533203125,0.8652496337890625,-0.29486083984375
1757088630096111900,3.78011181640625,-0.0353851318359375,0.88067626953125,-0.3177947998046875
1757088630106067000,3.79006689453125,0.0023040771484375,0.81201171875,-0.35821533203125
1757088630116021000,3.80002099609375,-0.2149200439453125,1.0859527587890625,-0.600128173828125
1757088630125975800,3.809975830078125,-0.0705718994140625,0.91094970703125,-0.53656005859375
1757088630135929900,3.819929931640625,0.3013916015625,0.4757080078125,-0.5364990234375
1757088630145884700,3.829884765625,-0.0608062744140625,0.3237152099609375,-0.6234283447265625
1757088630155838700,3.839838623046875,0.0961151123046875,0.150543212890625,-0.599578857421875
1757088630165793800,3.849793701171875,-0.2239227294921875,0.1075286865234375,-0.58929443359375
1757088630175747800,3.859747802734375,0.1105499267578125,0.4823760986328125,-0.5131378173828125
1757088630185703000,3.869702880859375,-0.0335540771484375,0.7644805908203125,-0.4216156005859375
1757088630195657700,3.87965771484375,-0.0763092041015625,0.991424560546875,-0.420257568359375
1757088630205612000,3.889612060546875,-0.0093231201171875,1.3713226318359375,-0.3862762451171875
1757088630215566800,3.89956689453125,-0.0265045166015625,1.7677154541015625,-0.3925323486328125
1757088630225521000,3.90952099609375,0.019256591796875,1.8572845458984375,-0.35626220703125
1757088630235475700,3.919475830078125,0.0670928955078125,1.7180023193359375,-0.27691650390625
1757088630245429800,3.9294296875,0.09454345703125,1.4727783203125,-0.2416839599609375
1757088630255384800,3.939384765625,0.0234375,1.2363433837890625,-0.2862701416015625
1757088630265339000,3.9493388671875,0.012237548828125,0.7812347412109375,-0.050445556640625
1757088630275294000,3.9592939453125,0.064849853515625,0.2378387451171875,0.1228179931640625
1757088630285247700,3.969247802734375,0.0203094482421875,0.5350799560546875,-0.2021484375
1757088630295202800,3.979202880859375,0.0179595947265625,0.893585205078125,-0.3878936767578125
1757088630305156900,3.989156982421875,0.13323974609375,1.050689697265625,-0.5588836669921875
1757088630315112000,3.99911181640625,0.237884521484375,1.10211181640625,-0.461883544921875
1757088630325065700,4.009065673828125,0.0648956298828125,1.0394287109375,-0.4398040771484375
1757088630335020800,4.019020751953125,-0.0289459228515625,0.9216156005859375,-0.4473419189453125
1757088630344974800,4.028974853515625,0.06719970703125,0.964996337890625,-0.2769775390625
1757088630354930000,4.038929931640625,0.1016387939453125,0.9913177490234375,-0.1990509033203125
1757088630364884700,4.048884765625,0.168914794921875,1.01422119140625,-0.1714019775390625
1757088630374838800,4.0588388671875,0.1253662109375,1.00067138671875,-0.10919189453125
1757088630384793900,4.0687939453125,0.060455322265625,0.951873779296875,-0.091827392578125
1757088630394747600,4.07874755859375,0.083404541015625,0.7459564208984375,-0.1736602783203125
1757088630404703000,4.088702880859375,0.0200042724609375,0.7531890869140625,-0.1551361083984375
1757088630414656800,4.09865673828125,0.0268402099609375,0.8348846435546875,-0.1332244873046875
1757088630424611800,4.10861181640625,0.1084747314453125,0.8675079345703125,-0.149871826171875
1757088630434566000,4.11856591796875,0.1535797119140625,0.920623779296875,-0.164459228515625
1757088630444520700,4.128520751953125,0.1199951171875,0.9478759765625,-0.1461944580078125
1757088630454475000,4.13847509765625,0.0626983642578125,0.9561767578125,-0.11492919921875
1757088630464429800,4.148429931640625,0.05413818359375,0.9773406982421875,-0.07861328125
1757088630474384000,4.1583837890625,0.0546417236328125,0.9702301025390625,-0.0586395263671875
1757088630484338700,4.168338623046875,0.0795135498046875,0.945404052734375,-0.0746002197265625
1757088630494294000,4.1782939453125,0.1217041015625,0.8651885986328125,-0.082611083984375
1757088630504247800,4.188247802734375,0.2824249267578125,0.175262451171875,0.07745361328125
1757088630514203000,4.198202880859375,0.1084442138671875,0.063507080078125,0.0914306640625
1757088630524157000,4.208156982421875,-0.0935211181640625,0.42242431640625,0.077239990234375
1757088630534111700,4.21811181640625,0.0609130859375,1.01715087890625,-0.1166229248046875
1757088630544065800,4.228065673828125,0.449066162109375,0.764617919921875,-0.147186279296875
1757088630554020900,4.238020751953125,0.0641937255859375,0.6910552978515625,-0.1830902099609375
1757088630563975000,4.247974853515625,-0.1318359375,0.813140869140625,-0.21728515625
1757088630573929700,4.2579296875,0.0658721923828125,0.949615478515625,-0.237579345703125
1757088630583883800,4.2678837890625,0.098785400390625,1.01373291015625,-0.330810546875
1757088630593838800,4.2778388671875,0.172698974609375,1.1087646484375,-0.378143310546875
1757088630603793000,4.28779296875,0.451812744140625,1.49371337890625,-0.2256317138671875
1757088630613747700,4.297747802734375,-0.0330352783203125,2.2058258056640625,0.3505706787109375
1757088630623701800,4.30770166015625,0.0496978759765625,2.4860076904296875,0.51593017578125
1757088630633656800,4.31765673828125,0.160369873046875,1.53564453125,-0.12493896484375
1757088630643612000,4.32761181640625,0.1073150634765625,0.9664154052734375,-0.3367919921875
1757088630653566000,4.33756591796875,0.0801849365234375,1.1786956787109375,-0.2550811767578125
1757088630663520800,4.347520751953125,0.1884002685546875,1.4007720947265625,-0.3365936279296875
1757088630673474800,4.357474853515625,0.1921234130859375,1.408843994140625,-0.3650054931640625
1757088630683429600,4.3674296875,0.1382904052734375,1.3430938720703125,-0.1556243896484375
1757088630693384000,4.377384033203125,0.1559295654296875,1.2250518798828125,0.0874176025390625
1757088630703338800,4.3873388671875,0.149566650390625,1.0866851806640625,0.2834625244140625
1757088630713292800,4.397292724609375,0.0949554443359375,1.030059814453125,0.4710235595703125
1757088630723247900,4.407247802734375,0.07415771484375,1.08465576171875,0.4647979736328125
1757088630733201700,4.41720166015625,0.0808563232421875,1.2400970458984375,0.21588134765625
1757088630743157000,4.427156982421875,0.052001953125,1.26287841796875,0.0638580322265625
1757088630753110800,4.43711083984375,0.066009521484375,1.1595916748046875,0.01788330078125
1757088630763065900,4.44706591796875,0.10870361328125,0.8845977783203125,-0.0376739501953125
1757088630773020000,4.45702001953125,0.0597686767578125,0.51153564453125,-0.10357666015625
1757088630782974700,4.466974609375,0.075439453125,0.515380859375,0.02923583984375
1757088630792929800,4.4769296875,0.1533050537109375,0.80267333984375,0.136474609375
1757088630802883800,4.4868837890625,0.1570892333984375,0.9640960693359375,0.1165618896484375
1757088630812839000,4.4968388671875,0.1287689208984375,0.989288330078125,0.1207427978515625
1757088630822792700,4.506792724609375,0.1147918701171875,1.0049591064453125,0.127777099609375
1757088630832748000,4.516748046875,0.1064605712890625,1.0024566650390625,0.09979248046875
1757088630842701800,4.526701904296875,0.112579345703125,1.0030059814453125,0.0806121826171875
1757088630852657000,4.536656982421875,0.1097564697265625,1.0074005126953125,0.0719451904296875
1757088630862611000,4.54661083984375,0.1024932861328125,1.0074615478515625,0.0680694580078125
1757088630872565800,4.556565673828125,0.1001434326171875,1.01171875,0.062652587890625
1757088630882519800,4.566519775390625,0.1050567626953125,1.0107879638671875,0.0553131103515625
1757088630892475000,4.576474853515625,0.11529541015625,1.0048065185546875,0.04632568359375
1757088630902429000,4.586428955078125,0.126312255859375,1.0035400390625,0.0370330810546875
1757088630912383700,4.5963837890625,0.1359710693359375,0.998138427734375,0.02862548828125
1757088630922338000,4.606338134765625,0.1387786865234375,0.99554443359375,0.025726318359375
1757088630932293000,4.616293212890625,0.1369171142578125,0.994171142578125,0.027069091796875
1757088630942247200,4.6262470703125,0.13153076171875,0.9835052490234375,0.0311126708984375
1757088630952202000,4.636201904296875,0.1287994384765625,0.97998046875,0.0373077392578125
1757088630962157000,4.646156982421875,0.124847412109375,0.980865478515625,0.0423736572265625
1757088630972111000,4.656111083984375,0.1226806640625,0.9852142333984375,0.0432586669921875
1757088630982066200,4.666066162109375,0.1255340576171875,0.9945068359375,0.0454559326171875
1757088630992020200,4.676020263671875,0.128021240234375,0.992095947265625,0.0411529541015625
1757088631001975000,4.68597509765625,0.1317901611328125,0.9925079345703125,0.0467376708984375
1757088631011929000,4.69592919921875,0.1392059326171875,0.990814208984375,0.054351806640625
1757088631021884000,4.7058837890625,0.14532470703125,0.99041748046875,0.0648040771484375
1757088631031838200,4.715838134765625,0.152435302734375,0.9786529541015625,0.0660247802734375
1757088631041793000,4.72579296875,0.1568145751953125,0.9739837646484375,0.0678253173828125
1757088631051747000,4.7357470703125,0.160064697265625,0.977813720703125,0.0726470947265625
1757088631061702000,4.745701904296875,0.1600494384765625,0.9845123291015625,0.074188232421875
1757088631071656000,4.755656005859375,0.161163330078125,0.9877166748046875,0.0723419189453125
1757088631081611300,4.765611328125,0.163330078125,0.98748779296875,0.0672760009765625
1757088631091566000,4.775566162109375,0.1643829345703125,0.987884521484375,0.0628204345703125
1757088631101520100,4.78552001953125,0.1673583984375,0.9891815185546875,0.0561065673828125
1757088631111475000,4.795474853515625,0.1620330810546875,0.988525390625,0.05426025390625
1757088631121429000,4.805428955078125,0.1646575927734375,0.990386962890625,0.0535888671875
1757088631131384000,4.815384033203125,0.1426239013671875,0.9827117919921875,0.0596923828125
1757088631141338000,4.825338134765625,0.1145782470703125,0.9786834716796875,0.06072998046875
1757088631151293000,4.83529296875,0.145538330078125,0.9927520751953125,0.089019775390625
1757088631161247000,4.8452470703125,0.0989990234375,0.9858856201171875,0.0980682373046875
1757088631171202300,4.855202392578125,0.07916259765625,0.957550048828125,0.10382080078125
1757088631181156000,4.865156005859375,0.0955657958984375,0.954071044921875,0.0818023681640625
1757088631191111200,4.875111083984375,0.1049346923828125,0.995513916015625,0.0788421630859375
1757088631201065000,4.88506494140625,0.094818115234375,1.001617431640625,0.11016845703125
1757088631211020000,4.89502001953125,0.1039581298828125,1.0099639892578125,0.09307861328125
1757088631220974000,4.90497412109375,0.1035614013671875,1.004730224609375,0.103515625
1757088631230929200,4.91492919921875,0.0683441162109375,1.0047607421875,0.127044677734375
1757088631240884000,4.924884033203125,0.0735931396484375,0.98614501953125,0.1076202392578125
1757088631250838000,4.934838134765625,0.1052093505859375,0.9958648681640625,0.047088623046875
1757088631260793000,4.94479296875,0.1212615966796875,1.005767822265625,0.02703857421875
1757088631270747100,4.9547470703125,0.1023712158203125,1.0126953125,0.0613250732421875
1757088631280702200,4.9647021484375,0.1002044677734375,0.99713134765625,0.0765228271484375
1757088631290656000,4.974656005859375,0.099853515625,1.002349853515625,0.0607147216796875
1757088631300611000,4.984611083984375,0.090087890625,1.0051727294921875,0.0488128662109375
1757088631310565000,4.994565185546875,0.0907135009765625,0.998687744140625,0.036834716796875
1757088631320520200,5.004520263671875,0.0803985595703125,1.00006103515625,0.05010986328125
1757088631330474200,5.01447412109375,0.0662384033203125,1.0173187255859375,0.0777587890625
1757088631340429000,5.024428955078125,0.0946197509765625,1.037628173828125,0.0594940185546875
1757088631350383000,5.034383056640625,0.1374359130859375,1.0294189453125,0.05438232421875
1757088631360338000,5.044337890625,0.1346588134765625,1.01806640625,0.073333740234375
1757088631370293200,5.054293212890625,0.097259521484375,0.9907379150390625,0.071319580078125
1757088631380247000,5.0642470703125,0.092926025390625,0.972198486328125,0.073211669921875
1757088631390202000,5.0742021484375,0.085174560546875,0.9715423583984375,0.093017578125
1757088631400156000,5.084156005859375,0.1195831298828125,0.9866180419921875,0.06768798828125
1757088631410111200,5.094111328125,0.1628875732421875,0.9781036376953125,0.039581298828125
1757088631420065300,5.104065185546875,0.1442413330078125,0.9620513916015625,0.0232696533203125
1757088631430020000,5.11402001953125,0.1567535400390625,0.98028564453125,0.01031494140625
1757088631439974100,5.12397412109375,0.203033447265625,0.997467041015625,0.0027313232421875
1757088631449929000,5.133928955078125,0.2160797119140625,0.975006103515625,-0.0030975341796875
1757088631459883000,5.143883056640625,0.1669464111328125,0.9816131591796875,0.0392913818359375
1757088631469838000,5.153838134765625,0.16668701171875,0.9806671142578125,0.0097503662109375
1757088631479792000,5.163792236328125,0.151123046875,0.978118896484375,0.007537841796875
1757088631489747000,5.173746826171875,0.12890625,0.993408203125,0.0315399169921875
1757088631499702000,5.183701904296875,0.16357421875,0.9856109619140625,0.0547943115234375
1757088631509656000,5.193656005859375,0.1583099365234375,0.9942169189453125,0.0646209716796875
1757088631519611100,5.203611083984375,0.154296875,0.9961700439453125,0.0394287109375
1757088631529565200,5.213565185546875,0.1880950927734375,0.982696533203125,0.0256500244140625
1757088631539520000,5.22352001953125,0.20953369140625,0.9855194091796875,0.0116729736328125
1757088631549474000,5.23347412109375,0.25189208984375,0.9462890625,-0.031890869140625
1757088631559429000,5.24342919921875,0.252105712890625,0.946258544921875,-0.051239013671875
1757088631569383200,5.253383056640625,0.233795166015625,0.9524993896484375,-0.066741943359375
1757088631579338000,5.263337890625,0.2116546630859375,0.9562225341796875,-0.0647125244140625
1757088631589293000,5.27329296875,0.1902313232421875,0.966705322265625,-0.0386505126953125
1757088631599247000,5.2832470703125,0.18212890625,0.9719390869140625,0.0020751953125
1757088631609202200,5.2932021484375,0.16656494140625,0.9768524169921875,0.0119171142578125
1757088631619156200,5.30315625,0.1238861083984375,1.001739501953125,-0.028839111328125
1757088631629111000,5.313111083984375,0.123260498046875,0.9925537109375,0.031707763671875
1757088631639065000,5.323065185546875,0.14324951171875,1.0001678466796875,0.02520751953125
1757088631649020200,5.333020263671875,0.1381988525390625,1.001129150390625,0.0098419189453125
1757088631658974200,5.34297412109375,0.132049560546875,0.988128662109375,0.0220947265625
1757088631668929000,5.352928955078125,0.125823974609375,0.9895477294921875,0.0185699462890625
1757088631678883000,5.362883056640625,0.106414794921875,0.99249267578125,0.0309906005859375
1757088631688838000,5.372837890625,0.11151123046875,1.0034942626953125,0.044403076171875
1757088631698793200,5.382793212890625,0.1204681396484375,1.0047149658203125,0.0709075927734375
1757088631708747300,5.392747314453125,0.1103668212890625,1.012542724609375,0.0611114501953125
1757088631718702000,5.4027021484375,0.1061248779296875,1.0065765380859375,0.06890869140625
1757088631728656100,5.41265625,0.1024932861328125,1.0029144287109375,0.0704803466796875
1757088631738611000,5.42261083984375,0.1089324951171875,1,0.0691986083984375
1757088631748565200,5.432565185546875,0.1011810302734375,0.998443603515625,0.069366455078125
1757088631758520000,5.44252001953125,0.0882415771484375,0.9979705810546875,0.0683441162109375
1757088631768474000,5.45247412109375,0.083587646484375,1.003448486328125,0.0689697265625
1757088631778429000,5.462428955078125,0.0875091552734375,1.0046539306640625,0.07269287109375
1757088631788383000,5.472383056640625,0.0836334228515625,1.0062713623046875,0.0778045654296875
1757088631798338000,5.482338134765625,0.0831756591796875,1.0027618408203125,0.071014404296875
1757088631808293000,5.492293212890625,0.1079254150390625,0.993072509765625,0.0615386962890625
1757088631818247200,5.5022470703125,0.11224365234375,0.985137939453125,0.0570220947265625
1757088631828202000,5.512201904296875,0.0975189208984375,0.9771881103515625,0.0501708984375
1757088631838156000,5.522156005859375,0.12469482421875,0.975128173828125,0.0155487060546875
1757088631848111000,5.532111083984375,0.1323089599609375,0.984710693359375,0.001922607421875
1757088631858065200,5.542065185546875,0.123382568359375,0.9940948486328125,0.009857177734375
1757088631868020000,5.55202001953125,0.1104278564453125,1.004974365234375,0.0228271484375
1757088631877974000,5.56197412109375,0.097747802734375,1.004974365234375,0.0441741943359375
1757088631887929000,5.57192919921875,0.07763671875,0.99383544921875,0.07147216796875
1757088631897883100,5.581883056640625,0.066131591796875,0.972259521484375,0.0847625732421875
1757088631907838200,5.591838134765625,0.0596771240234375,0.9688568115234375,0.082611083984375
1757088631917793000,5.60179296875,0.071929931640625,0.9761199951171875,0.0747833251953125
1757088631927747000,5.6117470703125,0.086883544921875,0.98699951171875,0.059906005859375
1757088631937702000,5.621701904296875,0.10076904296875,1.0019683837890625,0.04132080078125
1757088631947656000,5.631656005859375,0.1122894287109375,1.0134735107421875,0.0291290283203125
1757088631957610800,5.64161083984375,0.123809814453125,1.018951416015625,0.023651123046875
1757088631967565000,5.65156494140625,0.1253814697265625,1.0223541259765625,0.025421142578125
1757088631977519900,5.661519775390625,0.124542236328125,1.0203704833984375,0.02471923828125
1757088631987474000,5.671473876953125,0.120697021484375,1.0140380859375,0.022430419921875
1757088631997429000,5.681428955078125,0.1234588623046875,1.0079803466796875,0.016326904296875
1757088632007384000,5.691384033203125,0.116058349609375,1.0035858154296875,0.0074462890625
1757088632017338000,5.701338134765625,0.1056976318359375,0.9974212646484375,-0.000396728515625
1757088632027293000,5.71129296875,0.0980224609375,0.9926300048828125,-0.0030059814453125
1757088632037247000,5.7212470703125,0.09796142578125,0.9846038818359375,-0.0010986328125
1757088632047201800,5.731201904296875,0.09912109375,0.979888916015625,-0.00030517578125
1757088632057155800,5.74115576171875,0.1089019775390625,0.9758453369140625,0.0039520263671875
1757088632067111000,5.75111083984375,0.1156463623046875,0.9769439697265625,0.0106658935546875
1757088632077065000,5.76106494140625,0.1217498779296875,0.9804534912109375,0.0183258056640625
1757088632087020000,5.77102001953125,0.1297607421875,0.98492431640625,0.020477294921875
1757088632096973800,5.780973876953125,0.13226318359375,0.9934844970703125,0.01312255859375
1757088632106929200,5.79092919921875,0.1269989013671875,1.0083160400390625,0.0441436767578125
1757088632116884000,5.800884033203125,0.1240386962890625,1.0070037841796875,0.06610107421875
1757088632126838000,5.810838134765625,0.1259613037109375,0.99822998046875,0.0556488037109375
1757088632136792800,5.820792724609375,0.1302490234375,0.9935302734375,0.05877685546875
1757088632146747000,5.830746826171875,0.131195068359375,0.990203857421875,0.0801544189453125
1757088632156702000,5.840701904296875,0.1278533935546875,0.9987030029296875,0.0869293212890625
1757088632166656000,5.850656005859375,0.13275146484375,1.0011444091796875,0.0926361083984375
1757088632176611000,5.860611083984375,0.1406707763671875,0.998870849609375,0.0958709716796875
1757088632186564900,5.87056494140625,0.14776611328125,0.991119384765625,0.098907470703125
1757088632196520000,5.88052001953125,0.1579132080078125,0.979827880859375,0.1021881103515625
1757088632206474000,5.890473876953125,0.1717071533203125,0.968414306640625,0.101409912109375
1757088632216429000,5.900428955078125,0.1820068359375,0.96173095703125,0.096832275390625
1757088632226384000,5.9103837890625,0.187896728515625,0.9648895263671875,0.0812835693359375
1757088632236338000,5.920337890625,0.1888275146484375,0.968505859375,0.057647705078125
1757088632246293000,5.93029296875,0.182037353515625,0.969390869140625,0.0284423828125
1757088632256247000,5.9402470703125,0.17041015625,0.9786376953125,-0.0010986328125
1757088632266201900,5.950201904296875,0.1644134521484375,0.9798736572265625,-0.02734375
1757088632276156000,5.960156005859375,0.1658782958984375,0.98284912109375,-0.045318603515625
1757088632286111000,5.970111083984375,0.1715240478515625,0.9825897216796875,-0.05963134765625
1757088632296064800,5.980064697265625,0.18328857421875,0.9847412109375,-0.064697265625
1757088632306020000,5.99002001953125,0.194732666015625,0.9905853271484375,-0.0615997314453125
1757088632315974000,5.999973876953125,0.196990966796875,0.9958648681640625,-0.05780029296875
1757088632325929000,6.009928955078125,0.1977386474609375,0.9970245361328125,-0.052764892578125
1757088632335883800,6.0198837890625,0.1949310302734375,1.0012969970703125,-0.0449371337890625
1757088632345838000,6.029838134765625,0.1889495849609375,1.001739501953125,-0.0418548583984375
1757088632355793000,6.03979296875,0.1783905029296875,0.9934234619140625,-0.039703369140625
1757088632365747000,6.049746826171875,0.1656951904296875,0.984710693359375,-0.0315704345703125
1757088632375702000,6.059701904296875,0.15673828125,0.9779205322265625,-0.017242431640625
1757088632385655800,6.06965576171875,0.1539154052734375,0.9726104736328125,-0.0044708251953125
1757088632395611100,6.079611083984375,0.1542816162109375,0.9743804931640625,0.005279541015625
1757088632405565000,6.08956494140625,0.14752197265625,0.9760894775390625,0.0129241943359375
1757088632415520000,6.09952001953125,0.140411376953125,0.980560302734375,0.022216796875
1757088632425474000,6.10947412109375,0.1390533447265625,0.9846038818359375,0.0349273681640625
1757088632435428900,6.119428955078125,0.13665771484375,0.9884490966796875,0.0444793701171875
1757088632445384000,6.129384033203125,0.1378173828125,0.9921112060546875,0.05316162109375
1757088632455338000,6.139337890625,0.13507080078125,0.994140625,0.061431884765625
1757088632465293000,6.14929296875,0.1326751708984375,0.9963836669921875,0.0679473876953125
1757088632475246800,6.159246826171875,0.1361236572265625,0.9974822998046875,0.0697174072265625
1757088632485202000,6.169201904296875,0.1360015869140625,0.997344970703125,0.073028564453125
1757088632495156000,6.179156005859375,0.1325836181640625,0.998748779296875,0.073974609375
1757088632505111000,6.189111083984375,0.1309967041015625,0.996185302734375,0.069671630859375
1757088632515064800,6.19906494140625,0.1282806396484375,0.985626220703125,0.074554443359375
1757088632525020000,6.20902001953125,0.1291656494140625,0.9726104736328125,0.0762786865234375
1757088632534974000,6.218973876953125,0.127349853515625,0.9603424072265625,0.07635498046875
1757088632544929000,6.228928955078125,0.1266021728515625,0.9541015625,0.0693511962890625
1757088632554883000,6.238883056640625,0.133026123046875,0.955322265625,0.0568084716796875
1757088632564838000,6.248837890625,0.1346282958984375,0.9639892578125,0.04071044921875
1757088632574793000,6.25879296875,0.13690185546875,0.9702606201171875,0.024627685546875
1757088632584746800,6.268746826171875,0.14605712890625,0.98138427734375,0.010009765625
1757088632594702000,6.2787021484375,0.150360107421875,0.9905853271484375,0.0012969970703125
1757088632604655900,6.28865576171875,0.15185546875,0.9969329833984375,-0.00567626953125
1757088632614611000,6.29861083984375,0.154388427734375,0.9998779296875,-0.008270263671875
1757088632624565000,6.30856494140625,0.158416748046875,0.9970550537109375,-0.0064239501953125
1757088632634520000,6.31852001953125,0.16204833984375,0.9971466064453125,-0.0041961669921875
1757088632644474000,6.32847412109375,0.165679931640625,1.0003509521484375,-0.0037994384765625
1757088632654429000,6.338428955078125,0.1705169677734375,0.999664306640625,0.000701904296875
1757088632664383000,6.348383056640625,0.1680755615234375,0.997467041015625,0.00177001953125
1757088632674337800,6.358337890625,0.159759521484375,0.9955902099609375,0.0084228515625
1757088632684293000,6.368293212890625,0.1536865234375,0.9908447265625,0.0196685791015625
1757088632694247000,6.378246826171875,0.1548309326171875,0.9884033203125,0.032135009765625
1757088632704202000,6.388201904296875,0.1516876220703125,0.9874725341796875,0.0402679443359375
1757088632714156000,6.398156005859375,0.148193359375,0.9850921630859375,0.04290771484375
1757088632724110800,6.40811083984375,0.1444244384765625,0.9844207763671875,0.0441741943359375
1757088632734065200,6.418065185546875,0.138671875,0.983612060546875,0.0438385009765625
1757088632744020000,6.42802001953125,0.1370086669921875,0.9822998046875,0.041107177734375
1757088632753974000,6.43797412109375,0.1372528076171875,0.9837493896484375,0.038330078125
1757088632763928800,6.4479287109375,0.1360626220703125,0.9878387451171875,0.03668212890625
1757088632773883000,6.4578828125,0.1386260986328125,0.9904327392578125,0.0395355224609375
1757088632783838000,6.467837890625,0.13836669921875,0.99407958984375,0.0473175048828125
1757088632793793000,6.47779296875,0.1367034912109375,0.9957122802734375,0.0540618896484375
1757088632803746800,6.487746826171875,0.12750244140625,0.9943389892578125,0.0624237060546875
1757088632813702000,6.497701904296875,0.1240081787109375,0.9942474365234375,0.0709075927734375
1757088632823656000,6.507656005859375,0.1215057373046875,0.996795654296875,0.077972412109375
1757088632833611000,6.517611083984375,0.1190338134765625,0.997039794921875,0.0839691162109375
1757088632843565000,6.52756494140625,0.1187591552734375,0.9966583251953125,0.09161376953125
1757088632853520000,6.537519775390625,0.1183929443359375,0.9927825927734375,0.0976409912109375
1757088632863474000,6.547473876953125,0.1162872314453125,0.9897918701171875,0.0993499755859375
1757088632873429000,6.557428955078125,0.1199493408203125,0.9874420166015625,0.1010894775390625
1757088632883383000,6.567383056640625,0.12078857421875,0.98858642578125,0.0951690673828125
1757088632893337900,6.577337890625,0.1186981201171875,0.9884490966796875,0.08203125
1757088632903292000,6.5872919921875,0.1150054931640625,0.9902801513671875,0.069488525390625
1757088632913247000,6.5972470703125,0.114837646484375,0.99072265625,0.0628814697265625
1757088632923202600,6.60720263671875,0.1149139404296875,0.9915313720703125,0.05712890625
1757088632933156600,6.617156494140625,0.114898681640625,0.9932861328125,0.05126953125
1757088632943111700,6.627111572265625,0.11480712890625,0.9923858642578125,0.044097900390625
1757088632953065700,6.637065673828125,0.119537353515625,0.9915008544921875,0.03973388671875
1757088632963020500,6.6470205078125,0.1241302490234375,0.9935455322265625,0.03369140625
1757088632972974600,6.656974609375,0.127471923828125,0.9959564208984375,0.0263671875
1757088632982929400,6.666929443359375,0.1311492919921875,0.9959869384765625,0.0196380615234375
1757088632992883700,6.6768837890625,0.132965087890625,0.9986419677734375,0.0153045654296875
1757088633002838500,6.686838623046875,0.136016845703125,1.0003814697265625,0.00970458984375
1757088633012792600,6.69679248046875,0.135772705078125,1.000213623046875,0.0054931640625
1757088633022747400,6.706747314453125,0.1332550048828125,0.9965667724609375,0.0051116943359375
1757088633032701400,6.716701416015625,0.1287384033203125,0.9928436279296875,0.0048370361328125
1757088633042656800,6.72665673828125,0.1243743896484375,0.9899749755859375,0.0029296875
1757088633052611600,6.736611572265625,0.124725341796875,0.987274169921875,0.00506591796875
1757088633062565600,6.746565673828125,0.1217041015625,0.9867095947265625,0.00445556640625
1757088633072520400,6.7565205078125,0.1215972900390625,0.9861297607421875,0.00445556640625
1757088633082474500,6.766474609375,0.1186065673828125,0.9889984130859375,0.007415771484375
1757088633092429600,6.7764296875,0.1185150146484375,0.9929351806640625,0.007781982421875
1757088633102383600,6.786383544921875,0.11956787109375,0.998870849609375,0.0102081298828125
1757088633112338400,6.79633837890625,0.1201629638671875,1.0041961669921875,0.012298583984375
1757088633122292500,6.80629248046875,0.1194305419921875,1.009613037109375,0.0132598876953125
1757088633132247800,6.816247802734375,0.11968994140625,1.0099639892578125,0.0148468017578125
1757088633142201600,6.82620166015625,0.121002197265625,1.0064239501953125,0.01580810546875
1757088633152156700,6.83615673828125,0.12139892578125,1.000152587890625,0.020782470703125
1757088633162110500,6.8461103515625,0.1229248046875,0.9932098388671875,0.026580810546875
1757088633172065500,6.8560654296875,0.1256256103515625,0.9888458251953125,0.030487060546875
1757088633182019600,6.86601953125,0.1216278076171875,0.983795166015625,0.02911376953125
1757088633191974700,6.875974609375,0.120849609375,0.9804229736328125,0.02252197265625
1757088633201929500,6.885929443359375,0.1198272705078125,0.9822540283203125,0.0220794677734375
1757088633211883500,6.895883544921875,0.12274169921875,0.9835357666015625,0.021240234375
1757088633221838600,6.905838623046875,0.125335693359375,0.9872283935546875,0.0162506103515625
1757088633231792600,6.915792724609375,0.127838134765625,0.992401123046875,0.0128936767578125
1757088633241747700,6.925747802734375,0.1279754638671875,0.9933929443359375,0.0149383544921875
1757088633251701500,6.935701416015625,0.13104248046875,0.9938507080078125,0.0203094482421875
1757088633261656600,6.945656494140625,0.1322784423828125,0.9950103759765625,0.0260772705078125
1757088633271610600,6.955610595703125,0.1361083984375,0.995819091796875,0.030242919921875
1757088633281565700,6.965565673828125,0.1357269287109375,0.99517822265625,0.03167724609375
1757088633291519700,6.975519775390625,0.134185791015625,0.9933013916015625,0.03436279296875
1757088633301474600,6.985474609375,0.1344757080078125,0.9916229248046875,0.0353546142578125
1757088633311428600,6.9954287109375,0.1310272216796875,0.9872283935546875,0.033966064453125
1757088633321383400,7.005383544921875,0.1302032470703125,0.985870361328125,0.034332275390625
1757088633331338800,7.0153388671875,0.1357879638671875,0.9841461181640625,0.0387420654296875
1757088633341292500,7.02529248046875,0.1385955810546875,0.9866180419921875,0.0425262451171875
1757088633351247600,7.03524755859375,0.139404296875,0.9878082275390625,0.045440673828125
1757088633361201400,7.045201416015625,0.139984130859375,0.9881744384765625,0.0435791015625
1757088633371156700,7.05515673828125,0.1382293701171875,0.991363525390625,0.0435791015625
1757088633381110800,7.06511083984375,0.1387939453125,0.9947509765625,0.0443267822265625
1757088633391065600,7.075065673828125,0.1358184814453125,0.9951934814453125,0.04071044921875
1757088633401019600,7.08501953125,0.1334991455078125,0.9954986572265625,0.037689208984375
1757088633410974500,7.094974365234375,0.130950927734375,0.9921875,0.0378570556640625
1757088633420928500,7.104928466796875,0.127777099609375,0.99383544921875,0.03814697265625
1757088633430883600,7.114883544921875,0.129608154296875,0.9917449951171875,0.03955078125
1757088633440837600,7.124837646484375,0.1297760009765625,0.9911041259765625,0.043365478515625
1757088633450792400,7.13479248046875,0.1340179443359375,0.989654541015625,0.0452117919921875
1757088633460747500,7.14474755859375,0.1343231201171875,0.9888763427734375,0.0442352294921875
1757088633470701600,7.15470166015625,0.1364593505859375,0.9892578125,0.04168701171875
1757088633480656600,7.16465673828125,0.132476806640625,0.9871063232421875,0.0376434326171875
1757088633490610700,7.174610595703125,0.13201904296875,0.987823486328125,0.031707763671875
1757088633500565500,7.1845654296875,0.132049560546875,0.988006591796875,0.0243377685546875
1757088633510519600,7.19451953125,0.1318359375,0.9892120361328125,0.0215911865234375
1757088633520474600,7.204474609375,0.1357574462890625,0.991943359375,0.01763916015625
1757088633530428700,7.2144287109375,0.1370086669921875,0.990264892578125,0.0156097412109375
1757088633540383500,7.224383544921875,0.139556884765625,0.99127197265625,0.0142822265625
1757088633550337500,7.234337646484375,0.139556884765625,0.9920501708984375,0.0127716064453125
1757088633560292600,7.244292724609375,0.1391448974609375,0.9927978515625,0.01153564453125
1757088633570246700,7.25424658203125,0.13592529296875,0.991973876953125,0.00872802734375
1757088633580201700,7.26420166015625,0.135833740234375,0.9891510009765625,0.009033203125
1757088633590155500,7.274155517578125,0.136077880859375,0.9903564453125,0.0059814453125
1757088633600110600,7.284110595703125,0.1363525390625,0.988555908203125,0.0056915283203125
1757088633610065700,7.294065673828125,0.1385345458984375,0.9866790771484375,0.0072784423828125
1757088633620019700,7.304019775390625,0.13824462890625,0.98846435546875,0.00836181640625
1757088633629974500,7.313974609375,0.1380767822265625,0.9881591796875,0.0088348388671875
1757088633639928600,7.323928466796875,0.13604736328125,0.9894561767578125,0.0078125
1757088633649883400,7.33388330078125,0.13702392578125,0.99139404296875,0.0105743408203125
1757088633659837400,7.34383740234375,0.1381072998046875,0.9942169189453125,0.0112152099609375
1757088633669792800,7.353792724609375,0.1370391845703125,0.992584228515625,0.010406494140625
1757088633679746600,7.36374658203125,0.1343994140625,0.99395751953125,0.0109100341796875
1757088633689701600,7.37370166015625,0.1332550048828125,0.9892578125,0.012725830078125
1757088633699655400,7.383655517578125,0.13140869140625,0.9860687255859375,0.0183563232421875
1757088633709610500,7.393610595703125,0.1299285888671875,0.98443603515625,0.020751953125
1757088633719564800,7.403564697265625,0.1300506591796875,0.98760986328125,0.022613525390625
1757088633729519600,7.41351953125,0.131439208984375,0.9955291748046875,0.0258636474609375
1757088633739473700,7.4234736328125,0.1320648193359375,1.0001068115234375,0.0284423828125
1757088633749428500,7.433428466796875,0.1255950927734375,1.0009002685546875,0.03216552734375
1757088633759383600,7.443383544921875,0.122650146484375,0.996612548828125,0.0339508056640625
1757088633769337600,7.453337646484375,0.1251068115234375,0.9903564453125,0.036163330078125
1757088633779292700,7.463292724609375,0.1301422119140625,0.98663330078125,0.0440521240234375
1757088633789246500,7.47324658203125,0.1317596435546875,0.98480224609375,0.0472869873046875
1757088633799201500,7.483201416015625,0.1278839111328125,0.982940673828125,0.049072265625
1757088633809155600,7.493155517578125,0.1259765625,0.9850616455078125,0.0512542724609375
1757088633819110700,7.503110595703125,0.1234283447265625,0.987030029296875,0.0499725341796875
1757088633829064700,7.513064697265625,0.121734619140625,0.9925384521484375,0.047576904296875
1757088633839019500,7.52301953125,0.1222686767578125,0.99359130859375,0.0428466796875
1757088633848973600,7.5329736328125,0.1219024658203125,0.9943084716796875,0.0363922119140625
1757088633858928600,7.5429287109375,0.122314453125,0.99346923828125,0.0330810546875
1757088633868882700,7.552882568359375,0.1256866455078125,0.9933319091796875,0.0286712646484375
1757088633878837500,7.56283740234375,0.1302490234375,0.9950408935546875,0.0243072509765625
1757088633888791600,7.57279150390625,0.1280517578125,0.9954681396484375,0.0185089111328125
1757088633898746400,7.582746337890625,0.12591552734375,0.995819091796875,0.018463134765625
1757088633908701700,7.59270166015625,0.124847412109375,0.994873046875,0.020111083984375
1757088633918655700,7.60265576171875,0.1244964599609375,0.9922332763671875,0.022247314453125
1757088633928610300,7.6126103515625,0.1241455078125,0.9893646240234375,0.024017333984375
1757088633938564400,7.622564453125,0.125,0.990570068359375,0.024749755859375
1757088633948519200,7.632519287109375,0.125946044921875,0.99261474609375,0.023406982421875
1757088633958473500,7.642473388671875,0.12823486328125,0.99481201171875,0.022216796875
1757088633968428300,7.65242822265625,0.1293487548828125,0.9940643310546875,0.022064208984375
1757088633978382300,7.66238232421875,0.1274566650390625,0.99334716796875,0.0197906494140625
1757088633988337200,7.672337158203125,0.12286376953125,0.992095947265625,0.020294189453125
1757088633998291200,7.682291259765625,0.122772216796875,0.9904937744140625,0.0223846435546875
1757088634008246500,7.69224658203125,0.12255859375,0.9917144775390625,0.02557373046875
1757088634018200300,7.702200439453125,0.1230316162109375,0.9927520751953125,0.0309906005859375
1757088634028155400,7.7121552734375,0.12408447265625,0.9948577880859375,0.0291290283203125
1757088634038109200,7.722109130859375,0.1249847412109375,0.9956817626953125,0.0277252197265625
1757088634048064300,7.732064208984375,0.1282806396484375,0.9954376220703125,0.0269012451171875
1757088634058019300,7.742019287109375,0.1273956298828125,0.993804931640625,0.0283660888671875
1757088634067973400,7.751973388671875,0.1277923583984375,0.9939117431640625,0.0260009765625
1757088634077928200,7.76192822265625,0.1279144287109375,0.9935302734375,0.0270233154296875
1757088634087882200,7.77188232421875,0.1249847412109375,0.9929962158203125,0.0287933349609375
1757088634097837600,7.781837646484375,0.1229248046875,0.993499755859375,0.02545166015625
1757088634107791400,7.791791259765625,0.12298583984375,0.9929656982421875,0.0261688232421875
1757088634117746400,7.801746337890625,0.1217193603515625,0.992523193359375,0.02655029296875
1757088634127700200,7.8117001953125,0.12310791015625,0.99249267578125,0.0259552001953125
1757088634137655300,7.8216552734375,0.1245269775390625,0.9933929443359375,0.0225982666015625
1757088634147609300,7.831609375,0.12384033203125,0.9924163818359375,0.021087646484375
1757088634157564400,7.841564453125,0.1237945556640625,0.99359130859375,0.0205230712890625
1757088634167518500,7.8515185546875,0.1246185302734375,0.99456787109375,0.0210113525390625
1757088634177473300,7.861473388671875,0.1251373291015625,0.9934234619140625,0.0225677490234375
1757088634187427300,7.87142724609375,0.12298583984375,0.99346923828125,0.0235137939453125
1757088634197382100,7.881382080078125,0.1234893798828125,0.9927520751953125,0.02410888671875
1757088634207337500,7.89133740234375,0.1241912841796875,0.992950439453125,0.02398681640625
1757088634217291300,7.901291259765625,0.124847412109375,0.9910736083984375,0.026214599609375
1757088634227246300,7.911246337890625,0.1266326904296875,0.99285888671875,0.0279083251953125
1757088634237200400,7.921200439453125,0.12841796875,0.9914703369140625,0.031280517578125
1757088634247155500,7.931155517578125,0.131011962890625,0.992462158203125,0.0328369140625
1757088634257109500,7.941109619140625,0.131622314453125,0.9915008544921875,0.0338592529296875
1757088634267064300,7.951064208984375,0.130340576171875,0.989044189453125,0.0309906005859375
1757088634277018400,7.961018310546875,0.1307525634765625,0.9899444580078125,0.0286102294921875
1757088634286973200,7.97097314453125,0.1313018798828125,0.9900360107421875,0.0262908935546875
1757088634296927200,7.98092724609375,0.1318206787109375,0.991424560546875,0.0233154296875
1757088634306882300,7.99088232421875,0.1310272216796875,0.990814208984375,0.0238800048828125
1757088634316836400,8.00083642578125,0.131103515625,0.991455078125,0.0262451171875
1757088634326791200,8.010791259765625,0.13104248046875,0.99151611328125,0.02777099609375
1757088634336745200,8.0207451171875,0.1313629150390625,0.9899139404296875,0.0302886962890625
1757088634346700500,8.030700439453126,0.1338653564453125,0.9897918701171875,0.0305633544921875
1757088634356654300,8.040654296875,0.1330718994140625,0.98944091796875,0.029296875
1757088634366609400,8.050609375,0.1302337646484375,0.990753173828125,0.0297698974609375
1757088634376564200,8.060564208984376,0.13232421875,0.9912872314453125,0.0308837890625
1757088634386518300,8.070518310546875,0.131744384765625,0.9908599853515625,0.0339508056640625
1757088634396473300,8.080473388671875,0.129486083984375,0.990570068359375,0.03350830078125
1757088634406427400,8.090427490234376,0.1292572021484375,0.989349365234375,0.034515380859375
1757088634416382200,8.10038232421875,0.1287841796875,0.9902801513671875,0.035888671875
1757088634426336300,8.110336181640625,0.131988525390625,0.9871368408203125,0.0334625244140625
1757088634436291300,8.120291259765626,0.1337738037109375,0.98876953125,0.0318756103515625
1757088634446245400,8.130245361328125,0.13629150390625,0.99139404296875,0.0292205810546875
1757088634456200400,8.140200439453125,0.1398773193359375,0.9927825927734375,0.0299835205078125
1757088634466154200,8.150154296875,0.139129638671875,0.9930419921875,0.02783203125
1757088634476109300,8.160109375,0.135009765625,0.99169921875,0.0264434814453125
1757088634486063400,8.1700634765625,0.1332855224609375,0.9886474609375,0.025726318359375
1757088634496018400,8.180018310546876,0.1318206787109375,0.9835205078125,0.025970458984375
1757088634505972500,8.189972412109375,0.132781982421875,0.981781005859375,0.0265350341796875
1757088634515927300,8.19992724609375,0.133575439453125,0.9865875244140625,0.0266265869140625
1757088634525881300,8.20988134765625,0.1283721923828125,0.9924163818359375,0.027130126953125
1757088634535836200,8.219836181640625,0.127716064453125,0.995269775390625,0.0240478515625
1757088634545791500,8.22979150390625,0.1280670166015625,0.99542236328125,0.02606201171875
1757088634555745300,8.239745361328126,0.126220703125,0.9926300048828125,0.0311737060546875
1757088634565700400,8.249700439453125,0.1246185302734375,0.9904632568359375,0.0341949462890625
1757088634575654100,8.259654052734374,0.127685546875,0.9894256591796875,0.036468505859375
1757088634585609500,8.269609375,0.128265380859375,0.99090576171875,0.0394287109375
1757088634595563500,8.2795634765625,0.125762939453125,0.98956298828125,0.039093017578125
1757088634605518300,8.289518310546875,0.12762451171875,0.989501953125,0.0399169921875
1757088634615472400,8.299472412109376,0.125579833984375,0.99017333984375,0.034393310546875
1757088634625427200,8.30942724609375,0.1273345947265625,0.9910430908203125,0.0321197509765625
1757088634635381200,8.31938134765625,0.1265869140625,0.992767333984375,0.0299224853515625
1757088634645336300,8.32933642578125,0.1277008056640625,0.990753173828125,0.0264129638671875
1757088634655290400,8.339290283203125,0.1264495849609375,0.9914703369140625,0.024261474609375
1757088634665245200,8.3492451171875,0.1262664794921875,0.9931488037109375,0.0242156982421875
1757088634675199200,8.35919921875,0.128631591796875,0.993408203125,0.023956298828125
1757088634685154600,8.369154541015625,0.129669189453125,0.9932098388671875,0.025238037109375
1757088634695109400,8.379109375,0.1325836181640625,0.99224853515625,0.0244293212890625
1757088634705063400,8.3890634765625,0.132415771484375,0.9916839599609375,0.024658203125
1757088634715018200,8.399018310546875,0.132476806640625,0.991668701171875,0.024139404296875
1757088634724972300,8.40897216796875,0.134307861328125,0.9904327392578125,0.0224761962890625
1757088634734927400,8.41892724609375,0.13250732421875,0.99066162109375,0.02294921875
1757088634744881400,8.42888134765625,0.131500244140625,0.9884796142578125,0.0248565673828125
1757088634754836200,8.438836181640625,0.1324310302734375,0.98828125,0.0257720947265625
1757088634764790300,8.448790283203126,0.131256103515625,0.9863128662109375,0.0251312255859375
1757088634774745300,8.458745361328125,0.1304473876953125,0.9853515625,0.024017333984375
1757088634784699400,8.468699462890624,0.1269378662109375,0.98748779296875,0.026123046875
1757088634794654500,8.478654541015626,0.1264190673828125,0.9863433837890625,0.0295867919921875
1757088634804608300,8.488608154296875,0.1290283203125,0.986907958984375,0.0280914306640625
1757088634814563300,8.498563232421875,0.12677001953125,0.9889984130859375,0.0225372314453125
1757088634824517400,8.508517333984376,0.1242218017578125,0.984649658203125,0.02239990234375
1757088634834472400,8.518472412109375,0.1328277587890625,0.981689453125,0.0349884033203125
1757088634844426500,8.528426513671874,0.14471435546875,0.97833251953125,0.0406494140625
1757088634854381300,8.53838134765625,0.1395263671875,0.96844482421875,0.0206451416015625
1757088634864335400,8.54833544921875,0.1259765625,0.9666900634765625,-0.00494384765625
1757088634874290200,8.558290283203124,0.125518798828125,0.975067138671875,-0.0077056884765625
1757088634884245500,8.56824560546875,0.129730224609375,0.983245849609375,-0.003936767578125
1757088634894199300,8.57819921875,0.1345672607421875,0.9897003173828125,-0.000396728515625
1757088634904154400,8.588154296875,0.13665771484375,0.992889404296875,0.00067138671875
1757088634914108200,8.598108154296876,0.130889892578125,0.9953155517578125,0.008026123046875
1757088634924062700,8.608062744140625,0.120025634765625,0.9982147216796875,0.015533447265625
1757088634934016800,8.618016845703124,0.105804443359375,1.000946044921875,0.0202789306640625
1757088634943971600,8.6279716796875,0.1036834716796875,1.005859375,0.0233154296875
1757088634953925600,8.637925537109375,0.1051483154296875,1.00836181640625,0.029876708984375
1757088634963880700,8.647880615234374,0.1000518798828125,1.0013275146484375,0.0333099365234375
1757088634973834800,8.657834716796875,0.1070709228515625,1.0054779052734375,0.0357818603515625
1757088634983789600,8.66778955078125,0.087127685546875,0.993865966796875,0.0184478759765625
1757088634993743600,8.67774365234375,0.0771026611328125,0.99365234375,0.0345306396484375
1757088635003698700,8.68769873046875,0.091522216796875,0.9939117431640625,0.0455780029296875
1757088635013652700,8.69765283203125,0.0899505615234375,0.99261474609375,0.042510986328125
1757088635023607800,8.70760791015625,0.0975494384765625,0.995330810546875,0.0388946533203125
1757088635033561600,8.7175615234375,0.105743408203125,0.99468994140625,0.03521728515625
1757088635043516700,8.7275166015625,0.11676025390625,0.9963531494140625,0.0347900390625
1757088635053471700,8.7374716796875,0.1229705810546875,0.998931884765625,0.01971435546875
1757088635063425800,8.74742578125,0.12548828125,1.0001068115234375,0.0078277587890625
1757088635073380600,8.757380615234375,0.1299896240234375,1.0027313232421875,-0.0012054443359375
1757088635083334700,8.767334716796874,0.132904052734375,1.004913330078125,-0.0069122314453125
1757088635093289700,8.777289794921876,0.1390838623046875,1.0116119384765625,-0.0131072998046875
1757088635103243500,8.787243408203125,0.1490631103515625,1.01483154296875,-0.0200653076171875
1757088635113198800,8.79719873046875,0.16595458984375,1.0267486572265625,-0.028289794921875
1757088635123152600,8.807152587890625,0.1636810302734375,1.0268707275390625,-0.0557403564453125
1757088635133107700,8.817107666015625,0.157623291015625,1.02618408203125,-0.06085205078125
1757088635143061800,8.827061767578124,0.1645050048828125,1.0251312255859375,-0.05780029296875
1757088635153016800,8.837016845703126,0.167510986328125,1.0196533203125,-0.0601043701171875
1757088635162971000,8.846970947265625,0.178924560546875,1.0115203857421875,-0.0618896484375
1757088635172925700,8.85692578125,0.195068359375,0.9952239990234375,-0.0701446533203125
1757088635182879700,8.866879638671875,0.218780517578125,0.98193359375,-0.073150634765625
1757088635192834600,8.87683447265625,0.2506866455078125,0.96649169921875,-0.0807952880859375
1757088635202788600,8.88678857421875,0.270782470703125,0.9512786865234375,-0.1011962890625
1757088635212743700,8.89674365234375,0.2704620361328125,0.9417877197265625,-0.12933349609375
1757088635222698800,8.90669873046875,0.255401611328125,0.9464111328125,-0.1605377197265625
1757088635232652500,8.916652587890624,0.2521820068359375,0.983734130859375,-0.1749420166015625
1757088635242607600,8.926607666015625,0.272674560546875,1.0008087158203125,-0.1655426025390625
1757088635252562000,8.93656201171875,0.33697509765625,0.9906768798828125,-0.113983154296875
1757088635262516700,8.946516845703124,0.4301300048828125,0.9972381591796875,-0.0383148193359375
1757088635272470800,8.956470703125,0.5164794921875,1.017425537109375,0.027923583984375
1757088635282425600,8.966425537109375,0.50555419921875,1.057403564453125,0.099273681640625
1757088635292379600,8.976379638671874,0.3835296630859375,1.089447021484375,0.1427154541015625
1757088635302334700,8.986334716796875,0.2772674560546875,1.1190643310546875,0.14617919921875
1757088635312288800,8.996288818359375,0.263916015625,1.137908935546875,0.1006011962890625
1757088635322243600,9.00624365234375,0.305084228515625,1.1400299072265625,-0.001007080078125
1757088635332197600,9.01619775390625,0.3260345458984375,1.117919921875,-0.08892822265625
1757088635342152700,9.026152587890625,0.3327484130859375,1.0596923828125,-0.1426239013671875
1757088635352106800,9.036106689453124,0.428436279296875,1.02752685546875,-0.14471435546875
1757088635362061800,9.046061767578125,0.49896240234375,1.017486572265625,-0.14642333984375
1757088635372015600,9.056015625,0.4804840087890625,0.9997100830078125,-0.1267852783203125
1757088635381970700,9.065970703125,0.44482421875,0.9828033447265625,-0.1132354736328125
1757088635391924700,9.0759248046875,0.3905181884765625,0.921600341796875,-0.105712890625
1757088635401879800,9.0858798828125,0.3524322509765625,0.7928619384765625,-0.10296630859375
1757088635411834600,9.095834716796874,0.3524169921875,0.7331695556640625,-0.0765380859375
1757088635421788700,9.10578857421875,0.37286376953125,0.748504638671875,-0.0375213623046875
1757088635431743700,9.11574365234375,0.406219482421875,0.7633514404296875,-0.044403076171875
1757088635441697500,9.125697509765626,0.4299774169921875,0.7702789306640625,-0.0570526123046875
1757088635451652900,9.13565283203125,0.419952392578125,0.7862091064453125,-0.07037353515625
1757088635461606700,9.145606689453125,0.41448974609375,0.7812957763671875,-0.083709716796875
1757088635471561700,9.155561767578124,0.4207763671875,0.75830078125,-0.0767822265625
1757088635481515500,9.165515625,0.4133453369140625,0.7350311279296875,-0.0444183349609375
1757088635491470800,9.175470947265625,0.418609619140625,0.7283172607421875,-0.0358123779296875
1757088635501425000,9.1854248046875,0.4083404541015625,0.734130859375,-0.02691650390625
1757088635511379700,9.195379638671875,0.4029998779296875,0.7458648681640625,-0.04315185546875
1757088635521333800,9.205333740234375,0.408355712890625,0.760986328125,-0.0414581298828125
1757088635531288600,9.21528857421875,0.428680419921875,0.7846832275390625,-0.0432281494140625
1757088635541242600,9.22524267578125,0.436767578125,0.765289306640625,-0.040130615234375
1757088635551197700,9.23519775390625,0.4375,0.7748565673828125,-0.0352783203125
1757088635561151700,9.24515185546875,0.4634857177734375,0.77166748046875,-0.0175628662109375
1757088635571106600,9.2551064453125,0.474945068359375,0.76702880859375,-0.00445556640625
1757088635581061600,9.2650615234375,0.48345947265625,0.771636962890625,-0.00335693359375
1757088635591016000,9.275015869140624,0.5025634765625,0.7771148681640625,-0.0137939453125
1757088635600970800,9.284970703125,0.51513671875,0.782928466796875,-0.0277862548828125
1757088635610924800,9.2949248046875,0.513336181640625,0.7969512939453125,-0.0390472412109375
1757088635620879600,9.304879638671874,0.5113067626953125,0.8065948486328125,-0.05584716796875
1757088635630833700,9.314833740234375,0.512451171875,0.8104705810546875,-0.0759735107421875
1757088635640788700,9.324788818359375,0.52197265625,0.79132080078125,-0.0966796875
1757088635650742800,9.33474267578125,0.5351104736328125,0.7897491455078125,-0.1159210205078125
1757088635660697600,9.344697509765625,0.5466156005859375,0.80303955078125,-0.12786865234375
1757088635670651600,9.354651611328125,0.55804443359375,0.8138885498046875,-0.1131134033203125
1757088635680606700,9.364606689453124,0.56622314453125,0.8187103271484375,-0.094512939453125
1757088635690560800,9.374560791015625,0.59686279296875,0.8204498291015625,-0.0883331298828125
1757088635700515800,9.384515869140625,0.61669921875,0.8410491943359375,-0.08148193359375
1757088635710469600,9.3944697265625,0.618621826171875,0.8496246337890625,-0.085968017578125
1757088635720424700,9.4044248046875,0.6230010986328125,0.8500518798828125,-0.0834503173828125
1757088635730378800,9.414378662109375,0.620208740234375,0.8538360595703125,-0.0848236083984375
1757088635740333800,9.424333740234376,0.6107025146484375,0.85009765625,-0.08880615234375
1757088635750288000,9.434287841796875,0.5980987548828125,0.8421173095703125,-0.0895233154296875
1757088635760242700,9.44424267578125,0.5906524658203125,0.8298797607421875,-0.0924224853515625
1757088635770197500,9.454197509765624,0.5919952392578125,0.813323974609375,-0.0962677001953125
1757088635780151600,9.464151611328125,0.5921478271484375,0.79107666015625,-0.103912353515625
1757088635790107000,9.47410693359375,0.5893096923828125,0.767364501953125,-0.110687255859375
1757088635800060700,9.484060791015626,0.5843505859375,0.751556396484375,-0.1176910400390625
1757088635810015700,9.494015625,0.5907440185546875,0.7438507080078125,-0.1018524169921875
1757088635819969500,9.503969482421875,0.5780792236328125,0.7823638916015625,-0.0177459716796875
1757088635829924900,9.5139248046875,0.510467529296875,0.8878021240234375,0.096588134765625
1757088635839879000,9.52387890625,0.4718780517578125,1.0322723388671875,0.1487579345703125
1757088635849833700,9.533833740234375,0.511260986328125,1.1898345947265625,0.1547088623046875
1757088635859787800,9.543787841796876,0.546478271484375,1.2570343017578125,0.168670654296875
1757088635869742600,9.55374267578125,0.501129150390625,1.2664947509765625,0.24725341796875
1757088635879696600,9.563696533203125,0.4592742919921875,1.298370361328125,0.330108642578125
1757088635889651700,9.573651611328126,0.496826171875,1.3198089599609375,0.3439483642578125
1757088635899605800,9.583605712890625,0.574310302734375,1.3242950439453125,0.3061981201171875
1757088635909560600,9.593560546875,0.6027984619140625,1.3175811767578125,0.2107391357421875
1757088635919514600,9.6035146484375,0.5465240478515625,1.23077392578125,0.03875732421875
1757088635929474600,9.613474609375,0.4161529541015625,1.093536376953125,-0.07318115234375
1757088635939428600,9.6234287109375,0.298004150390625,0.952880859375,-0.0612945556640625
1757088635949383400,9.633383544921875,0.2345733642578125,0.80743408203125,-0.000579833984375
1757088635959338800,9.6433388671875,0.2045745849609375,0.692352294921875,0.0722198486328125
1757088635969292500,9.65329248046875,0.1696624755859375,0.61370849609375,0.1006011962890625
1757088635979247600,9.66324755859375,0.109130859375,0.5547637939453125,0.044189453125
1757088635989201700,9.67320166015625,0.0379486083984375,0.5306396484375,-0.050384521484375
1757088635999156500,9.683156494140626,-0.0421142578125,0.589447021484375,-0.1381378173828125
1757088636009110800,9.69311083984375,-0.092010498046875,0.7451629638671875,-0.1925048828125
1757088636019065600,9.703065673828124,-0.100555419921875,0.956390380859375,-0.206146240234375
1757088636029019600,9.71301953125,-0.0679779052734375,1.1238555908203125,-0.20318603515625
1757088636038974500,9.722974365234375,-0.004730224609375,1.2351531982421875,-0.2073974609375
1757088636048928500,9.732928466796874,0.084808349609375,1.2931365966796875,-0.1805267333984375
1757088636058883600,9.742883544921876,0.1895599365234375,1.26373291015625,-0.132659912109375
1757088636068837600,9.752837646484375,0.281982421875,1.15460205078125,-0.0460662841796875
1757088636078792400,9.76279248046875,0.322296142578125,0.999908447265625,0.0540924072265625
1757088636088746500,9.77274658203125,0.2960205078125,0.875701904296875,0.157470703125
1757088636098701600,9.78270166015625,0.241668701171875,0.80657958984375,0.23419189453125
1757088636108655600,9.792655517578124,0.180328369140625,0.7772674560546875,0.264251708984375
1757088636118610700,9.802610595703126,0.126220703125,0.800994873046875,0.24517822265625
1757088636128565500,9.8125654296875,0.0932159423828125,0.864532470703125,0.1919708251953125
1757088636138519600,9.82251953125,0.060333251953125,0.9339599609375,0.1154632568359375
1757088636148474600,9.832474609375,0.04107666015625,0.9850006103515625,0.028961181640625
1757088636158428700,9.8424287109375,0.029571533203125,1.000457763671875,-0.0607147216796875
1757088636168383500,9.852383544921874,0.00518798828125,1.0283966064453125,-0.0789947509765625
1757088636178337500,9.862337646484375,0.0313720703125,1.02288818359375,-0.101654052734375
1757088636188292600,9.872292724609375,0.045135498046875,0.9715728759765625,-0.1146087646484375
1757088636198246400,9.882246337890624,0.0599822998046875,0.894195556640625,-0.1075592041015625
1757088636208201700,9.89220166015625,0.107391357421875,0.822265625,-0.0792083740234375
1757088636218155500,9.902155517578125,0.1311492919921875,0.80517578125,-0.071441650390625
1757088636228110600,9.912110595703124,0.1524200439453125,0.867156982421875,-0.06854248046875
1757088636238064600,9.922064697265625,0.1837310791015625,0.965484619140625,-0.0362396240234375
1757088636248019700,9.932019775390625,0.1972808837890625,1.0139617919921875,-0.0155792236328125
1757088636257973800,9.941973876953124,0.1981353759765625,1.016632080078125,-0.0263824462890625
1757088636267928600,9.951928466796875,0.181243896484375,1.0117950439453125,-0.02935791015625
1757088636277882600,9.961882568359375,0.147216796875,0.9771728515625,-0.0264892578125
1757088636287837400,9.97183740234375,0.1165924072265625,0.926116943359375,-0.0120391845703125
1757088636297791500,9.98179150390625,0.08203125,0.8832855224609375,0.0308685302734375
1757088636307746600,9.99174658203125,0.0610504150390625,0.8557281494140625,0.0551605224609375
1757088636317701600,10.00170166015625,0.054412841796875,0.86297607421875,0.0564422607421875
1757088636327655700,10.01165576171875,0.064788818359375,0.89129638671875,0.0420684814453125
1757088636337610500,10.021610595703125,0.0820159912109375,0.9108123779296875,0.01202392578125
1757088636347564800,10.031564697265624,0.0926971435546875,0.9234619140625,-0.00408935546875
1757088636357519600,10.04151953125,0.0835418701171875,0.9364166259765625,-0.0068511962890625
1757088636367473700,10.0514736328125,0.0565185546875,0.949859619140625,0.0163421630859375
1757088636377428500,10.061428466796874,0.0235137939453125,0.9687042236328125,0.0220489501953125
1757088636387382500,10.071382568359375,0.0201416015625,0.9949951171875,0.037139892578125
1757088636397337600,10.081337646484375,0.02923583984375,1.026611328125,0.057037353515625
1757088636407291600,10.091291748046874,0.0366058349609375,1.04443359375,0.0728607177734375
1757088636417246500,10.10124658203125,0.03985595703125,1.05029296875,0.084930419921875
1757088636427200500,10.111200439453125,0.0220794677734375,1.0530548095703125,0.07421875
1757088636437155600,10.121155517578124,-0.03216552734375,1.0478973388671875,0.0382537841796875
1757088636447109400,10.131109375,-0.06744384765625,1.05499267578125,-0.0204620361328125
1757088636457064700,10.141064697265625,-0.0684661865234375,1.0697021484375,-0.081085205078125
1757088636467018500,10.1510185546875,-0.0364837646484375,1.1053466796875,-0.1173248291015625
1757088636476973600,10.1609736328125,-0.002471923828125,1.1420135498046875,-0.13360595703125
1757088636486927600,10.170927734375,0.0270233154296875,1.1552886962890625,-0.1282196044921875
1757088636496882700,10.180882568359374,0.0682830810546875,1.1567535400390625,-0.1026763916015625
1757088636506836700,10.190836669921875,0.1109771728515625,1.150299072265625,-0.0709381103515625
1757088636516791600,10.20079150390625,0.1240692138671875,1.1515350341796875,-0.0393829345703125
1757088636526746600,10.21074658203125,0.1387786865234375,1.195953369140625,-0.0117645263671875
1757088636536700400,10.220700439453125,0.181427001953125,1.2578582763671875,-0.0054168701171875
1757088636546655700,10.23065576171875,0.2016143798828125,1.2903594970703125,-0.035888671875
1757088636556609500,10.240609619140624,0.1814422607421875,1.2825469970703125,-0.07696533203125
1757088636566564600,10.250564697265625,0.1683349609375,1.2828216552734375,-0.0958709716796875
1757088636576518700,10.2605185546875,0.174407958984375,1.2872314453125,-0.1007232666015625
1757088636586473500,10.270473388671874,0.18292236328125,1.2681121826171875,-0.084716796875
1757088636596427800,10.280427734375,0.1948394775390625,1.214324951171875,-0.05157470703125
1757088636606382600,10.290382568359375,0.1758880615234375,1.117645263671875,-0.0015411376953125
1757088636616336600,10.300336669921874,0.146514892578125,1.0333251953125,0.0551605224609375
1757088636626291500,10.31029150390625,0.1219635009765625,0.994781494140625,0.078369140625
1757088636636245500,10.32024560546875,0.0952301025390625,0.9508056640625,0.12451171875
1757088636646200600,10.33020068359375,0.112213134765625,0.9188079833984375,0.1619873046875
1757088636656154600,10.340154541015625,0.1446533203125,0.9386444091796875,0.2018280029296875
1757088636666109400,10.350109375,0.1685791015625,1.036407470703125,0.2848663330078125
1757088636676063500,10.3600634765625,0.1655120849609375,1.1119384765625,0.42156982421875
1757088636686018600,10.3700185546875,0.1007232666015625,1.15594482421875,0.5254974365234375
1757088636695973600,10.3799736328125,0.0903167724609375,1.172271728515625,0.4828338623046875
1757088636705927700,10.389927734375,0.1634368896484375,1.16644287109375,0.3667449951171875
1757088636715882500,10.399882568359375,0.1966552734375,1.18634033203125,0.2845306396484375
1757088636725836500,10.40983642578125,0.183349609375,1.21630859375,0.2586517333984375
1757088636735791600,10.41979150390625,0.1985626220703125,1.25933837890625,0.26556396484375
1757088636745745700,10.42974560546875,0.246002197265625,1.309783935546875,0.1610565185546875
1757088636755700500,10.439700439453125,0.2624664306640625,1.353424072265625,-0.0171661376953125
1757088636765654500,10.449654541015626,0.2404632568359375,1.3214111328125,-0.16387939453125
1757088636775609600,10.459609619140625,0.2154083251953125,1.3029937744140625,-0.304840087890625
1757088636785563400,10.4695634765625,0.2984161376953125,1.25897216796875,-0.1822357177734375
1757088636795518700,10.479518798828124,0.3344879150390625,1.1412200927734375,-0.0091705322265625
1757088636805472500,10.489472412109375,0.3052215576171875,0.9762725830078125,0.01727294921875
1757088636815427600,10.499427490234375,0.2237701416015625,0.8757171630859375,0.035614013671875
1757088636825381600,10.509381591796876,0.1417999267578125,0.8341217041015625,0.06011962890625
1757088636835336700,10.519336669921875,0.0907440185546875,0.787139892578125,0.0977325439453125
1757088636845290800,10.529290771484375,0.096466064453125,0.7545166015625,0.132049560546875
1757088636855245600,10.53924560546875,0.091400146484375,0.7526397705078125,0.1443634033203125
1757088636865199600,10.54919970703125,0.078765869140625,0.7426910400390625,0.1803131103515625
1757088636875154400,10.559154541015625,0.0888671875,0.7325897216796875,0.207550048828125
1757088636885108500,10.5691083984375,0.0930328369140625,0.6949615478515625,0.2224273681640625
1757088636895063600,10.5790634765625,0.0872039794921875,0.62567138671875,0.2506256103515625
1757088636905018600,10.5890185546875,0.1029510498046875,0.562225341796875,0.2835845947265625
1757088636914972400,10.598972412109376,0.123931884765625,0.5192413330078125,0.27008056640625
1757088636924923400,10.60892333984375,0.164886474609375,0.452056884765625,0.279327392578125
1757088636934877400,10.61887744140625,0.169830322265625,0.407318115234375,0.2266082763671875
1757088636944832300,10.628832275390625,0.1435546875,0.4362640380859375,0.1830596923828125
1757088636954786300,10.638786376953124,0.1643829345703125,0.4728851318359375,0.194610595703125
1757088636964741400,10.648741455078126,0.1803131103515625,0.493194580078125,0.169708251953125
1757088636974695400,10.6586953125,0.1925048828125,0.4972991943359375,0.177276611328125
1757088636984650500,10.668650390625,0.20037841796875,0.5072784423828125,0.169097900390625
1757088636994604300,10.678604248046875,0.214599609375,0.5128173828125,0.1461334228515625
1757088637004559400,10.688559326171875,0.2318267822265625,0.51983642578125,0.128662109375
1757088637014513200,10.69851318359375,0.2630767822265625,0.5372772216796875,0.1190948486328125
1757088637024468500,10.708468505859376,0.2987213134765625,0.5667266845703125,0.11566162109375
1757088637034422300,10.71842236328125,0.348541259765625,0.6220703125,0.1186065673828125
1757088637044377300,10.72837744140625,0.4156646728515625,0.7141265869140625,0.1222076416015625
1757088637054331400,10.738331298828125,0.501861572265625,0.8254547119140625,0.087127685546875
1757088637064286500,10.748286376953125,0.5775299072265625,0.9404754638671875,0.0496063232421875
1757088637074240500,10.758240478515624,0.638763427734375,1.0653839111328125,0.0298309326171875
1757088637084195300,10.7681953125,0.7318267822265625,1.1746673583984375,-0.0230865478515625
1757088637094149400,10.7781494140625,0.834869384765625,1.2971343994140625,-0.063079833984375
1757088637104104200,10.788104248046874,0.9345550537109375,1.492462158203125,-0.0871124267578125
1757088637114058200,10.798058349609375,0.9811553955078125,1.7013092041015625,-0.1801605224609375
1757088637124013300,10.808013427734375,0.93548583984375,1.7515716552734375,-0.2876434326171875
1757088637133968400,10.817968505859374,0.862945556640625,1.5841522216796875,-0.2947235107421875
1757088637143922400,10.82792236328125,0.82257080078125,1.4029541015625,-0.176177978515625
1757088637153877200,10.837877197265625,0.8004302978515625,1.197479248046875,-0.1074066162109375
1757088637163831600,10.84783154296875,0.7855224609375,0.9069061279296875,-0.060211181640625
1757088637173786400,10.857786376953126,0.7645416259765625,0.7425537109375,-0.028167724609375
1757088637183740400,10.867740478515625,0.6070556640625,0.7310028076171875,0.0119171142578125
1757088637193695200,10.8776953125,0.40240478515625,0.817291259765625,-0.0047607421875
1757088637203649300,10.887649169921875,0.4013671875,0.89794921875,0.01947021484375
1757088637213604400,10.897604248046875,0.4068756103515625,0.9358673095703125,0.0836029052734375
1757088637223558400,10.907558349609374,0.321380615234375,0.98883056640625,0.0669403076171875
1757088637233513500,10.917513427734375,0.15399169921875,1.03924560546875,0.0924224853515625
1757088637243467300,10.92746728515625,-0.0411376953125,1.0639801025390625,0.169830322265625
1757088637253422300,10.93742236328125,-0.136016845703125,1.0745849609375,0.370452880859375
1757088637263376400,10.94737646484375,-0.068572998046875,1.1243438720703125,0.62432861328125
1757088637273331500,10.95733154296875,0.0966033935546875,1.2696380615234375,0.750274658203125
1757088637283285500,10.967285400390624,0.2861480712890625,1.4250335693359375,0.727935791015625
1757088637293240300,10.977240234375,0.4659423828125,1.392730712890625,0.61273193359375
1757088637303194400,10.9871943359375,0.5832977294921875,1.139923095703125,0.4167022705078125
1757088637313149400,10.9971494140625,0.557342529296875,0.88983154296875,0.27508544921875
1757088637323103500,11.007103515625,0.377655029296875,0.7564697265625,0.20611572265625
1757088637333058300,11.017058349609375,0.140350341796875,0.6810760498046875,0.09600830078125
1757088637343013400,11.027013427734374,-0.0731964111328125,0.6367034912109375,0.031005859375
1757088637352967200,11.03696728515625,-0.2780303955078125,0.6193084716796875,0.039459228515625
1757088637362922500,11.046922607421875,-0.4146270751953125,0.6224517822265625,0.0553436279296875
1757088637372876300,11.056876220703124,-0.41290283203125,0.6994171142578125,0.022735595703125
1757088637382831400,11.066831298828125,-0.372833251953125,0.84197998046875,-0.0259246826171875
1757088637392785400,11.076785400390625,-0.2609405517578125,0.9747314453125,-0.0705718994140625
1757088637402740500,11.086740478515624,-0.0931243896484375,1.104949951171875,-0.1263427734375
1757088637412694500,11.096694580078125,0.12530517578125,1.2147216796875,-0.1864471435546875
1757088637422649300,11.1066494140625,0.3946990966796875,1.2352294921875,-0.1865081787109375
1757088637432603400,11.116603271484376,0.59051513671875,1.150726318359375,-0.0607757568359375
1757088637442558200,11.12655810546875,0.5518035888671875,1.0043792724609375,0.074676513671875
1757088637452512300,11.13651220703125,0.3531646728515625,0.8848114013671875,0.1197509765625
1757088637462467300,11.14646728515625,0.187469482421875,0.829010009765625,0.112823486328125
1757088637472421400,11.15642138671875,0.0624237060546875,0.8283538818359375,0.09912109375
1757088637482376400,11.16637646484375,-0.04876708984375,0.8326263427734375,0.08953857421875
1757088637492330200,11.176330322265626,-0.1047821044921875,0.842559814453125,0.069427490234375
1757088637502285600,11.18628564453125,-0.1013031005859375,0.881011962890625,0.028656005859375
1757088637512239400,11.1962392578125,-0.0657958984375,0.928070068359375,0.0112762451171875
1757088637522194400,11.2061943359375,-0.02142333984375,0.9207000732421875,-0.006591796875
1757088637532148500,11.2161484375,0.0240478515625,0.9340057373046875,-0.0496368408203125
1757088637542103300,11.226103271484375,0.0706787109375,0.9419097900390625,-0.063323974609375
1757088637552058400,11.236058349609374,0.121795654296875,0.93499755859375,-0.06329345703125
1757088637562012400,11.246012451171875,0.1459197998046875,0.9399871826171875,-0.0157928466796875
1757088637571967500,11.255967529296875,0.1196136474609375,0.9438018798828125,0.010009765625
1757088637581921300,11.26592138671875,0.075836181640625,0.94586181640625,0.049530029296875
1757088637591876400,11.27587646484375,0.053802490234375,0.933990478515625,0.0838165283203125
1757088637601830400,11.285830322265625,0.042816162109375,0.9068450927734375,0.110504150390625
1757088637611785500,11.295785400390624,0.0471038818359375,0.8738555908203125,0.1263275146484375
1757088637621739300,11.3057392578125,0.0453948974609375,0.8456573486328125,0.134307861328125
1757088637631694300,11.3156943359375,0.0451507568359375,0.83160400390625,0.1353912353515625
1757088637641648400,11.3256484375,0.04962158203125,0.8353729248046875,0.136871337890625
1757088637651603500,11.335603515625,0.060699462890625,0.8396453857421875,0.1219024658203125
1757088637661557500,11.3455576171875,0.06475830078125,0.8498382568359375,0.0961151123046875
1757088637671512300,11.35551220703125,0.0667877197265625,0.8753204345703125,0.064453125
1757088637681466400,11.36546630859375,0.0632476806640625,0.9146575927734375,0.0417938232421875
1757088637691421200,11.375421142578125,0.061981201171875,0.9535369873046875,0.0439605712890625
1757088637701375500,11.38537548828125,0.0762786865234375,0.9884033203125,0.0639495849609375
1757088637711330300,11.395330322265625,0.087860107421875,1.01953125,0.085693359375
1757088637721284400,11.405284423828125,0.0926513671875,1.0500640869140625,0.0980377197265625
1757088637731239400,11.415239501953126,0.0739898681640625,1.0786895751953125,0.1031341552734375
1757088637741193200,11.425193115234375,0.047149658203125,1.1160125732421875,0.0948638916015625
1757088637751148500,11.4351484375,0.022796630859375,1.133056640625,0.0557098388671875
1757088637761102300,11.445102294921876,-0.0220794677734375,1.1183624267578125,0.0115966796875
1757088637771057400,11.455057373046875,-0.0502777099609375,1.0940093994140625,-0.0233001708984375
1757088637781012200,11.46501220703125,-0.03515625,1.0919647216796875,-0.0537109375
1757088637790966300,11.47496630859375,-0.017608642578125,1.1075592041015625,-0.0862884521484375
1757088637800921300,11.48492138671875,0.01715087890625,1.143951416015625,-0.101104736328125
1757088637810875400,11.49487548828125,0.0672760009765625,1.1796112060546875,-0.09173583984375
1757088637820830500,11.50483056640625,0.1259613037109375,1.212432861328125,-0.060150146484375
1757088637830784300,11.5147841796875,0.1678619384765625,1.259796142578125,-0.0074462890625
1757088637840739600,11.524739501953125,0.2147369384765625,1.332794189453125,0.040283203125
1757088637850693400,11.534693359375,0.214691162109375,1.3741912841796875,0.0619964599609375
1757088637860648400,11.5446484375,0.1605072021484375,1.3271026611328125,0.04425048828125
1757088637870602500,11.5546025390625,0.1530303955078125,1.3035430908203125,0.019439697265625
1757088637880557300,11.564557373046876,0.1512298583984375,1.308380126953125,0.046783447265625
1757088637890511400,11.574511474609375,0.1658172607421875,1.3022308349609375,0.0850372314453125
1757088637900466400,11.584466552734375,0.181243896484375,1.2312469482421875,0.0906982421875
1757088637910420500,11.59442041015625,0.17083740234375,1.1939239501953125,0.10260009765625
1757088637920375300,11.604375244140625,0.1411590576171875,1.1900787353515625,0.127593994140625
1757088637930329000,11.6143291015625,0.1295166015625,1.1796417236328125,0.1906280517578125
1757088637940284000,11.624283935546876,0.2098236083984375,1.252899169921875,0.2803192138671875
1757088637950238000,11.634238037109375,0.260040283203125,1.312744140625,0.386322021484375
1757088637960193300,11.644193359375,0.15155029296875,1.3167877197265625,0.4505767822265625
1757088637970148000,11.654148193359376,-0.0569305419921875,1.248199462890625,0.49737548828125
1757088637980102100,11.66410205078125,-0.1301727294921875,1.1719818115234375,0.5275726318359375
1757088637990057000,11.674056884765625,-0.036407470703125,1.1119384765625,0.5531463623046875
1757088638000011000,11.684010986328126,0.1197357177734375,1.074127197265625,0.5293121337890625
1757088638009966000,11.693966064453125,0.2579803466796875,1.0231170654296875,0.4888153076171875
1757088638019920100,11.703920166015624,0.2852020263671875,0.98309326171875,0.4806060791015625
1757088638029875000,11.713875,0.2594451904296875,1.0030975341796875,0.540130615234375
1757088638039829000,11.7238291015625,0.158599853515625,1.005096435546875,0.40234375
1757088638049784000,11.7337841796875,0.0748748779296875,0.9808502197265625,0.176177978515625
1757088638059738000,11.743738037109376,0.0426177978515625,0.9989166259765625,-0.066864013671875
1757088638069693200,11.753693115234375,0.066192626953125,1.0722503662109375,-0.1882171630859375
1757088638079647000,11.76364697265625,0.1148834228515625,1.1246490478515625,-0.077423095703125
1757088638089602000,11.77360205078125,0.206146240234375,1.0901031494140625,0.004730224609375
1757088638099556000,11.78355615234375,0.1908416748046875,1.0648651123046875,-0.0028533935546875
1757088638109511200,11.79351123046875,0.076904296875,1.0738067626953125,0.0201873779296875
1757088638119465200,11.80346533203125,0.0676116943359375,1.029571533203125,0.113006591796875
1757088638129420000,11.813419921875,0.05078125,0.937255859375,0.1680908203125
1757088638139374000,11.8233740234375,0.0186004638671875,0.8770599365234375,0.2241973876953125
1757088638149329200,11.8333291015625,-0.0097808837890625,0.8340301513671875,0.25079345703125
1757088638159284200,11.8432841796875,-0.01873779296875,0.7621612548828125,0.3224029541015625
1757088638169238000,11.853238037109374,-0.0214080810546875,0.6858367919921875,0.4030914306640625
1757088638179193000,11.863193115234376,0.032989501953125,0.5856781005859375,0.452728271484375
1757088638189147000,11.87314697265625,0.0834197998046875,0.51263427734375,0.4487152099609375
1757088638199102200,11.883102294921875,0.143402099609375,0.4785614013671875,0.408416748046875
1757088638209056300,11.89305615234375,0.2208709716796875,0.453582763671875,0.3278045654296875
1757088638219011000,11.903010986328125,0.254669189453125,0.444610595703125,0.2454986572265625
1757088638228965000,11.912965087890624,0.2384185791015625,0.4455718994140625,0.19561767578125
1757088638238920000,11.922919921875,0.2251129150390625,0.447296142578125,0.150604248046875
1757088638248874200,11.932874267578125,0.2173309326171875,0.429931640625,0.1218719482421875
1757088638258829000,11.9428291015625,0.2177734375,0.4065399169921875,0.080230712890625
1757088638268783000,11.952783203125,0.230743408203125,0.4099273681640625,0.0446319580078125
1757088638278738000,11.962738037109375,0.2636871337890625,0.406158447265625,0.01837158203125
1757088638288692000,11.97269189453125,0.29888916015625,0.4051971435546875,0.0185089111328125
1757088638298647000,11.98264697265625,0.342987060546875,0.4068450927734375,0.025726318359375
1757088638308601000,11.99260107421875,0.3825225830078125,0.422088623046875,0.0083160400390625
1757088638318556200,12.00255615234375,0.4188690185546875,0.4874267578125,0.0032806396484375
1757088638328510000,12.012510009765625,0.4464263916015625,0.597015380859375,-0.027130126953125
1757088638338465000,12.022465087890625,0.4779205322265625,0.7604522705078125,-0.0464935302734375
1757088638348419000,12.032419189453124,0.55810546875,0.9459228515625,-0.097198486328125
1757088638358374100,12.0423740234375,0.6660308837890625,1.140838623046875,-0.1600799560546875
1757088638368329000,12.052328857421875,0.832427978515625,1.37713623046875,-0.1831207275390625
1757088638378283000,12.062282958984374,0.978240966796875,1.6343231201171875,-0.16900634765625
1757088638388238000,12.072238037109376,1.0254058837890625,1.8614959716796875,-0.1589508056640625
1757088638398192000,12.082192138671875,0.9680023193359375,1.9024658203125,-0.1829071044921875
1757088638408147200,12.092147216796874,0.9063262939453125,1.6900634765625,-0.2196044921875
1757088638418101000,12.10210107421875,0.900848388671875,1.3926849365234375,-0.13201904296875
1757088638428056000,12.11205615234375,0.864776611328125,1.1232452392578125,-0.0046844482421875
1757088638438009900,12.122009765625,0.8176116943359375,0.8474884033203125,0.084381103515625
1757088638447965200,12.131965087890626,0.7609100341796875,0.6681976318359375,0.1819305419921875
1757088638457919200,12.141919189453125,0.5256195068359375,0.7017669677734375,0.27020263671875
1757088638467874000,12.1518740234375,0.3266754150390625,0.8306732177734375,0.1888580322265625
1757088638477828000,12.161828125,0.381011962890625,0.910736083984375,0.239410400390625
1757088638487783200,12.171783203125,0.409149169921875,0.9687652587890625,0.303802490234375
1757088638497737200,12.1817373046875,0.321014404296875,1.0457000732421875,0.2422637939453125
1757088638507692000,12.191692138671876,0.1315460205078125,1.0814361572265625,0.2087554931640625
1757088638517646000,12.20164599609375,-0.0429840087890625,1.0546875,0.2886810302734375
1757088638527601000,12.211600830078124,-0.0438690185546875,1.0132598876953125,0.4602508544921875
1757088638537555000,12.221554931640625,0.10333251953125,1.0489044189453125,0.615570068359375
1757088638547510300,12.23151025390625,0.2346954345703125,1.2220001220703125,0.6363983154296875
1757088638557465000,12.241465087890624,0.3409881591796875,1.399627685546875,0.5330047607421875
1757088638567419100,12.251419189453125,0.4450225830078125,1.340179443359375,0.343475341796875
1757088638577374000,12.2613740234375,0.5007476806640625,1.0494384765625,0.1611785888671875
1757088638587328300,12.271328369140624,0.38214111328125,0.8301239013671875,0.1372833251953125
1757088638597283000,12.281282958984375,0.1659088134765625,0.702423095703125,0.095855712890625
1757088638607237000,12.291237060546875,-0.0677032470703125,0.614898681640625,0.036376953125
1757088638617192000,12.30119189453125,-0.2893218994140625,0.56927490234375,0.0087738037109375
1757088638627146000,12.31114599609375,-0.4189453125,0.5762481689453125,-0.0187835693359375
1757088638637101000,12.32110107421875,-0.4297332763671875,0.6697845458984375,-0.0378570556640625
1757088638647055000,12.33105517578125,-0.3978424072265625,0.8366546630859375,-0.00762939453125
1757088638657010200,12.34101025390625,-0.28466796875,1.0072021484375,-0.002716064453125
1757088638666964000,12.3509638671875,-0.0840606689453125,1.1777191162109375,-0.06817626953125
1757088638676919000,12.3609189453125,0.2483062744140625,1.3176116943359375,-0.1473388671875
1757088638686873000,12.370873046875,0.590972900390625,1.372314453125,-0.1432342529296875
1757088638696828200,12.380828125,0.6844635009765625,1.2825164794921875,-0.0050048828125
1757088638706782200,12.3907822265625,0.43585205078125,1.085784912109375,0.129791259765625
1757088638716737000,12.400737060546875,0.2350921630859375,0.9317779541015625,0.19122314453125
1757088638726691000,12.410691162109375,0.136322021484375,0.8748016357421875,0.2192840576171875
1757088638736646100,12.420646240234374,0.020904541015625,0.83807373046875,0.220703125
1757088638746600200,12.43060009765625,-0.052215576171875,0.8173675537109375,0.2022247314453125
1757088638756555000,12.440554931640625,-0.0619049072265625,0.8167572021484375,0.1887969970703125
1757088638766510000,12.450510009765624,-0.01068115234375,0.82476806640625,0.1848602294921875
1757088638776464000,12.4604638671875,0.04608154296875,0.8355255126953125,0.132293701171875
1757088638786419200,12.470419189453125,0.06988525390625,0.865692138671875,0.049957275390625
1757088638796373200,12.480373291015624,0.103271484375,0.91943359375,-0.0081939697265625
1757088638806328000,12.490328125,0.1209869384765625,0.9584808349609375,-0.046844482421875
1757088638816282000,12.5002822265625,0.120208740234375,0.97723388671875,-0.066162109375
1757088638826237000,12.51023681640625,0.111602783203125,0.9859619140625,-0.07025146484375
1757088638836191200,12.520191162109375,0.1039886474609375,0.9929046630859375,-0.0626983642578125
1757088638846146000,12.53014599609375,0.1110382080078125,0.9888153076171875,-0.03271484375
1757088638856100000,12.54010009765625,0.1073150634765625,0.9753875732421875,0.0076141357421875
1757088638866055000,12.550054931640625,0.102569580078125,0.9490966796875,0.045806884765625
1757088638876009000,12.560009033203125,0.0986785888671875,0.924224853515625,0.0758819580078125
1757088638885964000,12.569964111328124,0.0906524658203125,0.8990020751953125,0.0832977294921875
1757088638895918000,12.57991796875,0.0811004638671875,0.8807830810546875,0.06329345703125
1757088638905873200,12.589873046875,0.1054840087890625,0.863861083984375,0.0762176513671875
1757088638915827000,12.599826904296876,0.1481781005859375,0.8674163818359375,0.10400390625
1757088638925781800,12.60978173828125,0.1470794677734375,0.8626251220703125,0.0899810791015625
1757088638935735800,12.61973583984375,0.14862060546875,0.8705902099609375,0.0774078369140625
1757088638945690600,12.629690673828126,0.1528167724609375,0.8906402587890625,0.07965087890625
1757088638955645700,12.639645751953125,0.1384429931640625,0.9031524658203125,0.0804901123046875
1757088638965599700,12.649599853515625,0.1080780029296875,0.9239959716796875,0.08233642578125
1757088638975554800,12.659554931640624,0.0681915283203125,0.95257568359375,0.0787506103515625
1757088638985508600,12.669508544921875,0.025787353515625,0.9796295166015625,0.070526123046875
1757088638995463700,12.679463623046875,0.005615234375,0.997314453125,0.06683349609375
1757088639005417700,12.689417724609376,0.0016632080078125,0.99957275390625,0.068328857421875
1757088639015372800,12.699372802734375,-0.0033111572265625,0.9938201904296875,0.0800018310546875
1757088639025326800,12.709326904296875,-0.0095062255859375,0.9879608154296875,0.08197021484375
1757088639035281700,12.71928173828125,-0.016265869140625,0.9918365478515625,0.061431884765625
1757088639045235700,12.729235595703125,-0.0294952392578125,1.0122833251953125,0.0269927978515625
1757088639055190800,12.739190673828125,-0.01922607421875,1.054779052734375,-0.0110015869140625
1757088639065144800,12.749144775390626,0.01934814453125,1.0919189453125,-0.037994384765625
1757088639075099600,12.759099609375,0.0700531005859375,1.1107635498046875,-0.0261383056640625
1757088639085053700,12.7690537109375,0.1098175048828125,1.1180267333984375,0.011993408203125
1757088639095008500,12.779008544921876,0.12847900390625,1.155853271484375,0.0832977294921875
1757088639104962600,12.788962646484375,0.153411865234375,1.2608642578125,0.156280517578125
1757088639114917600,12.798917724609375,0.1793670654296875,1.35089111328125,0.17193603515625
1757088639124871700,12.80887158203125,0.193084716796875,1.3736724853515625,0.12200927734375
1757088639134826800,12.81882666015625,0.1945648193359375,1.3615264892578125,0.0802001953125
1757088639144780500,12.828780517578124,0.214263916015625,1.3543243408203125,0.03582763671875
1757088639154735900,12.83873583984375,0.2052459716796875,1.331298828125,-0.0079498291015625
1757088639164689700,12.848689697265625,0.1862335205078125,1.28814697265625,-0.026580810546875
1757088639174644700,12.858644775390625,0.1720123291015625,1.21893310546875,-0.0229949951171875
1757088639184598800,12.868598876953126,0.175323486328125,1.1593017578125,0.0076141357421875
1757088639194553600,12.8785537109375,0.17706298828125,1.1096649169921875,0.06982421875
1757088639204508700,12.8885087890625,0.1841888427734375,1.0675048828125,0.1525115966796875
1757088639214462700,12.898462646484376,0.1837921142578125,1.0520782470703125,0.2200775146484375
1757088639224417800,12.908417724609375,0.1593475341796875,1.0936737060546875,0.2787322998046875
1757088639234371600,12.91837158203125,0.15252685546875,1.171295166015625,0.3551788330078125
1757088639244326700,12.92832666015625,0.1438446044921875,1.2267303466796875,0.40924072265625
1757088639254280700,12.93828076171875,0.1059112548828125,1.2383270263671875,0.4393768310546875
1757088639264235800,12.94823583984375,0.0748138427734375,1.21087646484375,0.451904296875
1757088639274189800,12.95818994140625,0.0582733154296875,1.17254638671875,0.4962158203125
1757088639284144600,12.96814453125,0.0347900390625,1.1417236328125,0.589019775390625
