time,seconds_elapsed,gyro_x,gyro_y,gyro_z,acc_x,acc_y,acc_z,grav_x,grav_y,grav_z
1757088626333295000,0.017295166015625,-0.7210983037948608,-0.8316555023193359,0.5698901414871216,-0.5963000057637691,-0.3151283179506659,-0.6472558476276695,-9.621254269638657,-1.5792835995174943,-1.0524775473490358
1757088626343250200,0.027250244140625,-0.722691535949707,-0.8810153007507324,0.8455560803413391,-0.5886994676321745,-0.3038585897870361,-1.0182952186968175,-9.600573885181548,-1.654748005824536,-1.1230188911054282
1757088626353204200,0.037204345703125,-0.8113753199577332,-0.9178009629249572,1.1032367944717407,-0.4390998577952384,-0.111711047077924,-1.4991625995762643,-9.57360112258196,-1.7566640734665095,-1.1961098462793975
1757088626363159300,0.0471591796875,-0.9582610726356506,-0.892038881778717,1.319040298461914,-0.3007505407691002,0.1102447739176452,-1.6679726674482225,-9.540465745699406,-1.8830014656595884,-1.2665702337540683
1757088626373114000,0.057114013671875,-1.116256594657898,-0.7948340177536011,1.4691264629364014,-0.1882131258696317,0.4035740786448121,-1.371112265985459,-9.50231809361279,-2.0289377306833862,-1.3265544545955956
1757088626383068400,0.067068359375,-1.2219699621200562,-0.6938460469245911,1.54748272895813,-0.0427829106718301,0.849724731734395,-0.8546779702275991,-9.460551666507124,-2.1876345469504592,-1.3720793574519454
1757088626393023200,0.077023193359375,-1.164884328842163,-0.6598129868507385,1.5572274923324585,0.000178863698244,1.5207085148215294,-0.0620768092066049,-9.416125080281496,-2.3504490276694296,-1.4079630101293326
1757088626402977300,0.086977294921875,-0.9405744671821594,-0.6243568062782288,1.53847336769104,-0.1931505822718143,1.3939908911392092,0.4463645881012081,-9.369440485996009,-2.5104370527908206,-1.442801391537487
1757088626412932000,0.09693212890625,-0.6272690296173096,-0.5240882635116577,1.4771716594696045,-0.6670832685172557,0.6153133337914943,0.6083962478794157,-9.322124608069656,-2.6625056830897926,-1.476294203555584
1757088626422886100,0.10688623046875,-0.3368119299411773,-0.4765247404575348,1.3911994695663452,-0.8545324242770671,-0.1268497256293893,0.3870902690947055,-9.275783712655306,-2.8023063679680225,-1.5090731682159009
1757088626432841200,0.11684130859375,-0.176660344004631,-0.4782121181488037,1.3089253902435305,-0.6698258452236652,-0.3363903016880154,-0.0379122358955442,-9.23004779739678,-2.930348225991428,-1.5458520161673426
1757088626442795300,0.126795166015625,-0.1765557080507278,-0.5044960379600525,1.2527670860290527,-0.6818097130060196,-0.4288704324647784,-0.28252982442379,-9.184395468768477,-3.050053925085068,-1.5856956585168838
1757088626452750000,0.13675,-0.2690667510032654,-0.5724855065345764,1.2423871755599976,-0.8379752572298049,-0.5335755463033914,-0.2265102694295346,-9.13731632220745,-3.167112032279372,-1.6276494248881934
1757088626462704000,0.1467041015625,-0.3867972791194916,-0.6886141896247864,1.2640806436538696,-0.7128700371801853,-0.3150675276741385,-0.1060562361866235,-9.086746995443104,-3.286111044408381,-1.674182335743308
1757088626472659200,0.1566591796875,-0.4728772938251495,-0.7856893539428711,1.280022382736206,-0.38624271235466,0.0773255240038037,-0.0724504653133451,-9.031798430681228,-3.4082585836961865,-1.726492660956085
1757088626482614300,0.1666142578125,-0.5216448307037354,-0.8179758787155151,1.2695345878601074,-0.1046259111225604,0.4068716588854789,-0.0277159821823239,-8.9735882337749,-3.531454462993145,-1.7815524310074746
1757088626492568300,0.176568359375,-0.5531028509140015,-0.8448085784912109,1.2046074867248535,0.0296457812011241,0.7882453038990497,0.0919737886898219,-8.914378504437208,-3.6515611441031095,-1.835850569036603
1757088626502523100,0.186523193359375,-0.6613034009933472,-1.115169644355774,1.0638290643692017,-0.0877127702444791,2.0292934122532604,-0.2944907497219741,-8.854630430439114,-3.7634433099642393,-1.8979992744356395
1757088626512477200,0.196477294921875,-0.7773040533065796,-0.7904765605926514,0.7956408262252808,-0.687016049477458,1.7557812992826105,0.0803949945770204,-8.798959981143474,-3.8599849910914896,-1.9619380781218407
1757088626522432000,0.206431884765625,-0.7989339828491211,-0.3834696114063263,0.5834108591079712,-0.7959744368463754,0.1050190020933747,0.3633522506326437,-8.762277140912413,-3.934843832720816,-1.977343444785476
1757088626532386300,0.21638623046875,-0.6312387585639954,-0.3311502337455749,0.4479605853557586,-0.4360053989112377,0.042950960715115,0.9430497889027,-8.734834422713517,-3.9941318879917262,-1.979888891484588
1757088626542341000,0.226341064453125,-0.4369914829730987,-0.2597546279430389,0.3064650297164917,-0.3252548674285411,-0.3050938306704163,1.326575058992207,-8.713903862887621,-4.037239792834222,-1.9846813864581283
1757088626552295200,0.236295166015625,-0.3489457666873932,-0.0740846320986747,0.1432145684957504,0.0323421806782484,-0.4530743148729205,0.9703859779872,-8.70144711689651,-4.064335305030644,-1.984031105855852
1757088626562250200,0.246250244140625,-0.3330770134925842,0.0661603808403015,0.0033832653425633,0.4017348805189132,-0.0651169075548648,0.6035781800732016,-8.698691096186637,-4.077151239722967,-1.9697695023998616
1757088626572204000,0.2562041015625,-0.3466817736625671,0.1136847585439682,-0.1084037199616432,0.4946843823730945,0.2873109212204813,0.5617265589021146,-8.702605639281868,-4.079127800492942,-1.9482685953401029
1757088626582159400,0.266159423828125,-0.4005749225616455,0.1840690523386001,-0.2228413075208664,0.5974550210177898,0.3915551395490765,0.5375906271636486,-8.71215263530612,-4.071892004020512,-1.92054121498093
1757088626592113200,0.276113037109375,-0.4697007238864898,0.2684412002563476,-0.3231076896190643,0.645601504549384,0.3683952132359147,0.6392905678369104,-8.727528483614325,-4.056363595499098,-1.883227967891842
1757088626602068200,0.286068115234375,-0.5135865211486816,0.3007466793060303,-0.3924048840999603,0.6667740564376116,0.3429726026877761,0.731226070342958,-8.747354297068714,-4.03423271997273,-1.838245062957704
1757088626612023000,0.29602294921875,-0.5334467887878418,0.2703376412391662,-0.4421561956405639,0.703677845942974,0.2697325944319367,0.812666190058738,-8.7692943261981,-4.007231023539602,-1.7921939442701638
1757088626621977000,0.30597705078125,-0.5443226099014282,0.2195959091186523,-0.4857755899429321,0.693972444486618,0.2275564174816012,0.8397725159101188,-8.792060284757614,-3.97612802926749,-1.7494193630352617
1757088626631932200,0.31593212890625,-0.538867175579071,0.1735282838344574,-0.5216065645217896,0.7853244480162859,0.3068663933008909,0.900808291631192,-8.815327178576588,-3.941264513418078,-1.7107964946523309
1757088626641886200,0.32588623046875,-0.5135153532028198,0.1008616983890533,-0.5488780736923218,0.8172954572945833,0.4308531307145953,1.0650137883171438,-8.83861920683682,-3.903043796095252,-1.6779294133171438
1757088626651841300,0.33584130859375,-0.4715763926506042,0.014313762076199,-0.5611211657524109,0.7740513588517903,0.5119458982974291,1.1949806230537592,-8.861065431922674,-3.862182208874821,-1.653919007654488
1757088626661795000,0.345795166015625,-0.4205355644226074,-0.0233107581734657,-0.5557153820991516,0.7387526664555072,0.5658481688767671,1.223953181168437,-8.88233033826947,-3.8200171378403898,-1.637701155564189
1757088626671750400,0.35575048828125,-0.362842708826065,0.0031184514518827,-0.5410704016685486,0.6743599815219641,0.5788415059626102,1.2219899182714522,-8.902931812271476,-3.77764456153512,-1.6240661595739423
1757088626681704200,0.3657041015625,-0.3054405748844147,0.0536776110529899,-0.5061678886413574,0.6156061792582274,0.5506155284315347,1.208042787592113,-8.923037027189135,-3.736400112476945,-1.6090714195378124
1757088626691659300,0.3756591796875,-0.2584696114063263,0.0911426916718483,-0.457142025232315,0.5091244111359119,0.462724771271646,1.064491956400126,-8.942100624099373,-3.6978897645577775,-1.5921141472570597
1757088626701613300,0.38561328125,-0.2358001321554184,0.0873386412858963,-0.3981624543666839,0.2481067458182573,0.2824883233696222,0.7992245246835052,-8.959259848693012,-3.6635499803215263,-1.5749458625741302
1757088626711568100,0.395568115234375,-0.2561432123184204,0.0181529186666011,-0.3314041793346405,-0.0708037210196256,0.1195528466194868,0.5823756714381277,-8.973442687824368,-3.634689796540141,-1.5610054538965223
1757088626721523200,0.405523193359375,-0.2955019176006317,-0.1062853410840034,-0.2555102407932281,-0.3543558742284775,0.0595431990757584,0.4319556851290166,-8.983479513192176,-3.612538170486689,-1.554686626138538
1757088626731477200,0.415477294921875,-0.3300782740116119,-0.2560971975326538,-0.1727573275566101,-0.6164034671157598,0.1055827734559774,0.3605557517819106,-8.988384820890426,-3.598124152947962,-1.5597515083126725
1757088626741432000,0.42543212890625,-0.3283300399780273,-0.4062770307064056,-0.0761530622839927,-0.7790987053692341,0.2217544532045721,0.4255832274876535,-8.987747692030668,-3.5920419104248285,-1.5773438636265693
1757088626751386000,0.43538623046875,-0.2997945249080658,-0.5788935422897339,0.0317054912447929,-0.9338473685324192,0.344257674062252,0.3962736925035715,-8.980840396860241,-3.594835048274696,-1.6099842965990303
1757088626761341200,0.445341064453125,-0.2555453479290008,-0.7328870892524719,0.1503935158252716,-1.111066222178936,0.4921887661650777,0.2987333557277917,-8.966876753437518,-3.607344401235878,-1.659088811507821
1757088626771295200,0.455295166015625,-0.2211498320102691,-0.77727210521698,0.2751713991165161,-1.1647475434839725,0.5487400899484753,0.1259802493184804,-8.94641498016715,-3.6302272641733286,-1.718573266133666
1757088626781250300,0.465250244140625,-0.2170707881450653,-0.7331550121307373,0.3823477625846863,-1.0800696108907462,0.4982666247740387,-0.1610802042722701,-8.921258911600708,-3.663401511761546,-1.7779238652467726
1757088626791204000,0.4752041015625,-0.2257891744375229,-0.7523090243339539,0.438847005367279,-0.9291466434955596,0.3394257238611579,-0.4942765322245657,-8.892916029691696,-3.704027244399488,-1.8348326241657136
1757088626801159200,0.4851591796875,-0.1910692006349563,-0.8602712154388428,0.449930340051651,-0.5312701919704675,0.08519348089993,-0.6330041810438036,-8.86133255842626,-3.747424195316434,-1.8984151617601512
1757088626811113200,0.49511328125,-0.1541047841310501,-0.930055856704712,0.3997297585010528,0.3056120093256235,-0.560214254643023,-0.6002575112178922,-8.828072093859314,-3.788404148219525,-1.9706660128481688
1757088626821068300,0.505068359375,-0.1046284884214401,-1.0821537971496582,0.2822894155979156,1.2453121955394744,-0.1125762856051325,-0.4044812566176056,-8.79467894282341,-3.821545954842865,-2.054214210759103
1757088626831023000,0.515023193359375,-0.0792757272720336,-1.3242671489715576,0.066265769302845,2.2632991520047185,0.141908178551495,-0.3396238767817616,-8.763107746517658,-3.83870488717556,-2.154685340289771
1757088626840977200,0.52497705078125,-0.1508488059043884,-1.6244045495986938,-0.1835369765758514,1.9702567013949157,-0.6151157653927802,-0.0548503650844097,-8.732828928110003,-3.8361537413880233,-2.2785981356844305
1757088626850932200,0.53493212890625,-0.3047792315483093,-1.9856160879135127,-0.4625656902790069,1.7075550285130738,-0.2173874901667237,0.144534143140912,-8.702813729074597,-3.8134006423100826,-2.426806875684857
1757088626860886000,0.544885986328125,-0.492845356464386,-2.1548407077789307,-0.7615229487419128,1.3849176501065492,0.6181237150371074,-0.4904878074660897,-8.673615691640972,-3.7705391134440895,-2.5926453804001213
1757088626870841300,0.55484130859375,-0.6157907247543335,-1.9437874555587769,-1.0784577131271362,1.0313292531192302,1.0148661940962076,-0.8132146177217364,-8.652821325415372,-3.706098497715592,-2.750255570474267
1757088626880795100,0.564795166015625,-0.6141636967658997,-1.663054585456848,-1.3675079345703125,0.2594645906567573,1.1880077153012156,-0.5632926391750573,-8.64725024728477,-3.6179727627560494,-2.881963842050731
1757088626890750200,0.574750244140625,-0.4620178043842315,-1.5144407749176023,-1.5877084732055664,-0.6949526876956224,1.4740911405533552,-0.3171484256014227,-8.653506969591975,-3.506319437214732,-2.9988208737149837
1757088626900704300,0.584704345703125,-0.193033367395401,-1.437796115875244,-1.7201790809631348,-1.1938777763783932,1.6797595513537524,0.0379421926423907,-8.665444660145043,-3.37320831310302,-3.114790601150691
1757088626910659300,0.594659423828125,0.0999748036265373,-1.2659013271331787,-1.7395730018615725,-1.4106751916974782,1.3831050477266311,0.3938581557944416,-8.679538067427277,-3.2246950371980665,-3.2306878478720784
1757088626920612600,0.604612548828125,0.3270163238048553,-0.968041718006134,-1.6737641096115112,-1.3993880740076303,0.775605602556467,0.5016588975608348,-8.696361776456236,-3.069550068193674,-3.334897287148237
1757088626930567400,0.6145673828125,0.4810458421707153,-0.5891585946083069,-1.5239994525909424,-1.1799965505421162,0.1689864473521709,0.5312207998707891,-8.717931803229451,-2.916781472931802,-3.4147371320605275
1757088626940521700,0.624521728515625,0.6060701012611389,-0.2592322826385498,-1.271981954574585,-0.991028806912899,-0.2483145433500409,0.7061120873525738,-8.743495868074893,-2.776011066238582,-3.4663273263052106
1757088626950476500,0.6344765625,0.7458794116973877,-0.1271695643663406,-0.9308413863182068,-0.7219003158539533,-0.1452946061193943,0.6966124376013875,-8.767218104445934,-2.656070681606233,-3.500222581644356
1757088626960431600,0.644431640625,0.894296407699585,-0.1280114501714706,-0.5334831476211548,-0.5611521200150251,0.2908674446582794,0.5468023998841643,-8.781919999015331,-2.563114165489376,-3.532521215441822
1757088626970385700,0.6543857421875,0.9447978734970092,-0.0901165157556533,-0.1438501477241516,-1.1086334420740604,0.2610743639409542,0.1981657800853252,-8.78660201935172,-2.500700671674311,-3.5654607774913307
1757088626980340700,0.6643408203125,0.8515813946723938,-0.0476704500615596,0.203572615981102,-1.5176725081264972,0.1884361209705471,-0.3474874497637152,-8.783529772299527,-2.471157766325772,-3.593518120457232
1757088626990294800,0.674294677734375,0.6342333555221558,-0.1140785068273544,0.5016232132911682,-1.6061404806524515,0.3150476539298892,-0.8317273027509451,-8.772125165709852,-2.4752161018058656,-3.618495033064484
1757088627000249600,0.68424951171875,0.3257011175155639,-0.226104736328125,0.752418041229248,-1.576031173592806,0.2423851533010602,-1.1955363572403788,-8.75030963974297,-2.512686585283279,-3.645389469730854
1757088627010203600,0.69420361328125,-0.0138851916417479,-0.2834117114543915,0.9448343515396118,-1.306048696053028,0.0160918876230716,-1.2235080677494403,-8.719221258518099,-2.581030053669214,-3.672035776855051
1757088627020158500,0.704158447265625,-0.3243078887462616,-0.2388318181037902,1.0755980014801023,-0.783716428297758,-0.0860530203387141,-1.2065253687664863,-8.682956351438165,-2.675209681840241,-3.690514851875603
1757088627030112500,0.714112548828125,-0.5576141476631165,-0.1361576467752456,1.1354607343673706,-0.1861521016865968,0.1126847144156694,-1.1223264518618583,-8.64575854742229,-2.7876065192252395,-3.694657650768757
1757088627040067600,0.724067626953125,-0.6268396377563477,-0.0538788065314292,1.0782043933868408,0.3626479017555713,0.6938941185534,-0.8545639884591102,-8.610971896201372,-2.905387972258031,-3.6851416344046592
1757088627050021600,0.734021728515625,-0.5608283877372742,-0.1559295356273651,0.989298403263092,0.9053916738986968,1.1041028129070996,-0.4492261150121688,-8.57701234345436,-3.015723200938105,-3.675683777968586
1757088627059976700,0.743976806640625,-0.3872784376144409,-0.2492220848798751,0.8881655931472778,1.341159172400832,0.976058324535191,1.2816533827260137,-8.540971892780066,-3.113481564378738,-3.678099314677715
1757088627069931500,0.753931640625,0.0352909415960311,-0.5173395276069641,0.7865307927131653,1.4157313060432672,-0.3963315601706504,5.212584425917267,-8.50122089715004,-3.1913793353125453,-3.7033395543962713
1757088627079885800,0.7638857421875,0.2942373156547546,-0.9055777192115784,0.6329725384712219,1.5145926622897383,0.2844838811010122,2.218631158238649,-8.451791972592472,-3.244614958676696,-3.76962492120862
1757088627089840600,0.773840576171875,0.2185287028551101,-1.4187551736831665,0.3781014084815979,1.4297387886077164,1.808327479077876,-2.20755154581964,-8.391179390719532,-3.277020559979975,-3.875516614483296
1757088627099794700,0.783794677734375,0.0537091568112373,-1.693406343460083,0.1313964873552322,0.7386521286904811,0.2342655597314238,-1.9947440769195557,-8.320939148801564,-3.2925589053735136,-4.011410062789917
1757088627109749500,0.79374951171875,-0.0610349997878074,-1.5923538208007812,-0.0649381279945373,0.5611795925438404,-0.9525129060357808,-1.4373501403942703,-8.252402788192033,-3.295399389496445,-4.1483223327502605
1757088627119703600,0.80370361328125,-0.1063873991370201,-1.224881887435913,-0.2380890846252441,0.6884709244608879,-0.4698401562348008,-1.453344705122709,-8.197884431540965,-3.286512610946596,-4.261913640616834
1757088627129658600,0.81365869140625,-0.1499902755022049,-0.7368829250335693,-0.4241601526737213,0.662120093151927,-0.2639253694579005,-1.320332657471299,-8.166744612389802,-3.265127585351467,-4.337465140685439
1757088627139612700,0.82361279296875,-0.1109564453363418,-0.4073010087013244,-0.6039058566093445,0.6247533623099327,-0.1654477518320083,-0.7972776283994316,-8.159156349217891,-3.2290812894582746,-4.378537448047101
1757088627149567500,0.8335673828125,-0.0078995656222105,-0.2737938165664673,-0.7625349164009094,0.6077075349628925,0.0028296704679727,-0.4048901296794414,-8.166501451283693,-3.1760446957975623,-4.403564337275922
1757088627159521500,0.843521484375,0.0957637727260589,-0.2251409888267517,-0.8924165964126587,0.4930781162202358,0.0697276162207126,-0.1508636384233832,-8.181607835000753,-3.106323509317636,-4.425203922154009
1757088627169476600,0.8534765625,0.1385674327611923,-0.1982510536909103,-0.986322581768036,0.3051286097228526,-0.0456827237665653,-0.0967608768358826,-8.201056047314404,-3.0241327173650263,-4.446087135706842
1757088627179430700,0.8634306640625,0.1458165198564529,-0.2226815372705459,-1.0330408811569214,0.1345019939482212,-0.1534159532546997,0.0299769128516316,-8.221965564352274,-2.934954550743103,-4.467180777139961
1757088627189385700,0.8733857421875,0.1457574069499969,-0.3137592375278473,-1.0422474145889282,-0.0793225430399179,-0.0981242741435766,0.1747106702178716,-8.240079313191771,-2.8431521730974314,-4.493101984860003
1757088627199340500,0.883340576171875,0.1505260616540908,-0.4389013648033142,-1.0278699398040771,-0.2660843010574579,-0.0486813210606575,0.2386696399092674,-8.2520362929672,-2.751337520492077,-4.528181189286709
1757088627209294600,0.893294677734375,0.1677375435829162,-0.5371222496032715,-0.989026427268982,-0.3892705357432365,-0.0509451743394136,0.4190475421085953,-8.25708948470354,-2.6610867562025784,-4.572688147272169
1757088627219249700,0.903249755859375,0.1906428337097168,-0.6044930219650269,-0.9221339821815492,-0.6039946519196033,-0.0286994402617216,0.6075897538021207,-8.25574800696671,-2.574097039535641,-4.624611518993974
1757088627229203700,0.91320361328125,0.2116165459156036,-0.6136505603790283,-0.8267073035240173,-0.7541922276496886,0.0450327354252338,0.6975836207211017,-8.249502390575408,-2.49265502012372,-4.680038807183504
1757088627239158500,0.923158447265625,0.2314967066049575,-0.6011525392532349,-0.7090268135070801,-0.9606775077909232,0.0708491675965487,0.6916060076162218,-8.239790559378266,-2.4191120833985504,-4.735412611620128
1757088627249112600,0.933112548828125,0.251357227563858,-0.5581529140472412,-0.5795004963874817,-1.1013970610797406,-0.0114526835151016,0.6497834664091467,-8.227460070115328,-2.354916382341832,-4.788909224008023
1757088627259067600,0.943067626953125,0.2824627459049225,-0.4679259955883026,-0.4520361423492431,-1.0949901166468858,-0.1576112129874527,0.6929287806525826,-8.214712816745042,-2.2998870074287057,-4.837291562122107
1757088627269021400,0.953021484375,0.3150486648082733,-0.3576900362968445,-0.3344637155532837,-1.0324275697499512,-0.2860200046271086,0.7085986434713005,-8.203654247114061,-2.253330131176114,-4.877801267164945
1757088627278976800,0.962976806640625,0.3438664376735687,-0.263929158449173,-0.235496386885643,-0.9224258108079432,-0.3513786119833588,0.6422954487413167,-8.194992801752687,-2.2140083207435906,-4.910258598655462
1757088627288930600,0.9729306640625,0.3700205385684967,-0.2139885276556015,-0.1666427552700042,-0.7617290528953075,-0.3849100024461746,0.5782347722411155,-8.187796168246864,-2.1801776550732552,-4.937327222844958
1757088627298885600,0.9828857421875,0.395192414522171,-0.2131953090429306,-0.1308724582195282,-0.5713824221283197,-0.3726984633877873,0.4732686693787574,-8.180621746572852,-2.149293710379302,-4.962696057379246
1757088627308840400,0.99284033203125,0.4066008627414703,-0.2656569182872772,-0.1340679824352264,-0.347308878326416,-0.3009109920278191,0.201623811584711,-8.171559903717041,-2.1188786983713506,-4.99062568231225
1757088627318794800,1.002794677734375,0.4465925991535187,-0.3412745296955108,-0.1600140482187271,-0.3586170388042926,-0.3249387872166931,0.6257891350984573,-8.159353917616606,-2.085872646956891,-5.024386497616767
1757088627328749600,1.01274951171875,0.4958043694496155,-0.3888721466064453,-0.2041117399930954,-0.3352157049506902,-0.3562786589846015,0.6649690528422594,-8.144747300115228,-2.0474998078122733,-5.063716052964329
1757088627338703600,1.02270361328125,0.5382246971130371,-0.4353741705417633,-0.259836882352829,-0.3697697164595127,-0.3240333628095686,0.5126859030097722,-8.128598713868856,-2.002532100447268,-5.107458164057135
1757088627348658700,1.03265869140625,0.5714223384857178,-0.4788577258586883,-0.3236094713211059,-0.3119020493805408,-0.3852325123988092,0.4269172525703906,-8.110898806527256,-1.95061033616066,-5.155464946857094
1757088627358612500,1.042612548828125,0.5895093679428101,-0.5149813890457153,-0.3943559527397156,-0.1749018088757991,-0.5081942906789482,0.411079047447443,-8.092126886039972,-1.8916934522897004,-5.206664972740412
1757088627368567800,1.05256787109375,0.5872113108634949,-0.525764524936676,-0.4663363993167877,-0.1481950037360191,-0.5255668657623231,0.4667109182983636,-8.072894946825503,-1.826287352529913,-5.259603366723656
1757088627378521600,1.062521484375,0.5570265054702759,-0.488098531961441,-0.5287624001502991,-0.2056494138389825,-0.5116792101852595,0.4142442334800958,-8.05494427959323,-1.7559290371902283,-5.310834956789017
1757088627388476700,1.0724765625,0.5115447640419006,-0.4237994253635406,-0.5666472315788269,-0.3374725439667702,-0.4934340900510549,0.3138923464149236,-8.040138340127468,-1.6834937694460153,-5.356529370993376
1757088627398430500,1.082430419921875,0.4626099765300751,-0.3793767094612121,-0.5765106081962585,-0.456363127285242,-0.3965611311428249,0.2811836705118417,-8.028238058975338,-1.61142587370947,-5.3963955174356695
1757088627408385500,1.092385498046875,0.4088673889636993,-0.3666561245918274,-0.558170735836029,-0.5354354949563741,-0.2638753928363323,0.2724462373048067,-8.01710174793303,-1.5424001221477983,-5.432998278167844
1757088627418340600,1.102340576171875,0.3359312713146209,-0.3684888780117035,-0.5157498717308044,-0.4762438857972622,-0.1428030815646052,0.3599100012242794,-8.005365132910013,-1.4791189055874945,-5.467789605563879
1757088627428294700,1.112294677734375,0.2590641975402832,-0.4007037878036499,-0.4383887946605682,-0.4352940357714891,0.0259878432154655,0.4446726894915103,-7.991397982355952,-1.4246505255579949,-5.502573334175348
1757088627438249500,1.12224951171875,0.1948524713516235,-0.4332712292671203,-0.3301072120666504,-0.2882897031247615,0.1821900661878287,0.5027724117606878,-7.973800366345047,-1.3815354603223502,-5.53897560389936
1757088627448203500,1.13220361328125,0.1546142250299453,-0.4333940148353576,-0.2042770981788635,-0.0824380447119474,0.2816653165489435,0.5519248574644326,-7.953250914791226,-1.350676357808709,-5.576007403698563
1757088627458158800,1.142158935546875,0.1511794477701187,-0.3778379559516907,-0.0750136375427246,0.0944020387500524,0.2462367141626775,0.7521119142442941,-7.932419139164685,-1.3312588328942656,-5.610245773386955
1757088627468112600,1.152112548828125,0.1793213337659835,-0.3042329847812652,0.0416128411889076,0.3066027739286422,0.2555032858103513,0.9042372431665658,-7.913579998660087,-1.3209230245798826,-5.639219938936829
1757088627478067700,1.162067626953125,0.23948335647583,-0.2579478323459625,0.1022861152887344,0.6639280193567275,0.1672533399492502,0.9298492388069628,-7.896960872292518,-1.315273035994172,-5.663784471350908
1757088627488021500,1.172021484375,0.309753805398941,-0.2578953504562378,0.0757234841585159,1.05255324293375,0.1455051801301539,0.894529503622651,-7.881414928114414,-1.307141751986742,-5.687272314444184
1757088627497976600,1.1819765625,0.3838443160057068,-0.2901351153850555,-0.0426532104611396,1.4295651856064795,0.135889941175282,0.8572866914212703,-7.865627576395869,-1.2891468072213232,-5.713175986507535
1757088627507930600,1.1919306640625,0.4575046896934509,-0.3181510269641876,-0.2459876984357834,1.8774895703703165,0.0872151959858834,0.7662970914632081,-7.850124302315711,-1.254238721577823,-5.742195744764804
1757088627517885700,1.2018857421875,0.5297587513923645,-0.3315377831459045,-0.5346742868423462,2.297450427931547,0.2325994531501084,0.597467880499363,-7.835987055891752,-1.1958167816169558,-5.773882091882824
1757088627527839700,1.21183984375,0.5487809181213379,-0.3563850820064544,-0.9195394515991212,2.732410117182136,1.1327015692733229,0.2120189488708972,-7.824727410730719,-1.108310639860481,-5.806520040637254
1757088627537794600,1.221794677734375,0.610969066619873,-0.4621357917785644,-1.3418248891830444,2.4638392600059507,0.9457285796578973,0.9758511115252972,-7.812934681606293,-0.9870284852303564,-5.844160912245512
1757088627547749600,1.23174951171875,0.7757166624069214,-0.5369362831115723,-1.7364070415496826,2.311644957500696,0.1532757410664111,1.321492348900437,-7.797359511333703,-0.8269442331928759,-5.889629116478562
1757088627557703700,1.24170361328125,0.9911863803863524,-0.5157798528671265,-2.056025505065918,2.256446217370033,0.2775181337416172,0.7038117014557123,-7.779719809746742,-0.6275204158704728,-5.937386892953515
1757088627567658800,1.25165869140625,1.1827800273895264,-0.3734453916549682,-2.28989839553833,2.121726196756959,0.4800021058196201,0.483049474158883,-7.764111321726441,-0.3944094695342704,-5.977742284217476
1757088627577612500,1.261612548828125,1.3222863674163818,-0.1779965162277221,-2.4626569747924805,1.8908523252904412,0.4716132668545469,0.4159253184348344,-7.753952331283688,-0.1358264931507874,-6.002345395076275
1757088627587567600,1.271567626953125,1.4094175100326538,-0.02907095849514,-2.610590934753418,1.5659844113528727,0.3638918374020606,0.1995505124419927,-7.74781309787631,0.1418832541727926,-6.010128304037451
1757088627597521700,1.281521728515625,1.455488204956055,0.1129781976342201,-2.74045467376709,1.259561670166254,0.3663593965593725,-0.1649327880471944,-7.7426108530581,0.4340521459516137,-6.002829379200935
1757088627607476700,1.291476806640625,1.4750765562057495,0.2401364296674728,-2.8459222316741943,0.9743547354876996,0.4288459556106477,-0.2930132245153188,-7.737076599806547,0.7368309776779264,-5.980393675509095
1757088627617430800,1.3014306640625,1.4954571723937988,0.4145581722259521,-2.9069948196411133,0.6284376037806272,0.4361423231638968,-0.24258126039505,-7.730536968904733,1.0466166924916207,-5.942539453411102
1757088627627385600,1.311385498046875,1.524865984916687,0.569531261920929,-2.8444266319274902,-0.4285784637808799,0.4922724989257752,-0.5156085124582052,-7.725623477900028,1.3582957467712462,-5.885588901177048
1757088627637339600,1.321339599609375,1.5721676349639893,0.5867452621459961,-2.286979913711548,-4.4292379999756815,0.1024143725529313,0.2797083372622728,-7.720287962090969,1.647896532494575,-5.818244965222478
1757088627647294500,1.33129443359375,1.5549460649490356,0.8239942789077759,-1.519787311553955,-5.093450681492686,0.2995730214223265,0.3501706974983215,-7.726302107813954,1.884986355866492,-5.737722983264923
1757088627657249800,1.341249755859375,1.366344332695007,1.192168951034546,-0.7924878001213074,-3.545063301628828,1.529754283325374,-0.9352525591552256,-7.761254763251543,2.056759803588688,-5.63054621861577
1757088627667203600,1.35120361328125,1.1060421466827393,1.2939448356628418,-0.1873121857643127,-3.0409418133467434,1.5017532005913554,-0.5805985787630081,-7.821401481178403,2.1624226565435527,-5.506359282454848
1757088627677158700,1.36115869140625,0.8792405724525452,1.0342304706573486,0.2099773585796356,-2.127569077566266,0.65387555802837,0.3295663008868694,-7.886179366037249,2.214078609500825,-5.39225534889102
1757088627687112400,1.371112548828125,0.7015864253044128,0.576852023601532,0.388181984424591,-0.8852379436641931,0.3357783072695136,0.5385907441169023,-7.93634712626338,2.231554060436785,-5.310832618701458
1757088627697067800,1.38106787109375,0.5623862743377686,0.075224332511425,0.4561087191104889,-0.244987152493,0.372062065180391,0.6363789181739091,-7.962934688937664,2.231033689824492,-5.2711044194251295
1757088627707021800,1.391021728515625,0.446636825799942,-0.3567135035991668,0.4909263551235199,-0.1264069502979516,0.2863667722381651,0.6776672063738107,-7.965695385822653,2.219763669399917,-5.271691279402375
1757088627716976600,1.4009765625,0.3662423491477966,-0.6706031560897827,0.5177367329597473,-0.1220902561426162,0.2954069877840578,0.6065414137929678,-7.949362090659141,2.200997155740112,-5.30411470862329
1757088627726930700,1.4109306640625,0.3425109088420868,-0.8558251857757568,0.5354523658752441,-0.15561609364748,0.3340308790802955,0.5027817641109228,-7.919876468455791,2.177935429104417,-5.357475127410888
1757088627736885500,1.420885498046875,0.4158300459384918,-0.9290491342544556,0.5598142743110657,-0.2515390583544969,0.2781109850682318,0.6987398050189018,-7.883658907648921,2.154996452065557,-5.419806203639507
1757088627746839600,1.430839599609375,0.5452191829681396,-0.9224085211753844,0.5576446056365967,-0.225520235478878,0.3489342875711619,0.8765624697774648,-7.84503428570032,2.1371450074240563,-5.48255755110681
1757088627756794600,1.440794677734375,0.6858641505241394,-0.8424633145332336,0.5312314033508301,-0.1576589976519346,0.4717734623849391,0.8090648045659065,-7.807999563291668,2.128479324278981,-5.538510908997059
1757088627766749700,1.450749755859375,0.795213520526886,-0.704291045665741,0.5017493963241577,-0.294417246094346,0.3808579505763947,0.4609890335202217,-7.775987637481093,2.129612127701193,-5.582933988091349
1757088627776703500,1.460703369140625,0.8567397594451904,-0.562866747379303,0.464913934469223,-0.4112988276779651,0.2349688856951892,0.0469207411289215,-7.751133182209729,2.1384332936689256,-5.614037566885352
1757088627786658600,1.470658447265625,0.8548065423965454,-0.477069228887558,0.4088677167892456,-0.7094675352603197,0.2926518438570201,-0.4606014955073594,-7.731589108306169,2.1527258767850697,-5.635484259539842
1757088627796612900,1.48061279296875,0.8310615420341492,-0.4659301340579986,0.3390789628028869,-0.915402780303359,0.2953568650320172,-0.7899538613826036,-7.713449640503525,2.171419179078192,-5.6531420813053845
1757088627806567700,1.490567626953125,0.8259820938110352,-0.5179203748703003,0.266079306602478,-0.9815829331755638,0.3766330263577401,-0.8549369134247302,-7.69245945944488,2.1947392643891277,-5.672703690865635
1757088627816521700,1.500521728515625,0.8758131861686707,-0.5523201823234558,0.1998634338378906,-1.1609604261606932,0.6021675826229155,-0.7350935594260692,-7.667059060728549,2.224935519079864,-5.695282602420449
1757088627826476500,1.5104765625,1.081161618232727,-0.4596008956432342,0.1448902040719986,-1.47909932410419,1.3244938688039778,-0.2552326521754264,-7.641611900261044,2.2665093462228776,-5.7130631737828255
1757088627836430600,1.5204306640625,1.4922020435333252,-0.1968204081058502,0.0887084528803825,-1.8926058909595007,2.11818048697412,0.4302694856077432,-7.62509448070228,2.330994385614991,-5.709184871044755
1757088627846385700,1.5303857421875,1.824553608894348,0.1551256477832794,0.0951351970434188,-2.5553157666981217,1.3009380750410258,0.0483124877482652,-7.626026208594441,2.4189031168229875,-5.671244724228978
1757088627856339700,1.540339599609375,1.965830445289612,0.4642973840236664,0.1602266281843185,-2.5291677644848822,0.6125353935107588,-0.5345470216840505,-7.646787841594219,2.51668617631346,-5.60029545725882
1757088627866294500,1.55029443359375,1.866225361824036,0.5832636952400208,0.2350894212722778,-2.1535867313981054,0.2842386741682887,-1.3813526511013507,-7.681793688523768,2.608256206507981,-5.509758277243376
1757088627876249600,1.56024951171875,1.6393299102783203,0.4243009090423584,0.3196086287498474,-1.880539605590701,0.201461606760323,-1.7507962043464182,-7.717365937164425,2.68250393050164,-5.423728345519304
1757088627886203600,1.57020361328125,1.3873291015625,0.1355023980140686,0.3992728292942047,-1.6276088006168603,0.1278869597226381,-1.7820827384918927,-7.742249034008383,2.736026846374571,-5.361167552188038
1757088627896158700,1.58015869140625,1.1658824682235718,-0.1267277151346206,0.4727400243282318,-1.4465578214615582,0.1067719832405448,-1.5796850199252366,-7.7542095209151505,2.770160586644709,-5.326239446669817
1757088627906112800,1.59011279296875,1.0001925230026243,-0.2939350605010986,0.5373772978782654,-1.209681494709849,0.2612628722503781,-1.282021923777461,-7.756753360179066,2.7882015625089407,-5.3131058243304485
1757088627916067600,1.600067626953125,0.9485298991203308,-0.3521440327167511,0.6228072643280029,-1.132395425933599,0.2687801160126924,-0.7723720274627208,-7.75532946485579,2.7947499612391,-5.3117427192837
1757088627926021600,1.610021728515625,1.049989104270935,-0.3243875205516815,0.7652773261070251,-1.210280629646778,0.0955699134856462,-0.2690034033745527,-7.756452915927767,2.793932215115428,-5.310533928015828
1757088627935976400,1.6199765625,1.2110501527786257,-0.2709935009479522,0.9727882146835328,-1.1370955664485691,0.2434457682698965,-0.3633744624644517,-7.764845481219887,2.786715707865357,-5.302054268962144
1757088627945930500,1.629930419921875,1.3295480012893677,-0.2608303427696228,1.173015594482422,-0.5030354466110467,0.7790326543956995,-0.5225584777265787,-7.780752659925818,2.7706705819934605,-5.2871214882463216
1757088627955885600,1.639885498046875,1.3961915969848633,-0.3327685594558716,1.33375883102417,0.1703185727387666,1.6234341452807186,-0.0889618935227394,-7.8000401287198065,2.744935836756229,-5.272103951856494
1757088627965839600,1.649839599609375,1.4180614948272705,-0.4695426523685455,1.4309312105178833,0.6705190881848335,1.6587708315998315,0.0419692562013864,-7.81676213093996,2.710946473392844,-5.264920177832246
1757088627975794400,1.65979443359375,1.4810158014297483,-0.6549227237701416,1.5006500482559204,0.8173264369547366,1.4177768403962254,0.3322533480137586,-7.826501434665918,2.672716695980728,-5.269994996878505
1757088627985749500,1.66974951171875,1.6279221773147583,-0.743287205696106,1.5800362825393677,0.9761620771706104,1.142929679429531,0.8043652485728263,-7.8300126576572655,2.634073077070713,-5.284215829932689
1757088627995703800,1.679703857421875,1.7755118608474731,-0.7084937691688538,1.619670033454895,1.387874161824584,0.7223211716145277,0.6859463744193315,-7.833214668568968,2.5988851515725253,-5.296878912150859
1757088628005658600,1.68965869140625,1.9341857433319087,-0.6539615392684937,1.644100546836853,1.4148328958988188,0.5617328425124287,0.5613853442490101,-7.839224138116836,2.569434016160667,-5.302353544169664
1757088628015612700,1.69961279296875,2.103514671325684,-0.6032615900039673,1.6647974252700806,1.4250152672171592,0.5843146766766906,0.3649094169467687,-7.848208824083208,2.54685188973546,-5.299957588943839
1757088628025567500,1.7095673828125,2.2738037109375,-0.5622084736824036,1.678564429283142,1.2922007879644632,0.6370195541650057,0.3693447690457105,-7.859795216980576,2.531407067844272,-5.290177368685603
1757088628035521500,1.719521484375,2.4524242877960205,-0.5340253710746765,1.66869056224823,1.1206506276041268,0.7410232417359948,0.5148112246006727,-7.87319713486731,2.5243685475096105,-5.273586299368739
1757088628045476600,1.7294765625,2.654803514480591,-0.5472831726074219,1.638502597808838,0.8196352984189986,0.8652461259931326,0.8301391567766666,-7.886720048785209,2.528235452070832,-5.251481435066461
1757088628055430700,1.7394306640625,2.898916244506836,-0.6989864110946655,1.5870044231414795,0.5489549017429352,1.1347373128846288,1.278957860031724,-7.895861386618018,2.5460481721371413,-5.229090739560127
1757088628065385500,1.749385498046875,3.070310592651367,-1.228713035583496,1.3637195825576782,0.9384253439724444,1.608032285748422,1.6997247732788323,-7.885051823312043,2.58481337160021,-5.226383234167098
1757088628075339500,1.759339599609375,3.1220593452453613,-2.094181060791016,0.9814721345901488,1.323123164972663,1.8756883661672472,1.7858786236435171,-7.829665451654791,2.654739433002472,-5.274380080094933
1757088628085294600,1.769294677734375,3.1701180934906006,-2.9983747005462646,0.7050264477729797,0.2741641471385955,2.2233505879759785,1.3414695535242556,-7.71609051040113,2.75748669077158,-5.387819412270188
1757088628095249700,1.779249755859375,3.282198429107666,-3.534792423248291,0.7732952833175659,-1.8062416127145289,2.508101011058688,0.7000228305667638,-7.556732892137766,2.878553449085355,-5.54798191717565
1757088628105203700,1.78920361328125,3.389101028442383,-3.6375327110290527,1.144174575805664,-3.5387989805370568,2.605513629801571,0.0004857376903295,-7.382052617058157,2.9955715165302155,-5.718587490162253
1757088628115158500,1.799158447265625,3.431735038757324,-3.52698826789856,1.609039306640625,-4.0352644011080265,2.424495383872092,-0.3961737392604351,-7.216884851211309,3.0926430667504667,-5.875587147122621
1757088628125112600,1.809112548828125,3.4222817420959477,-3.4789392948150635,1.9559381008148196,-3.165150961339473,2.128723508298397,-0.4688678040713072,-7.066469248816371,3.1679987519860267,-6.016574995958805
1757088628135067400,1.8190673828125,3.410900354385376,-3.648469924926758,2.0739073753356934,-1.6899907302498816,1.764392475761473,-0.2509393388956785,-6.915667861974239,3.233802765022218,-6.155196115663648
1757088628145021700,1.829021728515625,3.4196906089782715,-3.8550827503204346,2.029180765151977,-0.302144040954113,1.496765329176187,0.3849783915072679,-6.749976949036121,3.3054046506822106,-6.299404680112004
1757088628154976500,1.8389765625,3.468991756439209,-4.025405406951904,1.9185985326766968,0.6270312441140413,1.5840134045183658,0.8265197972357272,-6.565549186924099,3.392783366666734,-6.446159421911835
1757088628164930600,1.8489306640625,3.564871072769165,-4.100306510925293,1.8020598888397217,0.7783961100578307,1.9663360208198424,0.8417734804689884,-6.36526568403244,3.5011227453544733,-6.587558189636469
1757088628174885600,1.8588857421875,3.643019199371338,-4.075875759124756,1.7169827222824097,0.1883423052072524,1.9481521293535828,-0.1188514203518629,-6.156487909039854,3.630637014017999,-6.7146490305453534
1757088628184839400,1.86883935546875,3.5847909450531006,-3.877394437789917,1.7003854513168335,-0.7458014159232378,1.315131289435923,-1.4839146154314278,-5.950182077118754,3.7722476709276433,-6.821720581254363
1757088628194794800,1.878794677734375,3.3545525074005127,-3.412623643875122,1.718559980392456,-1.0251537793546914,0.3657943830877542,-2.5800018796652555,-5.765550316867232,3.910249781951308,-6.902084157779813
1757088628204749600,1.88874951171875,3.032992124557495,-2.7746734619140625,1.6827088594436646,-0.3311760741710662,-0.4027054791167378,-3.089390494695305,-5.619163239336014,4.03396120955497,-6.951442939710617
1757088628214703600,1.89870361328125,2.7288460731506348,-2.041187047958374,1.5214440822601318,0.9296224443137644,-0.9390010980337856,-2.9315064561158417,-5.517511375588178,4.14408864070326,-6.968068495818972
1757088628224658400,1.908658447265625,2.470622301101685,-1.245537519454956,1.2016239166259766,2.3571324509561062,-1.3194631811603903,-2.638300923898816,-5.460765406015515,4.249217825172841,-6.949429261800646
1757088628234612500,1.918612548828125,2.2339470386505127,-0.4516704082489013,0.783990204334259,3.4686440788149837,-1.5138818836718797,-2.613839267337322,-5.444907911670208,4.357295338054001,-6.894732625973225
1757088628244567600,1.928567626953125,1.9644945859909055,0.3443508446216583,0.3581590056419372,3.939241483157873,-1.6916195004954933,-2.6711592374056576,-5.466143591922521,4.469940889503062,-6.805240571096539
1757088628254521600,1.938521484375,1.6405471563339231,1.097517490386963,-0.012875597923994,4.016581327947974,-1.8862398630589243,-2.7852117330431936,-5.522384534582495,4.582110932394862,-6.684154523560404
1757088628264476400,1.948476318359375,1.2724988460540771,1.728057622909546,-0.3044259548187256,3.9748002877950666,-1.8931556337967517,-2.8448978477209805,-5.608394008040428,4.687338608802855,-6.537978458431363
1757088628274430500,1.958430419921875,0.870887815952301,2.1253764629364014,-0.5174043774604797,3.9254280618608,-1.7560194919526575,-2.6017116071701047,-5.713747064393759,4.779746551126242,-6.37789135684967
1757088628284385800,1.9683857421875,0.4879151284694671,2.271232843399048,-0.6593000292778015,3.774676359379291,-1.700368916401267,-2.1133564278185366,-5.823963342869281,4.856375325037539,-6.218315127399563
1757088628294339600,1.978339599609375,0.1581533253192901,2.1930534839630127,-0.7588485479354858,3.5737720942407845,-1.663271650150418,-1.6228127985119818,-5.926823413363099,4.917440619114041,-6.071403149211406
1757088628304294700,1.988294677734375,-0.098439060151577,1.9604926109313965,-0.8404113054275513,3.4722932489722966,-1.4957669657886028,-1.0813245793879032,-6.011793022379279,4.966611184996366,-5.94655453427136
1757088628314248400,1.99824853515625,-0.2998555600643158,1.7684886455535889,-0.9024578332901,3.393794297274947,-1.034345386070013,-0.4688713112026452,-6.077544720706343,5.00722376589179,-5.844788104233145
1757088628324203500,2.00820361328125,-0.419982761144638,1.6619107723236084,-0.9535420536994934,3.2362621408730745,-0.5835813939660788,0.3488005781888961,-6.129954122379422,5.042333073195815,-5.759246832808852
1757088628334158600,2.01815869140625,-0.40632164478302,1.5994166135787964,-0.9511374831199646,2.481167995947599,-0.3744406308799982,1.208305530181527,-6.174672385028004,5.076951966634392,-5.6805245937496425
1757088628344112600,2.028112548828125,-0.2907894551753998,1.4930787086486816,-0.8991147875785828,1.7424463091522455,-0.1172796409904956,1.7328063741475344,-6.21481442580223,5.114277196422219,-5.602733498060703
1757088628354067500,2.0380673828125,-0.146069049835205,1.26888906955719,-0.8241510391235352,1.219269991788268,0.2366682369589805,1.9567869789689776,-6.247691444009542,5.155821505209803,-5.527588532966375
1757088628364021500,2.048021484375,-0.028491823002696,0.935898780822754,-0.7017114162445068,0.531373652344942,0.391143928399682,1.928309657025337,-6.268628433576226,5.1990170883357525,-5.463048548516631
1757088628373976600,2.0579765625,0.0679418072104454,0.6077529788017273,-0.5192925930023193,-0.0187894561439752,0.2274824754625558,1.7114146265506744,-6.278409822878241,5.238479914674163,-5.413897271856666
1757088628383930600,2.0679306640625,0.1425494700670242,0.3316409289836883,-0.3242234587669372,-0.2179997768461704,-0.0647580111145973,1.4732716408640143,-6.281509542459249,5.270500608313084,-5.379112374201417
1757088628393885700,2.0778857421875,0.2013881057500839,0.0716293081641197,-0.1834697425365448,-0.0857803408771753,-0.2748877852380275,1.1876724919974804,-6.279204772648215,5.295228806856274,-5.357473958367109
1757088628403839500,2.087839599609375,0.2306961864233017,-0.1714397966861724,-0.1480403840541839,0.212394211924076,-0.5028711959600448,0.969176456066966,-6.268078982999921,5.316712908911705,-5.349218755719066
1757088628413794600,2.097794677734375,0.2383306473493576,-0.3874809145927429,-0.2037283629179,0.5030547358334064,-0.6594371376782655,0.731563631734252,-6.244051041680574,5.339951745679974,-5.354168487080932
1757088628423748600,2.10774853515625,0.2400419861078262,-0.5668469667434692,-0.3195201754570007,0.5357184035509824,-0.6315566125839949,0.6134557232260703,-6.204589384385943,5.368783872410655,-5.371183334767818
1757088628433703700,2.11770361328125,0.2471281141042709,-0.6850098967552185,-0.4857827723026275,0.4263227938085794,-0.4957581490844487,0.5736205564439296,-6.149362002682685,5.406414807146788,-5.396888853910565
1757088628443658500,2.127658447265625,0.270712286233902,-0.7044494152069092,-0.6605996489524841,0.1004594390928745,-0.3753396255463361,0.4337275171071291,-6.080426413622498,5.455386635586619,-5.42563797853291
1757088628453612500,2.137612548828125,0.2975900173187256,-0.5867477655410767,-0.7915112376213074,-0.5753945803791284,-0.3425491165786981,0.2719897257089614,-6.005367373245954,5.514622668409348,-5.449300593671202
1757088628463567600,2.147567626953125,0.2978169322013855,-0.4083695709705353,-0.9118379354476928,-1.0571341409832238,-0.4729945286124944,-0.0566863483399152,-5.931390867409109,5.581472683367132,-5.46224716900587
1757088628473521400,2.157521484375,0.2491765022277832,-0.2622866332530975,-1.033355474472046,-1.1846616197437048,-0.592199000185728,-0.4660492395192384,-5.858930026832223,5.65354130975604,-5.466333561536669
1757088628483476700,2.167476806640625,0.1931782066822052,-0.1208485290408134,-1.0665770769119265,-1.651792809280753,-0.9353741397082804,-0.4537620048761367,-5.788488124862313,5.726769627574086,-5.465153411841392
1757088628493430500,2.177430419921875,0.1734047532081604,-0.0010391981340944,-0.9546656012535096,-2.3362509909689426,-1.982777160272002,-0.0340706119060516,-5.727120925229787,5.795094391259551,-5.457779083681106
1757088628503385600,2.187385498046875,0.147020548582077,-0.0949222818017005,-0.7402124404907227,-2.6247528755396603,-2.85233998042047,-0.1824345424681902,-5.676692468240857,5.851825747784972,-5.449924863049388
1757088628513339400,2.19733935546875,0.1165726035833358,-0.4801290035247803,-0.525102436542511,-1.7488620214134454,-1.9541577995091677,-0.6031617082267999,-5.624830763578415,5.894864679044485,-5.457311466169357
1757088628523294700,2.207294677734375,0.0367765724658966,-0.9318575859069824,-0.2377548366785049,-1.5412977138638495,-0.5478501553714274,-0.7485790639430284,-5.563195852920413,5.920887009051442,-5.492206253939867
1757088628533248800,2.217248779296875,-0.0114932898432016,-1.2813254594802856,0.1234861612319946,-1.847254591104388,0.208315418177843,-0.9090157096147536,-5.4987546526700255,5.92458177191615,-5.552784933543205
1757088628543203600,2.22720361328125,0.0009338182862848,-1.6807376146316528,0.4359455108642578,-1.4328519521921872,0.0900602101534605,-1.125596267312765,-5.433568187010288,5.908612049368023,-5.633384072390198
1757088628553158400,2.237158447265625,-0.0134457638487219,-2.1082651615142822,0.6206260919570923,-0.9051607877522706,-0.1119090538680553,-1.2645949881583451,-5.35747220480144,5.879689906266331,-5.735601168805361
1757088628563112400,2.247112548828125,-0.0845873206853866,-2.3575122356414795,0.6898634433746338,-0.6481734008640051,0.1252057578146457,-0.8068348535567521,-5.266402525344491,5.841892967313528,-5.85727582988441
1757088628573067800,2.25706787109375,-0.0376086309552192,-2.40295958518982,0.6499585509300232,-0.5588169550657272,0.3850619781374931,-0.1069867950350046,-5.164671166619658,5.802452937328815,-5.985657879647612
1757088628583021600,2.267021484375,0.1308823823928833,-2.250610828399658,0.5344295501708984,-0.7096727024435997,0.6645131257683038,0.1861678837776184,-5.058258372080326,5.77469223922193,-6.102240186023712
1757088628592976600,2.2769765625,0.2857451438903808,-1.8817228078842163,0.3831453621387481,-0.958570306378603,1.4037147050350904,0.0052624505728483,-4.957203305181861,5.764973978284001,-6.193675191661715
1757088628602930400,2.286930419921875,0.3322034478187561,-1.3380765914916992,0.250414490699768,-1.4006769447743892,2.116785817745328,-0.1596989790469408,-4.87512415691018,5.76911590039432,-6.254666543719172
1757088628612885500,2.296885498046875,0.3344875574111938,-0.8997831344604492,0.208081305027008,-1.9521207407236096,2.345084870287776,0.0127168582320213,-4.819130174748599,5.779189550641179,-6.288667597520351
1757088628622839800,2.30683984375,0.3491093814373016,-0.7769054174423218,0.3415884971618652,-2.5230612643033266,1.9212153148502111,0.5001204359471798,-4.782995031528174,5.787964977771043,-6.308154972800612
1757088628632794600,2.316794677734375,0.4284810423851013,-0.9548835754394532,0.6530054807662964,-2.821957117116451,1.3495862244844437,1.0956231538534165,-4.757786355991661,5.788876831918954,-6.326355230879783
1757088628642748700,2.326748779296875,0.5833558440208435,-1.3565294742584229,1.0464824438095093,-2.642095055484772,1.1805384023338557,1.455504513505101,-4.734290621852875,5.780602924570441,-6.351497270920873
1757088628652703500,2.336703369140625,0.7492309212684631,-1.8032597303390503,1.4078412055969238,-2.242308386424184,1.2114397365540266,1.458632290136814,-4.704767297987639,5.764964625933766,-6.387545320379734
1757088628662657500,2.346657470703125,0.8838114142417908,-2.126307725906372,1.6621520519256592,-1.689757213754952,1.1043179169625044,1.4722855524361134,-4.666997539302707,5.745342810618877,-6.432771532550454
1757088628672612600,2.356612548828125,0.9743773341178894,-2.2659056186676025,1.8152070045471191,-1.1003063432335851,0.7901169429898262,1.4504606741189956,-4.624678739011287,5.72450577429533,-6.481725825333595
1757088628682567700,2.366567626953125,1.0774667263031006,-2.248114585876465,1.8666694164276123,-0.5760971756905316,0.401110611140728,1.765617925903201,-4.583108126738667,5.706198548710346,-6.527236115142703
1757088628692521500,2.376521484375,1.1993178129196167,-2.1627326011657715,1.8360686302185056,-0.0423842667430639,0.2377817511588335,2.4255519071877,-4.544606838908791,5.696097425934672,-6.56288201354146
1757088628702476500,2.3864765625,1.3466763496398926,-2.109809160232544,1.7373425960540771,0.4452057734549045,0.1441828454852104,3.211778857001662,-4.506669906963408,5.698567030918598,-6.5868544252812855
1757088628712430600,2.3964306640625,1.5702831745147705,-2.163036108016968,1.5866663455963137,0.9130833974450826,0.1274520754367113,3.929835356909036,-4.461440187661349,5.71963670695424,-6.599370207983255
1757088628722385700,2.4063857421875,1.8554285764694212,-2.246811389923096,1.398883581161499,1.2498013236522674,0.1324146662801504,4.3589398903906345,-4.401917154590786,5.766149451804161,-6.598864596548676
1757088628732339700,2.416339599609375,2.0942461490631104,-2.2992334365844727,1.207528591156006,1.152476675453782,0.1376905608564615,3.60304202786684,-4.327936264839768,5.839732574409246,-6.5830749067425725
1757088628742294500,2.42629443359375,1.7746822834014893,-2.762602567672729,0.48361936211586,4.891597737327218,-0.6229781693309545,-1.113182775941491,-4.218827070823312,5.930773612293601,-6.572503828367591
1757088628752248600,2.43624853515625,1.129402995109558,-2.6702587604522705,-0.6940600275993347,9.372616777944565,-2.4057190794706345,-5.22242543645203,-4.027262004177272,6.030091480135917,-6.602237287852168
1757088628762203600,2.44620361328125,0.9599524140357972,-1.5080615282058716,-1.2723393440246582,5.980041208809614,-2.782878321659565,-3.745688165304065,-3.825558989876508,6.136406074997782,-6.624197775247692
1757088628772157700,2.45615771484375,1.1701226234436035,-0.4067564606666565,-1.4656975269317627,4.005638493651151,-1.6080787552386522,-2.11103821400404,-3.6798777225270864,6.25701982884705,-6.593830109512806
1757088628782112500,2.466112548828125,1.3528319597244265,0.1601868420839309,-1.5590993165969849,3.409120461222529,-0.8635971897423267,-1.0350637634724378,-3.578510520939529,6.395100850325822,-6.516697185471654
1757088628792067600,2.476067626953125,1.2964463233947754,0.3224097490310669,-1.5251703262329102,2.644153157058358,-0.091806761559844,-0.6183481714427471,-3.4951419173792004,6.53609980507791,-6.421352897435426
1757088628802021400,2.486021484375,1.1479870080947876,0.0854379385709762,-1.299323558807373,0.8683949454128742,0.3168693163990974,-0.1747170999586582,-3.4170226126492023,6.662228522956371,-6.333172509679198
1757088628811976700,2.495976806640625,1.093306303024292,-0.6238977313041687,-1.1129907369613647,0.2838759783357382,-0.0617307722479104,0.6616904695630074,-3.3218186098665,6.77208005977273,-6.266965468800067
1757088628821930800,2.5059306640625,1.1500364542007446,-1.4337431192398071,-1.002113938331604,0.5410135873496532,-0.1968786628842353,1.5157301418870686,-3.184810478316247,6.8761027443051335,-6.224675894603132
1757088628831885600,2.515885498046875,1.138280153274536,-1.94529390335083,-0.709535539150238,-0.929086437740922,0.8176911786139011,0.9233540315687656,-3.019550650271773,6.974387761968374,-6.1976306512892245
1757088628841839600,2.525839599609375,1.0748449563980105,-2.391073942184448,-0.3604007065296173,-2.1793381355091928,1.3088748593896626,-0.1088607722133398,-2.8487843337655065,7.057961532711983,-6.183848794174194
1757088628851794400,2.53579443359375,1.0919241905212402,-2.726689338684082,-0.1069024503231048,-2.325410448002815,0.4190186082750559,-0.3060948244065046,-2.6748797192335125,7.130497776612639,-6.178301096919179
1757088628861748700,2.545748779296875,1.096088409423828,-2.7355239391326904,0.0027803760021924,-1.6371397222891448,0.0022480711877346,-0.7525608270555734,-2.501986327570677,7.199361469480395,-6.170872408223151
1757088628871703600,2.55570361328125,0.997814118862152,-2.37926983833313,0.0447068400681018,-1.0262421591132878,0.24179800106287,-1.4202011449337004,-2.346290154424309,7.263126377904415,-6.157297471857071
1757088628881657600,2.56565771484375,0.9145330786705016,-1.912872552871704,-0.0186910405755043,-0.336100086569786,0.27313012791574,-1.4013959066987036,-2.2164180122338237,7.320828625288605,-6.137047295510769
1757088628891612400,2.5756123046875,0.898343026638031,-1.38512122631073,-0.1546663343906402,0.1636865873783826,0.1627507678329944,-0.8480869013994932,-2.10942405680567,7.377787360829115,-6.106470370939373
1757088628901566500,2.58556640625,0.8796972036361694,-0.8170188665390015,-0.3327508568763733,0.4625900389760732,0.4932733465313911,-0.5229021765977144,-2.0249564059622585,7.436621827113628,-6.063546590492129
1757088628911521800,2.595521728515625,0.8666778206825256,-0.3072043061256408,-0.5091646909713745,0.6769302704013883,0.6614905630767345,-0.1856973436564207,-1.9603722901098428,7.497349559798836,-6.009747780287266
1757088628921476600,2.6054765625,0.8768119215965271,-0.0038926103152334,-0.6548444032669067,0.9373983390122652,0.4630255077838897,0.0685579879194498,-1.9082471122056244,7.560393168210982,-5.947220889225602
1757088628931431000,2.615430908203125,0.8960364460945129,0.0827575549483299,-0.6823368072509766,1.11098862689808,0.2950795093953609,0.1380582251250743,-1.8599249798461797,7.625238273087143,-5.879353221657872
1757088628941385700,2.6253857421875,0.9182365536689758,-0.0079292021691799,-0.5932820439338684,0.9152005357295274,0.4338829999297857,0.0547200167030096,-1.8140736215144395,7.68979287058413,-5.809183706888557
1757088628951339800,2.63533984375,0.9260807633399964,-0.306679368019104,-0.4900529086589813,0.6716402011692524,0.4897007487416267,0.0379904156982898,-1.7641442000888288,7.752488103950023,-5.740828548064828
1757088628961294600,2.645294677734375,0.9175594449043274,-0.6976920962333679,-0.3986231088638305,0.1169289278566837,0.686734309926629,0.0728770201623439,-1.7012917303346096,7.812681583628058,-5.677852159669995
1757088628971248600,2.65524853515625,0.8648106455802917,-1.0657869577407837,-0.2609763741493225,-0.9894548355944454,1.0749363396555185,-0.2688981894344091,-1.6254625823684037,7.868454908776282,-5.622783183398843
1757088628981203700,2.66520361328125,0.8374328017234802,-1.2953729629516602,-0.1024642139673233,-1.7582995657138525,1.0379197374254463,-0.5318646507322788,-1.5451003210172056,7.918488228967785,-5.574995596307516
1757088628991157800,2.67515771484375,0.8885723948478699,-1.354185700416565,-0.0563437454402446,-1.0050538251340388,0.942805166491866,-0.1744610793709755,-1.4659117796204983,7.966917036572098,-5.527180536687374
1757088629001112600,2.685112548828125,1.0750482082366943,-1.3764054775238037,-0.156056746840477,0.607312252034992,1.2447744354009629,0.8211907111674547,-1.383332719002664,8.021386293384433,-5.469383596757054
1757088629011066600,2.695066650390625,1.425423502922058,-1.419803500175476,-0.2846658527851105,1.730935173448175,1.3546505221366882,2.7043215022951363,-1.2905515594527124,8.091374021846056,-5.388371785455941
1757088629021021700,2.705021728515625,2.0294196605682373,-1.7044235467910769,-0.4706549048423767,2.9103187066584826,1.442722188821435,6.286641644650698,-1.1781138055354357,8.186607835245132,-5.268956886002421
1757088629030976800,2.714976806640625,2.81465744972229,-1.9386645555496216,-0.4440925121307373,1.685490934612602,1.8414964659690856,10.282838940739632,-1.044144384093955,8.316354159098863,-5.091013809734583
1757088629040930800,2.724930908203125,3.283287763595581,-2.1249301433563232,-0.1560511291027069,-1.0441191765874624,2.343876663541794,9.493004906344414,-0.9185274151299148,8.472078973817824,-4.8528924513578415
1757088629050885600,2.7348857421875,3.385900020599365,-2.3682124614715576,0.0852414444088935,-2.100057385784388,2.023240103563666,5.977221475213765,-0.8108426278933882,8.629609961175918,-4.587237481628359
1757088629060839700,2.744839599609375,3.3724465370178223,-2.285811185836792,0.1197536140680313,-1.7286299652457235,0.9613228199571372,3.7250501586839553,-0.715999494312331,8.778887499451637,-4.311479343296587
1757088629070794800,2.754794677734375,3.2247989177703857,-1.8124794960021973,0.0877619162201881,-1.5256506473988294,0.5901262855648994,0.8786208636119961,-0.6397550435435027,8.915452855670452,-4.034328289301693
1757088629080748800,2.764748779296875,3.074502944946289,-1.2792673110961914,-0.1504746228456497,0.0238806418031454,0.0221925425857305,-0.1225149112954735,-0.5790363344149664,9.037616177049278,-3.762526195119321
1757088629090703600,2.77470361328125,3.058901071548462,-0.9205082058906556,-0.5110750198364258,1.386896841225028,-0.2370306405305862,1.1359086947515606,-0.5091225845050067,9.149894648751616,-3.491503560876846
1757088629100657700,2.78465771484375,2.873599052429199,-0.6555641293525696,-0.6467987895011902,0.3746072561511769,-0.4174123421221971,-0.4295955318689346,-0.4280282094869762,9.25291312467754,-3.220365191300213
1757088629110612700,2.79461279296875,2.2262327671051025,-0.3151236474514007,-0.642164409160614,-0.7736503768354653,-1.9789479573726652,-6.392202790796756,-0.353120560279861,9.334833867517114,-2.9843887359976766
1757088629120566500,2.80456640625,1.3237881660461426,0.4176768064498901,-0.6678974628448486,-0.9009212504863738,-3.317247064167261,-10.59825162858963,-0.2927382434988394,9.388492392468452,-2.817956649303436
1757088629130521900,2.81452197265625,0.3685416579246521,1.4734337329864502,-0.6331196427345276,-1.1711971580147742,-3.72986281966269,-12.761382433402538,-0.2573932094764896,9.413696391829848,-2.7361346906632185
1757088629140475600,2.8244755859375,-0.6312997937202454,2.3955307006835938,-0.5311338901519775,-1.1638105548948048,-3.404599768927693,-13.833376874387264,-0.2556516265061684,9.411651734259724,-2.743326940254867
1757088629150430700,2.8344306640625,-1.026126265525818,3.016784906387329,-0.2875411510467529,-0.9425584982544184,-0.9400123209029436,-8.722652986532449,-0.2924002802487462,9.387954047808051,-2.8197932170808317
1757088629160385500,2.844385498046875,-1.003100872039795,3.422234296798706,-0.2719121277332306,1.689230851793289,1.6941905200272798,-2.9055981078773736,-0.3604487477434799,9.359989351561666,-2.903633237545192
1757088629170339800,2.85433984375,-1.010307788848877,3.4692142009735107,-0.3643235862255096,3.8695951154798265,2.3619594327211377,-1.325860480982065,-0.4324191744549199,9.331620750689506,-2.984002074767649
1757088629180294700,2.864294677734375,-0.8381186723709106,2.800319194793701,-0.2551068067550659,3.980778193160891,2.416098434665799,0.5801186862915754,-0.4978129627224057,9.30501565235853,-3.0560224781006573
1757088629190248700,2.874248779296875,-0.626625120639801,1.5550285577774048,0.0690484121441841,3.4860160693764684,2.15204885430634,0.5284136334955692,-0.5562613157661631,9.283257994058728,-3.1116081717222928
1757088629200203800,2.884203857421875,-0.6223744750022888,0.1758906245231628,0.3339695632457733,2.680444367623329,1.8147201027244328,-1.1936293545752763,-0.6025768575435504,9.262952288132906,-3.1630694788902995
1757088629210157600,2.894157470703125,-0.7471439838409424,-0.914545238018036,0.4620762765407562,1.343561557367444,1.5733575704693794,-2.515576169244945,-0.626946561505273,9.238707489192484,-3.228562526281178
1757088629220113000,2.90411279296875,-0.8681449890136719,-1.3716375827789309,0.5542317628860474,-0.6499784775245935,1.7572516640961169,-3.861913621066511,-0.6348101344872266,9.209390209293366,-3.309768106588721
1757088629230066700,2.914066650390625,-1.1205968856811523,-1.3005852699279783,0.7220187783241272,-2.3017636149555445,1.2914789034307002,-6.426259958699346,-0.6471448615338653,9.172380621325969,-3.4086715484112498
1757088629240021800,2.924021728515625,-1.4320870637893677,-1.045575499534607,0.9937757253646852,-2.741252764329314,0.7099082647651433,-7.87392486461997,-0.684401190803945,9.122629625207184,-3.532650394779444
1757088629249975800,2.933975830078125,-1.6783162355422974,-1.0137131214141846,1.367567777633667,-2.619053202593326,1.0388146404385563,-6.956944459736347,-0.7543775210887194,9.058132310855388,-3.6812414120957255
1757088629259930600,2.9439306640625,-1.712766170501709,-1.2235758304595947,1.4877994060516355,-0.3171001294802874,1.7632313230276109,-4.171500379242003,-0.8430403585996479,8.982842968854307,-3.842940040527284
1757088629269885700,2.9538857421875,-1.6904783248901367,-1.1441802978515625,1.2007129192352295,2.133456966561079,1.8274831381857397,-1.37425743214339,-0.917052812532708,8.904227697300911,-4.005514575010538
1757088629279839700,2.96383984375,-1.6892924308776855,-0.5274280905723572,0.8899511098861694,0.9257510097078978,1.1524234839618206,-0.0177282566532492,-0.9728872202184052,8.82586201659441,-4.1626980641052125
1757088629289794600,2.973794677734375,-1.823531985282898,0.1571329683065414,0.8112432956695557,-1.9672545969694848,0.646987405949831,-1.1226958696961402,-1.0386652950957418,8.74381969320178,-4.317079939782619
1757088629299748600,2.98374853515625,-1.8480850458145144,0.8009063601493835,0.9978067874908448,-4.801036007392407,-0.014615969851613,-1.416458743534982,-1.1386788170520217,8.652295840236544,-4.473426685792208
1757088629309703700,2.99370361328125,-1.5217455625534058,1.0152230262756348,0.620754063129425,-1.950617350423336,1.5261112506479024,1.7074138664767144,-1.2532735298074782,8.56604729732573,-4.606792076925933
1757088629319657700,3.00365771484375,-1.2515534162521362,1.208217978477478,0.0991837754845619,0.7717122483797371,1.3234002283483743,2.664367969830334,-1.3336013043671846,8.497315121883153,-4.710362633776665
1757088629329612800,3.01361279296875,-0.9411992430686952,1.5114082098007202,-0.0863080322742462,0.5585732094377279,-0.6350380249589681,3.477936223295331,-1.3974414699845017,8.445522390803694,-4.7844218494609
1757088629339566600,3.023566650390625,-0.7347521185874939,1.4893380403518677,-0.1891396045684814,1.4447111706815658,-1.7495605250716209,3.424768112209439,-1.4593758019804954,8.407986148613691,-4.8318110848844045
1757088629349521700,3.033521728515625,-0.6977109909057617,1.075494647026062,-0.2423865050077438,2.524132692927122,-2.1639754389435053,3.0541236587420104,-1.5034548899427056,8.376929331570864,-4.872070906819403
1757088629359475700,3.043475830078125,-0.640677273273468,0.5542106032371521,-0.1262111663818359,2.511246907868981,-2.2885849844306705,4.052641067844629,-1.5267812588639555,8.346962647852301,-4.916050041538477
1757088629369430800,3.0534306640625,-0.4851321876049042,-0.031649675220251,0.1520190387964248,1.887414898187667,-1.9159844284594056,5.621643950235844,-1.5404050028078258,8.318976908817886,-4.959048640787601
1757088629379384800,3.063384765625,-0.2635976672172546,-0.5971764326095581,0.4218268096446991,1.398492732603103,-1.4928507860809563,6.99851039583385,-1.5488785243816672,8.295674943685531,-4.9953112097799774
1757088629389339600,3.073339599609375,0.0633957460522651,-1.0459363460540771,0.5819096565246582,0.5836544592022895,-1.0662234563678503,8.387403963834046,-1.549415261606872,8.282496897682547,-5.016966576749086
1757088629399293700,3.083293701171875,0.2894690930843353,-1.2414451837539673,0.6360719799995422,-0.7297789402745664,-0.9879559753388166,7.3311699865609405,-1.5423182890832423,8.282788574105501,-5.018669873535633
1757088629409248500,3.09324853515625,0.3850636780261993,-1.2049685716629028,0.530549943447113,-0.7071843927592039,-2.484264208397269,4.788089432057738,-1.5291497415609656,8.290203234276175,-5.0104509112447495
1757088629419203800,3.103203857421875,0.5882894992828369,-0.8514890074729919,0.3660846054553985,0.0271668238669633,-2.077975317835808,4.598294005432725,-1.5144152598962186,8.30753839995861,-4.986154674378037
1757088629429157600,3.11315771484375,0.8334455490112305,-0.4679415225982666,0.1433630734682083,0.9216858060956,-1.0079185669153927,4.430307090511918,-1.503775938590616,8.33851513750255,-4.937428929653764
1757088629439112700,3.12311279296875,1.146135330200195,-0.2801646888256073,-0.0990927144885063,1.8038209614388645,-1.6733406242221591,4.946448102411628,-1.4879364182934165,8.386383973136544,-4.860556117853522
1757088629449066800,3.133066650390625,1.4146207571029663,-0.3070082068443298,-0.2037316858768463,1.467938463142514,-1.4611094939053058,4.894432960753143,-1.460157161616534,8.450532327920198,-4.756766365294158
1757088629459021800,3.143021728515625,1.62595534324646,-0.4698956608772278,-0.2521530091762543,0.4106359798550605,-0.5578560010790825,3.653521045999229,-1.4235333580963312,8.524861300456523,-4.633647642886638
1757088629468975900,3.152975830078125,1.7170506715774536,-0.6851948499679565,-0.2252862602472305,-1.1101939693890512,0.1963338884830474,1.5624045070394872,-1.3752861906692384,8.604900467333197,-4.498294000545144
1757088629478930700,3.1629306640625,1.5010194778442385,-0.6530358195304871,0.0115222930908203,-3.616552666825056,1.3947814569950103,-2.9649086672410365,-1.3346565125085412,8.678223477697372,-4.367783122059703
1757088629488884700,3.172884765625,1.0195902585983276,-0.2993831634521484,0.1752357929944992,-4.031037723323703,2.4954630632817745,-7.501325477692484,-1.3231455229349434,8.73139801852405,-4.264080755522847
1757088629498839600,3.182839599609375,0.7799403071403503,0.3928112983703613,-0.113933153450489,-0.9902643984116614,1.9760230098366736,-7.594692912697791,-1.3295675188064575,8.767209921139479,-4.187922229471803
1757088629508793600,3.192793701171875,0.9301296472549438,0.8257297277450562,-0.4883217811584472,0.8241967611156403,1.5338526585549117,-5.765435166054964,-1.3289242524668574,8.806106930288673,-4.105708641165495
1757088629518748700,3.202748779296875,1.0766005516052246,0.6781613230705261,-0.542894184589386,0.6623854660898446,1.8973709134042265,-5.716292072701454,-1.313159989362955,8.853941279131174,-4.006711091318726
1757088629528702700,3.21270263671875,1.1173301935195925,0.270993560552597,-0.342144638299942,1.07521281850934,2.0029408273786307,-4.789171089814603,-1.292037852487713,8.903246285048127,-3.902978037382662
1757088629538657800,3.22265771484375,1.2204115390777588,0.137003019452095,-0.0971492603421211,1.5787421861171722,1.5675713882833715,-2.1631039168059822,-1.27991589140892,8.950904692801833,-3.796513220395148
1757088629548612600,3.232612548828125,1.2214974164962769,0.0136677175760269,0.134226843714714,1.7088004985295235,1.403812320190668,-1.1319044275462626,-1.2847276756048205,8.99630158536434,-3.685977792967856
1757088629558567000,3.24256689453125,1.139084815979004,-0.1163992062211036,0.3045937716960907,1.2558784516088664,0.8890589632570743,0.4565037047997117,-1.303164226657897,9.03610518796444,-3.580638180617988
1757088629568521700,3.252521728515625,0.8896961808204651,-0.4117689728736877,0.3397703766822815,0.0722084732510149,-0.4190267915815114,1.509966756054759,-1.3246752167202531,9.067930651292205,-3.491168337573111
1757088629578475800,3.262475830078125,0.7017017602920532,-0.7815834879875183,0.257957249879837,-0.9233921716220675,0.8168792777091264,1.3852625180214642,-1.3311974580958486,9.090777273872494,-3.4287136349648235
1757088629588430600,3.2724306640625,0.6452496647834778,-0.7755831480026245,0.0292859002947807,-1.3999813637256622,3.108641138610244,0.9725120302304624,-1.3180360709667205,9.111513187909123,-3.378385423479974
1757088629598384600,3.282384521484375,0.6041717529296875,-0.6020017862319946,-0.3623268604278564,-1.3863473906487225,2.775242712214589,-0.3159650610357523,-1.2803440536931157,9.134414171025156,-3.3307036348506807
1757088629608339700,3.292339599609375,0.602843701839447,-0.3944384753704071,-0.7299772500991821,-1.2539321398466825,2.2546359530776736,-1.2785709065407511,-1.21374143762514,9.161067200151086,-3.282083980849385
1757088629618293800,3.302293701171875,0.6041752696037292,-0.2631691396236419,-0.9904636740684508,-0.9720248312354088,2.34164612801075,-0.8490133685946464,-1.1236503208767623,9.190774356150628,-3.2307062603116035
1757088629628248600,3.31224853515625,0.5936890244483948,-0.0702645108103752,-1.0837101936340332,-0.6628886663716286,1.9074661909610031,0.1223532909929752,-1.022030678898096,9.221081816130877,-3.177653592298925
1757088629638202600,3.32220263671875,0.6289463043212891,0.2108324021100998,-1.0289050340652466,-0.4866622578285634,1.763111496040225,1.1243962438732384,-0.9266644712910056,9.251113381779192,-3.1190652097299694
1757088629648157700,3.33215771484375,0.7281060218811035,0.4929102063179016,-0.8583208918571472,-0.5366516658131033,2.283565110442042,2.4546584669455886,-0.8497407330211252,9.279977657213806,-3.054555035896599
1757088629658111700,3.34211181640625,1.029334306716919,0.6055352687835693,-0.5573277473449707,-0.5683902545750141,3.319313933569193,4.121356292152405,-0.8007936736963689,9.312045112603904,-2.9689968133375046
1757088629668066800,3.35206689453125,1.265141248703003,0.6281784772872925,-0.2237208187580108,-0.4517524916846305,3.0711820533096787,3.79365549287647,-0.7823085342612117,9.348740227794648,-2.856475765050948
1757088629678021600,3.362021728515625,1.3706718683242798,0.7777653336524963,0.159441202878952,-0.4315302993237972,1.7579028214812278,2.664504163430631,-0.7986402950547635,9.385759752634169,-2.727651524478197
1757088629687975700,3.3719755859375,1.312591791152954,0.7350295782089233,0.5251795053482056,0.1981336313813924,0.2415472411721944,1.8920961878716944,-0.8516011200655251,9.418757182350754,-2.594644737523794
1757088629697930800,3.3819306640625,1.200514793395996,0.4253891408443451,0.8094652891159058,2.070100492807477,-1.2742927908301354,1.1363824497431516,-0.9297126798804848,9.444507125157116,-2.4713000974059103
1757088629707884800,3.391884765625,0.9635826349258424,0.214265763759613,1.0804173946380615,2.6514111653625965,-2.433521863153577,-0.3450038162544369,-1.026495914678648,9.46110170160532,-2.367327243364602
1757088629717839600,3.401839599609375,0.9315264225006104,-0.2035565078258514,1.2776106595993042,2.0158938324540854,-3.085874011006952,0.2814839686326682,-1.1384188509415831,9.47016237541735,-2.278248153202981
1757088629727793700,3.411793701171875,0.670673131942749,-0.5478288531303406,1.3800448179244995,1.6984791571319102,-3.476062830638885,-1.8185821849800643,-1.2555519961334765,9.472340888500211,-2.2065200108148155
1757088629737748700,3.421748779296875,0.4984004497528076,-0.7262811660766602,1.4741185903549194,1.2569704846292733,-4.212171120065451,-2.6145775184839963,-1.37578230362311,9.46624666327834,-2.160508347354829
1757088629747702500,3.43170263671875,0.1979241222143173,-0.7433136105537415,1.5618571043014526,0.5184546956695616,-4.39274279127121,-3.8864273000761855,-1.5032196198821066,9.452139227470756,-2.1372345854036507
1757088629757657900,3.441657958984375,-0.1634846776723861,-0.5397711396217346,1.502963662147522,0.3195855896204709,-4.042406674078107,-5.558787973350286,-1.633253966896981,9.42816330859959,-2.1476981117509304
1757088629767611600,3.451611572265625,-0.1475247740745544,0.0548196285963058,1.380879282951355,-1.395823075002432,-2.2178648500412703,-3.5949715341359374,-1.7642239873267709,9.39987128009498,-2.168021645594388
1757088629777566700,3.461566650390625,-0.0008258821908384,0.2644660770893097,1.0775138139724731,-1.440111129540205,-0.7856494421869515,-1.6112918720662592,-1.883789108905941,9.375895361223815,-2.171247475773096
1757088629787520800,3.471520751953125,0.0230130571871995,0.3221078813076019,0.7661344408988953,-1.4375047464340924,-0.7066396183580159,-0.7378557176157832,-1.9757292875871064,9.358685867747663,-2.163767203020304
1757088629797475800,3.481475830078125,-0.072551280260086,0.4532033205032348,0.471062570810318,-1.6032997042685746,-1.5528016891747711,0.4165291295468807,-2.0412740651652217,9.346077730587124,-2.1574131578184663
1757088629807430700,3.4914306640625,-0.2021215260028839,0.5562896728515625,0.2808845341205597,-1.347132986113429,-1.069927571582794,-0.0633032822616398,-2.0864513236276805,9.335459890460967,-2.160161725874245
1757088629817384700,3.501384765625,-0.2627488970756531,0.6910504102706909,0.1670732796192169,-0.8804840271353721,-0.2901327006429434,-0.6320683614984154,-2.120498116266728,9.32569954394698,-2.1691475808843967
1757088629827339800,3.51133984375,-0.2867501974105835,0.8478480577468872,0.0597976706922054,-0.1008119057923555,-0.1932066963732242,-0.98253190446347,-2.1476430205628274,9.317359585624931,-2.1782633458845315
1757088629837293600,3.52129345703125,-0.3259918689727783,0.8514571785926819,-0.0034348270855844,0.5780053473994136,-0.593633416903019,-1.679418044439703,-2.1689522044427694,9.310322526594996,-2.187217344451696
1757088629847249000,3.531248779296875,-0.494324117898941,0.7013871073722839,-0.022650446742773,1.4000288561291991,-2.1459715802192685,-2.783601667498052,-2.183830332361907,9.30179084509313,-2.2086080691352485
1757088629857202700,3.54120263671875,-0.6878514885902405,0.7210566401481628,0.0524999648332595,1.3436783156149088,-2.7218255948036907,-2.096385273142904,-2.2011013467669485,9.288370807027816,-2.2475939256116746
1757088629867157800,3.55115771484375,-0.7285634875297546,0.8233522772789001,0.0760361105203628,0.9604624037355184,-1.6978613174945114,-0.3321634777732193,-2.2251997229740024,9.27057153096497,-2.2968198749430475
1757088629877111600,3.561111572265625,-0.781669557094574,0.4093665480613708,-0.0194584559649229,0.76528645311594,-0.4835808045566082,0.309216901949793,-2.242658515036106,9.252494022482631,-2.3520694684781134
1757088629887066600,3.571066650390625,-0.7199941873550415,0.0132442228496074,-0.1071592420339584,-0.0539528317227959,0.907217135760188,0.8802062331072985,-2.240141856040061,9.235969004139305,-2.4184809458881613
1757088629897021000,3.58102099609375,-0.6949013471603394,-0.3372892737388611,-0.2843116521835327,-0.0082025956779718,1.4869652351737022,0.1612418245747685,-2.220649804584682,9.222896756598352,-2.485413086171448
1757088629906975700,3.590975830078125,-0.8654395937919617,-1.153122067451477,-1.2294076681137085,7.549471961224079,-4.957288060855865,-2.3622753668025136,-2.139773017840087,9.21851693407893,-2.571126207031309
1757088629916929800,3.6009296875,-1.498470902442932,-0.9807608723640442,-0.910756528377533,2.6106106606796384,-5.298718987059593,-5.459686963129044,-1.9988921365097163,9.212489344352484,-2.702745339019597
1757088629926884900,3.610884765625,-1.5257503986358645,-1.3391664028167725,-0.3921739757061004,-4.243075669156014,1.037213634982705,-2.6920626169636845,-1.9161580314606428,9.18079072227478,-2.8656276242777703
1757088629936840000,3.62083984375,-1.5040264129638672,-2.0351004600524902,-0.5576354265213013,-0.3217508048303425,-0.409143110948801,-1.7973782150402664,-1.822106998105347,9.145286278173328,-3.0354677658498286
1757088629946793700,3.630793701171875,-1.3673266172409058,-1.7265315055847168,-0.6920371651649475,-1.7334896802365778,2.945401125955581,0.2886161586001515,-1.7047332490906115,9.111199884176251,-3.201611098730564
1757088629956748800,3.640748779296875,-0.9076244831085204,-1.272659182548523,-0.8621476292610168,-3.000186609110236,4.7347810357183215,4.590332525034248,-1.5881510888449846,9.08634776699245,-3.3296357133582237
1757088629966702800,3.650702880859375,-0.349286288022995,-1.1376631259918213,-1.128726840019226,-2.3669401437431574,5.037852712911367,5.968438449299335,-1.4571984579414128,9.08030556421876,-3.405146589155495
1757088629976658000,3.660657958984375,0.0334035903215408,-0.9514312148094176,-1.3029966354370115,-1.533453576234728,2.7051024235397576,4.293876466588676,-1.3114565464459358,9.092477063527705,-3.431814523589611
1757088629986612000,3.670612060546875,0.1983812302350998,-0.807695746421814,-1.4132121801376345,-0.2109239932410418,1.5505892738223075,1.711029426625371,-1.157961171279475,9.11333338907361,-3.431711939997971
1757088629996566800,3.68056689453125,0.3229207694530487,-0.6076521277427673,-1.4340213537216189,0.2648924609243869,1.494862125903368,0.6196241827279328,-1.003802729094401,9.137638393768668,-3.4156031012400985
1757088630006520800,3.690520751953125,0.3988302052021026,-0.2356044948101043,-1.4124737977981567,0.3288420782655477,1.4715619143366814,0.6053998425424099,-0.8594570942629128,9.163182584869862,-3.386414416156709
1757088630016476000,3.700475830078125,0.4580786228179931,0.1342702209949493,-1.342443823814392,0.3816594762176275,1.8454554327279329,0.6917202816456556,-0.7319614719454198,9.188522193309664,-3.347488473173976
1757088630026430000,3.710429931640625,0.4576586484909057,0.2331668734550476,-1.1501860618591309,0.0568150162208825,1.811140490671992,0.7277724227577448,-0.6233432763163,9.212212280976772,-3.3040827544286846
1757088630036384800,3.720384765625,0.4606640338897705,0.1788839250802993,-0.913838267326355,0.622992197856307,0.4378519035607576,1.2525909543707967,-0.5354545649830251,9.233375480514765,-3.2601284618899222
1757088630046338800,3.7303388671875,0.4927530288696289,-0.176533505320549,-0.5765983462333679,0.5385100800961256,0.507384289470315,0.8924044742926954,-0.4675818924466148,9.252578778156638,-3.2158272556096312
1757088630056293600,3.740293701171875,0.5379149317741394,-0.3999993503093719,-0.3049737513065338,0.0603045388370752,0.2231219421654939,0.7038520334661007,-0.4180878302309662,9.270786050498485,-3.1698794511660933
1757088630066248000,3.750248046875,0.5718956589698792,-0.4283840656280517,-0.2589813470840454,0.0252291338026523,-0.1839642362534999,0.1458411340862512,-0.3800198557844385,9.289262787431475,-3.120187491758168
1757088630076202800,3.76020263671875,0.6223742365837097,-0.2907516360282898,-0.4508378803730011,0.8212672835350037,-0.9438000227481126,0.2266837263002991,-0.3380878993861377,9.3085426574409,-3.067105013129115
1757088630086157800,3.77015771484375,0.6541052460670471,-0.3758997917175293,-0.5744128227233887,0.4752373391032218,-0.5871013847857713,-0.1258320730194449,-0.2802593952737748,9.329379109242558,-3.0090754334867
1757088630096111900,3.78011181640625,0.6809182167053223,-0.4418431222438812,-0.6352860331535339,-0.0444096533571369,-1.2112480133742094,-0.1140162552803754,-0.2114704298763536,9.35108591413796,-2.9466715842828157
1757088630106067000,3.79006689453125,0.5703156590461731,-0.2398722171783447,-0.5639475584030151,-0.682508216664195,-0.3515986844748258,-1.5995304148629306,-0.1413964935691561,9.370707144930956,-2.8879519765496253
1757088630116021000,3.80002099609375,0.5532588958740234,-0.1713565438985824,-0.4124009013175964,-1.8290052331864832,1.1102648426681756,-3.054456251697242,-0.0909954177774954,9.386813061079382,-2.8372251211360093
1757088630125975800,3.809975830078125,0.5648283362388611,-0.0950368270277977,-0.4813791215419769,0.8387748831748962,-2.016993318128585,-2.451076224544644,-0.048987605964276,9.403405883961916,-2.7827985344216226
1757088630135929900,3.819929931640625,0.3836391568183899,0.2117582559585571,-0.5953791737556458,2.058888340049982,-5.356610035014152,-2.857402524507046,0.0061104828077513,9.417325688242911,-2.735751536564529
1757088630145884700,3.829884765625,0.0640625655651092,0.7853201031684875,-0.5374934077262878,-1.2133575528740883,-7.254676529467106,-3.461082119128108,0.045885041405633,9.4233737362355,-2.7144612035155293
1757088630155838700,3.839838623046875,-0.2835848927497864,1.0645939111709597,-0.5098583102226257,-0.1058066636060364,-8.645444659167527,-2.9854803306266664,0.0814153506007045,9.420266417869923,-2.724391061377525
1757088630165793800,3.849793701171875,-0.8195791840553284,0.6713442206382751,-0.2339304089546203,-0.9822609785676002,-7.021951477175951,-2.860973660992086,0.0848846524127759,9.404929732528329,-2.776772405999899
1757088630175747800,3.859747802734375,-1.3268945217132568,0.2650539875030517,-0.1721482723951339,0.9634148238003252,-3.4982144566923377,-1.6937974290564657,0.0897343300668057,9.374332934212685,-2.878229623958468
1757088630185703000,3.869702880859375,-1.717390775680542,0.0190808326005935,-0.14511339366436,-1.1410253071129322,-1.017034770306945,-1.111428041228652,0.1004459220241755,9.329252852514385,-3.020814094336331
1757088630195657700,3.87965771484375,-1.895444631576538,-0.1914295405149459,-0.2376691550016403,-0.3834042740583419,1.5787316647231575,-0.788472390653193,0.121538778006006,9.272689253771304,-3.189493667696416
1757088630205612000,3.889612060546875,-2.0146613121032715,-0.1191085427999496,-0.3155278861522674,-0.3421066335082054,5.944814997127652,-0.4271484309777617,0.151767437129002,9.208536222812532,-3.3690079388037324
1757088630215566800,3.89956689453125,-2.068409919738769,0.0509089976549148,-0.4732674360275268,-0.3319499811530113,8.888694612604379,-0.2306546757578849,0.1881488467280752,9.137249686712028,-3.556074232725799
1757088630225521000,3.90952099609375,-1.9987908601760864,0.2656546533107757,-0.7267376780509949,0.1624304498374462,8.827274806001782,0.5170677713558077,0.2368029692545533,9.061900723478198,-3.741159289702773
1757088630235475700,3.919475830078125,-1.8526532649993896,0.5516965389251709,-0.9273858070373536,0.5142378451595082,7.033638992360234,1.471963480874896,0.2957504126605577,8.986115122392773,-3.915695480136573
1757088630245429800,3.9294296875,-1.7368063926696775,0.6963303685188293,-0.9711156487464904,0.382091474426724,4.630286057499051,1.4914493948504328,0.3565203222533687,8.911918251803517,-4.076888497133552
1757088630255384800,3.939384765625,-1.6465420722961426,0.5861895084381104,-0.8561179637908936,-0.4252841349432245,1.9821330171495677,1.95872291546762,0.4082252289189025,8.837712613385916,-4.230670361091196
1757088630265339000,3.9493388671875,-0.7870582342147827,-0.9373841285705566,-1.2856193780899048,0.1109679736256599,-3.815362005510926,5.281504817408323,0.4914733113721012,8.774801106920838,-4.351057904969156
1757088630275294000,3.9592939453125,0.3491601943969726,-2.4529857635498047,-1.9551414251327517,-0.4498199161868542,-6.0221858215779065,4.354306969892979,0.7143787612427026,8.757113474538922,-4.355803930452466
1757088630285247700,3.969247802734375,1.1621626615524292,-1.4678515195846558,-1.9149328470230105,-0.3961690630853176,-1.9988520967602728,1.5951698815658688,0.9806539817623794,8.773395331776142,-4.270391253843903
1757088630295202800,3.979202880859375,1.3696180582046509,1.735823392868042,-0.2216552942991256,-1.3384113349974154,0.7845663231253623,-0.5621639274060726,1.0768444382991642,8.816631246912479,-4.156657614897191
1757088630305156900,3.989156982421875,1.698431372642517,0.8722268342971802,-0.1515952348709106,1.2476397617042063,1.6514450187563896,-1.2649892481729388,1.0334351393572985,8.877505694592,-4.036371485567092
1757088630315112000,3.99911181640625,1.958305835723877,0.1343780606985092,-0.133485734462738,0.8336977260410785,1.8838450768768784,-0.2786863007381558,1.0297397919707,8.948271421688794,-3.877946764239669
1757088630325065700,4.009065673828125,1.9356837272644043,-0.690542995929718,0.2930435836315155,-1.1462684684634208,0.5024006558388471,-0.913524711471796,1.035088094196096,9.023080286696551,-3.6990541321620345
1757088630335020800,4.019020751953125,1.9775248765945437,-0.8075154423713684,0.4838609397411346,-0.8931833497107028,0.0572498274415731,-0.2933729977384209,1.0260615418493748,9.097129857769607,-3.515651913705468
1757088630344974800,4.028974853515625,2.1674017906188965,-0.374248743057251,0.278649091720581,-0.266724133330956,0.4006523459792137,1.0513570188865065,1.0105724424250424,9.171517867016792,-3.3215096900478005
1757088630354930000,4.038929931640625,2.374263048171997,-0.054816972464323,-0.045898076146841,0.3019759178455919,0.5852741693586111,1.228976270027459,1.006305359565094,9.24546923841238,-3.111118926900625
1757088630364884700,4.048884765625,2.4949700832366943,-0.0854788422584533,-0.1675667911767959,0.6013442835412919,0.6357926427185535,1.423883632838726,1.0193809681069106,9.317052127110957,-2.885094541291892
1757088630374838800,4.0588388671875,2.4920754432678223,-0.2278223931789398,-0.0843477994203567,-0.0926467195153236,0.2941962968200445,1.7237600211217998,1.0361116650901734,9.384663189569116,-2.6504657012060284
1757088630384793900,4.0687939453125,2.266949415206909,-0.4885894954204559,0.0747535303235054,-0.4053180727679282,-0.6776976015120745,1.288270316647738,1.0451687587056309,9.445263496482372,-2.421775165127962
1757088630394747600,4.07874755859375,1.7514957189559937,-0.9038775563240052,0.2589577138423919,-0.3958536404605954,-2.5376415783196684,0.4600955918118357,1.0457296074587852,9.493394197922944,-2.225370111104846
1757088630404703000,4.088702880859375,1.343411922454834,-0.6930492520332336,0.2567755579948425,-0.9685600046690552,-1.7263292870879172,0.6953449018836021,1.0376919930841773,9.529180381575229,-2.070813463382423
1757088630414656800,4.09865673828125,0.9994121789932252,-0.1678501963615417,0.0873844027519226,-0.4947919344007969,-1.2567302461326122,0.6122055770345032,1.0294468734387308,9.554434649819136,-1.955352562251687
1757088630424611800,4.10861181640625,0.7028576135635376,0.1854165941476822,-0.0967023745179176,0.2933960863530636,-0.885695039781928,0.319011004602909,1.0296998252864926,9.570511924394964,-1.8749425162360072
1757088630434566000,4.11856591796875,0.4547878801822662,0.2945635914802551,-0.1890211105346679,0.4173731791555881,-0.4018430170685053,0.2563954123444855,1.0393486011847852,9.57956616846621,-1.8226523570284243
1757088630444520700,4.128520751953125,0.2392163276672363,0.3321149051189422,-0.1883403211832046,-0.1052361519753933,-0.2597042446315288,0.4581235610865056,1.0519927595067768,9.583772972506283,-1.7930404780969025
1757088630454475000,4.13847509765625,0.0872475728392601,0.3175945281982422,-0.1433560699224472,-0.5366764349281787,-0.1479150177508592,0.7960156456395984,1.0620543539896607,9.584810498860476,-1.781529050131887
1757088630464429800,4.148429931640625,0.0401660203933715,0.1138399988412857,-0.0485186465084552,-0.5183423944015055,0.034414895299077,1.1249410182744264,1.067063122062385,9.584888240271804,-1.7781088664248583
1757088630474384000,4.1583837890625,0.0044418452307581,0.0315595082938671,-0.0433574393391609,-0.493435843616724,-0.1846487113863229,1.1554130211666225,1.0696909132827073,9.5848829795748,-1.7765587143734096
1757088630484338700,4.168338623046875,0.0113953594118356,0.1046313196420669,-0.1000705137848854,-0.1512228271245956,-0.3248918793350458,0.9523333116851748,1.075384594879672,9.584167524781822,-1.7769859998747706
1757088630494294000,4.1782939453125,0.608503520488739,0.0603836998343467,-0.4038708806037903,0.6626597529865801,-3.4068162759333847,1.4897512126304209,1.0915426796067504,9.585503741821649,-1.7598470874167975
1757088630504247800,4.188247802734375,1.7823054790496826,0.0201804041862487,-1.0380264520645142,1.46245842429623,-9.140166450941562,2.550477386756241,1.164279560646042,9.597458383509515,-1.6442720583871009
1757088630514203000,4.198202880859375,2.9271342754364014,0.7367994785308838,-0.575492262840271,-1.2687351567029952,-8.045289731541276,2.3974526247762142,1.241800241895765,9.623218263188004,-1.421965378127247
1757088630524157000,4.208156982421875,3.349313497543335,0.9796565771102904,0.0184462834149599,-2.1673487147688864,-3.141007284685969,1.2994127651698886,1.2532120088785883,9.660866733580828,-1.125832925612852
1757088630534111700,4.21811181640625,2.856825828552246,0.2970321476459503,-0.2840491235256195,1.6327848880805074,0.1490419759541749,-0.6281234232649207,1.2393594246149062,9.692025841954347,-0.8360806025896221
1757088630544065800,4.228065673828125,1.9899003505706787,-1.1777737140655518,-0.2933273315429687,1.9076712120138108,-3.18589739677012,-0.8999103929433971,1.2778133661717177,9.70485843552053,-0.5943706451363862
1757088630554020900,4.238020751953125,1.2809605598449707,-1.5732840299606323,0.0795903280377388,-1.822932196883112,-2.384904254978895,-1.5417619703747332,1.298004067415744,9.71131038813889,-0.4195382847676053
1757088630563975000,4.247974853515625,0.8338741660118103,-0.6987254619598389,0.2688275873661041,-2.072368583869934,-1.132254556158185,-1.8678898212455213,1.2857244315572085,9.717263159063458,-0.3035012825156561
1757088630573929700,4.2579296875,0.4099476635456085,0.2637454271316528,0.228057786822319,-0.0169474815391004,-0.2299333757460117,-2.4110667241089043,1.2580422055140137,9.7226448521018,-0.2406614530473016
1757088630583883800,4.2678837890625,-0.1880804896354675,1.015592336654663,0.2720682322978973,-0.465700426081568,0.3610071488112211,-3.304037161721289,1.232294162403792,9.726063136112687,-0.2356399716234765
1757088630593838800,4.2778388671875,-0.7751442790031433,0.7169864177703857,0.1112918630242347,1.956178491681814,2.5165467678427693,-3.159683343583345,1.2073103085990995,9.727550159800051,-0.2958980227040126
1757088630603793000,4.28779296875,-0.8406192660331726,0.3457837402820587,-0.0764236971735954,1.6933773039482534,6.985402492457628,-0.0631939766682684,1.2109383629031478,9.72387936233282,-0.3875145954539999
1757088630613747700,4.297747802734375,0.2389977127313614,0.2763524651527405,0.0181835032999515,-1.9881986007988453,14.292350476431846,5.53684911326468,1.2100826228566468,9.722390585079788,-0.4256774816423654
1757088630623701800,4.30770166015625,1.305199146270752,0.2453068494796753,-0.4541733860969543,0.0341723187148571,12.184057177221774,3.5085844595372677,1.2274221724532544,9.72333751054108,-0.3471909510351717
1757088630633656800,4.31765673828125,1.354454517364502,-0.2614556849002838,-0.622687578201294,0.1463409003019332,1.8225462663054464,-2.7396467904374,1.2841942993804811,9.719750299704074,-0.2183891049573197
1757088630643612000,4.32761181640625,1.579052448272705,-0.8245722055435181,-0.3138846457004547,-0.497398902028799,0.2554085932642221,-2.758272872713208,1.3317786189846694,9.715543495664,-0.0704763750616693
1757088630653566000,4.33756591796875,1.8947579860687256,-0.9952105283737184,0.0723533406853675,-0.2447099429868161,2.801342783632874,-2.808490317299962,1.342152421221882,9.713749013462662,0.1100753721674904
1757088630663520800,4.347520751953125,1.9383907318115237,-0.7875247597694397,0.1779796481132507,0.7441558406732977,4.299295861288905,-3.9183226137697695,1.3265294662848115,9.71157166942358,0.3099614367067814
1757088630673474800,4.357474853515625,1.7379602193832395,-0.4779163002967834,0.2098765969276428,0.3058393883407115,3.871820974835753,-3.566492166365683,1.3062062247022983,9.706594465532898,0.4962278124228119
1757088630683429600,4.3674296875,1.478784203529358,-0.2996760904788971,0.2870272099971771,0.1165126021407544,3.093483316966891,-1.197527165731415,1.2796065331988036,9.70053121997118,0.657784182839468
1757088630693384000,4.377384033203125,0.9898006916046144,-0.0800550505518913,0.2959197759628296,0.3256897517144679,1.8347060751765965,0.8138014046337455,1.249545303064585,9.695320207324624,0.7808865386340766
1757088630703338800,4.3873388671875,0.3359725773334503,0.1271599233150482,0.2364231348037719,0.0800080410860478,0.5617354728609323,2.662635739210248,1.223784473538026,9.693227618959543,0.8450191843919456
1757088630713292800,4.397292724609375,-0.2221453338861465,0.2017834335565567,0.1624872386455536,-0.4429191238224506,0.4876660280436277,4.095527146629989,1.2062211251229047,9.695322545412182,0.846254863666743
1757088630723247900,4.407247802734375,-0.2273758351802826,-0.2046163380146026,0.1319659352302551,-0.3931764571405947,1.4990081396669148,2.9548358937770125,1.1919424244016408,9.699120768651364,0.8226157024692744
1757088630733201700,4.41720166015625,-0.3494061529636383,-0.4304817020893097,0.1271429508924484,-0.5148001186847686,2.768461673772335,0.523415313751623,1.1772457174640147,9.70278513637781,0.800279075237736
1757088630743157000,4.427156982421875,-0.5313959717750549,-0.3752602338790893,0.1873658150434494,-0.6381904976405203,2.388595510712266,-0.3110331575915217,1.1587795019250362,9.708107208183408,0.7617415470506995
1757088630753110800,4.43711083984375,-0.5205371975898743,-0.2349004596471786,0.1864811033010482,-0.358044280417636,0.964689081519842,-0.7347605280794203,1.1373562632113694,9.714347563877702,0.7129133648652582
1757088630763065900,4.44706591796875,-0.0873945951461792,-0.0618029274046421,-0.1981840431690216,-0.143460449494794,-2.622476162779331,-1.3668839807659388,1.1381011632945388,9.71619582209289,0.6860328836590052
1757088630773020000,4.45702001953125,0.0405439212918281,-0.0527263432741165,-0.2151020318269729,-0.6722738959629089,-5.192394455325603,-1.4527283267900346,1.1596440097998828,9.713694068405031,0.6853866216447204
1757088630782974700,4.466974609375,0.1170397922396659,0.051888383924961,-0.0907961279153823,-0.1207061813730746,-3.715544371452928,0.217124893707782,1.1743039649236946,9.711372931981089,0.6932701414361596
1757088630792929800,4.4769296875,0.1249600350856781,0.1641992181539535,-0.0076586278155446,0.4421521580379456,-0.974887234929204,0.5848224800683558,1.1793204048462211,9.709981185361745,0.7041557656530291
1757088630802883800,4.4868837890625,0.0535351522266864,0.1564009189605713,0.0009380648843944,0.2500502811014652,-0.124744570043683,0.3894519567247479,1.1804852839071305,9.70933236606419,0.7111326189283281
1757088630812839000,4.4968388671875,0.0288543067872524,0.0074689649045467,-0.0219803005456924,0.0131797995686531,0.074178750410676,0.5382252718053758,1.1819756685953586,9.70897873032093,0.7134932105798274
1757088630822792700,4.506792724609375,0.0377711057662963,-0.0846045091748237,-0.0358476489782333,-0.1048478833101689,0.1467594179749488,0.445083243053779,1.18463297817111,9.708374334686994,0.7173019552130252
1757088630832748000,4.516748046875,0.0435629487037658,-0.0729201510548591,-0.0285631027072668,-0.1249275984603911,0.1092915648460388,0.1648371456529945,1.187205166746676,9.707682845291496,0.7223642801038921
1757088630842701800,4.526701904296875,0.0389567017555236,-0.0580241344869136,-0.0159925930202007,-0.0765747787017375,0.1504015738695859,0.0301397752631455,1.188830649056658,9.707124626886843,0.7271758451040834
1757088630852657000,4.536656982421875,0.0281759593635797,-0.035113226622343,-0.0107445679605007,-0.1368870624538511,0.1714560523360967,-0.0566718083579093,1.189736950246617,9.706718968695402,0.7310882693074643
1757088630862611000,4.54661083984375,0.0228943042457103,-0.0066949296742677,-0.0054923938587307,-0.2001568077720701,0.1756353838473558,-0.0790759478677064,1.1904576657366006,9.706430799403789,0.7337403912514447
1757088630872565800,4.556565673828125,0.0149985663592815,0.0073918607085943,-0.000554094556719,-0.2045125918287783,0.2307090362936258,-0.141027888585627,1.1906244006056337,9.70627414753735,0.7355380883231759
1757088630882519800,4.566519775390625,0.0113197145983576,0.0128220980986952,0.0022271482739597,-0.1340881524503231,0.1825958705097436,-0.2191818993028253,1.1905294888637958,9.706205173954366,0.736628806169331
1757088630892475000,4.576474853515625,0.0056184194982051,0.01857665553689,-0.0017417604103684,-0.0131399059496819,0.1404641172230243,-0.320267653600499,1.1906382099352777,9.706140292024612,0.7373078014094382
1757088630902429000,4.586428955078125,-0.0032414800953119,0.0087617859244346,-0.0107607133686542,0.0907341638922691,0.1139092877745628,-0.4130980591196566,1.1913606789909303,9.706058458960056,0.7372129627328365
1757088630912383700,4.5963837890625,-0.0146762942895293,-0.0093935159966349,-0.0256419256329536,0.1530349911130964,0.0778460407465696,-0.4649047456592321,1.193105257635936,9.705910574921964,0.7363475050099194
1757088630922338000,4.606338134765625,-0.0279171932488679,-0.0243990756571292,-0.0415206663310527,0.1586099417012184,0.0568517680346965,-0.4879095544759184,1.1962095803268251,9.705654554334282,0.7346618900105357
1757088630932293000,4.616293212890625,-0.0456213541328907,-0.0262544993311166,-0.0584543757140636,0.1241010114431381,0.0158896430492401,-0.459508585704118,1.2009405543714762,9.705316700682044,0.7314001848008483
1757088630942247200,4.6262470703125,-0.0685802325606346,-0.0209033135324716,-0.068759948015213,0.0687225308313965,-0.0834498521029949,-0.3999238125089556,1.20678928039968,9.705000474339723,0.7259843702971935
1757088630952202000,4.636201904296875,-0.0850036740303039,-0.0287801455706357,-0.071908600628376,0.0363675637368112,-0.0994955624967813,-0.3353401350479573,1.2132554076738655,9.704731594270466,0.7187113836195319
1757088630962157000,4.646156982421875,-0.104386880993843,-0.0339343212544918,-0.0652110949158668,-0.0048209904156625,-0.0805114605635404,-0.2835327909212559,1.2195792769331484,9.704605337542295,0.7097006864290684
1757088630972111000,4.656111083984375,-0.120993822813034,-0.0358379483222961,-0.0592304393649101,-0.0069029112562537,-0.0098076927870512,-0.26397512688376,1.2252526463944464,9.704680740866063,0.6988222226053475
1757088630982066200,4.666066162109375,-0.1353967487812042,-0.041223544627428,-0.0546339862048625,0.0144715929448604,0.0447223543018102,-0.2502767833337188,1.2305128319449723,9.704915134143828,0.6861710500206798
1757088630992020200,4.676020263671875,-0.1479751169681549,-0.0443943031132221,-0.0515705496072769,0.0236531166575849,0.024780220991373,-0.2522974024411291,1.2355473189808428,9.705254741361736,0.6721805916562676
1757088631001975000,4.68597509765625,-0.1581493020057678,-0.0362254455685615,-0.0480210408568382,0.0755284114539623,0.0150818337976932,-0.1724955514516681,1.240384822139889,9.7056761816442,0.6570221124257892
1757088631011929000,4.69592919921875,-0.1584755331277847,-0.0347194261848926,-0.0497220009565353,0.140666069535911,0.0186585232406854,-0.0663947454709559,1.2449774106271565,9.706137953937054,0.6413021268550306
1757088631021884000,4.7058837890625,-0.1538752764463424,-0.0314034521579742,-0.0518048889935016,0.1992025757871568,-0.0252764800757169,0.0154019325975328,1.2497376107662916,9.706529583603142,0.6259446179211139
1757088631031838200,4.715838134765625,-0.1453571617603302,-0.0284609273076057,-0.0531188920140266,0.2601179399989545,-0.1439414379447698,0.0307025237124413,1.2546626460783183,9.706830612376333,0.6112426502864807
1757088631041793000,4.72579296875,-0.1278242617845535,-0.0336502417922019,-0.0543262585997581,0.2874992833994328,-0.1496627382010221,0.0811962279573082,1.2596037557423114,9.707015321293472,0.5980085997799411
1757088631051747000,4.7357470703125,-0.1063197627663612,-0.0403531529009342,-0.050809022039175,0.3049227118872106,-0.092569562625885,0.1438486450947821,1.2643268387414517,9.707083710354564,0.5868317740641534
1757088631061702000,4.745701904296875,-0.0889663398265838,-0.0498810149729251,-0.0450513996183872,0.2977411298200488,-0.0463157609730958,0.145839672781527,1.2686648679457604,9.707067343741654,0.5776581048643216
1757088631071656000,4.755656005859375,-0.0747642368078231,-0.0613107681274414,-0.0368768274784088,0.3149520846009254,-0.0117278471946716,0.129180324001424,1.2722544168703258,9.707047469997406,0.5700763444984331
1757088631081611300,4.765611328125,-0.0574701726436615,-0.0692422911524772,-0.0292498767375946,0.3357762614428997,-0.0280032746911048,0.0805922707147896,1.2750725430309773,9.707012398684023,0.5643456918919458
1757088631091566000,4.775566162109375,-0.0435295887291431,-0.0777958258986473,-0.020757058635354,0.3451801957346498,-0.0143096803814172,0.0263567495930939,1.2773399034410715,9.706937579882144,0.5605220784831791
1757088631101520100,4.78552001953125,-0.033975102007389,-0.0937904193997383,-0.0179693028330802,0.3525250055395066,-0.0016436755537986,-0.0147848236124962,1.279122841335088,9.706838795682788,0.5581189628642053
1757088631111475000,4.795474853515625,-0.0280453078448772,-0.0935643166303634,-0.0112903621047735,0.2957924799703061,-0.0166688107281923,-0.0303968187641352,1.2804904764264822,9.706750532877445,0.5565226701160892
1757088631121429000,4.805428955078125,-0.0209198482334613,-0.2794243097305298,-0.0862337797880172,0.3756336400568485,0.0285801977962255,-0.0032992242084816,1.283398180566728,9.706393390002846,0.5560606420949101
1757088631131384000,4.815384033203125,-0.0201400741934776,-0.2588593959808349,-0.0804765522480011,-0.1046237191654741,-0.1750210513412952,0.0131705202836543,1.2915486076660454,9.705140175071358,0.5590436399610713
1757088631141338000,4.825338134765625,-0.0234432853758335,-0.245416522026062,-0.0107676014304161,-0.0404779947303235,-0.0032926118046045,0.1602134679077193,1.2953386475987732,9.704598907801508,0.5596932629762217
1757088631151293000,4.83529296875,-0.0469989441335201,-0.2011638432741165,0.00501056201756,0.0353916313767433,-0.0040676878303289,0.3451898403458297,1.2938392028212546,9.704774264368414,0.560117589335516
1757088631161247000,4.8452470703125,-0.0698115155100822,-0.0971101969480514,-0.0062519283965229,-0.4661249351039528,-0.090760467377305,0.4445655758552253,1.2940695044457913,9.704974755376576,0.5560610074210912
1757088631171202300,4.855202392578125,-0.0420171692967414,0.006502479314804,-0.011615534313023,-0.4681435814499854,-0.4338268858283758,0.4084313094176351,1.295490038768202,9.705073539575936,0.5510449693573638
1757088631181156000,4.865156005859375,-0.0259158574044704,0.0588823296129703,-0.0034863981418311,-0.3020854426346719,-0.1751636746823787,0.1886548417551443,1.2965775417439638,9.705134914374351,0.5474126407369971
1757088631191111200,4.875111083984375,-0.0326307490468025,0.0528212413191795,-0.0297776591032743,-0.3233107476234436,0.0948760860025882,0.3420694067703559,1.298798432663828,9.705040221828222,0.543785061356984
1757088631201065000,4.88506494140625,-0.0106683587655425,0.0070656654424965,-0.0029044677503407,-0.3519944057941436,0.1396381877928972,0.5262512678299099,1.3009955043166874,9.704870125958324,0.5415627456650137
1757088631211020000,4.89502001953125,-0.0016133447643369,0.0405807457864284,-0.0047724093310534,-0.2213395887933671,0.2058066502273082,0.3462194025892764,1.3005258409783242,9.704991706511375,0.5405331468889489
1757088631220974000,4.90497412109375,-0.0095138782635331,-0.0433802008628845,-0.1179748699069023,-0.4350995361126959,0.1378594876825809,0.5924542170558125,1.3062893729411065,9.704253455364704,0.5398533479312434
1757088631230929200,4.91492919921875,-0.0039273658767342,-0.1566361784934997,-0.1929753422737121,-0.6692343090713023,0.0971340940624475,0.6926169382244348,1.321055564918369,9.702183663353324,0.5411451047748327
1757088631240884000,4.924884033203125,0.0247158743441104,-0.1847378760576248,-0.1605781316757202,-0.5248689466260373,-0.0171007724046707,0.3176930173395201,1.3378504862442613,9.699702367931604,0.5443692544531077
1757088631250838000,4.934838134765625,0.0519038178026676,-0.1585406213998794,-0.0795085728168487,-0.1964648213863372,0.1030026938349008,-0.2426750030931085,1.3476267609797417,9.697961077222228,0.5512277785783634
1757088631260793000,4.94479296875,0.032331071794033,-0.1078883782029151,-0.0510078072547912,-0.2127263664878904,0.2138911724835634,-0.2075462239036336,1.3526654857993126,9.696905430689451,0.5573989414939656
1757088631270747100,4.9547470703125,0.0205652266740798,-0.0974775478243827,-0.0483417138457298,-0.395229298017174,0.1781523351043462,0.1406041832808405,1.3565015568308532,9.696132692751288,0.5614952343642712
1757088631280702200,4.9647021484375,0.0577901192009449,-0.2564095854759216,-0.0641738176345825,-0.3493500287652015,0.092580668541789,0.1498250891558825,1.3603024104185402,9.69521499338448,0.5681362432813272
1757088631290656000,4.974656005859375,0.0790266990661621,-0.38179412484169,-0.0697986856102943,-0.4312253250278532,0.1435135679215192,-0.0415085433544591,1.3645152058079837,9.693961193931102,0.5793061277996748
1757088631300611000,4.984611083984375,0.0767845585942268,-0.4540184140205383,-0.0931023433804512,-0.5015644972756504,0.1828980683267116,-0.1619396706458181,1.3693122308261692,9.69243383823335,0.5933446630895137
1757088631310565000,4.994565185546875,0.0509604103863239,-0.5691114664077759,-0.1145967170596122,-0.4938837335146963,0.030794951236248,-0.2549883950907737,1.3755484948672354,9.690710667702556,0.6069361121989786
1757088631320520200,5.004520263671875,0.0308840535581111,-0.4599004685878753,-0.0902775898575782,-0.6853061768196522,0.2081523365706205,0.0150572838783264,1.3821687897898256,9.689029582747816,0.6186580411095172
1757088631330474200,5.01447412109375,-0.0430879071354866,0.0050149895250797,0.0435052439570426,-0.6613045389853417,0.3575146305203437,0.1050376337286084,1.3833065616481006,9.68870634214282,0.6211539495784789
1757088631340429000,5.024428955078125,-0.0899948701262474,0.3970259428024292,0.1932631731033325,-0.2854104944266378,0.462174443912506,-0.0956454994725063,1.3723781942680475,9.690886024269462,0.6112967185612768
1757088631350383000,5.034383056640625,-0.0976021885871887,0.4435652196407318,0.1717152744531631,0.0791699828267097,0.3727238900899887,0.0383796342115849,1.3561534740455448,9.694146487370134,0.595634892918542
1757088631360338000,5.044337890625,-0.1161922886967659,0.461870402097702,0.1073581501841545,-0.170570647803694,0.2099649389505386,0.1361704020844772,1.3452259834483264,9.696642980360984,0.5795461471006274
1757088631370293200,5.054293212890625,-0.1147254183888435,0.3900372385978699,0.0265171006321907,-0.4331412416517734,-0.0844546452313661,0.108880974751152,1.3409927297927438,9.698221773985027,0.5626924813248216
1757088631380247000,5.0642470703125,-0.1028582602739334,0.2996865510940552,-0.0345165804028511,-0.4735480708420276,-0.1977659671127796,0.2574213578587397,1.343840520439297,9.698706342631578,0.5473295290308073
1757088631390202000,5.0742021484375,-0.0968597531318664,0.1726516336202621,-0.0517522916197776,-0.4518248993337154,-0.1107891099274158,0.343858774405159,1.3492017552115023,9.698668933230636,0.5346635242031886
1757088631400156000,5.084156005859375,-0.1021761521697044,0.060207013040781,-0.0744094178080558,-0.0159260295368731,-0.0036082536250352,0.0109635117586702,1.3559306250751018,9.69832874149084,0.5236916464749723
1757088631410111200,5.094111328125,-0.0890225321054458,-0.128289133310318,-0.0960641130805015,0.2591255679607391,-0.2079167742490768,-0.1756826205225661,1.3642932336203752,9.697634329485894,0.5147615402400494
1757088631420065300,5.104065185546875,-0.1150477156043052,-0.0608962103724479,-0.0880657881498336,-0.0238718739748001,-0.219270527434349,-0.3537505287464708,1.3728554563909767,9.696867436766624,0.5063809576466679
1757088631430020000,5.11402001953125,-0.1193926632404327,-0.0228116754442453,-0.0704156905412674,0.3239407160900533,0.0118102647811174,-0.4049042312700301,1.3802823915213345,9.696377607423068,0.4954347623489797
1757088631439974100,5.12397412109375,-0.1203625574707984,-0.1859437078237533,-0.0599652528762817,0.7607320046819745,0.024683190357685,-0.5267038339029997,1.385968766594678,9.696075994127987,0.4854039283305406
1757088631449929000,5.133928955078125,-0.1344669312238693,-0.2716197371482849,-0.0904326140880584,0.5508687725402415,-0.1648293276727199,-0.349504744402878,1.3918762370727955,9.69569839298725,0.4759487387755885
1757088631459883000,5.143883056640625,-0.0997787043452262,-0.2630283534526825,-0.100834347307682,0.1687444552898407,-0.011408113721013,-0.095102661300078,1.399907129445672,9.694906365826723,0.468448409615457
1757088631469838000,5.153838134765625,-0.1237530186772346,-0.2509261667728424,-0.097603403031826,0.2494105218932032,-0.1632879434496164,-0.4882780224621296,1.4084236133784054,9.69400386402905,0.4614928183238953
1757088631479792000,5.163792236328125,-0.121757186949253,-0.0893522351980209,-0.0802939385175705,-0.1331692840397358,0.0364350029498338,-0.2005211841050535,1.4163115901492536,9.693301853239536,0.4520619594926014
1757088631489747000,5.173746826171875,-0.1610041856765747,0.0097543746232986,-0.037502534687519,-0.0152899235904216,-0.0242728559911251,-0.1003669385038316,1.4218833989322184,9.69310662292838,0.4385479230009019
1757088631499702000,5.183701904296875,-0.1158989891409874,0.0676124021410942,-0.0174253992736339,0.2178032313607633,0.0040671033084392,0.2010295354859903,1.424469323772192,9.693346861425042,0.4246051762357354
1757088631509656000,5.193656005859375,-0.0731991976499557,0.1842894852161407,-0.0155713055282831,0.0500397499322891,0.1012134723305702,0.1684180363470688,1.426883106915653,9.693465519368647,0.4136722788110375
1757088631519611100,5.203611083984375,-0.0547848269343376,0.1827690750360489,0.0013892319984734,0.204693720549345,-0.0072165072500705,-0.1228218583527952,1.4289007303483785,9.69355787382722,0.4044397190308198
1757088631529565200,5.213565185546875,-0.0194489415735006,0.1610123664140701,0.0113643677905201,0.4712390632472932,-0.0015811317116022,-0.1287890231288969,1.429307849844545,9.693757780313492,0.3981366368312388
1757088631539520000,5.22352001953125,-0.0145472800359129,0.0452898517251014,0.0266007632017135,0.8015735720276832,-0.1608288598597049,-0.4554667995000258,1.427877232519537,9.694090957790612,0.3951628086522221
1757088631549474000,5.23347412109375,-0.0095927352085709,-0.088732399046421,0.0229530315846204,1.0987713887512682,-0.4751771333485841,-0.7920480571828782,1.4254659335941076,9.694499538591504,0.3938624666433781
1757088631559429000,5.24342919921875,-0.0086232963949441,-0.1770442873239517,0.0042658154852688,0.980343746769428,-0.3709621411144733,-0.9716525638569146,1.4235840653702616,9.69473159378171,0.394949275499396
1757088631569383200,5.253383056640625,-0.0200959276407957,-0.256948173046112,0.0007762755267322,0.7903332160890102,-0.3509738305747509,-1.0597599594421685,1.4226575981751084,9.694794722145796,0.3967157371826469
1757088631579338000,5.263337890625,-0.0319489799439907,-0.3041483461856842,0.0004886360839009,0.562893264593929,-0.2799842315942049,-0.9790887052070348,1.4216004903376105,9.694882400429249,0.3983449458196759
1757088631589293000,5.27329296875,-0.027148101478815,-0.3505637943744659,0.001244441140443,0.4153611086808145,-0.190176534897089,-0.626255510501191,1.4202427921183407,9.69500631906986,0.4001529816223308
1757088631599247000,5.2832470703125,-0.0051536429673433,-0.4047165513038635,0.0038922978565096,0.3401308033905923,-0.1322492465853691,-0.1876749273397028,1.4184103159941732,9.69513900553882,0.4034523519612848
1757088631609202200,5.2932021484375,-0.0405212193727493,-0.4463239312171936,0.0080737266689538,0.0631049832105636,-0.0409545262008905,-0.5164872315214947,1.4163618590317666,9.695273445573449,0.4074014914458617
1757088631619156200,5.30315625,-0.0540816932916641,-0.4560375213623047,0.0454076267778873,-0.3115758861660957,0.120166010081768,-0.5693808730475605,1.412609374630451,9.695761521351336,0.4088197972785681
1757088631629111000,5.313111083984375,-0.0460831560194492,-0.3914758265018463,0.0494945123791694,-0.0665690060593187,0.0173240597665309,-0.0134092974755913,1.4067225085489452,9.696550041380524,0.4103977506523951
1757088631639065000,5.323065185546875,-0.0445973649621009,-0.3381385505199432,0.0634702742099762,-0.0186114692285656,0.1585445483148098,-0.2860573409628122,1.400214880220592,9.697484107360244,0.4105556811604648
1757088631649020200,5.333020263671875,-0.0417073033750057,-0.2762008607387543,0.0602260120213031,-0.0588730447292327,0.071342065680027,-0.2213670613221824,1.3933411950588226,9.69849708379507,0.4100599700653925
1757088631658974200,5.34297412109375,-0.0506587475538253,-0.2916239500045776,0.0535364858806133,-0.0992107542060315,-0.0218599496304988,-0.2408553864505142,1.3863938601389527,9.69952350423336,0.4093472917513922
1757088631668929000,5.352928955078125,-0.0454093888401985,-0.2411333471536636,0.0467547476291656,-0.2314052018642425,0.0148427643448114,-0.17229728893321,1.38062185260877,9.700378659757972,0.4085751383351161
1757088631678883000,5.362883056640625,-0.0450026877224445,-0.1898144334554672,0.0494353137910366,-0.343741979625076,0.0570890839219093,-0.0884856908457353,1.3750444908678532,9.701229139107465,0.4072137868540361
1757088631688838000,5.372837890625,-0.0366488844156265,-0.1101150885224342,0.0414370410144329,-0.2253193060792982,0.150423785701394,0.1363988405454903,1.3700463903196156,9.702014736527204,0.4052893581300973
1757088631698793200,5.382793212890625,-0.0501778684556484,-0.070043921470642,0.052825029939413,-0.2125146234333515,0.1590764632344246,0.2705423399122432,1.365323453450948,9.702789812552927,0.4026772759355604
1757088631708747300,5.392747314453125,-0.0513853468000888,-0.0827535912394523,0.0432477667927742,-0.29835429328233,0.2398603109985589,0.2174736340802162,1.3600326535664498,9.703706927397846,0.3984346699297428
1757088631718702000,5.4027021484375,-0.0467206202447414,-0.0468389578163623,0.0398082733154296,-0.3269837370477617,0.1444026257157325,0.2891267019381746,1.35589190049991,9.7044463475883,0.3945675461728125
1757088631728656100,5.41265625,-0.0455371141433715,-0.0031583225354552,0.042032279074192,-0.3355157108105719,0.1249468146175146,0.29998733784426,1.35170467794314,9.705195704650878,0.3904405659032985
1757088631738611000,5.42261083984375,-0.0518908984959125,0.0191074144095182,0.0330167822539806,-0.2780981255866587,0.087267364564538,0.2750365825915709,1.3480071385994552,9.705914666575191,0.3853140166698023
1757088631748565200,5.432565185546875,-0.0463312827050685,0.0603158362209796,0.0363627783954143,-0.4200152180969715,0.0850906050473451,0.3064274904269725,1.3446261178590355,9.706595634576678,0.3799602710843086
1757088631758520000,5.44252001953125,-0.0369985811412334,0.1001932471990585,0.0363353006541729,-0.4926876555979251,0.1001174937874078,0.2831846716033294,1.3411322843939064,9.70728069423139,0.3747718721283599
1757088631768474000,5.45247412109375,-0.0222633127123117,0.1711273491382599,0.0443082712590694,-0.5232734941281378,0.1274292790830135,0.3210923409216106,1.337450819402188,9.707950556316971,0.3705327001886442
1757088631778429000,5.462428955078125,-0.0202403962612152,0.2006932646036148,0.0492572411894798,-0.4679075807370245,0.1500216346412897,0.3642135801697149,1.3331126440674066,9.708701082423328,0.3664667659239843
1757088631788383000,5.472383056640625,-0.0072801215574145,0.2372994720935821,0.0477030202746391,-0.5445030369006097,0.1536211204379796,0.3889683744588866,1.328754302727431,9.709443425223231,0.3626614553568884
1757088631798338000,5.482338134765625,-0.0069167679175734,0.2239011079072952,0.0389554351568222,-0.4299275403022766,0.096845924770832,0.294929104606621,1.3247607030466195,9.710103350436686,0.3595858838364482
1757088631808293000,5.492293212890625,-0.0054267290979623,0.1956159472465515,0.0143643366172909,-0.2020658562637865,-0.0094102179020643,0.2247816555386409,1.322103612666577,9.71056512272954,0.3568596006777137
1757088631818247200,5.5022470703125,0.0042968168854713,0.210627868771553,0.0011763959191739,-0.2913337469957768,-0.0698614717334508,0.1921992728963494,1.3215892334036528,9.71071417581141,0.3547262419108301
1757088631828202000,5.512201904296875,-0.0054053450003266,0.2028530389070511,-0.0103612169623374,-0.3041743777379393,-0.1578998206704855,0.0309532105378806,1.3217103755652904,9.710766782781482,0.3528674623016268
1757088631838156000,5.522156005859375,-0.0346647650003433,0.0866630971431732,-0.0569183528423309,-0.0204079972565174,-0.1221791034698486,-0.2933649970950558,1.3244995678924023,9.71050783958435,0.3494792081028223
1757088631848111000,5.532111083984375,-0.0479406230151653,0.0131063228473067,-0.0854589194059372,-0.069824792984873,-0.013422376152873,-0.3070763827897608,1.3308202953465282,9.709788293138146,0.3453834266891702
1757088631858065200,5.542065185546875,-0.0539225749671459,0.0012276142369955,-0.077195830643177,-0.1738860559619963,0.0936573578625917,-0.1952933664541691,1.338066320952028,9.708951257792114,0.3408907914450392
1757088631868020000,5.55202001953125,-0.0454771593213081,-0.0044414568692445,-0.0586399883031845,-0.309069602433592,0.1598410178661346,-0.0441640262993052,1.3438140708237885,9.70830945275724,0.3365557579154148
1757088631877974000,5.56197412109375,-0.0271149631589651,-0.0157484170049428,-0.0420048348605632,-0.4620471642710268,0.11827858889997,0.2058370453655719,1.3480508316107094,9.70782371506691,0.3336065892536193
1757088631887929000,5.57192919921875,-0.0080773560330271,-0.0408388562500476,-0.0286216512322425,-0.639138592145592,-0.040118075376749,0.44331539313104,1.3509642348393798,9.707454297232628,0.3325553997002541
1757088631897883100,5.581883056640625,0.0128928795456886,-0.055593729019165,-0.012948602437973,-0.7373591662704945,-0.211795661509037,0.5071067877031863,1.3525186246745289,9.707199445688724,0.333707017420791
1757088631907838200,5.591838134765625,0.0103578176349401,-0.026193231344223,-0.0073983087204396,-0.7269513156332075,-0.1771095480531454,0.4478135082678869,1.352885412160307,9.707078449657558,0.3356889484856277
1757088631917793000,5.60179296875,0.0125457849353551,-0.0107985930517315,-0.0043019652366638,-0.5957564004063606,-0.1023392614901065,0.3554206173831596,1.353371295981109,9.706977911892531,0.3366532269405201
1757088631927747000,5.6117470703125,0.00933348108083,0.0037638377398252,-0.0043019652366638,-0.444938062429428,0.0255249018788337,0.1767718405313789,1.3536875223234297,9.706904846656322,0.3375326401235535
1757088631937702000,5.621701904296875,-0.000410906272009,0.0214885156601667,-0.0002330625429749,-0.3257739228665828,0.170220957583189,0.0264526477156206,1.3536346230924128,9.70690835378766,0.3376157152971252
1757088631947656000,5.631656005859375,-0.0126771591603755,0.0191193670034408,-0.0068741869181394,-0.1989206901058554,0.2563625329881906,-0.0841798468779772,1.353525171368569,9.706960376235845,0.336618557485938
1757088631957610800,5.64161083984375,-0.0242431387305259,0.0187210496515035,-0.0203341152518987,-0.1245185062028467,0.3005412819325924,-0.093872681113705,1.3542401877701282,9.706921797791123,0.3347891866343095
1757088631967565000,5.65156494140625,-0.034635592252016,0.0142674464732408,-0.0399735942482948,-0.1228628479503095,0.3248398568868637,-0.0846695666236802,1.3563256157420576,9.706716630607843,0.3323199835091829
1757088631977519900,5.661519775390625,-0.0392591767013073,0.0149282235652208,-0.0579281188547611,-0.1461002234138548,0.2791974651306867,-0.092832268682681,1.3602593019291758,9.706268886840345,0.3292594999600202
1757088631987474000,5.671473876953125,-0.0470116361975669,0.0085382349789142,-0.0692995488643646,-0.1650116985023021,0.2114309198498725,-0.1245829862738028,1.3655540473364294,9.705651631724834,0.3255463977210223
1757088631997429000,5.681428955078125,-0.0542984567582607,-0.0055269682779908,-0.0825877860188484,-0.1731328995071351,0.1703174036949873,-0.1947791333217173,1.372179310695082,9.704867787870764,0.3210733804928138
1757088632007384000,5.691384033203125,-0.0581768192350864,-0.0164600443094968,-0.0907628908753395,-0.2759339332900941,0.1118494326353073,-0.2868380064791068,1.3799600276991724,9.703929630237818,0.3160174853427335
1757088632017338000,5.701338134765625,-0.0669905096292495,-0.0320395566523075,-0.0939994156360626,-0.3881846402026713,0.0715624304324388,-0.3367625690665096,1.388362529863417,9.70291490023732,0.3102765305379405
1757088632027293000,5.71129296875,-0.0707375779747963,-0.0530558936297893,-0.094630055129528,-0.4363444216072559,0.0079869071006774,-0.3373021558359265,1.3971674753487109,9.701847563266751,0.3040826443338766
