time,seconds_elapsed,z,y,x
1757088626333295000,0.017295166015625,-0.7233893871307373,-0.8323478102684021,0.5643624663352966
1757088626343250200,0.027250244140625,-0.724982500076294,-0.8817076683044434,0.8400284051895142
1757088626353204200,0.037204345703125,-0.8136662840843201,-0.9184933304786682,1.0977091789245605
1757088626363159300,0.0471591796875,-0.9605523943901062,-0.8927310109138489,1.3135125637054443
1757088626373114000,0.057114013671875,-1.1185479164123535,-0.7955261468887329,1.4635987281799316
1757088626383068400,0.067068359375,-1.224260687828064,-0.6945385336875916,1.5419551134109497
1757088626393023200,0.077023193359375,-1.167175054550171,-0.660505473613739,1.5516998767852783
1757088626402977300,0.086977294921875,-0.942865788936615,-0.6250489354133606,1.5329456329345703
1757088626412932000,0.09693212890625,-0.6295603513717651,-0.5247803926467896,1.4716439247131348
1757088626422886100,0.10688623046875,-0.33910322189331055,-0.477216899394989,1.3856717348098755
1757088626432841200,0.11684130859375,-0.17895163595676422,-0.47890427708625793,1.3033976554870605
1757088626442795300,0.126795166015625,-0.17884723842144012,-0.5051880478858948,1.2472392320632935
1757088626452750000,0.13675,-0.27135828137397766,-0.5731775164604187,1.2368593215942383
1757088626462704000,0.1467041015625,-0.38908836245536804,-0.6893064975738525,1.2585529088974
1757088626472659200,0.1566591796875,-0.475168377161026,-0.7863816618919373,1.2744946479797363
1757088626482614300,0.1666142578125,-0.5239362120628357,-0.8186679482460022,1.2640068531036377
1757088626492568300,0.176568359375,-0.5553942322731018,-0.845500648021698,1.1990797519683838
1757088626502523100,0.186523193359375,-0.6635939478874207,-1.1158623695373535,1.058301568031311
1757088626512477200,0.196477294921875,-0.7795946002006531,-0.7911692261695862,0.7901132702827454
1757088626522432000,0.206431884765625,-0.8012253046035767,-0.3841617703437805,0.5778830647468567
1757088626532386300,0.21638623046875,-0.6335300803184509,-0.3318423926830292,0.44243282079696655
1757088626542341000,0.226341064453125,-0.43928202986717224,-0.26044729351997375,0.3009374737739563
1757088626552295200,0.236295166015625,-0.3512363135814667,-0.07477730512619019,0.13768702745437622
1757088626562250200,0.246250244140625,-0.335367888212204,0.0654679536819458,-0.002144377212971449
1757088626572204000,0.2562041015625,-0.3489726483821869,0.11299233138561249,-0.11393136531114578
1757088626582159400,0.266159423828125,-0.4028659760951996,0.183376744389534,-0.22836899757385254
1757088626592113200,0.276113037109375,-0.47199177742004395,0.2677488923072815,-0.32863539457321167
1757088626602068200,0.286068115234375,-0.5158771872520447,0.3000541031360626,-0.3979324698448181
1757088626612023000,0.29602294921875,-0.5357374548912048,0.2696450650691986,-0.44768378138542175
1757088626621977000,0.30597705078125,-0.5466140508651733,0.21890385448932648,-0.491303414106369
1757088626631932200,0.31593212890625,-0.5411586165428162,0.17283622920513153,-0.527134358882904
1757088626641886200,0.32588623046875,-0.5158069133758545,0.10016974061727524,-0.554405927658081
1757088626651841300,0.33584130859375,-0.4738679528236389,0.013621802441775799,-0.5666490197181702
1757088626661795000,0.345795166015625,-0.4228266179561615,-0.02400306984782219,-0.5612430572509766
1757088626671750400,0.35575048828125,-0.36513376235961914,0.0024261397775262594,-0.5465980768203735
1757088626681704200,0.3657041015625,-0.3077322542667389,0.052985720336437225,-0.5116958022117615
1757088626691659300,0.3756591796875,-0.2607612907886505,0.09045080095529556,-0.46266990900039673
1757088626701613300,0.38561328125,-0.2380913943052292,0.08664647489786148,-0.4036902189254761
1757088626711568100,0.395568115234375,-0.2584344744682312,0.017460748553276062,-0.3369319438934326
1757088626721523200,0.405523193359375,-0.29779306054115295,-0.10697758197784424,-0.2610379755496979
1757088626731477200,0.415477294921875,-0.3323694169521332,-0.2567894458770752,-0.17828504741191864
1757088626741432000,0.42543212890625,-0.33062106370925903,-0.4069693684577942,-0.08168074488639832
1757088626751386000,0.43538623046875,-0.3020855486392975,-0.5795858502388,0.02617780864238739
1757088626761341200,0.445341064453125,-0.25783634185791016,-0.7335794568061829,0.14486584067344666
1757088626771295200,0.455295166015625,-0.22344081103801727,-0.7779644727706909,0.26964372396469116
1757088626781250300,0.465250244140625,-0.21936218440532684,-0.7338470816612244,0.3768199682235718
1757088626791204000,0.4752041015625,-0.22808057069778442,-0.7530010938644409,0.43331921100616455
1757088626801159200,0.4851591796875,-0.1933598816394806,-0.860963761806488,0.4444027543067932
1757088626811113200,0.49511328125,-0.15639546513557434,-0.9307484030723572,0.39420217275619507
1757088626821068300,0.505068359375,-0.10692005604505539,-1.0828458070755005,0.27676156163215637
1757088626831023000,0.515023193359375,-0.08156729489564896,-1.3249591588974,0.060737915337085724
1757088626840977200,0.52497705078125,-0.15314002335071564,-1.6250967979431152,-0.18906472623348236
1757088626850932200,0.53493212890625,-0.30707046389579773,-1.9863083362579346,-0.4680934250354767
1757088626860886000,0.544885986328125,-0.49513623118400574,-2.1555330753326416,-0.767050564289093
1757088626870841300,0.55484130859375,-0.6180816292762756,-1.9444799423217773,-1.0839853286743164
1757088626880795100,0.564795166015625,-0.6164544224739075,-1.6637470722198486,-1.3730355501174927
1757088626890750200,0.574750244140625,-0.46430855989456177,-1.515133261680603,-1.5932360887527466
1757088626900704300,0.584704345703125,-0.19532449543476105,-1.4384883642196655,-1.7257068157196045
1757088626910659300,0.594659423828125,0.09768368303775787,-1.2665935754776,-1.745100736618042
1757088626920612600,0.604612548828125,0.32472509145736694,-0.9687339067459106,-1.679291844367981
1757088626930567400,0.6145673828125,0.47875460982322693,-0.5898507833480835,-1.529527187347412
1757088626940521700,0.624521728515625,0.6037793755531311,-0.2599247992038727,-1.2775095701217651
1757088626950476500,0.6344765625,0.7435886859893799,-0.1278620958328247,-0.936369001865387
1757088626960431600,0.644431640625,0.8920055627822876,-0.12870392203330994,-0.539010763168335
1757088626970385700,0.6543857421875,0.9425070881843567,-0.09080899506807327,-0.1493777632713318
1757088626980340700,0.6643408203125,0.8492903113365173,-0.04836273938417435,0.19804491102695465
1757088626990294800,0.674294677734375,0.6319422721862793,-0.1147707924246788,0.4960955083370209
1757088627000249600,0.68424951171875,0.3234102725982666,-0.2267971932888031,0.7468904256820679
1757088627010203600,0.69420361328125,-0.016176041215658188,-0.2841041684150696,0.9393067359924316
1757088627020158500,0.704158447265625,-0.3265988826751709,-0.23952417075634003,1.0700703859329224
1757088627030112500,0.714112548828125,-0.5599051117897034,-0.1368499994277954,1.1299331188201904
1757088627040067600,0.724067626953125,-0.6291310787200928,-0.05457083508372307,1.0726765394210815
1757088627050021600,0.734021728515625,-0.5631198287010193,-0.1566215604543686,0.9837706089019775
1757088627059976700,0.743976806640625,-0.38956934213638306,-0.2499144971370697,0.8826379179954529
1757088627069931500,0.753931640625,0.033000025898218155,-0.5180319547653198,0.7810031175613403
1757088627079885800,0.7638857421875,0.2919466495513916,-0.9062702655792236,0.6274449825286865
1757088627089840600,0.773840576171875,0.21623802185058594,-1.4194477796554565,0.3725738227367401
1757088627099794700,0.783794677734375,0.051418714225292206,-1.6940990686416626,0.12586897611618042
1757088627109749500,0.79374951171875,-0.0633254423737526,-1.5930465459823608,-0.07046564668416977
1757088627119703600,0.80370361328125,-0.10867801308631897,-1.2255744934082031,-0.24361665546894073
1757088627129658600,0.81365869140625,-0.15228088200092316,-0.7375755310058594,-0.4296877086162567
1757088627139612700,0.82361279296875,-0.11324746161699295,-0.407993346452713,-0.6094335317611694
1757088627149567500,0.8335673828125,-0.010190585628151894,-0.27448615431785583,-0.7680625915527344
1757088627159521500,0.843521484375,0.09347322583198547,-0.22583365440368652,-0.8979441523551941
1757088627169476600,0.8534765625,0.13627688586711884,-0.19894371926784515,-0.9918501377105713
1757088627179430700,0.8634306640625,0.14352600276470184,-0.22337423264980316,-1.038568377494812
1757088627189385700,0.8733857421875,0.14346688985824585,-0.3144519329071045,-1.0477749109268188
1757088627199340500,0.883340576171875,0.1482352763414383,-0.4395938813686371,-1.0333975553512573
1757088627209294600,0.893294677734375,0.16544675827026367,-0.537814736366272,-0.9945540428161621
1757088627219249700,0.903249755859375,0.18835127353668213,-0.6051849722862244,-0.9276618361473083
1757088627229203700,0.91320361328125,0.20932498574256897,-0.6143425107002258,-0.8322351574897766
1757088627239158500,0.923158447265625,0.22920602560043335,-0.6018450856208801,-0.7145543694496155
1757088627249112600,0.933112548828125,0.2490665465593338,-0.5588454604148865,-0.5850280523300171
1757088627259067600,0.943067626953125,0.2801717221736908,-0.46861833333969116,-0.4575638175010681
1757088627269021400,0.953021484375,0.3127576410770416,-0.35838237404823303,-0.33999139070510864
1757088627278976800,0.962976806640625,0.3415754437446594,-0.2646215260028839,-0.24102406203746796
1757088627288930600,0.9729306640625,0.3677295446395874,-0.21468088030815125,-0.17217043042182922
1757088627298885600,0.9828857421875,0.392901211977005,-0.2138875275850296,-0.13640019297599792
1757088627308840400,0.99284033203125,0.4043096601963043,-0.2663491368293762,-0.13959571719169617
1757088627318794800,1.002794677734375,0.4443012773990631,-0.3419666588306427,-0.16554182767868042
1757088627328749600,1.01274951171875,0.4935130476951599,-0.38956427574157715,-0.2096395194530487
1757088627338703600,1.02270361328125,0.5359337329864502,-0.43606653809547424,-0.26536455750465393
1757088627348658700,1.03265869140625,0.5691313743591309,-0.4795500934123993,-0.3291371464729309
1757088627358612500,1.042612548828125,0.5872179865837097,-0.5156734585762024,-0.3998837471008301
1757088627368567800,1.05256787109375,0.5849199295043945,-0.5264565944671631,-0.4718641936779022
1757088627378521600,1.062521484375,0.5547356605529785,-0.48879098892211914,-0.5342900156974792
1757088627388476700,1.0724765625,0.5092539191246033,-0.42449188232421875,-0.5721748471260071
1757088627398430500,1.082430419921875,0.46031859517097473,-0.3800687789916992,-0.582038402557373
1757088627408385500,1.092385498046875,0.406576007604599,-0.36734819412231445,-0.5636985301971436
1757088627418340600,1.102340576171875,0.33364027738571167,-0.36918124556541443,-0.5212775468826294
1757088627428294700,1.112294677734375,0.2567732036113739,-0.40139615535736084,-0.4439164698123932
1757088627438249500,1.12224951171875,0.19256199896335602,-0.43396395444869995,-0.3356347382068634
1757088627448203500,1.13220361328125,0.15232375264167786,-0.43408674001693726,-0.20980462431907654
1757088627458158800,1.142158935546875,0.1488880217075348,-0.37852999567985535,-0.0805414468050003
1757088627468112600,1.152112548828125,0.17702990770339966,-0.30492502450942993,0.03608503192663193
1757088627478067700,1.162067626953125,0.2371925711631775,-0.2586403489112854,0.09675849974155426
1757088627488021500,1.172021484375,0.30746302008628845,-0.25858786702156067,0.07019586861133575
1757088627497976600,1.1819765625,0.3815534710884094,-0.29082757234573364,-0.04818084463477135
1757088627507930600,1.1919306640625,0.45521384477615356,-0.3188434839248657,-0.25151532888412476
1757088627517885700,1.2018857421875,0.5274677872657776,-0.3322301506996155,-0.5402019619941711
1757088627527839700,1.21183984375,0.546489953994751,-0.3570774495601654,-0.925067126750946
1757088627537794600,1.221794677734375,0.6086779832839966,-0.4628280997276306,-1.3473526239395142
1757088627547749600,1.23174951171875,0.7734256386756897,-0.5376285910606384,-1.7419347763061523
1757088627557703700,1.24170361328125,0.9888948202133179,-0.5164718627929688,-2.0615532398223877
1757088627567658800,1.25165869140625,1.1804884672164917,-0.37413737177848816,-2.2954261302948
1757088627577612500,1.261612548828125,1.3199952840805054,-0.17868877947330475,-2.46818470954895
1757088627587567600,1.271567626953125,1.4071264266967773,-0.029763221740722656,-2.6161186695098877
1757088627597521700,1.281521728515625,1.4531972408294678,0.1122857928276062,-2.7459824085235596
1757088627607476700,1.291476806640625,1.4727855920791626,0.23944401741027832,-2.851449966430664
1757088627617430800,1.3014306640625,1.493166446685791,0.4138656258583069,-2.912522315979004
1757088627627385600,1.311385498046875,1.5225752592086792,0.5688387155532837,-2.849954128265381
1757088627637339600,1.321339599609375,1.569875955581665,0.5860533714294434,-2.2925078868865967
1757088627647294500,1.33129443359375,1.5526543855667114,0.8233023881912231,-1.5253151655197144
1757088627657249800,1.341249755859375,1.3640527725219727,1.1914769411087036,-0.7980156540870667
1757088627667203600,1.35120361328125,1.1037505865097046,1.2932528257369995,-0.19284002482891083
1757088627677158700,1.36115869140625,0.8769491314888,1.0335384607315063,0.20444954931735992
1757088627687112400,1.371112548828125,0.6992949843406677,0.5761599540710449,0.3826541602611542
1757088627697067800,1.38106787109375,0.5600952506065369,0.07453202456235886,0.45058101415634155
1757088627707021800,1.391021728515625,0.44434577226638794,-0.35740581154823303,0.48539865016937256
1757088627716976600,1.4009765625,0.36395105719566345,-0.6712952852249146,0.5122089385986328
1757088627726930700,1.4109306640625,0.3402196168899536,-0.8565173149108887,0.5299245715141296
1757088627736885500,1.420885498046875,0.4135383069515228,-0.9297409653663635,0.5542863607406616
1757088627746839600,1.430839599609375,0.5429274439811707,-0.9231003522872925,0.5521166920661926
1757088627756794600,1.440794677734375,0.6835724711418152,-0.8431552052497864,0.525703489780426
1757088627766749700,1.450749755859375,0.7929218411445618,-0.7049829363822937,0.49622148275375366
1757088627776703500,1.460703369140625,0.8544486165046692,-0.5635589957237244,0.4593862295150757
1757088627786658600,1.470658447265625,0.8525153994560242,-0.47776150703430176,0.40334001183509827
1757088627796612900,1.48061279296875,0.828769862651825,-0.4666220247745514,0.3335510790348053
1757088627806567700,1.490567626953125,0.8236904144287109,-0.518612265586853,0.26055142283439636
1757088627816521700,1.500521728515625,0.8735218644142151,-0.5530123114585876,0.19433565437793732
1757088627826476500,1.5104765625,1.0788702964782715,-0.4602930247783661,0.1393624246120453
1757088627836430600,1.5204306640625,1.4899115562438965,-0.19751307368278503,0.08318090438842773
1757088627846385700,1.5303857421875,1.8222631216049194,0.1544329822063446,0.08960764855146408
1757088627856339700,1.540339599609375,1.9635387659072876,0.46360546350479126,0.15469875931739807
1757088627866294500,1.55029443359375,1.8639336824417114,0.582571804523468,0.22956155240535736
1757088627876249600,1.56024951171875,1.6370389461517334,0.4236085116863251,0.31408095359802246
1757088627886203600,1.57020361328125,1.385038137435913,0.13481001555919647,0.39374515414237976
1757088627896158700,1.58015869140625,1.1635910272598267,-0.12741973996162415,0.4672122001647949
1757088627906112800,1.59011279296875,0.9979010820388794,-0.2946271002292633,0.5318495035171509
1757088627916067600,1.600067626953125,0.9462384581565857,-0.35283607244491577,0.6172794699668884
1757088627926021600,1.610021728515625,1.04769766330719,-0.3250795602798462,0.7597495317459106
1757088627935976400,1.6199765625,1.2087595462799072,-0.2716861069202423,0.9672606587409973
1757088627945930500,1.629930419921875,1.3272573947906494,-0.26152294874191284,1.1674879789352417
1757088627955885600,1.639885498046875,1.3939003944396973,-0.3334607779979706,1.3282310962677002
1757088627965839600,1.649839599609375,1.4157702922821045,-0.47023487091064453,1.4254034757614136
1757088627975794400,1.65979443359375,1.478724479675293,-0.6556148529052734,1.4951223134994507
1757088627985749500,1.66974951171875,1.6256308555603027,-0.7439793348312378,1.574508547782898
1757088627995703800,1.679703857421875,1.7732210159301758,-0.7091861963272095,1.6141424179077148
1757088628005658600,1.68965869140625,1.9318948984146118,-0.6546539664268494,1.6385729312896729
1757088628015612700,1.69961279296875,2.1012234687805176,-0.6039537787437439,1.6592696905136108
1757088628025567500,1.7095673828125,2.271512508392334,-0.5629006624221802,1.6730366945266724
1757088628035521500,1.719521484375,2.4501328468322754,-0.5347174406051636,1.6631627082824707
1757088628045476600,1.7294765625,2.6525120735168457,-0.5479752421379089,1.6329747438430786
1757088628055430700,1.7394306640625,2.896625280380249,-0.6996787190437317,1.5814766883850098
1757088628065385500,1.749385498046875,3.0680196285247803,-1.229405403137207,1.3581918478012085
1757088628075339500,1.759339599609375,3.1197681427001953,-2.0948734283447266,0.9759443998336792
1757088628085294600,1.769294677734375,3.1678268909454346,-2.9990670680999756,0.69949871301651
1757088628095249700,1.779249755859375,3.279906988143921,-3.535484552383423,0.7677674889564514
1757088628105203700,1.78920361328125,3.3868095874786377,-3.6382248401641846,1.1386467218399048
1757088628115158500,1.799158447265625,3.4294440746307373,-3.5276806354522705,1.6035116910934448
1757088628125112600,1.809112548828125,3.4199907779693604,-3.4796316623687744,1.9504104852676392
1757088628135067400,1.8190673828125,3.408608913421631,-3.6491620540618896,2.0683796405792236
1757088628145021700,1.829021728515625,3.4173991680145264,-3.8557748794555664,2.023653030395508
1757088628154976500,1.8389765625,3.4666998386383057,-4.026097297668457,1.913070559501648
1757088628164930600,1.8489306640625,3.5625791549682617,-4.100998401641846,1.7965319156646729
1757088628174885600,1.8588857421875,3.6407277584075928,-4.076567649841309,1.7114548683166504
1757088628184839400,1.86883935546875,3.5824995040893555,-3.8780863285064697,1.6948575973510742
1757088628194794800,1.878794677734375,3.3522613048553467,-3.413315773010254,1.7130322456359863
1757088628204749600,1.88874951171875,3.030700922012329,-2.7753655910491943,1.6771811246871948
1757088628214703600,1.89870361328125,2.7265548706054688,-2.041879177093506,1.515916347503662
1757088628224658400,1.908658447265625,2.4683310985565186,-1.246229648590088,1.1960961818695068
1757088628234612500,1.918612548828125,2.2316551208496094,-0.45236214995384216,0.7784622311592102
1757088628244567600,1.928567626953125,1.9622026681900024,0.34365910291671753,0.3526310324668884
1757088628254521600,1.938521484375,1.6382554769515991,1.0968255996704102,-0.01840350776910782
1757088628264476400,1.948476318359375,1.270207166671753,1.7273657321929932,-0.30995386838912964
1757088628274430500,1.958430419921875,0.8685963749885559,2.1246843338012695,-0.5229321718215942
1757088628284385800,1.9683857421875,0.48562368750572205,2.270540714263916,-0.664827823638916
1757088628294339600,1.978339599609375,0.15586230158805847,2.1923611164093018,-0.7643762230873108
1757088628304294700,1.988294677734375,-0.10073007643222809,1.9598002433776855,-0.8459389805793762
1757088628314248400,1.99824853515625,-0.3021468222141266,1.767796516418457,-0.9079855680465698
1757088628324203500,2.00820361328125,-0.42227402329444885,1.6612186431884766,-0.9590697884559631
1757088628334158600,2.01815869140625,-0.40861278772354126,1.598724365234375,-0.9566652178764343
1757088628344112600,2.028112548828125,-0.293080598115921,1.4923864603042603,-0.9046425223350525
1757088628354067500,2.0380673828125,-0.14836017787456512,1.2681968212127686,-0.8296787738800049
1757088628364021500,2.048021484375,-0.030782945454120636,0.9352065324783325,-0.7072391510009766
1757088628373976600,2.0579765625,0.06565038114786148,0.6070609092712402,-0.5248203873634338
1757088628383930600,2.0679306640625,0.1402580440044403,0.3309488892555237,-0.32975128293037415
1757088628393885700,2.0778857421875,0.1990973949432373,0.07093675434589386,-0.18899734318256378
1757088628403839500,2.087839599609375,0.22840547561645508,-0.17213234305381775,-0.15356798470020294
1757088628413794600,2.097794677734375,0.23603969812393188,-0.38817331194877625,-0.20925602316856384
1757088628423748600,2.10774853515625,0.2377510368824005,-0.5675393342971802,-0.3250478506088257
1757088628433703700,2.11770361328125,0.24483664333820343,-0.6857019066810608,-0.49131059646606445
1757088628443658500,2.127658447265625,0.2684208154678345,-0.7051414251327515,-0.6661274433135986
1757088628453612500,2.137612548828125,0.2952984869480133,-0.587439775466919,-0.7970390915870667
1757088628463567600,2.147567626953125,0.2955254018306732,-0.4090615510940552,-0.9173657894134521
1757088628473521400,2.157521484375,0.24688541889190674,-0.2629789113998413,-1.0388832092285156
1757088628483476700,2.167476806640625,0.19088712334632874,-0.12154081463813782,-1.072104811668396
1757088628493430500,2.177430419921875,0.17111343145370483,-0.001731320982798934,-0.960193395614624
1757088628503385600,2.187385498046875,0.14472922682762146,-0.09561440348625183,-0.7457402348518372
1757088628513339400,2.19733935546875,0.11428103595972061,-0.4808209538459778,-0.5306302905082703
1757088628523294700,2.207294677734375,0.03448500484228134,-0.9325495362281799,-0.24328269064426422
1757088628533248800,2.217248779296875,-0.013784787617623806,-1.282017469406128,0.11795832961797714
1757088628543203600,2.22720361328125,-0.0013576794881373644,-1.6814296245574951,0.4304176867008209
1757088628553158400,2.237158447265625,-0.015736885368824005,-2.108957529067993,0.6150983572006226
1757088628563112400,2.247112548828125,-0.08687844127416611,-2.3582046031951904,0.6843357086181641
1757088628573067800,2.25706787109375,-0.03989947959780693,-2.4036519527435303,0.644430935382843
1757088628583021600,2.267021484375,0.12859153747558594,-2.251303195953369,0.5289019346237183
1757088628592976600,2.2769765625,0.2834538221359253,-1.8824149370193481,0.37761759757995605
1757088628602930400,2.286930419921875,0.32991212606430054,-1.338768720626831,0.24488671123981476
1757088628612885500,2.296885498046875,0.33219659328460693,-0.9004755020141602,0.2025536447763443
1757088628622839800,2.30683984375,0.3468184173107147,-0.7775977849960327,0.3360608220100403
1757088628632794600,2.316794677734375,0.42619019746780396,-0.9555760025978088,0.6474778652191162
1757088628642748700,2.326748779296875,0.5810649991035461,-1.3572219610214233,1.040954828262329
1757088628652703500,2.336703369140625,0.7469399571418762,-1.8039520978927612,1.4023135900497437
1757088628662657500,2.346657470703125,0.8815204501152039,-2.127000093460083,1.656624436378479
1757088628672612600,2.356612548828125,0.9720857739448547,-2.2665975093841553,1.8096791505813599
1757088628682567700,2.366567626953125,1.075175166130066,-2.2488064765930176,1.861141562461853
1757088628692521500,2.376521484375,1.1970269680023193,-2.1634249687194824,1.8305410146713257
1757088628702476500,2.3864765625,1.3443855047225952,-2.110501527786255,1.731814980506897
1757088628712430600,2.3964306640625,1.5679917335510254,-2.1637282371520996,1.5811384916305542
1757088628722385700,2.4063857421875,1.8531371355056763,-2.2475035190582275,1.3933557271957397
1757088628732339700,2.416339599609375,2.0919554233551025,-2.2999258041381836,1.2020009756088257
1757088628742294500,2.42629443359375,1.772391438484192,-2.7632949352264404,0.4780917465686798
1757088628752248600,2.43624853515625,1.1271113157272339,-2.6709506511688232,-0.6995879411697388
1757088628762203600,2.44620361328125,0.9576607346534729,-1.5087534189224243,-1.2778671979904175
1757088628772157700,2.45615771484375,1.167831540107727,-0.40744873881340027,-1.4712252616882324
1757088628782112500,2.466112548828125,1.3505408763885498,0.1594945788383484,-1.5646270513534546
1757088628792067600,2.476067626953125,1.2941546440124512,0.32171785831451416,-1.5306981801986694
1757088628802021400,2.486021484375,1.1456953287124634,0.08474604785442352,-1.3048514127731323
1757088628811976700,2.495976806640625,1.091015338897705,-0.6245900988578796,-1.118518352508545
1757088628821930800,2.5059306640625,1.1477454900741577,-1.434435486793518,-1.0076415538787842
1757088628831885600,2.515885498046875,1.1359889507293701,-1.9459861516952515,-0.7150632739067078
1757088628841839600,2.525839599609375,1.0725537538528442,-2.39176607131958,-0.36592844128608704
1757088628851794400,2.53579443359375,1.0896331071853638,-2.727381706237793,-0.112430140376091
1757088628861748700,2.545748779296875,1.0937973260879517,-2.7362163066864014,-0.0027473168447613716
1757088628871703600,2.55570361328125,0.9955229163169861,-2.3799619674682617,0.03917909413576126
1757088628881657600,2.56565771484375,0.9122418761253357,-1.9135648012161255,-0.024218786507844925
1757088628891612400,2.5756123046875,0.8960514068603516,-1.3858131170272827,-0.16019420325756073
1757088628901566500,2.58556640625,0.87740558385849,-0.817710816860199,-0.33827871084213257
1757088628911521800,2.595521728515625,0.8643867373466492,-0.30789658427238464,-0.5146923661231995
1757088628921476600,2.6054765625,0.8745208382606506,-0.004584898240864277,-0.6603720784187317
1757088628931431000,2.615430908203125,0.8937448859214783,0.08206557482481003,-0.6878646612167358
1757088628941385700,2.6253857421875,0.9159449934959412,-0.008621185086667538,-0.5988098978996277
1757088628951339800,2.63533984375,0.9237893223762512,-0.3073714077472687,-0.4955807328224182
1757088628961294600,2.645294677734375,0.9152680039405823,-0.698384165763855,-0.40415093302726746
1757088628971248600,2.65524853515625,0.8625193238258362,-1.0664790868759155,-0.2665041387081146
1757088628981203700,2.66520361328125,0.8351414799690247,-1.296065092086792,-0.10799197852611542
1757088628991157800,2.67515771484375,0.8862816095352173,-1.3548781871795654,-0.06187135726213455
1757088629001112600,2.685112548828125,1.0727574825286865,-1.3770979642868042,-0.16158436238765717
1757088629011066600,2.695066650390625,1.4231327772140503,-1.4204959869384766,-0.29019346833229065
1757088629021021700,2.705021728515625,2.0271289348602295,-1.7051160335540771,-0.4761825203895569
1757088629030976800,2.714976806640625,2.812366485595703,-1.939357042312622,-0.44962015748023987
1757088629040930800,2.724930908203125,3.280996799468994,-2.125622510910034,-0.16157877445220947
1757088629050885600,2.7348857421875,3.383608818054199,-2.3689048290252686,0.07971373945474625
1757088629060839700,2.744839599609375,3.3701553344726562,-2.286503553390503,0.11422590911388397
1757088629070794800,2.754794677734375,3.2225077152252197,-1.813171625137329,0.08223415166139603
1757088629080748800,2.764748779296875,3.072211742401123,-1.2799594402313232,-0.15600238740444183
1757088629090703600,2.77470361328125,3.056610345840454,-0.9212007522583008,-0.516602635383606
1757088629100657700,2.78465771484375,2.8713083267211914,-0.6562566757202148,-0.6523264050483704
1757088629110612700,2.79461279296875,2.2239420413970947,-0.3158162832260132,-0.6476919651031494
1757088629120566500,2.80456640625,1.3214975595474243,0.4169841706752777,-0.673425018787384
1757088629130521900,2.81452197265625,0.3662506937980652,1.4727413654327393,-0.6386473178863525
1757088629140475600,2.8244755859375,-0.6335907578468323,2.394838333129883,-0.5366615653038025
1757088629150430700,2.8344306640625,-1.0284174680709839,3.0160927772521973,-0.29306888580322266
1757088629160385500,2.844385498046875,-1.005392074584961,3.421542167663574,-0.2774398624897003
1757088629170339800,2.85433984375,-1.0125988721847534,3.4685218334198,-0.369851291179657
1757088629180294700,2.864294677734375,-0.8404097557067871,2.7996268272399902,-0.26063451170921326
1757088629190248700,2.874248779296875,-0.6289163827896118,1.554336428642273,0.0635206550359726
1757088629200203800,2.884203857421875,-0.6246657371520996,0.17519845068454742,0.3284417986869812
1757088629210157600,2.894157470703125,-0.7494348287582397,-0.9152376651763916,0.45654863119125366
1757088629220113000,2.90411279296875,-0.8704358339309692,-1.3723300695419312,0.5487041473388672
1757088629230066700,2.914066650390625,-1.1228883266448975,-1.3012772798538208,0.7164909839630127
1757088629240021800,2.924021728515625,-1.4343785047531128,-1.0462675094604492,0.9882479310035706
1757088629249975800,2.933975830078125,-1.6806071996688843,-1.0144054889678955,1.3620401620864868
1757088629259930600,2.9439306640625,-1.715057134628296,-1.2242681980133057,1.4822717905044556
1757088629269885700,2.9538857421875,-1.6927688121795654,-1.144873023033142,1.1951854228973389
1757088629279839700,2.96383984375,-1.6915829181671143,-0.5281208157539368,0.884423553943634
1757088629289794600,2.973794677734375,-1.8258227109909058,0.15644046664237976,0.8057156801223755
1757088629299748600,2.98374853515625,-1.850375771522522,0.8002138733863831,0.9922791719436646
1757088629309703700,2.99370361328125,-1.5240362882614136,1.0145304203033447,0.6152264475822449
1757088629319657700,3.00365771484375,-1.253844141960144,1.207525372505188,0.09365618228912354
1757088629329612800,3.01361279296875,-0.9434900283813477,1.5107157230377197,-0.09183564782142639
1757088629339566600,3.023566650390625,-0.7370429039001465,1.4886455535888672,-0.19466722011566162
1757088629349521700,3.033521728515625,-0.7000020146369934,1.074802279472351,-0.24791419506072998
1757088629359475700,3.043475830078125,-0.6429682970046997,0.5535182952880859,-0.13173885643482208
1757088629369430800,3.0534306640625,-0.487422913312912,-0.032342225313186646,0.14649143815040588
1757088629379384800,3.063384765625,-0.26588839292526245,-0.5978689789772034,0.4162992238998413
1757088629389339600,3.073339599609375,0.061105165630578995,-1.0466289520263672,0.5763821005821228
1757088629399293700,3.083293701171875,0.28717851638793945,-1.2421377897262573,0.6305444240570068
1757088629409248500,3.09324853515625,0.38277241587638855,-1.2056607007980347,0.5250222086906433
1757088629419203800,3.103203857421875,0.5859982371330261,-0.8521811962127686,0.36055684089660645
1757088629429157600,3.11315771484375,0.831154465675354,-0.4686338007450104,0.13783536851406097
1757088629439112700,3.12311279296875,1.1438442468643188,-0.2808569669723511,-0.10462041944265366
1757088629449066800,3.133066650390625,1.4123294353485107,-0.3077003061771393,-0.20925948023796082
1757088629459021800,3.143021728515625,1.6236640214920044,-0.47058776021003723,-0.2576808035373688
1757088629468975900,3.152975830078125,1.714760184288025,-0.6858875751495361,-0.23081377148628235
1757088629478930700,3.1629306640625,1.4987289905548096,-0.6537285447120667,0.005994775798171759
1757088629488884700,3.172884765625,1.0172990560531616,-0.3000754117965698,0.16970807313919067
1757088629498839600,3.182839599609375,0.7776491641998291,0.39211905002593994,-0.11946088075637817
1757088629508793600,3.192793701171875,0.927838921546936,0.8250371813774109,-0.49384939670562744
1757088629518748700,3.202748779296875,1.0743098258972168,0.6774687767028809,-0.5484218001365662
1757088629528702700,3.21270263671875,1.1150394678115845,0.2703009843826294,-0.3476722240447998
1757088629538657800,3.22265771484375,1.218120813369751,0.13631044328212738,-0.10267684608697891
1757088629548612600,3.232612548828125,1.2192063331604004,0.012975453399121761,0.12869912385940552
1757088629558567000,3.24256689453125,1.1367937326431274,-0.11709146946668625,0.29906606674194336
1757088629568521700,3.252521728515625,0.8874052166938782,-0.4124613404273987,0.33424270153045654
1757088629578475800,3.262475830078125,0.6994107961654663,-0.7822758555412292,0.2524295747280121
1757088629588430600,3.2724306640625,0.6429589986801147,-0.7762757539749146,0.02375832572579384
1757088629598384600,3.282384521484375,0.6018810868263245,-0.6026943922042847,-0.36785444617271423
1757088629608339700,3.292339599609375,0.6005526781082153,-0.39513081312179565,-0.7355049252510071
1757088629618293800,3.302293701171875,0.6018842458724976,-0.2638614773750305,-0.9959913492202759
1757088629628248600,3.31224853515625,0.5913978219032288,-0.07095672935247421,-1.089237928390503
1757088629638202600,3.32220263671875,0.626655101776123,0.2101401835680008,-1.0344327688217163
1757088629648157700,3.33215771484375,0.7258152365684509,0.49221768975257874,-0.8638485074043274
1757088629658111700,3.34211181640625,1.0270435810089111,0.6048427820205688,-0.5628553628921509
1757088629668066800,3.35206689453125,1.2628507614135742,0.6274857521057129,-0.22924835979938507
1757088629678021600,3.362021728515625,1.368381381034851,0.7770726084709167,0.15391366183757782
1757088629687975700,3.3719755859375,1.3103013038635254,0.7343368530273438,0.5196519494056702
1757088629697930800,3.3819306640625,1.1982243061065674,0.4246964156627655,0.8039377331733704
1757088629707884800,3.391884765625,0.9612922072410583,0.21357299387454987,1.074889898300171
1757088629717839600,3.401839599609375,0.9292359948158264,-0.2042492777109146,1.2720831632614136
1757088629727793700,3.411793701171875,0.6683820486068726,-0.5485211610794067,1.3745170831680298
1757088629737748700,3.421748779296875,0.49610936641693115,-0.7269734740257263,1.4685908555984497
1757088629747702500,3.43170263671875,0.1956331431865692,-0.7440059781074524,1.5563294887542725
1757088629757657900,3.441657958984375,-0.16577565670013428,-0.5404635071754456,1.4974360466003418
1757088629767611600,3.451611572265625,-0.14981558918952942,0.054127149283885956,1.3753516674041748
1757088629777566700,3.461566650390625,-0.0031166973058134317,0.2637735903263092,1.071986198425293
1757088629787520800,3.471520751953125,0.020723121240735054,0.3214147686958313,0.7606070637702942
1757088629797475800,3.481475830078125,-0.0748412162065506,0.45251020789146423,0.4655351936817169
1757088629807430700,3.4914306640625,-0.20441199839115143,0.5555969476699829,0.2753570079803467
1757088629817384700,3.501384765625,-0.2650393843650818,0.6903576850891113,0.1615457534790039
1757088629827339800,3.51133984375,-0.28904059529304504,0.8471552729606628,0.05427016317844391
1757088629837293600,3.52129345703125,-0.32828226685523987,0.8507643938064575,-0.008962335996329784
1757088629847249000,3.531248779296875,-0.49661508202552795,0.700694739818573,-0.028178108856081963
1757088629857202700,3.54120263671875,-0.6901424527168274,0.7203642725944519,0.04697230085730553
1757088629867157800,3.55115771484375,-0.7308550477027893,0.8226603269577026,0.07050825655460358
1757088629877111600,3.561111572265625,-0.7839611172676086,0.40867459774017334,-0.024986309930682182
1757088629887066600,3.571066650390625,-0.7222849726676941,0.012551744468510151,-0.11268686503171921
1757088629897021000,3.58102099609375,-0.6971921324729919,-0.3379817605018616,-0.2898392677307129
1757088629906975700,3.590975830078125,-0.8677300214767456,-1.1538147926330566,-1.2349351644515991
1757088629916929800,3.6009296875,-1.5007612705230713,-0.9814536571502686,-0.9162840247154236
1757088629926884900,3.610884765625,-1.528041124343872,-1.3398590087890625,-0.39770156145095825
1757088629936840000,3.62083984375,-1.506317138671875,-2.0357930660247803,-0.5631629824638367
1757088629946793700,3.630793701171875,-1.3696171045303345,-1.7272242307662964,-0.6975647211074829
1757088629956748800,3.640748779296875,-0.909915030002594,-1.2733519077301025,-0.8676751852035522
1757088629966702800,3.650702880859375,-0.35157695412635803,-1.1383557319641113,-1.1342544555664062
1757088629976658000,3.660657958984375,0.03111291117966175,-0.952123761177063,-1.308524250984192
1757088629986612000,3.670612060546875,0.1960906833410263,-0.8083884119987488,-1.418739676475525
1757088629996566800,3.68056689453125,0.3206302225589752,-0.6083447933197021,-1.4395488500595093
1757088630006520800,3.690520751953125,0.3965393602848053,-0.23629695177078247,-1.418001413345337
1757088630016476000,3.700475830078125,0.4557877779006958,0.13357776403427124,-1.3479714393615723
1757088630026430000,3.710429931640625,0.4553680419921875,0.23247425258159637,-1.155713677406311
1757088630036384800,3.720384765625,0.45837342739105225,0.17819130420684814,-0.9193658232688904
1757088630046338800,3.7303388671875,0.49046212434768677,-0.17722591757774353,-0.5821260213851929
1757088630056293600,3.740293701171875,0.5356240272521973,-0.4006917476654053,-0.3105013966560364
1757088630066248000,3.750248046875,0.5696051716804504,-0.42907679080963135,-0.2645088732242584
1757088630076202800,3.76020263671875,0.620083749294281,-0.2914443612098694,-0.4563654065132141
1757088630086157800,3.77015771484375,0.6518148183822632,-0.3765925467014313,-0.5799403190612793
1757088630096111900,3.78011181640625,0.6786277890205383,-0.4425358772277832,-0.6408135294914246
1757088630106067000,3.79006689453125,0.5680248141288757,-0.24056467413902283,-0.5694751739501953
1757088630116021000,3.80002099609375,0.5509680509567261,-0.17204900085926056,-0.417928546667099
1757088630125975800,3.809975830078125,0.5625373721122742,-0.09572918713092804,-0.4869067966938019
1757088630135929900,3.819929931640625,0.3813481628894806,0.21106590330600739,-0.6009068489074707
1757088630145884700,3.829884765625,0.061772022396326065,0.7846274375915527,-0.5430209636688232
1757088630155838700,3.839838623046875,-0.28587543964385986,1.0639011859893799,-0.5153858661651611
1757088630165793800,3.849793701171875,-0.8218693733215332,0.6706513166427612,-0.2394578605890274
1757088630175747800,3.859747802734375,-1.3291847705841064,0.26436108350753784,-0.17767572402954102
1757088630185703000,3.869702880859375,-1.7196811437606812,0.018388062715530396,-0.15064090490341187
1757088630195657700,3.87965771484375,-1.8977349996566772,-0.19212231040000916,-0.24319666624069214
1757088630205612000,3.889612060546875,-2.0169522762298584,-0.11980096995830536,-0.32105553150177
1757088630215566800,3.89956689453125,-2.0707008838653564,0.050216566771268845,-0.4787950813770294
1757088630225521000,3.90952099609375,-2.0010812282562256,0.2649618983268738,-0.7322651743888855
1757088630235475700,3.919475830078125,-1.8549436330795288,0.5510037541389465,-0.9329133033752441
1757088630245429800,3.9294296875,-1.7390968799591064,0.6956376433372498,-0.9766432046890259
1757088630255384800,3.939384765625,-1.6488325595855713,0.5854967832565308,-0.861645519733429
1757088630265339000,3.9493388671875,-0.7893486618995667,-0.938076913356781,-1.2911468744277954
1757088630275294000,3.9592939453125,0.3468697965145111,-2.453678607940674,-1.960668921470642
1757088630285247700,3.969247802734375,1.1598721742630005,-1.4685442447662354,-1.9204603433609009
1757088630295202800,3.979202880859375,1.3673275709152222,1.7351306676864624,-0.22718282043933868
1757088630305156900,3.989156982421875,1.6961408853530884,0.8715341091156006,-0.15712277591228485
1757088630315112000,3.99911181640625,1.9560153484344482,0.13368536531925201,-0.13901327550411224
1757088630325065700,4.009065673828125,1.933392882347107,-0.6912354230880737,0.28751593828201294
1757088630335020800,4.019020751953125,1.975234031677246,-0.8082078695297241,0.4783332943916321
1757088630344974800,4.028974853515625,2.1651110649108887,-0.3749413788318634,0.27312153577804565
1757088630354930000,4.038929931640625,2.3719723224639893,-0.055509597063064575,-0.051425639539957047
1757088630364884700,4.048884765625,2.4926795959472656,-0.08617163449525833,-0.17309428751468658
1757088630374838800,4.0588388671875,2.4897849559783936,-0.22851519286632538,-0.08987529575824738
1757088630384793900,4.0687939453125,2.2646586894989014,-0.4892820715904236,0.06922594457864761
1757088630394747600,4.07874755859375,1.7492049932479858,-0.9045701026916504,0.2534301280975342
1757088630404703000,4.088702880859375,1.3411210775375366,-0.6937417387962341,0.25124794244766235
1757088630414656800,4.09865673828125,0.9971213340759277,-0.16854266822338104,0.08185677975416183
1757088630424611800,4.10861181640625,0.7005668878555298,0.18472404778003693,-0.10222996771335602
1757088630434566000,4.11856591796875,0.4524971544742584,0.29387104511260986,-0.19454871118068695
1757088630444520700,4.128520751953125,0.23692625761032104,0.3314218819141388,-0.1938677430152893
1757088630454475000,4.13847509765625,0.08495750278234482,0.3169015049934387,-0.14888349175453186
1757088630464429800,4.148429931640625,0.037875477224588394,0.1131473258137703,-0.05404619127511978
1757088630474384000,4.1583837890625,0.002151301596313715,0.0308668352663517,-0.048884984105825424
1757088630484338700,4.168338623046875,0.009104815311729908,0.10393864661455154,-0.10559806227684021
1757088630494294000,4.1782939453125,0.6062129735946655,0.05969102680683136,-0.4093984365463257
1757088630504247800,4.188247802734375,1.7800153493881226,0.019487414509058,-1.0435538291931152
1757088630514203000,4.198202880859375,2.924844264984131,0.7361065149307251,-0.5810196995735168
1757088630524157000,4.208156982421875,3.3470230102539062,0.9789639115333557,0.012918728403747082
1757088630534111700,4.21811181640625,2.8545353412628174,0.2963395118713379,-0.2895766794681549
1757088630544065800,4.228065673828125,1.9876097440719604,-1.1784663200378418,-0.29885488748550415
1757088630554020900,4.238020751953125,1.2786699533462524,-1.5739766359329224,0.0740627720952034
1757088630563975000,4.247974853515625,0.8315837383270264,-0.6994182467460632,0.2633000910282135
1757088630573929700,4.2579296875,0.407657265663147,0.26305267214775085,0.2225302755832672
1757088630583883800,4.2678837890625,-0.19037127494812012,1.0148998498916626,0.26654061675071716
1757088630593838800,4.2778388671875,-0.7774350643157959,0.7162939310073853,0.1057642474770546
1757088630603793000,4.28779296875,-0.8429090976715088,0.3450905382633209,-0.08195105940103531
1757088630613747700,4.297747802734375,0.2367078810930252,0.2756592631340027,0.012656140141189098
1757088630623701800,4.30770166015625,1.302909255027771,0.24461373686790466,-0.4597007632255554
1757088630633656800,4.31765673828125,1.352164626121521,-0.26214879751205444,-0.628214955329895
1757088630643612000,4.32761181640625,1.576762318611145,-0.8252651691436768,-0.31941208243370056
1757088630653566000,4.33756591796875,1.8924678564071655,-0.995903491973877,0.06682590395212173
1757088630663520800,4.347520751953125,1.9361004829406738,-0.7882176637649536,0.1724521964788437
1757088630673474800,4.357474853515625,1.7356699705123901,-0.47860920429229736,0.20434914529323578
1757088630683429600,4.3674296875,1.47649347782135,-0.30036860704421997,0.28149959444999695
1757088630693384000,4.377384033203125,0.9875099658966064,-0.0807475745677948,0.2903921604156494
1757088630703338800,4.3873388671875,0.3336818218231201,0.12646739184856415,0.230895534157753
1757088630713292800,4.397292724609375,-0.22443550825119019,0.2010904997587204,0.15695978701114655
1757088630723247900,4.407247802734375,-0.22966648638248444,-0.2053089439868927,0.12643836438655853
1757088630733201700,4.41720166015625,-0.35169678926467896,-0.43117430806159973,0.12161538004875183
1757088630743157000,4.427156982421875,-0.5336865782737732,-0.3759528696537018,0.1818382441997528
1757088630753110800,4.43711083984375,-0.5228278040885925,-0.23559308052062988,0.18095353245735168
1757088630763065900,4.44706591796875,-0.08968514204025269,-0.062495600432157516,-0.2037115842103958
1757088630773020000,4.45702001953125,0.03825337812304497,-0.05341901630163193,-0.22062957286834717
1757088630782974700,4.466974609375,0.1147494837641716,0.05119554325938225,-0.09632360935211182
1757088630792929800,4.4769296875,0.12266972661018372,0.1635063737630844,-0.013186109252274036
1757088630802883800,4.4868837890625,0.05124481022357941,0.15570810437202454,-0.004589425399899483
1757088630812839000,4.4968388671875,0.026563966646790504,0.006776147056370974,-0.02750779129564762
1757088630822792700,4.506792724609375,0.035480763763189316,-0.08529732376337051,-0.041375137865543365
1757088630832748000,4.516748046875,0.0412726067006588,-0.07361296564340591,-0.034090593457221985
1757088630842701800,4.526701904296875,0.036666933447122574,-0.05871737375855446,-0.021519938483834267
1757088630852657000,4.536656982421875,0.025886191055178642,-0.03580646589398384,-0.016271913424134254
1757088630862611000,4.54661083984375,0.020603012293577194,-0.007387076038867235,-0.011020160280168056
1757088630872565800,4.556565673828125,0.012707273475825787,0.006699714343994856,-0.006081860978156328
1757088630882519800,4.566519775390625,0.009029979817569256,0.01212883461266756,-0.003300189273431897
1757088630892475000,4.576474853515625,0.003328684950247407,0.017883392050862312,-0.007269097957760096
1757088630902429000,4.586428955078125,-0.005531651899218559,0.008068845607340336,-0.016288159415125847
1757088630912383700,4.5963837890625,-0.01696646586060524,-0.010086456313729286,-0.03116937167942524
1757088630922338000,4.606338134765625,-0.03020770289003849,-0.02509177103638649,-0.04704820364713669
1757088630932293000,4.616293212890625,-0.0479118637740612,-0.02694719471037388,-0.06398191303014755
1757088630942247200,4.6262470703125,-0.07087098062038422,-0.02159583941102028,-0.074287548661232
1757088630952202000,4.636201904296875,-0.08729442209005356,-0.029472671449184418,-0.07743620127439499
1757088630962157000,4.646156982421875,-0.10667824000120163,-0.034626420587301254,-0.07073888182640076
1757088630972111000,4.656111083984375,-0.12328518182039261,-0.03653004765510559,-0.06475822627544403
1757088630982066200,4.666066162109375,-0.1376875638961792,-0.041916023939847946,-0.06016160920262337
1757088630992020200,4.676020263671875,-0.15026593208312988,-0.045086782425642014,-0.05709817260503769
1757088631001975000,4.68597509765625,-0.16044028103351593,-0.036917805671691895,-0.05354871228337288
1757088631011929000,4.69592919921875,-0.16076651215553284,-0.035411786288022995,-0.05524967238306999
1757088631021884000,4.7058837890625,-0.1561661660671234,-0.032095883041620255,-0.05733253061771393
1757088631031838200,4.715838134765625,-0.14764805138111115,-0.029153358191251755,-0.05864653363823891
1757088631041793000,4.72579296875,-0.1301146000623703,-0.03434306010603905,-0.059853747487068176
1757088631051747000,4.7357470703125,-0.10861010104417801,-0.04104597121477127,-0.05633651092648506
1757088631061702000,4.745701904296875,-0.09125614166259766,-0.050574228167533875,-0.050578754395246506
1757088631071656000,4.755656005859375,-0.07705403864383698,-0.062003981322050095,-0.0424041822552681
1757088631081611300,4.765611328125,-0.05976160243153572,-0.06993434578180313,-0.0347776859998703
1757088631091566000,4.775566162109375,-0.045821018517017365,-0.07848788052797318,-0.026284867897629738
1757088631101520100,4.78552001953125,-0.03626639395952225,-0.09448256343603134,-0.023497069254517555
1757088631111475000,4.795474853515625,-0.030336599797010422,-0.0942564606666565,-0.016818128526210785
1757088631121429000,4.805428955078125,-0.023209448903799057,-0.2801176607608795,-0.09176108241081238
1757088631131384000,4.815384033203125,-0.022429674863815308,-0.2595527470111847,-0.0860038548707962
1757088631141338000,4.825338134765625,-0.025733591988682747,-0.24610936641693115,-0.01629508286714554
1757088631151293000,4.83529296875,-0.04928925260901451,-0.20185668766498566,-0.0005169195355847478
1757088631161247000,4.8452470703125,-0.072101891040802,-0.09780298918485641,-0.011779427528381348
1757088631171202300,4.855202392578125,-0.04430754482746124,0.005809685681015253,-0.01714303344488144
1757088631181156000,4.865156005859375,-0.028206603601574898,0.05818980187177658,-0.009014001116156578
1757088631191111200,4.875111083984375,-0.034921497106552124,0.052128713577985764,-0.03530526161193848
1757088631201065000,4.88506494140625,-0.012959208339452744,0.006373210810124874,-0.008432100526988506
1757088631211020000,4.89502001953125,-0.0039041941054165363,0.03988829255104065,-0.010300042107701302
1757088631220974000,4.90497412109375,-0.011804727837443352,-0.044072654098272324,-0.12350250035524368
1757088631230929200,4.91492919921875,-0.006218214984983206,-0.15732863545417786,-0.19850297272205353
1757088631240884000,4.924884033203125,0.022424615919589996,-0.18543004989624023,-0.16610588133335114
1757088631250838000,4.934838134765625,0.049612559378147125,-0.15923279523849487,-0.08503632992506027
1757088631260793000,4.94479296875,0.030040189623832703,-0.1085808053612709,-0.056535448879003525
1757088631270747100,4.9547470703125,0.018274344503879547,-0.0981699749827385,-0.05386935546994209
1757088631280702200,4.9647021484375,0.05549974367022514,-0.257102370262146,-0.06970131397247314
1757088631290656000,4.974656005859375,0.07673632353544235,-0.38248690962791443,-0.07532618194818497
1757088631300611000,4.984611083984375,0.07449394464492798,-0.45471104979515076,-0.0986299067735672
1757088631310565000,4.994565185546875,0.04866980016231537,-0.5698040723800659,-0.12012428045272827
1757088631320520200,5.004520263671875,0.028592761605978012,-0.4605926275253296,-0.09580535441637039
1757088631330474200,5.01447412109375,-0.04537919908761978,0.004322843160480261,0.03797747567296028
1757088631340429000,5.024428955078125,-0.09228572249412537,0.3963334858417511,0.18773554265499115
1757088631350383000,5.034383056640625,-0.09989304095506668,0.4428727626800537,0.16618764400482178
1757088631360338000,5.044337890625,-0.11848323792219162,0.4611780047416687,0.10183048993349075
1757088631370293200,5.054293212890625,-0.11701636761426926,0.38934484124183655,0.020989438518881798
1757088631380247000,5.0642470703125,-0.10514958947896957,0.29899442195892334,-0.040044356137514114
1757088631390202000,5.0742021484375,-0.09915108233690262,0.1719595044851303,-0.05728006735444069
1757088631400156000,5.084156005859375,-0.10446649044752121,0.05951419472694397,-0.0799369066953659
1757088631410111200,5.094111328125,-0.09131287038326263,-0.12898194789886475,-0.10159160196781158
1757088631420065300,5.104065185546875,-0.11733914166688919,-0.061588261276483536,-0.09359359741210938
1757088631430020000,5.11402001953125,-0.12168408930301666,-0.023503728210926056,-0.07594349980354309
1757088631439974100,5.12397412109375,-0.12265374511480331,-0.18663592636585236,-0.06549298763275146
1757088631449929000,5.133928955078125,-0.13675811886787415,-0.2723119556903839,-0.0959603488445282
1757088631459883000,5.143883056640625,-0.10206910967826843,-0.2637211084365845,-0.10636185854673386
1757088631469838000,5.153838134765625,-0.1260434240102768,-0.2516189217567444,-0.10313091427087784
1757088631479792000,5.163792236328125,-0.12404844164848328,-0.09004440158605576,-0.08582169562578201
1757088631489747000,5.173746826171875,-0.1632954478263855,0.009062204509973526,-0.04303029179573059
1757088631499702000,5.183701904296875,-0.11819055676460266,0.0669204443693161,-0.022953253239393234
1757088631509656000,5.193656005859375,-0.07549076527357101,0.18359751999378204,-0.021099159494042397
1757088631519611100,5.203611083984375,-0.057075269520282745,0.1820763349533081,-0.004138285759836435
1757088631529565200,5.213565185546875,-0.021739384159445763,0.16031962633132935,0.00583685003221035
1757088631539520000,5.22352001953125,-0.01683836802840233,0.0445975624024868,0.021073060110211372
1757088631549474000,5.23347412109375,-0.011883823201060295,-0.08942468464374542,0.017425328493118286
1757088631559429000,5.24342919921875,-0.010914965532720089,-0.17773617804050446,-0.0012620720081031322
1757088631569383200,5.253383056640625,-0.02238759770989418,-0.2576400637626648,-0.004751611966639757
1757088631579338000,5.263337890625,-0.03423972800374031,-0.3048408627510071,-0.00503896689042449
1757088631589293000,5.27329296875,-0.029438849538564682,-0.3512563109397888,-0.004283161833882332
1757088631599247000,5.2832470703125,-0.007444866932928562,-0.40540874004364014,-0.0016354472609236836
1757088631609202200,5.2932021484375,-0.042812444269657135,-0.4470161199569702,0.002545981900766492
1757088631619156200,5.30315625,-0.05637326091527939,-0.4567294716835022,0.03987977281212807
1757088631629111000,5.313111083984375,-0.0483747236430645,-0.3921677768230438,0.04396665841341019
1757088631639065000,5.323065185546875,-0.04688814654946327,-0.3388310670852661,0.05794266238808632
1757088631649020200,5.333020263671875,-0.04399808496236801,-0.27689337730407715,0.0546984001994133
1757088631658974200,5.34297412109375,-0.05294976755976677,-0.2923162877559662,0.04800880327820778
1757088631668929000,5.352928955078125,-0.04770040884613991,-0.24182568490505219,0.0412270650267601
1757088631678883000,5.362883056640625,-0.0472940132021904,-0.19050656259059906,0.043907538056373596
1757088631688838000,5.372837890625,-0.03894020989537239,-0.11080721020698547,0.0359092652797699
1757088631698793200,5.382793212890625,-0.05246933177113533,-0.07073595374822617,0.04729720950126648
1757088631708747300,5.392747314453125,-0.05367681011557579,-0.08344562351703644,0.03771994635462761
1757088631718702000,5.4027021484375,-0.049012016505002975,-0.04753103479743004,0.03428047522902489
1757088631728656100,5.41265625,-0.04782851040363312,-0.003850398352369666,0.03650448098778725
1757088631738611000,5.42261083984375,-0.054181747138500214,0.01841495931148529,0.02748914808034897
1757088631748565200,5.432565185546875,-0.04862213134765625,0.05962338298559189,0.030835144221782684
1757088631758520000,5.44252001953125,-0.03929014876484871,0.09950128942728043,0.03080744668841362
1757088631768474000,5.45247412109375,-0.02455487847328186,0.17043538391590118,0.038780417293310165
1757088631778429000,5.462428955078125,-0.022531142458319664,0.20000073313713074,0.04372963681817055
1757088631788383000,5.472383056640625,-0.00957086868584156,0.23660694062709808,0.04217541590332985
1757088631798338000,5.482338134765625,-0.009208678267896175,0.22320938110351562,0.033427465707063675
1757088631808293000,5.492293212890625,-0.00771863991394639,0.1949242204427719,0.008836368098855019
1757088631818247200,5.5022470703125,0.002005626680329442,0.20993565022945404,-0.004351338837295771
1757088631828202000,5.512201904296875,-0.007696535438299179,0.2021608203649521,-0.01588895171880722
1757088631838156000,5.522156005859375,-0.03695588558912277,0.08597083389759064,-0.06244606524705887
1757088631848111000,5.532111083984375,-0.05023174360394478,0.012414058670401573,-0.09098663181066513
1757088631858065200,5.542065185546875,-0.05621400475502014,0.000535561703145504,-0.08272363990545273
1757088631868020000,5.55202001953125,-0.04776858910918236,-0.005133509170264006,-0.0641677975654602
1757088631877974000,5.56197412109375,-0.029406357556581497,-0.016440492123365402,-0.04753263294696808
1757088631887929000,5.57192919921875,-0.010368751361966133,-0.04153093323111534,-0.034149449318647385
1757088631897883100,5.581883056640625,0.010601244866847992,-0.056285642087459564,-0.01847647875547409
1757088631907838200,5.591838134765625,0.008066182024776936,-0.026885144412517548,-0.012926184572279453
1757088631917793000,5.60179296875,0.01025370229035616,-0.011490208096802235,-0.009829993359744549
1757088631927747000,5.6117470703125,0.007041397970169783,0.0030722226947546005,-0.009829993359744549
1757088631937702000,5.621701904296875,-0.0027025758754462004,0.020796624943614006,-0.005760950036346912
1757088631947656000,5.631656005859375,-0.014968829229474068,0.018427476286888123,-0.012402074411511421
1757088631957610800,5.64161083984375,-0.0265346709638834,0.018029067665338516,-0.025861958041787148
1757088631967565000,5.65156494140625,-0.036927126348018646,0.013575463555753231,-0.04550143703818321
1757088631977519900,5.661519775390625,-0.041550640016794205,0.01423619408160448,-0.06345593929290771
1757088631987474000,5.671473876953125,-0.049303099513053894,0.007846205495297909,-0.07482736557722092
1757088631997429000,5.681428955078125,-0.056589510291814804,-0.006219279952347279,-0.08811547607183456
1757088632007384000,5.691384033203125,-0.06046787276864052,-0.01715235598385334,-0.09629058092832565
1757088632017338000,5.701338134765625,-0.06928160041570663,-0.03273184597492218,-0.09952712059020996
1757088632027293000,5.71129296875,-0.07302866876125336,-0.05374818295240402,-0.10015776008367538
1757088632037247000,5.7212470703125,-0.07337940484285355,-0.07785511761903763,-0.09460107237100601
1757088632047201800,5.731201904296875,-0.07126539200544357,-0.10559273511171341,-0.08588428050279617
1757088632057155800,5.74115576171875,-0.06227216124534607,-0.11965981870889664,-0.07628171890974045
1757088632067111000,5.75111083984375,-0.05132390931248665,-0.13027864694595337,-0.06259520351886749
1757088632077065000,5.76106494140625,-0.03236699476838112,-0.1439553052186966,-0.05451064556837082
1757088632087020000,5.77102001953125,0.015120629221200943,-0.15522819757461548,-0.03320429101586342
1757088632096973800,5.780973876953125,0.00566827179864049,-0.1022304967045784,-0.04463937506079674
1757088632106929200,5.79092919921875,0.01411448698490858,-0.12528735399246216,-0.05173243582248688
1757088632116884000,5.800884033203125,0.033305492252111435,-0.11777909845113754,-0.0348953977227211
1757088632126838000,5.810838134765625,0.04433364048600197,-0.0813198909163475,-0.02028210274875164
1757088632136792800,5.820792724609375,0.03009478561580181,-0.05102776363492012,-0.013169331476092339
1757088632146747000,5.830746826171875,0.04459303244948387,-0.026396719738841057,-0.00746137835085392
1757088632156702000,5.840701904296875,0.055397745221853256,0.012144546955823898,-0.002841326640918851
1757088632166656000,5.850656005859375,0.06728342920541763,0.059129633009433746,0.004487692844122648
1757088632176611000,5.860611083984375,0.07378260791301727,0.09903869777917862,0.007700796704739332
1757088632186564900,5.87056494140625,0.07931426167488098,0.1317542940378189,0.012231365777552128
1757088632196520000,5.88052001953125,0.08534685522317886,0.16678738594055176,0.00797456968575716
1757088632206474000,5.890473876953125,0.09620163589715958,0.20606768131256104,0.0007097324123606086
1757088632216429000,5.900428955078125,0.10121370106935501,0.2491443157196045,-0.0070858728140592575
1757088632226384000,5.9103837890625,0.10305421054363251,0.2758922874927521,-0.017361147329211235
1757088632236338000,5.920337890625,0.09573584794998169,0.29538530111312866,-0.021373465657234192
1757088632246293000,5.93029296875,0.08229487389326096,0.29642900824546814,-0.023241672664880753
1757088632256247000,5.9402470703125,0.058215368539094925,0.27556073665618896,-0.022344719618558884
1757088632266201900,5.950201904296875,0.02989877760410309,0.2502593696117401,-0.018189389258623123
1757088632276156000,5.960156005859375,-0.00004261057620169595,0.23980194330215454,-0.010632404126226902
1757088632286111000,5.970111083984375,-0.02883271314203739,0.22419129312038422,-0.008702944032847881
1757088632296064800,5.980064697265625,-0.05131565034389496,0.1927100569009781,-0.014249509200453758
1757088632306020000,5.99002001953125,-0.06541202962398529,0.1593467742204666,-0.01877635158598423
1757088632315974000,5.999973876953125,-0.07468036562204361,0.12646739184856415,-0.027964789420366287
1757088632325929000,6.009928955078125,-0.07754006236791611,0.08507814258337021,-0.0389854833483696
1757088632335883800,6.0198837890625,-0.07358819991350174,0.0501803457736969,-0.044796500355005264
1757088632345838000,6.029838134765625,-0.06851886957883835,0.01967569999396801,-0.048714540898799896
1757088632355793000,6.03979296875,-0.0624961331486702,-0.011905661784112453,-0.0498700886964798
1757088632365747000,6.049746826171875,-0.05266427621245384,-0.04863171651959419,-0.046012233942747116
1757088632375702000,6.059701904296875,-0.04422178864479065,-0.08391034603118896,-0.03925526142120361
1757088632385655800,6.06965576171875,-0.03284076973795891,-0.11691809445619583,-0.031803470104932785
1757088632395611100,6.079611083984375,-0.023261645808815956,-0.13801459968090057,-0.028142156079411507
1757088632405565000,6.08956494140625,-0.015855129808187485,-0.1383861005306244,-0.02226029895246029
1757088632415520000,6.09952001953125,-0.009514142759144306,-0.13344673812389374,-0.021154288202524185
1757088632425474000,6.10947412109375,-0.006202235817909241,-0.12170646339654922,-0.016408268362283707
1757088632435428900,6.119428955078125,0.0002777676854748279,-0.10815417021512985,-0.012059059925377369
1757088632445384000,6.129384033203125,0.010363425128161907,-0.08442194014787674,-0.0070283482782542706
1757088632455338000,6.139337890625,0.021108480170369148,-0.05921884998679161,-0.002719353651627898
1757088632465293000,6.14929296875,0.02761005610227585,-0.033422406762838364,0.00025539714260958135
1757088632475246800,6.159246826171875,0.0410531610250473,-0.006611297372728586,0.0007344998302869499
1757088632485202000,6.169201904296875,0.04881228134036064,0.028925124555826187,0.0013012205017730594
1757088632495156000,6.179156005859375,0.06407139450311661,0.059529904276132584,0.006956709548830986
1757088632505111000,6.189111083984375,0.07226753979921341,0.08044210821390152,0.008891229517757893
1757088632515064800,6.19906494140625,0.08004769682884216,0.09491932392120361,0.008642756380140781
1757088632525020000,6.20902001953125,0.09303300827741623,0.10407447069883347,0.01392566878348589
1757088632534974000,6.218973876953125,0.09906186908483505,0.09702188521623611,0.018490061163902283
1757088632544929000,6.228928955078125,0.10303876549005508,0.09531799703836441,0.02965935878455639
1757088632554883000,6.238883056640625,0.09909462183713913,0.08723317086696625,0.04103158786892891
1757088632564838000,6.248837890625,0.08783265203237534,0.08874505013227463,0.05205601081252098
1757088632574793000,6.25879296875,0.07385078817605972,0.08801401406526566,0.06337897479534149
1757088632584746800,6.268746826171875,0.05724118649959564,0.07822556048631668,0.06980731338262558
1757088632594702000,6.2787021484375,0.03383945673704147,0.0680839791893959,0.07497064769268036
1757088632604655900,6.28865576171875,0.015113439410924911,0.05723026767373085,0.07554242759943008
1757088632614611000,6.29861083984375,-0.005742307752370834,0.040944501757621765,0.07075246423482895
1757088632624565000,6.30856494140625,-0.01781095564365387,0.023010510951280594,0.06616170704364777
1757088632634520000,6.31852001953125,-0.028720062226057053,0.007015032693743706,0.05884547159075737
1757088632644474000,6.32847412109375,-0.03229482099413872,-0.008862201124429703,0.05007355287671089
1757088632654429000,6.338428955078125,-0.03051023930311203,-0.018333200365304947,0.03641260415315628
1757088632664383000,6.348383056640625,-0.02683720737695694,-0.020865600556135178,0.027697941288352013
1757088632674337800,6.358337890625,-0.022827284410595894,-0.02714134007692337,0.01835770159959793
1757088632684293000,6.368293212890625,-0.014752847142517567,-0.04325852543115616,0.008266451768577099
1757088632694247000,6.378246826171875,-0.005438707303255796,-0.05571119859814644,0.0020213392563164234
1757088632704202000,6.388201904296875,0.004806206561625004,-0.060199957340955734,-0.002326803747564554
1757088632714156000,6.398156005859375,0.010980479419231415,-0.05823560804128647,0.0008602010202594101
1757088632724110800,6.40811083984375,0.013737383298575878,-0.05594608932733536,0.004070375580340624
1757088632734065200,6.418065185546875,0.017161143943667412,-0.0495062991976738,0.010468087159097195
1757088632744020000,6.42802001953125,0.016697753220796585,-0.03965979442000389,0.01743891090154648
1757088632753974000,6.43797412109375,0.015266304835677147,-0.030183468014001846,0.02774561010301113
1757088632763928800,6.4479287109375,0.010042513720691204,-0.02322675846517086,0.03329510614275932
1757088632773883000,6.4578828125,0.00526666734367609,-0.019458919763565063,0.03693244978785515
1757088632783838000,6.467837890625,0.0007624630234204233,-0.020171048119664192,0.035785429179668427
1757088632793793000,6.47779296875,-0.005318066570907831,-0.016499081626534462,0.035766251385211945
1757088632803746800,6.487746826171875,-0.0076280920766294,-0.005313805304467678,0.03742540255188942
1757088632813702000,6.497701904296875,-0.007862983271479607,0.010481403209269047,0.037695448845624924
1757088632823656000,6.507656005859375,-0.009280583821237087,0.03261280432343483,0.035901542752981186
1757088632833611000,6.517611083984375,-0.0017230651574209332,0.05820471793413162,0.030721960589289665
1757088632843565000,6.52756494140625,0.008284561336040497,0.07739492505788803,0.026401514187455177
1757088632853520000,6.537519775390625,0.018214689567685127,0.0930124968290329,0.025954635813832283
1757088632863474000,6.547473876953125,0.03133581951260567,0.09664984047412872,0.02311117760837078
1757088632873429000,6.557428955078125,0.044430848211050034,0.09782270342111588,0.019576365128159523
1757088632883383000,6.567383056640625,0.05152897164225578,0.10601990669965744,0.018681010231375694
1757088632893337900,6.577337890625,0.04990337789058685,0.12233257293701172,0.022342590615153313
1757088632903292000,6.5872919921875,0.04598293825984001,0.13700366020202637,0.02684732712805271
1757088632913247000,6.5972470703125,0.0367758572101593,0.14378060400485992,0.03118055686354637
1757088632923202600,6.60720263671875,0.02413090318441391,0.14244529604911804,0.032816801220178604
1757088632933156600,6.617156494140625,0.012180766090750694,0.14253610372543335,0.03615960106253624
1757088632943111700,6.627111572265625,0.004575577098876238,0.1377836912870407,0.03255235031247139
1757088632953065700,6.637065673828125,-0.0036732980515807867,0.12685301899909973,0.027091005817055702
1757088632963020500,6.6470205078125,-0.009425992146134377,0.11295344680547714,0.021029118448495865
1757088632972974600,6.656974609375,-0.016743026673793793,0.09601814299821854,0.016153136268258095
1757088632982929400,6.666929443359375,-0.02171248570084572,0.081777423620224,0.010264622047543526
1757088632992883700,6.6768837890625,-0.02569044940173626,0.07004912197589874,0.006268814671784639
1757088633002838500,6.686838623046875,-0.033426932990550995,0.06000261753797531,-0.00014860439114272594
1757088633012792600,6.69679248046875,-0.03922303766012192,0.04421433433890343,-0.004656004719436169
1757088633022747400,6.706747314453125,-0.04043743759393692,0.023017168045043945,-0.006999586243182421
1757088633032701400,6.716701416015625,-0.04240924119949341,-0.0025153555907309055,-0.011536281555891037
1757088633042656800,6.72665673828125,-0.042993806302547455,-0.031616780906915665,-0.018562499433755875
1757088633052611600,6.736611572265625,-0.04544844105839729,-0.05525366961956024,-0.019997943192720413
1757088633062565600,6.746565673828125,-0.046661511063575745,-0.0705692395567894,-0.019409650936722755
1757088633072520400,6.7565205078125,-0.05281661078333855,-0.08503206819295883,-0.016533169895410538
1757088633082474500,6.766474609375,-0.053819287568330765,-0.09842430800199509,-0.015506788156926632
1757088633092429600,6.7764296875,-0.055632900446653366,-0.10312185436487198,-0.013650830835103989
1757088633102383600,6.786383544921875,-0.05498042702674866,-0.10270188003778458,-0.013220996595919132
1757088633112338400,6.79633837890625,-0.05524727702140808,-0.10547555983066559,-0.015116368420422077
1757088633122292500,6.80629248046875,-0.055859535932540894,-0.10633762180805206,-0.017898306250572205
1757088633132247800,6.816247802734375,-0.05714983865618706,-0.10360734909772873,-0.02087891660630703
1757088633142201600,6.82620166015625,-0.05655595287680626,-0.10147362947463989,-0.023662718012928963
1757088633152156700,6.83615673828125,-0.05327707156538963,-0.10591711103916168,-0.029650038108229637
1757088633162110500,6.8461103515625,-0.0486128106713295,-0.1077704057097435,-0.03518941253423691
1757088633172065500,6.8560654296875,-0.043965328484773636,-0.110750213265419,-0.03952184319496155
1757088633182019600,6.86601953125,-0.04121348261833191,-0.10962183773517609,-0.0388195663690567
1757088633191974700,6.875974609375,-0.04265771433711052,-0.11238007247447968,-0.037829671055078506
1757088633201929500,6.885929443359375,-0.042395126074552536,-0.1163116991519928,-0.03515425696969032
1757088633211883500,6.895883544921875,-0.043120305985212326,-0.12039405852556229,-0.03251027315855026
1757088633221838600,6.905838623046875,-0.04614672064781189,-0.12062495201826096,-0.027889421209692955
1757088633231792600,6.915792724609375,-0.05011696368455887,-0.11766165494918823,-0.021379856392741203
1757088633241747700,6.925747802734375,-0.052329517900943756,-0.11733754724264145,-0.016265256330370903
1757088633251701500,6.935701416015625,-0.05126798152923584,-0.1171061173081398,-0.017523067072033882
1757088633261656600,6.945656494140625,-0.047027163207530975,-0.11417104303836823,-0.015084942802786827
1757088633271610600,6.955610595703125,-0.042387936264276505,-0.10812433809041977,-0.01576085388660431
1757088633281565700,6.965565673828125,-0.03826403245329857,-0.10296526551246643,-0.01781628094613552
1757088633291519700,6.975519775390625,-0.03315502405166626,-0.10224860906600952,-0.01973082683980465
1757088633301474600,6.985474609375,-0.029745645821094513,-0.0986701175570488,-0.02387816831469536
1757088633311428600,6.9954287109375,-0.027876904234290123,-0.0921669453382492,-0.024983113631606102
1757088633321383400,7.005383544921875,-0.028726452961564064,-0.0889543741941452,-0.02502519264817238
1757088633331338800,7.0153388671875,-0.028068918734788895,-0.08430236577987671,-0.024705346673727036
1757088633341292500,7.02529248046875,-0.027916319668293,-0.07704818248748779,-0.022947926074266434
1757088633351247600,7.03524755859375,-0.02780846133828163,-0.06612256169319153,-0.02141714096069336
1757088633361201400,7.045201416015625,-0.028628181666135788,-0.05168236792087555,-0.021276259794831276
1757088633371156700,7.05515673828125,-0.028303543105721474,-0.0395900197327137,-0.022340992465615273
1757088633381110800,7.06511083984375,-0.026927487924695015,-0.030353112146258354,-0.02052844502031803
1757088633391065600,7.075065673828125,-0.028718996793031693,-0.021872010082006454,-0.019599534571170807
1757088633401019600,7.08501953125,-0.02768648788332939,-0.011276889592409134,-0.016078036278486252
1757088633410974500,7.094974365234375,-0.028725121170282364,-0.006044842768460512,-0.010574080981314182
1757088633420928500,7.104928466796875,-0.026546388864517212,0.0010852381819859147,-0.005400091875344515
1757088633430883600,7.114883544921875,-0.021267471835017204,0.00959856528788805,-0.003953995183110237
1757088633440837600,7.124837646484375,-0.015262575820088387,0.020490894094109535,-0.003964648116379976
1757088633450792400,7.13479248046875,-0.009660616517066956,0.0333385169506073,-0.004572647623717785
1757088633460747500,7.14474755859375,-0.0015358449891209602,0.04548226296901703,-0.006185191683471203
1757088633470701600,7.15470166015625,0.0046935551799833775,0.05426936224102974,-0.005114867351949215
1757088633480656600,7.16465673828125,0.00660384027287364,0.061458032578229904,-0.0033340114168822765
1757088633490610700,7.174610595703125,0.008870190940797329,0.06720620393753052,0.002014681464061141
1757088633500565500,7.1845654296875,0.010370882228016853,0.07025764882564545,0.0032466596458107233
1757088633510519600,7.19451953125,0.010293117724359035,0.07124355435371399,0.004473844077438116
1757088633520474600,7.204474609375,0.01128088403493166,0.07286195456981659,0.0054570832289755344
1757088633530428700,7.2144287109375,0.010182596743106842,0.0714438259601593,0.0029611687641590834
1757088633540383500,7.224383544921875,0.008381234481930733,0.06879211217164993,0.002118811011314392
1757088633550337500,7.234337646484375,0.007449394091963768,0.06440296024084091,-0.0007118629291653633
1757088633560292600,7.244292724609375,0.005135373678058386,0.06317151337862015,-0.0015443670563399792
1757088633570246700,7.25424658203125,0.0028061727061867714,0.06101008877158165,-0.00016671388584654778
1757088633580201700,7.26420166015625,0.00014700648898724467,0.05480519309639931,0.00024234765442088246
1757088633590155500,7.274155517578125,-0.000940095866099,0.04853584244847298,0.00020746025256812572
1757088633600110600,7.284110595703125,-0.0021819279063493013,0.044139765202999115,0.0005648564547300339
1757088633610065700,7.294065673828125,-0.0009930927772074938,0.03784724697470665,0.0010125337867066264
1757088633620019700,7.304019775390625,0.0003944141499232501,0.027832163497805595,0.0006064017652533948
1757088633629974500,7.313974609375,0.00024048343766480684,0.019945744425058365,0.001270594191737473
1757088633639928600,7.323928466796875,0.0005278385360725224,0.010387660004198551,0.002417883835732937
1757088633649883400,7.33388330078125,-0.0001776328426785767,0.0005917543894611299,0.0013464941876009107
1757088633659837400,7.34383740234375,0.00003355582884978503,-0.0031550468411296606,-0.001609081868082285
1757088633669792800,7.353792724609375,-0.0026224146131426096,-0.005396896041929722,-0.002118011936545372
1757088633679746600,7.36374658203125,-0.002460228279232979,-0.008183361031115055,-0.0006524744676426053
1757088633689701600,7.37370166015625,-0.00336197461001575,-0.01732998713850975,-0.002442651428282261
1757088633699655400,7.383655517578125,-0.0015776565996930003,-0.02599138766527176,-0.0010394317796453834
1757088633709610500,7.393610595703125,-0.0023156185634434223,-0.03347540274262428,0.0013550163712352514
1757088633719564800,7.403564697265625,-0.0017710020765662193,-0.034864772111177444,0.005738845560699701
1757088633729519600,7.41351953125,-0.0017515610670670867,-0.03359471261501312,0.007695736363530159
1757088633739473700,7.4234736328125,0.0016287893522530794,-0.029294505715370178,0.00902705080807209
1757088633749428500,7.433428466796875,0.007208910770714283,-0.030066555365920067,0.011498730629682541
1757088633759383600,7.443383544921875,0.01624954305589199,-0.03706667572259903,0.012050004675984383
1757088633769337600,7.453337646484375,0.025835858657956123,-0.041973017156124115,0.015849536284804344
1757088633779292700,7.463292724609375,0.036381177604198456,-0.0458361990749836,0.02004454843699932
1757088633789246500,7.47324658203125,0.046241797506809235,-0.03905605524778366,0.021581724286079407
1757088633799201500,7.483201416015625,0.05155373737215996,-0.03352760151028633,0.025363946333527565
1757088633809155600,7.493155517578125,0.05476018413901329,-0.030108101665973663,0.029474535956978798
1757088633819110700,7.503110595703125,0.0565682053565979,-0.025346634909510612,0.033359553664922714
1757088633829064700,7.513064697265625,0.05239609628915787,-0.020110860466957092,0.03554201498627663
1757088633839019500,7.52301953125,0.04727883264422417,-0.018746256828308105,0.03708531707525253
1757088633848973600,7.5329736328125,0.03562350943684578,-0.012644155882298946,0.036436568945646286
1757088633858928600,7.5429287109375,0.02496766857802868,-0.013479589484632015,0.0322096012532711
1757088633868882700,7.552882568359375,0.011006578803062439,-0.01840190961956978,0.025983663275837898
1757088633878837500,7.56283740234375,0.0004791026876773685,-0.018083661794662476,0.01840457320213318
1757088633888791600,7.57279150390625,-0.011513111181557178,-0.011691543273627758,0.014083595015108585
1757088633898746400,7.582746337890625,-0.020776119083166122,-0.007761782966554165,0.010223076678812504
1757088633908701700,7.59270166015625,-0.024237962439656258,-0.007937285117805004,0.005095692351460457
1757088633918655700,7.60265576171875,-0.024215590208768845,-0.0161824319511652,0.002525741932913661
1757088633928610300,7.6126103515625,-0.020784640684723854,-0.028602350503206253,-0.0003936151915695518
1757088633938564400,7.622564453125,-0.01613689213991165,-0.04192348197102547,-0.0054794540628790855
1757088633948519200,7.632519287109375,-0.011028150096535683,-0.04904184490442276,-0.009329053573310375
1757088633958473500,7.642473388671875,-0.0070645674131810665,-0.05162431299686432,-0.011478490196168423
1757088633968428300,7.65242822265625,-0.005863215308636427,-0.05402142181992531,-0.013761351816356182
1757088633978382300,7.66238232421875,-0.0054967645555734634,-0.0534224770963192,-0.012623916380107403
1757088633988337200,7.672337158203125,-0.006593187805265188,-0.05552211403846741,-0.009800166822969913
1757088633998291200,7.682291259765625,-0.008133027702569962,-0.055082958191633224,-0.006780141964554787
1757088634008246500,7.69224658203125,-0.009131446480751038,-0.05799805372953415,-0.00384400668554008
1757088634018200300,7.702200439453125,-0.011377024464309216,-0.05612532049417496,-0.0003099919413216412
1757088634028155400,7.7121552734375,-0.013018064200878143,-0.05208983272314072,0.000752875639591366
1757088634038109200,7.722109130859375,-0.01582157425582409,-0.04953080043196678,-0.0010434264549985528
1757088634048064300,7.732064208984375,-0.01792866736650467,-0.04869430139660835,-0.005633384454995394
1757088634058019300,7.742019287109375,-0.019170498475432396,-0.047756072133779526,-0.0096286591142416
1757088634067973400,7.751973388671875,-0.019508719444274902,-0.049440521746873856,-0.011865448206663132
1757088634077928200,7.76192822265625,-0.01912815496325493,-0.05326348915696144,-0.015717443078756332
1757088634087882200,7.77188232421875,-0.01740003004670143,-0.05043600872159004,-0.020577447488904
1757088634097837600,7.781837646484375,-0.01745622232556343,-0.0511593259871006,-0.02088371105492115
1757088634107791400,7.791791259765625,-0.018145181238651276,-0.05023866891860962,-0.0205106008797884
1757088634117746400,7.801746337890625,-0.017947841435670853,-0.05307812988758087,-0.02208106778562069
1757088634127700200,7.8117001953125,-0.01733584702014923,-0.056419868022203445,-0.020865334197878838
1757088634137655300,7.8216552734375,-0.017314275726675987,-0.06133286654949188,-0.020924989134073257
1757088634147609300,7.831609375,-0.014578942209482193,-0.06150517240166664,-0.022011026740074158
1757088634157564400,7.841564453125,-0.01569480635225773,-0.05842096358537674,-0.021564947441220284
1757088634167518500,7.8515185546875,-0.0112196309491992,-0.06091608107089996,-0.02068903297185898
1757088634177473300,7.861473388671875,-0.01125052385032177,-0.05860072746872902,-0.020870395004749298
1757088634187427300,7.87142724609375,-0.011097924783825874,-0.057381533086299896,-0.02142060361802578
1757088634197382100,7.881382080078125,-0.011118431575596333,-0.056884586811065674,-0.022427543997764587
1757088634207337500,7.89133740234375,-0.014126471243798733,-0.06009689345955849,-0.022491993382573128
1757088634217291300,7.901291259765625,-0.015619706362485886,-0.0583791546523571,-0.022434202954173088
1757088634227246300,7.911246337890625,-0.01852494850754738,-0.056897372007369995,-0.023066170513629913
1757088634237200400,7.921200439453125,-0.017947841435670853,-0.057982075959444046,-0.02678873762488365
1757088634247155500,7.931155517578125,-0.016320383176207542,-0.05696261674165726,-0.028000742197036743
1757088634257109500,7.941109619140625,-0.017647437751293182,-0.051481299102306366,-0.03003353253006935
1757088634267064300,7.951064208984375,-0.01555339340120554,-0.04640451818704605,-0.029750438407063484
1757088634277018400,7.961018310546875,-0.015720639377832413,-0.044435374438762665,-0.029346436262130737
1757088634286973200,7.97097314453125,-0.018147844821214676,-0.04030747711658478,-0.029145635664463043
1757088634296927200,7.98092724609375,-0.017464477568864822,-0.033916156738996506,-0.027283286675810814
1757088634306882300,7.99088232421875,-0.01871136948466301,-0.030491329729557037,-0.023256054148077965
1757088634316836400,8.00083642578125,-0.01715155690908432,-0.02821858786046505,-0.021267738193273544
1757088634326791200,8.010791259765625,-0.015738749876618385,-0.03272119536995888,-0.01672997698187828
1757088634336745200,8.0207451171875,-0.012601013295352459,-0.03645255044102669,-0.014761103317141533
1757088634346700500,8.030700439453126,-0.011918445117771626,-0.03726188465952873,-0.016928650438785553
1757088634356654300,8.040654296875,-0.007405185606330633,-0.0320277065038681,-0.013635917566716671
1757088634366609400,8.050609375,-0.007062170654535294,-0.03031822480261326,-0.013972806744277477
1757088634376564200,8.060564208984376,-0.007661381736397743,-0.02768169529736042,-0.013455088250339031
1757088634386518300,8.070518310546875,-0.0054299188777804375,-0.02653973177075386,-0.013165603391826153
1757088634396473300,8.080473388671875,-0.005175853613764048,-0.024413730949163437,-0.012976518832147121
1757088634406427400,8.090427490234376,-0.0049223206005990505,-0.02533518336713314,-0.00983345601707697
1757088634416382200,8.10038232421875,-0.004308195784687996,-0.026097381487488747,-0.008085623383522034
1757088634426336300,8.110336181640625,-0.00475454144179821,-0.02087252400815487,-0.00503870053216815
1757088634436291300,8.120291259765626,-0.007120227441191673,-0.014975220896303654,-0.003369697602465749
1757088634446245400,8.130245361328125,-0.007752461824566126,-0.010612430982291698,-0.005875465925782919
1757088634456200400,8.140200439453125,-0.006661098450422287,-0.009317069314420223,-0.006209426559507847
1757088634466154200,8.150154296875,-0.004031759686768055,-0.012866795994341373,-0.008005994372069836
1757088634476109300,8.160109375,-0.00230816169641912,-0.01636539027094841,-0.0070363376289606094
1757088634486063400,8.1700634765625,0.002168878447264433,-0.022842198610305786,-0.005951365921646357
1757088634496018400,8.180018310546876,0.008296012878417969,-0.029437517747282982,-0.004710066597908735
1757088634505972500,8.189972412109375,0.009777795523405075,-0.0357995443046093,-0.00253453035838902
1757088634515927300,8.19992724609375,0.012048939242959023,-0.036737773567438126,-0.0002615224220789969
1757088634525881300,8.20988134765625,0.010988735593855381,-0.03296274319291115,0.0017057546647265553
1757088634535836200,8.219836181640625,0.005495699122548103,-0.02352476678788662,0.004221909213811159
1757088634545791500,8.22979150390625,0.0035332157276570797,-0.0181097611784935,0.007178017869591713
1757088634555745300,8.239745361328126,0.0036432044580578804,-0.01564447395503521,0.010175672359764576
1757088634565700400,8.249700439453125,0.002712695859372616,-0.011869442649185658,0.009515740908682346
1757088634575654100,8.259654052734374,0.0010905644157901406,-0.003173955250531435,0.01062095258384943
1757088634585609500,8.269609375,0.0020727382507175207,0.005107676610350609,0.010603642091155052
1757088634595563500,8.2795634765625,0.0017180051654577255,0.011469702236354351,0.010548780672252178
1757088634605518300,8.289518310546875,0.003920705523341894,0.017134245485067368,0.007620369084179401
1757088634615472400,8.299472412109376,0.009880061261355877,0.020904216915369034,0.004939631093293428
1757088634625427200,8.30942724609375,0.01091709639877081,0.0212408397346735,0.003641340183094144
1757088634635381200,8.31938134765625,0.012064386159181595,0.01871110312640667,0.001303351018577814
1757088634645336300,8.32933642578125,0.013222861103713512,0.022592393681406975,0.0033933997619897127
1757088634655290400,8.339290283203125,0.010729876346886158,0.02642308548092842,0.0034914042335003614
1757088634665245200,8.3492451171875,0.008839564397931099,0.027463048696517944,0.005067196674644947
1757088634675199200,8.35919921875,0.0084275733679533,0.023201460018754005,0.005745769944041967
1757088634685154600,8.369154541015625,0.0062523032538592815,0.022339660674333572,0.006400108803063631
1757088634695109400,8.379109375,0.005819006823003292,0.014227937906980515,0.007279484532773495
1757088634705063400,8.3890634765625,0.008687764406204224,0.00872291810810566,0.006891462020576
1757088634715018200,8.399018310546875,0.011358115822076797,0.0023518374655395746,0.005471996963024139
1757088634724972300,8.40897216796875,0.012924054637551308,-0.005203284323215485,0.004991030320525169
1757088634734927400,8.41892724609375,0.01563781499862671,-0.010542655363678932,0.0062613580375909805
1757088634744881400,8.42888134765625,0.018185395747423172,-0.015353922732174397,0.007583617232739925
1757088634754836200,8.438836181640625,0.01876596361398697,-0.020779579877853394,0.013344567269086838
1757088634764790300,8.448790283203126,0.01967197097837925,-0.022971095517277718,0.015563779510557652
1757088634774745300,8.458745361328125,0.017645573243498802,-0.028179440647363663,0.014551778323948383
1757088634784699400,8.468699462890624,0.017854630947113037,-0.04488598182797432,0.014512363821268082
1757088634794654500,8.478654541015626,0.019810723140835762,-0.06453638523817062,0.018210962414741516
1757088634804608300,8.488608154296875,0.022705046460032463,-0.07917391508817673,0.025607358664274216
1757088634814563300,8.498563232421875,0.019815249368548393,-0.08394336700439453,0.02827664464712143
1757088634824517400,8.508517333984376,0.013737649656832218,-0.11649012565612793,0.03352680057287216
1757088634834472400,8.518472412109375,0.011631089262664318,-0.1856263279914856,0.042987946420907974
1757088634844426500,8.528426513671874,0.021875204518437386,-0.22041679918766022,0.05561399459838867
1757088634854381300,8.53838134765625,0.02997441031038761,-0.18309925496578217,0.054300788789987564
1757088634864335400,8.54833544921875,0.025190308690071106,-0.1699885129928589,0.06666717678308487
1757088634874290200,8.558290283203124,0.02051539532840252,-0.17012566328048706,0.0742768943309784
1757088634884245500,8.56824560546875,0.01672385260462761,-0.18276821076869965,0.08329728990793228
1757088634894199300,8.57819921875,0.01679442636668682,-0.18037882447242737,0.08950431644916534
1757088634904154400,8.588154296875,0.013945642858743668,-0.17416781187057495,0.08531596511602402
1757088634914108200,8.598108154296876,0.012315788306295872,-0.17110596597194672,0.07325823605060577
1757088634924062700,8.608062744140625,0.0118515994399786,-0.18849241733551025,0.07082889974117279
1757088634934016800,8.618016845703124,0.011352523230016232,-0.18001984059810638,0.06234699860215187
1757088634943971600,8.6279716796875,0.011490474455058575,-0.16900606453418732,0.054555121809244156
1757088634953925600,8.637925537109375,0.012615127488970757,-0.1538098007440567,0.050266899168491364
1757088634963880700,8.647880615234374,0.03705042973160744,-0.18937179446220398,0.06166975572705269
1757088634973834800,8.657834716796875,0.09770791977643967,-0.23657472431659698,0.06277976185083389
1757088634983789600,8.66778955078125,0.07558397203683853,-0.11664938181638718,0.06930769979953766
1757088634993743600,8.67774365234375,0.06584399193525314,-0.06746692210435867,0.07676668465137482
1757088635003698700,8.68769873046875,0.08077367395162582,-0.04561568796634674,0.07572192698717117
1757088635013652700,8.69765283203125,0.09284312278032303,-0.01836489327251911,0.07107657194137573
1757088635023607800,8.70760791015625,0.09591667354106903,0.02130395732820034,0.06336911767721176
1757088635033561600,8.7175615234375,0.09394033998250961,0.06266098469495773,0.058816444128751755
1757088635043516700,8.7275166015625,0.10954780131578445,0.07361536473035812,0.0490301251411438
1757088635053471700,8.7374716796875,0.1159186139702797,0.09670736640691757,0.03633297234773636
1757088635063425800,8.74742578125,0.11447171866893768,0.11932559311389923,0.02401904948055744
1757088635073380600,8.757380615234375,0.1076500341296196,0.13532346487045288,0.012941098771989346
1757088635083334700,8.767334716796874,0.09373288601636887,0.13975150883197784,-0.008440356701612473
1757088635093289700,8.777289794921876,0.07858242839574814,0.12936517596244812,-0.040296558290719986
1757088635103243500,8.787243408203125,0.07167685031890869,0.09645436704158783,-0.07993105053901672
1757088635113198800,8.79719873046875,0.08632689714431763,0.0493403859436512,-0.12603703141212463
1757088635123152600,8.807152587890625,0.06010807678103447,0.10132262855768204,-0.16665422916412354
1757088635133107700,8.817107666015625,0.02894456684589386,0.15535657107830048,-0.19708935916423798
1757088635143061800,8.827061767578124,-0.0010218549286946654,0.19433832168579102,-0.23907943069934845
1757088635153016800,8.837016845703126,-0.03135499358177185,0.21659915149211884,-0.2923799455165863
1757088635162971000,8.846970947265625,-0.07116951793432236,0.23119834065437317,-0.36322373151779175
1757088635172925700,8.85692578125,-0.13002510368824005,0.24427178502082825,-0.4610946476459503
1757088635182879700,8.866879638671875,-0.19802892208099365,0.2476918250322342,-0.5813701748847961
1757088635192834600,8.87683447265625,-0.2856980562210083,0.25041863322257996,-0.7181323170661926
1757088635202788600,8.88678857421875,-0.395180881023407,0.26102787256240845,-0.853430449962616
1757088635212743700,8.89674365234375,-0.530411422252655,0.26519277691841125,-0.9610679745674133
1757088635222698800,8.90669873046875,-0.6707639694213867,0.22556520998477936,-1.034757137298584
1757088635232652500,8.916652587890624,-0.8033068776130676,0.09119142591953278,-1.09401535987854
1757088635242607600,8.926607666015625,-0.9238401651382446,-0.06889784336090088,-1.1503980159759521
1757088635252562000,8.93656201171875,-1.0047498941421509,-0.21485957503318787,-1.2208572626113892
1757088635262516700,8.946516845703124,-1.0355725288391113,-0.31503811478614807,-1.319150447845459
1757088635272470800,8.956470703125,-1.0034586191177368,-0.4485112130641937,-1.4096753597259521
1757088635282425600,8.966425537109375,-0.8804607391357422,-0.6653370261192322,-1.3667411804199219
1757088635292379600,8.976379638671874,-0.7350758910179138,-0.9355727434158325,-1.1759840250015259
1757088635302334700,8.986334716796875,-0.5962708592414856,-1.1633161306381226,-1.0140984058380127
1757088635312288800,8.996288818359375,-0.5220120549201965,-1.2138125896453857,-1.0239715576171875
1757088635322243600,9.00624365234375,-0.4658350646495819,-1.095641016960144,-1.0950214862823486
1757088635332197600,9.01619775390625,-0.4362305700778961,-0.9181711077690125,-1.009042739868164
1757088635342152700,9.026152587890625,-0.436088889837265,-0.8565402626991272,-0.8288968801498413
1757088635352106800,9.036106689453124,-0.4541887938976288,-0.6966829299926758,-0.7835041284561157
1757088635362061800,9.046061767578125,-0.4583151042461395,-0.6099326014518738,-0.7618758082389832
1757088635372015600,9.056015625,-0.45970314741134644,-0.6427233219146729,-0.6918697953224182
1757088635381970700,9.065970703125,-0.44998687505722046,-0.7941067218780518,-0.6365008354187012
1757088635391924700,9.0759248046875,-0.35253968834877014,-0.9101097583770752,-0.641369104385376
1757088635401879800,9.0858798828125,-0.24591869115829468,-0.8827207088470459,-0.6247408390045166
1757088635411834600,9.095834716796874,-0.1962089240550995,-0.8160495162010193,-0.539609432220459
1757088635421788700,9.10578857421875,-0.18758055567741394,-0.7540175914764404,-0.42094188928604126
1757088635431743700,9.11574365234375,-0.20198053121566772,-0.7000012397766113,-0.32393014430999756
1757088635441697500,9.125697509765626,-0.22308768332004547,-0.6548390984535217,-0.272116482257843
1757088635451652900,9.13565283203125,-0.24853657186031342,-0.6245554685592651,-0.23782454431056976
1757088635461606700,9.145606689453125,-0.2614750266075134,-0.591905415058136,-0.2336452454328537
1757088635471561700,9.155561767578124,-0.24067838490009308,-0.5224093794822693,-0.2285090684890747
1757088635481515500,9.165515625,-0.21175912022590637,-0.479724258184433,-0.1984260082244873
1757088635491470800,9.175470947265625,-0.18345291912555695,-0.37448999285697937,-0.1345602124929428
1757088635501425000,9.1854248046875,-0.1515256017446518,-0.25046736001968384,-0.06138905882835388
1757088635511379700,9.195379638671875,-0.13253940641880035,-0.1964973509311676,-0.029199164360761642
1757088635521333800,9.205333740234375,-0.11812477558851242,-0.18132877349853516,-0.03441416472196579
1757088635531288600,9.21528857421875,-0.09176267683506012,-0.19624380767345428,-0.04460129141807556
1757088635541242600,9.22524267578125,-0.06483625620603561,-0.21834592521190643,-0.032153673470020294
1757088635551197700,9.23519775390625,-0.04521381855010986,-0.17866455018520355,-0.0423399992287159
1757088635561151700,9.24515185546875,0.007662713527679443,-0.19359689950942993,-0.08274947106838226
1757088635571106600,9.2551064453125,0.04987408220767975,-0.21996138989925385,-0.1288546472787857
1757088635581061600,9.2650615234375,0.07762209326028824,-0.24624305963516235,-0.1887369006872177
1757088635591016000,9.275015869140624,0.09751749783754349,-0.2666572630405426,-0.24333089590072632
1757088635600970800,9.284970703125,0.11581714451313019,-0.275104284286499,-0.2995654046535492
1757088635610924800,9.2949248046875,0.13283021748065948,-0.2847060263156891,-0.35341158509254456
1757088635620879600,9.304879638671874,0.1447712928056717,-0.32389312982559204,-0.3834587037563324
1757088635630833700,9.314833740234375,0.13876347243785858,-0.3021782338619232,-0.40096232295036316
1757088635640788700,9.324788818359375,0.11825500428676605,-0.28514865040779114,-0.42260318994522095
1757088635650742800,9.33474267578125,0.07840505987405777,-0.28315499424934387,-0.424175500869751
1757088635660697600,9.344697509765625,0.050638142973184586,-0.32148322463035583,-0.4099031090736389
1757088635670651600,9.354651611328125,0.035958800464868546,-0.35577940940856934,-0.3839668333530426
1757088635680606700,9.364606689453124,0.03141731023788452,-0.35526302456855774,-0.3527681827545166
1757088635690560800,9.374560791015625,0.04707669839262962,-0.35658955574035645,-0.30887261033058167
1757088635700515800,9.384515869140625,0.06451614201068878,-0.357596755027771,-0.252246618270874
1757088635710469600,9.3944697265625,0.06829330325126648,-0.35150131583213806,-0.18669530749320984
1757088635720424700,9.4044248046875,0.0665699690580368,-0.3725370764732361,-0.12353259325027466
1757088635730378800,9.414378662109375,0.05374152585864067,-0.4052252471446991,-0.059241753071546555
1757088635740333800,9.424333740234376,0.031919050961732864,-0.44796472787857056,0.0027414578944444656
1757088635750288000,9.434287841796875,-0.0025712819769978523,-0.4832843840122223,0.06951436400413513
1757088635760242700,9.44424267578125,-0.039630234241485596,-0.5208357572555542,0.1373213678598404
1757088635770197500,9.454197509765624,-0.08654873818159103,-0.5527955293655396,0.20578165352344513
1757088635780151600,9.464151611328125,-0.13291144371032715,-0.5792487263679504,0.271483451128006
1757088635790107000,9.47410693359375,-0.18312880396842957,-0.5921046137809753,0.34292033314704895
1757088635800060700,9.484060791015626,-0.23506870865821838,-0.5551931858062744,0.41973841190338135
1757088635810015700,9.494015625,-0.28888800740242004,-0.48027047514915466,0.5093966722488403
1757088635819969500,9.503969482421875,-0.29057538509368896,-0.3662634789943695,0.6454408168792725
1757088635829924900,9.5139248046875,-0.2228117734193802,-0.2542850077152252,0.7873289585113525
1757088635839879000,9.52387890625,-0.10575252771377563,-0.19309328496456146,0.8206307291984558
1757088635849833700,9.533833740234375,0.03539314493536949,-0.09866771847009659,0.7543113231658936
1757088635859787800,9.543787841796876,0.1810733824968338,0.1633010357618332,0.693155825138092
1757088635869742600,9.55374267578125,0.2968388497829437,0.5039299726486206,0.7143918871879578
1757088635879696600,9.563696533203125,0.38438522815704346,0.7702674269676208,0.739475429058075
1757088635889651700,9.573651611328126,0.3947049677371979,0.9120402336120605,0.6614466309547424
1757088635899605800,9.583605712890625,0.3187801241874695,0.9538286924362183,0.5012111663818359
1757088635909560600,9.593560546875,0.25235316157341003,0.9539863467216492,0.3338903486728668
1757088635919514600,9.6035146484375,0.19292178750038147,1.1981245279312134,0.21946923434734344
1757088635929474600,9.613474609375,0.10924499481916428,1.5423729419708252,0.23373925685882568
1757088635939428600,9.6234287109375,0.07610222697257996,1.8041131496429443,0.32595574855804443
1757088635949383400,9.633383544921875,0.12237571179866791,1.8563783168792725,0.4346071183681488
1757088635959338800,9.6433388671875,0.1881193071603775,1.660223126411438,0.5364421606063843
1757088635969292500,9.65329248046875,0.2770710289478302,1.326080083847046,0.613875150680542
1757088635979247600,9.66324755859375,0.3843628466129303,1.0762851238250732,0.6624317765235901
1757088635989201700,9.67320166015625,0.4682806432247162,0.943976104259491,0.7233883142471313
1757088635999156500,9.683156494140626,0.5254371762275696,0.8926162123680115,0.8323909640312195
1757088636009110800,9.69311083984375,0.5832937955856323,0.8487478494644165,0.9477503299713135
1757088636019065600,9.703065673828124,0.6136199831962585,0.7172673344612122,1.0062309503555298
1757088636029019600,9.71301953125,0.5792303681373596,0.48140817880630493,0.9697730541229248
1757088636038974500,9.722974365234375,0.4880088269710541,0.19903267920017242,0.8757549524307251
1757088636048928500,9.732928466796874,0.3580295145511627,-0.046906787902116776,0.7725129723548889
1757088636058883600,9.742883544921876,0.22682729363441467,-0.201775461435318,0.6943106055259705
1757088636068837600,9.752837646484375,0.1183873638510704,-0.14029160141944885,0.6385330557823181
1757088636078792400,9.76279248046875,0.06067932769656181,0.09349159896373749,0.6199290156364441
1757088636088746500,9.77274658203125,0.10102861374616623,0.4259891211986542,0.6512062549591064
1757088636098701600,9.78270166015625,0.22069136798381805,0.774150013923645,0.7127828001976013
1757088636108655600,9.792655517578124,0.3736870288848877,1.065242052078247,0.8034389615058899
1757088636118610700,9.802610595703126,0.5091210007667542,1.2558530569076538,0.8792495727539062
1757088636128565500,9.8125654296875,0.611038088798523,1.373158574104309,0.9498025178909302
1757088636138519600,9.82251953125,0.6502672433853149,1.4349455833435059,1.0377100706100464
1757088636148474600,9.832474609375,0.5736832618713379,1.4533556699752808,1.0374844074249268
1757088636158428700,9.8424287109375,0.40946927666664124,1.2983213663101196,0.9714194536209106
1757088636168383500,9.852383544921874,0.23290382325649261,0.9224135279655457,0.8931712508201599
1757088636178337500,9.862337646484375,0.05356016382575035,0.33280298113822937,0.8266188502311707
1757088636188292600,9.872292724609375,-0.02370106801390648,-0.24124936759471893,0.84415203332901
1757088636198246400,9.882246337890624,-0.007939682342112064,-0.439301460981369,0.8844267129898071
1757088636208201700,9.89220166015625,0.04507213830947876,-0.27902525663375854,0.9250122308731079
1757088636218155500,9.902155517578125,0.0780564546585083,-0.05107170715928078,0.95362788438797
1757088636228110600,9.912110595703124,0.13195617496967316,0.12116610258817673,0.9204553365707397
1757088636238064600,9.922064697265625,0.22254732251167297,0.16291967034339905,0.847438633441925
1757088636248019700,9.932019775390625,0.29863330721855164,0.013165603391826153,0.7744054198265076
1757088636257973800,9.941973876953124,0.3227250576019287,-0.1370052546262741,0.7137564420700073
1757088636267928600,9.951928466796875,0.32238444685935974,-0.19687631726264954,0.6676803231239319
1757088636277882600,9.961882568359375,0.3150801956653595,-0.20914550125598907,0.629931628704071
1757088636287837400,9.97183740234375,0.3250065743923187,-0.21725589036941528,0.6005468368530273
1757088636297791500,9.98179150390625,0.3621502220630646,-0.23406308889389038,0.5836375951766968
1757088636307746600,9.99174658203125,0.39977961778640747,-0.22011904418468475,0.585412859916687
1757088636317701600,10.00170166015625,0.4425707757472992,-0.16698019206523895,0.6155036687850952
1757088636327655700,10.01165576171875,0.48414111137390137,-0.13450615108013153,0.644811749458313
1757088636337610500,10.021610595703125,0.5140854120254517,-0.14303438365459442,0.6536305546760559
1757088636347564800,10.031564697265624,0.5403711199760437,-0.17871195077896118,0.6551557183265686
1757088636357519600,10.04151953125,0.5625554919242859,-0.19768458604812622,0.6640616059303284
1757088636367473700,10.0514736328125,0.5862890481948853,-0.17601071298122406,0.653108537197113
1757088636377428500,10.061428466796874,0.5854120850563049,-0.08050123602151871,0.6364083886146545
1757088636387382500,10.071382568359375,0.5905511975288391,0.026136528700590134,0.6131027936935425
1757088636397337600,10.081337646484375,0.5884595513343811,0.13665159046649933,0.5896819233894348
1757088636407291600,10.091291748046874,0.580556333065033,0.20083670318126678,0.5641776323318481
1757088636417246500,10.10124658203125,0.548872172832489,0.27122431993484497,0.5087577700614929
1757088636427200500,10.111200439453125,0.5139855742454529,0.3488498628139496,0.42962461709976196
1757088636437155600,10.121155517578124,0.49170342087745667,0.3696448802947998,0.3618961572647095
1757088636447109400,10.131109375,0.4612016975879669,0.3211947977542877,0.31568098068237305
1757088636457064700,10.141064697265625,0.42551109194755554,0.27632054686546326,0.29549822211265564
1757088636467018500,10.1510185546875,0.3890089988708496,0.2718043625354767,0.28576117753982544
1757088636476973600,10.1609736328125,0.34983018040657043,0.28837135434150696,0.28287938237190247
1757088636486927600,10.170927734375,0.3047220706939697,0.34351927042007446,0.27669256925582886
1757088636496882700,10.180882568359374,0.26032212376594543,0.43238070607185364,0.2501443326473236
1757088636506836700,10.190836669921875,0.22744300961494446,0.5202413201332092,0.20438723266124725
1757088636516791600,10.20079150390625,0.19455642998218536,0.5669457316398621,0.17234566807746887
1757088636526746600,10.21074658203125,0.17521682381629944,0.5300715565681458,0.1362750232219696
1757088636536700400,10.220700439453125,0.157391756772995,0.4968686103820801,0.05734478309750557
1757088636546655700,10.23065576171875,0.14204475283622742,0.5301743745803833,-0.09485034644603729
1757088636556609500,10.240609619140624,0.11630317568778992,0.5030373334884644,-0.2627924680709839
1757088636566564600,10.250564697265625,0.07549635320901871,0.4038145840167999,-0.4445902407169342
1757088636576518700,10.2605185546875,0.003619768423959613,0.274099200963974,-0.6492741703987122
1757088636586473500,10.270473388671874,-0.07620448619127274,0.13945803046226501,-0.8690078258514404
1757088636596427800,10.280427734375,-0.1741025596857071,0.08273749053478241,-1.126137614250183
1757088636606382600,10.290382568359375,-0.24393223226070404,0.06742431223392487,-1.386826753616333
1757088636616336600,10.300336669921874,-0.31673187017440796,0.14211346209049225,-1.6559010744094849
1757088636626291500,10.31029150390625,-0.41586750745773315,0.2524932324886322,-1.8651530742645264
1757088636636245500,10.32024560546875,-0.5078427195549011,0.3918266296386719,-2.0080320835113525
1757088636646200600,10.33020068359375,-0.6011852025985718,0.4647413194179535,-2.0949764251708984
1757088636656154600,10.340154541015625,-0.661624550819397,0.38946598768234253,-2.1598801612854004
1757088636666109400,10.350109375,-0.6104599237442017,0.3468967080116272,-2.180635690689087
1757088636676063500,10.3600634765625,-0.3923853635787964,0.4856082499027252,-2.1139490604400635
1757088636686018600,10.3700185546875,-0.16506564617156982,0.8296641707420349,-1.9496277570724487
1757088636695973600,10.3799736328125,-0.10190346091985703,1.1200206279754639,-1.7811332941055298
1757088636705927700,10.389927734375,-0.19828379154205322,1.335252285003662,-1.678454041481018
1757088636715882500,10.399882568359375,-0.34591639041900635,1.4622746706008911,-1.5410258769989014
1757088636725836500,10.40983642578125,-0.41037634015083313,1.4453850984573364,-1.3758848905563354
1757088636735791600,10.41979150390625,-0.36926352977752686,1.1756889820098877,-1.3109519481658936
1757088636745745700,10.42974560546875,-0.4263571798801422,0.6189215779304504,-1.3623390197753906
1757088636755700500,10.439700439453125,-0.4398934841156006,0.20466552674770355,-1.4842928647994995
1757088636765654500,10.449654541015626,-0.6421230435371399,-0.2187832146883011,-1.485242247581482
1757088636775609600,10.459609619140625,-0.8630785942077637,-0.6356576681137085,-1.4664075374603271
1757088636785563400,10.4695634765625,-0.8585147261619568,-0.9713533520698547,-1.5322496891021729
1757088636795518700,10.479518798828124,-0.7713528871536255,-1.2711299657821655,-1.608816146850586
1757088636805472500,10.489472412109375,-0.7424682378768921,-1.4955875873565674,-1.6489965915679932
1757088636815427600,10.499427490234375,-0.7414618730545044,-1.6028714179992676,-1.59687077999115
1757088636825381600,10.509381591796876,-0.7493991255760193,-1.6187092065811157,-1.4702202081680298
1757088636835336700,10.519336669921875,-0.7288488745689392,-1.5724115371704102,-1.320555329322815
1757088636845290800,10.529290771484375,-0.7371073365211487,-1.463914394378662,-1.1792538166046143
1757088636855245600,10.53924560546875,-0.7584192752838135,-1.4757499694824219,-0.9992161393165588
1757088636865199600,10.54919970703125,-0.7891238927841187,-1.568244218826294,-0.8229780197143555
1757088636875154400,10.559154541015625,-0.851108193397522,-1.5603116750717163,-0.6995199918746948
1757088636885108500,10.5691083984375,-0.9551190137863159,-1.4177676439285278,-0.6033790707588196
1757088636895063600,10.5790634765625,-1.0049654245376587,-1.3667662143707275,-0.5221561193466187
1757088636905018600,10.5890185546875,-0.9616783857345581,-1.3098618984222412,-0.4633018672466278
1757088636914972400,10.598972412109376,-0.8607597351074219,-1.2006752490997314,-0.35570722818374634
1757088636924923400,10.60892333984375,-0.6841058731079102,-0.8764982223510742,-0.2308763563632965
1757088636934877400,10.61887744140625,-0.602146565914154,-0.8365715742111206,0.032468728721141815
1757088636944832300,10.628832275390625,-0.48240926861763,-0.6961138248443604,0.22808828949928284
1757088636954786300,10.638786376953124,-0.3589658737182617,-0.521230161190033,0.3440559208393097
1757088636964741400,10.648741455078126,-0.2759711444377899,-0.42126867175102234,0.41869792342185974
1757088636974695400,10.6586953125,-0.20281462371349335,-0.34605008363723755,0.4894602298736572
1757088636984650500,10.668650390625,-0.1366683691740036,-0.26709190011024475,0.5797704458236694
1757088636994604300,10.678604248046875,-0.08011800795793533,-0.18912731111049652,0.68000328540802
1757088637004559400,10.688559326171875,-0.032889239490032196,-0.14189189672470093,0.7716701030731201
1757088637014513200,10.69851318359375,0.007723167072981596,-0.1439550369977951,0.8610660433769226
1757088637024468500,10.708468505859376,0.048467934131622314,-0.18057696521282196,0.9711211323738098
1757088637034422300,10.71842236328125,0.10074498504400253,-0.2164129912853241,1.0930569171905518
1757088637044377300,10.72837744140625,0.13330399990081787,-0.275893896818161,1.209605097770691
1757088637054331400,10.738331298828125,0.16002988815307617,-0.39640647172927856,1.2708410024642944
1757088637064286500,10.748286376953125,0.19439584016799927,-0.48048725724220276,1.2667567729949951
1757088637074240500,10.758240478515624,0.24097080528736115,-0.5780178308486938,1.1628447771072388
1757088637084195300,10.7681953125,0.25523656606674194,-0.7464459538459778,0.8726728558540344
1757088637094149400,10.7781494140625,0.2985408902168274,-0.9042909741401672,0.35813525319099426
1757088637104104200,10.788104248046874,0.32666733860969543,-1.071825385093689,-0.3066976070404053
1757088637114058200,10.798058349609375,0.18209710717201233,-1.0809211730957031,-0.9047884941101074
1757088637124013300,10.808013427734375,-0.13315458595752716,-0.9528851509094238,-1.2534929513931274
1757088637133968400,10.817968505859374,-0.40320470929145813,-0.9741989374160767,-1.3587181568145752
1757088637143922400,10.82792236328125,-0.6055655479431152,-1.187718391418457,-1.285730242729187
1757088637153877200,10.837877197265625,-0.7637554407119751,-1.49993097782135,-1.1723957061767578
1757088637163831600,10.84783154296875,-0.7744563221931458,-1.6190745830535889,-1.0564991235733032
1757088637173786400,10.857786376953126,-0.6719224452972412,-1.5344833135604858,-0.8790362477302551
1757088637183740400,10.867740478515625,-0.48838910460472107,-1.3400390148162842,-0.5990964770317078
1757088637193695200,10.8776953125,-0.37390807271003723,-1.050457239151001,-0.31982141733169556
1757088637203649300,10.887649169921875,-0.33772024512290955,-0.9610786437988281,-0.20038902759552002
1757088637213604400,10.897604248046875,-0.41490638256073,-0.7264533638954163,-0.16014839708805084
1757088637223558400,10.907558349609374,-0.50164794921875,-0.3561152219772339,-0.07488862425088882
1757088637233513500,10.917513427734375,-0.47244957089424133,0.3418998122215271,0.1877129077911377
1757088637243467300,10.92746728515625,-0.34486284852027893,1.031396746635437,0.5988352298736572
1757088637253422300,10.93742236328125,-0.10037826746702194,1.440621256828308,0.9926072955131531
1757088637263376400,10.94737646484375,0.16586513817310333,1.5983089208602905,1.1710646152496338
1757088637273331500,10.95733154296875,0.3158663511276245,1.5687172412872314,1.0975747108459473
1757088637283285500,10.967285400390624,0.31019648909568787,1.2728325128555298,0.8537356853485107
1757088637293240300,10.977240234375,0.285048246383667,0.6729480624198914,0.5140766501426697
1757088637303194400,10.9871943359375,0.4371885061264038,0.5283160209655762,0.14484906196594238
1757088637313149400,10.9971494140625,0.5983518362045288,0.7662566900253296,-0.05258571356534958
1757088637323103500,11.007103515625,0.6915539503097534,0.9490275382995605,-0.004069576505571604
1757088637333058300,11.017058349609375,0.7141168117523193,1.1535357236862183,0.17845310270786285
1757088637343013400,11.027013427734374,0.7255508303642273,1.387406826019287,0.4941016137599945
1757088637352967200,11.03696728515625,0.7628531455993652,1.5697531700134277,0.9889435768127441
1757088637362922500,11.046922607421875,0.8059604167938232,1.5468974113464355,1.4928895235061646
1757088637372876300,11.056876220703124,0.7929165363311768,1.402904748916626,1.8650681972503662
1757088637382831400,11.066831298828125,0.7278957366943359,1.327277421951294,2.0640087127685547
1757088637392785400,11.076785400390625,0.6116242408752441,1.3136066198349,2.0695884227752686
1757088637402740500,11.086740478515624,0.44562140107154846,1.3732765913009644,1.9121296405792236
1757088637412694500,11.096694580078125,0.25836631655693054,1.4591081142425537,1.575195074081421
1757088637422649300,11.1066494140625,0.13371065258979797,1.3687883615493774,1.1281328201293945
1757088637432603400,11.116603271484376,0.15965810418128967,0.9700220823287964,0.781093180179596
1757088637442558200,11.12655810546875,0.2305181622505188,0.6979212760925293,0.7161269187927246
1757088637452512300,11.13651220703125,0.2785448133945465,0.8009659051895142,0.8639206886291504
1757088637462467300,11.14646728515625,0.2853552997112274,1.068382978439331,1.0516945123672485
1757088637472421400,11.15642138671875,0.29613739252090454,1.3330657482147217,1.204304814338684
1757088637482376400,11.16637646484375,0.33108124136924744,1.4378502368927002,1.2800177335739136
1757088637492330200,11.176330322265626,0.3434303402900696,1.3648439645767212,1.2676047086715698
1757088637502285600,11.18628564453125,0.3101235032081604,1.030335783958435,1.1594780683517456
1757088637512239400,11.1962392578125,0.33233746886253357,0.6682379841804504,1.0283203125
1757088637522194400,11.2061943359375,0.31329745054244995,0.23386229574680328,0.9314592480659485
1757088637532148500,11.2161484375,0.29198578000068665,-0.1957644373178482,0.9362379908561707
1757088637542103300,11.226103271484375,0.2620726227760315,-0.39857134222984314,0.9316927790641785
1757088637552058400,11.236058349609374,0.27647846937179565,-0.3940508961677551,0.914101779460907
1757088637562012400,11.246012451171875,0.3417522609233856,-0.41397321224212646,0.9433299899101257
1757088637571967500,11.255967529296875,0.3755435347557068,-0.3799118995666504,0.9438620805740356
1757088637581921300,11.26592138671875,0.40195223689079285,-0.2970857322216034,0.9045879244804382
1757088637591876400,11.27587646484375,0.44074755907058716,-0.2540213465690613,0.885688304901123
1757088637601830400,11.285830322265625,0.4824691712856293,-0.2791416347026825,0.8936247825622559
1757088637611785500,11.295785400390624,0.5183877348899841,-0.32783353328704834,0.9211320281028748
1757088637621739300,11.3057392578125,0.5601610541343689,-0.3524898886680603,0.9582557082176208
1757088637631694300,11.3156943359375,0.6074691414833069,-0.3360893428325653,0.9763447046279907
1757088637641648400,11.3256484375,0.668938398361206,-0.30368292331695557,0.9647921323776245
1757088637651603500,11.335603515625,0.7299045324325562,-0.2794170081615448,0.9447587728500366
1757088637661557500,11.3455576171875,0.7666503190994263,-0.2720347046852112,0.9295105934143066
1757088637671512300,11.35551220703125,0.7781354784965515,-0.23497337102890015,0.936886191368103
1757088637681466400,11.36546630859375,0.7574504017829895,-0.13621217012405396,0.9402114152908325
1757088637691421200,11.375421142578125,0.7381965517997742,0.01194134820252657,0.9333780407905579
1757088637701375500,11.38537548828125,0.7488217949867249,0.14432229101657867,0.8937544822692871
1757088637711330300,11.395330322265625,0.7554282546043396,0.22398489713668823,0.8240243792533875
1757088637721284400,11.405284423828125,0.74896639585495,0.2884320616722107,0.7334835529327393
1757088637731239400,11.415239501953126,0.7026516199111938,0.3454631268978119,0.6368454098701477
1757088637741193200,11.425193115234375,0.6230283975601196,0.3767549991607666,0.5260787010192871
1757088637751148500,11.4351484375,0.525939404964447,0.39985260367393494,0.3986179530620575
1757088637761102300,11.445102294921876,0.44640570878982544,0.4420064389705658,0.3010549247264862
1757088637771057400,11.455057373046875,0.4054604172706604,0.46120116114616394,0.22611835598945618
1757088637781012200,11.46501220703125,0.3910260796546936,0.43175193667411804,0.14657479524612427
1757088637790966300,11.47496630859375,0.383528470993042,0.3918234407901764,0.10273836553096771
1757088637800921300,11.48492138671875,0.3494948744773865,0.397016316652298,0.11799588054418564
1757088637810875400,11.49487548828125,0.29022276401519775,0.499968022108078,0.12160366028547287
1757088637820830500,11.50483056640625,0.2186063826084137,0.6675045490264893,0.07078016549348831
1757088637830784300,11.5147841796875,0.13829821348190308,0.7586701512336731,0.030311033129692078
1757088637840739600,11.524739501953125,0.08048472553491592,0.8133935928344727,-0.06740140914916992
1757088637850693400,11.534693359375,0.0563836470246315,0.9009082317352295,-0.24270930886268616
1757088637860648400,11.5446484375,-0.007690676487982273,0.8570025563240051,-0.4137026369571686
1757088637870602500,11.5546025390625,-0.11988432705402374,0.6629478931427002,-0.589224100112915
1757088637880557300,11.564557373046876,-0.21220573782920837,0.5748904347419739,-0.8167123794555664
1757088637890511400,11.574511474609375,-0.3125608265399933,0.5944886803627014,-1.084371566772461
1757088637900466400,11.584466552734375,-0.44016221165657043,0.574207603931427,-1.344002604484558
1757088637910420500,11.59442041015625,-0.567256510257721,0.5117924213409424,-1.6117788553237915
1757088637920375300,11.604375244140625,-0.6785545349121094,0.40877044200897217,-1.8475749492645264
1757088637930329000,11.6143291015625,-0.7603026628494263,0.2725188732147217,-2.0747275352478027
1757088637940284000,11.624283935546876,-0.7979027628898621,0.12886664271354675,-2.3430893421173096
1757088637950238000,11.634238037109375,-0.758912205696106,0.00041571943438611925,-2.507871150970459
1757088637960193300,11.644193359375,-0.6494193077087402,-0.05810697749257088,-2.3657052516937256
1757088637970148000,11.654148193359376,-0.48015064001083374,0.1863059550523758,-1.9999825954437256
1757088637980102100,11.66410205078125,-0.2780049741268158,0.6764410734176636,-1.6645009517669678
1757088637990057000,11.674056884765625,-0.13172367215156555,1.103412389755249,-1.4958232641220093
1757088638000011000,11.684010986328126,-0.1830044388771057,1.3389004468917847,-1.4807740449905396
1757088638009966000,11.693966064453125,-0.458728164434433,1.3887218236923218,-1.5264360904693604
1757088638019920100,11.703920166015624,-0.7419065833091736,1.3134346008300781,-1.5207984447479248
1757088638029875000,11.713875,-0.649075984954834,1.3634498119354248,-1.5319056510925293
1757088638039829000,11.7238291015625,-0.49620044231414795,1.1181036233901978,-1.4976648092269897
1757088638049784000,11.7337841796875,-0.49542945623397827,0.6980605721473694,-1.523719310760498
1757088638059738000,11.743738037109376,-0.7148497104644775,0.4522217810153961,-1.585362195968628
1757088638069693200,11.753693115234375,-0.8977130055427551,0.3887850344181061,-1.6922982931137085
1757088638079647000,11.76364697265625,-0.8784173130989075,0.36103808879852295,-1.8162343502044678
1757088638089602000,11.77360205078125,-0.8553192019462585,0.07870519906282425,-1.9356610774993896
1757088638099556000,11.78355615234375,-0.9498521089553833,-0.5203022956848145,-1.8737359046936035
1757088638109511200,11.79351123046875,-1.0080344676971436,-1.0941247940063477,-1.744726300239563
1757088638119465200,11.80346533203125,-1.0412288904190063,-1.4828717708587646,-1.6709522008895874
1757088638129420000,11.813419921875,-1.0254632234573364,-1.7276010513305664,-1.596793532371521
1757088638139374000,11.8233740234375,-1.0185108184814453,-1.8209749460220337,-1.5647759437561035
1757088638149329200,11.8333291015625,-1.0475780963897705,-1.7333005666732788,-1.5459258556365967
1757088638159284200,11.8432841796875,-1.0621833801269531,-1.6019960641860962,-1.474839210510254
1757088638169238000,11.853238037109374,-1.056512713432312,-1.443676471710205,-1.3421114683151245
1757088638179193000,11.863193115234376,-1.0712422132492065,-1.2184579372406006,-1.2090567350387573
1757088638189147000,11.87314697265625,-1.0052101612091064,-0.9983141422271729,-0.9997309446334839
1757088638199102200,11.883102294921875,-0.8647925853729248,-0.7849701642990112,-0.6781159043312073
1757088638209056300,11.89305615234375,-0.7432363033294678,-0.5395484566688538,-0.3423653244972229
1757088638219011000,11.903010986328125,-0.6473926305770874,-0.26303642988204956,-0.049666356295347214
1757088638228965000,11.912965087890624,-0.5375553369522095,-0.08230632543563843,0.15569612383842468
1757088638238920000,11.922919921875,-0.4171240031719208,-0.07857603579759598,0.2873276472091675
1757088638248874200,11.932874267578125,-0.2780981957912445,-0.1294964700937271,0.3769688606262207
1757088638258829000,11.9428291015625,-0.16443447768688202,-0.20616409182548523,0.48474350571632385
1757088638268783000,11.952783203125,-0.08250952512025833,-0.29733794927597046,0.6317878365516663
1757088638278738000,11.962738037109375,-0.026016153395175934,-0.3782045543193817,0.8162490129470825
1757088638288692000,11.97269189453125,0.00672181835398078,-0.4578820765018463,1.0135411024093628
1757088638298647000,11.98264697265625,0.02942473441362381,-0.5142055153846741,1.1934095621109009
1757088638308601000,11.99260107421875,0.07233438640832901,-0.5600505471229553,1.3585724830627441
1757088638318556200,12.00255615234375,0.11700784415006638,-0.5955123901367188,1.4855613708496094
1757088638328510000,12.012510009765625,0.1859738677740097,-0.6567032933235168,1.5563247203826904
1757088638338465000,12.022465087890625,0.2902717590332031,-0.7468438148498535,1.5175440311431885
1757088638348419000,12.032419189453124,0.3546941578388214,-0.8670735955238342,1.357987642288208
1757088638358374100,12.0423740234375,0.3650549352169037,-1.0172628164291382,1.0327869653701782
1757088638368329000,12.052328857421875,0.3786269426345825,-1.2641631364822388,0.4661504030227661
1757088638378283000,12.062282958984374,0.3100862205028534,-1.6376581192016602,-0.310933381319046
1757088638388238000,12.072238037109376,0.11904463171958923,-1.9344956874847412,-1.0361413955688477
1757088638398192000,12.082192138671875,-0.25088736414909363,-1.8105272054672241,-1.4058440923690796
1757088638408147200,12.092147216796874,-0.5824897885322571,-1.4862276315689087,-1.3744428157806396
1757088638418101000,12.10210107421875,-0.8189172148704529,-1.2629919052124023,-1.153773307800293
1757088638428056000,12.11205615234375,-0.9391637444496155,-1.169408917427063,-0.9741877913475037
1757088638438009900,12.122009765625,-0.9317918419837952,-1.0803112983703613,-0.9623505473136902
1757088638447965200,12.131965087890626,-0.7270264625549316,-0.9234535098075867,-0.903853714466095
1757088638457919200,12.141919189453125,-0.4783516526222229,-0.7539832592010498,-0.6265640258789062
1757088638467874000,12.1518740234375,-0.3516174256801605,-0.7416698336601257,-0.3521662950515747
1757088638477828000,12.161828125,-0.2262405902147293,-0.6878974437713623,-0.3091770112514496
1757088638487783200,12.171783203125,-0.19843585789203644,-0.42573320865631104,-0.29133090376853943
1757088638497737200,12.1817373046875,-0.28078559041023254,0.09141486883163452,-0.08063865453004837
1757088638507692000,12.191692138671876,-0.3254374861717224,0.744181752204895,0.4079827070236206
1757088638517646000,12.20164599609375,-0.18837763369083405,1.236358642578125,0.9799761772155762
1757088638527601000,12.211600830078124,0.05200807377696037,1.387489914894104,1.2670884132385254
1757088638537555000,12.221554931640625,0.20884375274181366,1.3414808511734009,1.1560707092285156
