time,seconds_elapsed,gyro_x,gyro_y,gyro_z,acc_x,acc_y,acc_z,grav_x,grav_y,grav_z
1757687797362346800,0.0,0.0037124999798834,-0.0072874999605119,0.002337499987334,0.0493739992380142,-0.1686529964208603,-0.0302370004355907,1.6411110162734983,-9.155098915100098,-3.1082329750061035
1757687797371899400,0.009552734374999705,0.0024749999865889,-0.0060499999672174,0.0034374999813735,0.0579530000686645,-0.1564359962940216,-0.0171169992536306,1.640660047531128,-9.154730796813965,-3.1095590591430664
1757687797381452000,0.019105468749999854,0.0012374999932944,-0.0072874999605119,0.004674999974668,0.0410350002348423,-0.1538230031728744,-0.0274199992418289,1.6405030488967896,-9.154309272766112,-3.11088490486145
1757687797391004700,0.028657958984374954,-0.0012374999932944,-0.0108624994754791,0.0034374999813735,0.0321139991283416,-0.1798650026321411,-0.0446959994733333,1.6406149864196775,-9.153875350952148,-3.112102031707764
1757687797400557000,0.03821044921875005,-0.0012374999932944,-0.0108624994754791,0.0010999999940395,0.008042000234127,-0.181534007191658,-0.0360519997775554,1.6408950090408323,-9.153472900390623,-3.1131420135498047
1757687797410110000,0.04776318359374976,-0.0012374999932944,-0.0120999999344348,-0.0026124999858438,-0.0030119998846203,-0.1902939975261688,-0.0438890010118484,1.64130699634552,-9.15310001373291,-3.114022970199585
1757687797419662300,0.05731567382812486,-0.0012374999932944,-0.0120999999344348,-0.0075624999590218,-0.0084359999746084,-0.1988299936056137,-0.0423609986901283,1.6417100429534912,-9.152761459350586,-3.1148080825805664
1757687797429215000,0.06686840820312501,0.0,-0.0120999999344348,-0.0098999999463558,0.0138060003519058,-0.2025689929723739,-0.03184400126338,1.6420890092849731,-9.152474403381348,-3.11545205116272
1757687797438767600,0.07642089843749966,-0.0024749999865889,-0.0085249999538064,-0.0086624994874,0.0415359996259212,-0.1922499984502792,-0.0332919992506504,1.6424330472946167,-9.152236938476562,-3.1159698963165283
1757687797448320300,0.08597363281249981,0.0,-0.002337499987334,-0.0038499999791383,0.0605029985308647,-0.1681369990110397,-0.0362839996814727,1.642788052558899,-9.152021408081056,-3.11641788482666
1757687797457873000,0.09552612304687491,-0.0012374999932944,0.0061874999664723,0.0010999999940395,0.0918809995055198,-0.1775809973478317,-0.0234409999102354,1.6431870460510254,-9.151827812194824,-3.1167800426483154
1757687797467425500,0.10507885742187506,-0.0012374999932944,0.0147124994546175,0.004674999974668,0.1329559981822967,-0.1945510059595108,-0.0251540001481771,1.6437159776687622,-9.151646614074709,-3.117033004760742
1757687797476978200,0.11463159179687477,-0.0012374999932944,0.0208999998867511,0.004674999974668,0.1358429938554763,-0.199764996767044,-0.0381410010159015,1.644374966621399,-9.151485443115234,-3.117156982421875
1757687797486531000,0.12418432617187491,-0.0012374999932944,0.0159499999135732,0.0010999999940395,0.1317310035228729,-0.1785639971494674,-0.0297299996018409,1.6451900005340576,-9.151368141174316,-3.1170759201049805
1757687797496083500,0.13373681640625001,0.0,0.0061874999664723,-0.0050874999724328,0.1119500026106834,-0.1522559970617294,-0.0144849997013807,1.6460670232772827,-9.151325225830078,-3.116734981536865
1757687797505636000,0.14328930664062467,0.0012374999932944,-0.0048124999739229,-0.0123749999329447,0.1160459965467453,-0.1424050033092498,0.0046049999073147,1.6469169855117798,-9.15139102935791,-3.116096019744873
1757687797515188700,0.15284204101562482,0.0012374999932944,-0.0085249999538064,-0.0160875003784894,0.0952889993786811,-0.1467120051383972,-6.60000005154e-05,1.647624969482422,-9.151562690734863,-3.115212917327881
1757687797524741400,0.16239477539062497,-0.0012374999932944,-0.0108624994754791,-0.0136124994605779,0.0709469988942146,-0.1555179953575134,-0.0025559999048709,1.6482069492340088,-9.151822090148926,-3.1141369342803955
1757687797534294000,0.17194726562500007,-0.0012374999932944,-0.0120999999344348,-0.0111375004053115,0.0364530012011528,-0.1684920042753219,0.0108540002256631,1.648648977279663,-9.152188301086426,-3.112823963165283
1757687797543846400,0.18149975585937472,-0.0024749999865889,-0.0108624994754791,-0.0063249999657273,0.0126040000468492,-0.1878630071878433,0.0368730016052722,1.6489440202713013,-9.15267276763916,-3.111238956451416
1757687797553399300,0.19105273437499992,-0.0037124999798834,-0.0072874999605119,-0.0026124999858438,-0.0237360000610351,-0.1922069936990738,0.0547269992530345,1.64900803565979,-9.153291702270508,-3.109381914138794
1757687797562952000,0.20060522460937502,-0.0037124999798834,-0.0035749999806284,-0.0013749999925494,-0.0129420002922415,-0.1776870042085647,0.0514830015599727,1.6488419771194458,-9.154024124145508,-3.10730504989624
1757687797572504300,0.21015771484374968,-0.0049499999731779,0.0,0.002337499987334,0.0175999999046325,-0.2015230059623718,0.0569670014083385,1.6485769748687744,-9.154870986938477,-3.104940891265869
1757687797582057200,0.21971044921874983,-0.0060499999672174,0.0024749999865889,0.004674999974668,0.0579140000045299,-0.2303989976644516,0.0524379983544349,1.6483639478683472,-9.155817031860352,-3.10225510597229
1757687797591609900,0.22926318359374998,-0.0085249999538064,0.0,0.0059124999679625,0.0597879998385906,-0.2336380034685135,0.0092070000246167,1.648290991783142,-9.156803131103516,-3.0993709564208984
1757687797601162500,0.23881591796874968,-0.0085249999538064,-0.0085249999538064,-0.0001374999992549,0.0302789993584156,-0.2370309978723526,-0.0228339992463588,1.6483019590377808,-9.157817840576172,-3.096353054046631
1757687797610715100,0.24836840820312478,-0.0060499999672174,-0.0182875003665685,-0.0098999999463558,0.018640000373125,-0.205265998840332,-0.0639899969100952,1.6483850479125977,-9.1588134765625,-3.093355894088745
1757687797620267500,0.2579208984374999,-0.0012374999932944,-0.0230999998748302,-0.0196624994277954,-0.0028699999675154,-0.2027499973773956,-0.1048640012741088,1.648380994796753,-9.159761428833008,-3.090543031692505
1757687797629820200,0.267473388671875,0.0024749999865889,-0.0268124993890523,-0.0270875003188848,0.0181820001453161,-0.2147810012102127,-0.1095689982175827,1.6482319831848145,-9.160669326782228,-3.087925910949707
1757687797639372800,0.2770261230468747,0.0024749999865889,-0.0280499998480081,-0.0283249989151954,0.0426229983568191,-0.2033970057964325,-0.1230290010571479,1.6479289531707764,-9.161540985107422,-3.0855050086975098
1757687797648925400,0.28657885742187483,0.0037124999798834,-0.0292875003069639,-0.025849999859929,0.0358880013227462,-0.1850070059299469,-0.1240269988775253,1.6473759412765503,-9.16236686706543,-3.083348035812378
1757687797658478000,0.29613134765624993,0.0049499999731779,-0.0255750007927417,-0.0233750008046627,0.0405780002474784,-0.1759600043296814,-0.0996740013360977,1.6464879512786863,-9.16317653656006,-3.081418037414551
1757687797668030700,0.3056840820312501,0.0049499999731779,-0.0182875003665685,-0.0208999998867511,0.044829998165369,-0.1687600016593933,-0.0604370012879371,1.6452929973602295,-9.16400909423828,-3.079585075378418
1757687797677583400,0.31523657226562474,0.0037124999798834,-0.0035749999806284,-0.0184249989688396,0.0625410005450248,-0.1615619957447052,-0.0480079986155033,1.6438440084457395,-9.164859771728516,-3.0778329372406006
1757687797687136000,0.3247893066406249,0.0037124999798834,0.0074249999597668,-0.0160875003784894,0.0859600007534027,-0.14028100669384,-0.0403040014207363,1.6422699689865112,-9.165698051452637,-3.0761830806732178
1757687797696688600,0.33434204101562504,0.0024749999865889,0.0122375003993511,-0.0160875003784894,0.0740529969334602,-0.1187610030174255,-0.0258210003376007,1.640539050102234,-9.166521072387695,-3.07466197013855
1757687797706241500,0.34389477539062474,0.0024749999865889,0.0109999999403953,-0.0148499999195337,0.0876310020685195,-0.1261820048093795,-0.0327059999108314,1.6387670040130615,-9.16730785369873,-3.07326889038086
1757687797715794000,0.35344726562499984,0.0012374999932944,0.0098999999463558,-0.0160875003784894,0.0938979983329773,-0.1340229958295822,-0.0599609985947608,1.6370209455490112,-9.168024063110352,-3.0720748901367188
1757687797725346600,0.363,0.0037124999798834,0.0086624994874,-0.0160875003784894,0.1000109985470771,-0.1585890054702758,-0.0610640011727809,1.6353989839553833,-9.168638229370115,-3.0711119174957275
1757687797734899000,0.37255224609375004,0.0037124999798834,0.0086624994874,-0.0173249989748001,0.1084790006279945,-0.183565005660057,-0.0920929983258247,1.6339579820632937,-9.169092178344728,-3.0705299377441406
1757687797744451600,0.38210498046874974,0.0037124999798834,0.0074249999597668,-0.0184249989688396,0.1075000017881393,-0.1890400052070617,-0.0762019976973533,1.632783055305481,-9.169370651245115,-3.070328950881958
1757687797754004200,0.39165747070312484,0.0049499999731779,0.0061874999664723,-0.0184249989688396,0.1109490022063255,-0.1755809932947158,-0.0789989978075027,1.6318559646606443,-9.169474601745604,-3.07050895690918
1757687797763557000,0.40121044921875004,0.0037124999798834,0.0061874999664723,-0.0173249989748001,0.1159029975533485,-0.1378580033779144,-0.0425230003893375,1.6311299800872805,-9.169425964355469,-3.0710411071777344
1757687797773109500,0.4107629394531247,0.0060499999672174,0.0086624994874,-0.0148499999195337,0.0976520031690597,-0.1216960027813911,-0.0391420014202594,1.6304600238800049,-9.169233322143556,-3.0719690322875977
1757687797782662100,0.4203154296874998,0.0060499999672174,0.0074249999597668,-0.0160875003784894,0.0782689973711967,-0.1314219981431961,-0.0292450003325939,1.6297760009765625,-9.16895866394043,-3.073158025741577
1757687797792215000,0.429868408203125,0.0072874999605119,0.0037124999798834,-0.0148499999195337,0.0443140007555484,-0.1720300018787384,-0.0476410016417503,1.629073977470398,-9.168617248535156,-3.074552059173584
1757687797801767700,0.43942089843749965,0.0085249999538064,-0.0010999999940395,-0.0173249989748001,0.0351070016622543,-0.1910140067338943,-0.056267999112606,1.628371000289917,-9.168252944946287,-3.076014995574951
1757687797811320300,0.4489736328124998,0.0097624994814395,-0.002337499987334,-0.0173249989748001,0.0174659993499517,-0.2119379937648773,-0.046484000980854,1.627712965011597,-9.167913436889648,-3.077378034591675
1757687797820872700,0.4585261230468749,0.0109999999403953,-0.002337499987334,-0.0173249989748001,0.039182998239994,-0.2088589966297149,-0.0280150007456541,1.6271419525146484,-9.167610168457031,-3.0785820484161377
1757687797830425300,0.46807861328125,0.0097624994814395,0.0,-0.0160875003784894,0.0549339987337589,-0.1913219988346099,-0.0080469995737075,1.6266460418701172,-9.167377471923828,-3.079543113708496
1757687797839978000,0.4776313476562497,0.0072874999605119,0.0086624994874,-0.0123749999329447,0.0515590012073516,-0.174246996641159,-0.0297860000282526,1.626220941543579,-9.167196273803713,-3.080303907394409
1757687797849530600,0.4871838378906248,0.0049499999731779,0.0184249989688396,-0.0086624994874,0.043868999928236,-0.1674350053071975,-0.0707930028438568,1.6258169412612915,-9.16702365875244,-3.081029891967773
1757687797859083300,0.49673657226562495,0.0024749999865889,0.0244750007987022,-0.0050874999724328,0.0296589992940425,-0.1517779976129531,-0.1140720024704933,1.625378966331482,-9.16679573059082,-3.081939935684204
1757687797868636000,0.5062893066406247,0.0037124999798834,0.0232375003397464,-0.0075624999590218,-0.0065040001645684,-0.114715002477169,-0.1247769966721534,1.624760985374451,-9.16650390625,-3.0831298828125
1757687797878188500,0.5158417968749998,0.0037124999798834,0.0184249989688396,-0.0086624994874,-0.0159959997981786,-0.0967369973659515,-0.1187720000743866,1.623872995376587,-9.166166305541992,-3.0845940113067627
1757687797887741200,0.5253945312499999,0.0049499999731779,0.0159499999135732,-0.0123749999329447,-0.0065810000523924,-0.1116959974169731,-0.0882999971508979,1.6227569580078125,-9.165801048278809,-3.0862579345703125
1757687797897293800,0.5349472656250001,0.0060499999672174,0.0147124994546175,-0.0123749999329447,0.0137339998036623,-0.1358859986066818,-0.0665870010852813,1.6214239597320557,-9.165435791015623,-3.088036060333252
1757687797906846700,0.5444999999999998,0.0060499999672174,0.0134749999269843,-0.0123749999329447,0.0219160001724958,-0.1765320003032684,-0.0626169964671135,1.6198749542236328,-9.165106773376465,-3.089818000793457
1757687797916399000,0.5540524902343749,0.0097624994814395,0.0109999999403953,-0.0123749999329447,0.0183889996260404,-0.1886129975318908,-0.072393000125885,1.618090033531189,-9.164802551269531,-3.0916459560394287
1757687797925951500,0.5636047363281249,0.0097624994814395,0.0109999999403953,-0.0111375004053115,0.0375030003488063,-0.1862230002880096,-0.0544200018048286,1.6161329746246338,-9.16455078125,-3.093410015106201
1757687797935504100,0.5731574707031251,0.0085249999538064,0.0147124994546175,-0.0063249999657273,0.0663739964365959,-0.1696300059556961,-0.0394940003752708,1.614117980003357,-9.164323806762695,-3.095125913619995
1757687797945057000,0.5827104492187498,0.0049499999731779,0.017187500372529,-0.0001374999992549,0.0614119991660118,-0.1555870026350021,-0.0458169989287853,1.6120460033416748,-9.164125442504885,-3.096785068511963
1757687797954609400,0.5922626953124999,0.0012374999932944,0.017187500372529,0.0034374999813735,0.0313800014555454,-0.1367560029029846,-0.0562789998948574,1.6098079681396484,-9.163942337036133,-3.0984909534454346
1757687797964162300,0.6018156738281251,0.0,0.0122375003993511,0.002337499987334,0.0168200004845857,-0.156602993607521,-0.0962259992957115,1.6073850393295288,-9.163752555847168,-3.1003060340881348
1757687797973714700,0.6113679199218747,0.0,0.0074249999597668,0.0010999999940395,0.0099250003695487,-0.155580997467041,-0.138726994395256,1.60481595993042,-9.16350269317627,-3.1023740768432617
1757687797983267600,0.6209208984374999,0.0037124999798834,0.0037124999798834,-0.0026124999858438,0.0125620001927018,-0.1450510025024414,-0.1331779956817627,1.602213978767395,-9.163175582885742,-3.104681968688965
1757687797992820200,0.6304736328125,0.0037124999798834,0.0012374999932944,-0.0038499999791383,0.0218310002237558,-0.155239000916481,-0.0872439965605735,1.5996450185775757,-9.162809371948242,-3.1070830821990967
1757687798002372900,0.6400261230468747,0.0037124999798834,0.0024749999865889,-0.0038499999791383,0.0352069996297359,-0.1743289977312088,-0.0508089996874332,1.597201943397522,-9.162416458129885,-3.1095008850097656
1757687798011925200,0.6495786132812498,0.0,0.0098999999463558,-0.0026124999858438,0.0661559998989105,-0.1930560022592544,-0.0282060001045465,1.5948959589004517,-9.162007331848145,-3.111885070800781
1757687798021478000,0.6591311035156249,-0.0024749999865889,0.0159499999135732,0.0010999999940395,0.0816669985651969,-0.181330993771553,-0.0544480010867118,1.5927209854125977,-9.16154956817627,-3.114353895187378
1757687798031030500,0.668683837890625,-0.0037124999798834,0.0159499999135732,0.002337499987334,0.0576590001583099,-0.1740529984235763,-0.0451829992234706,1.590620040893555,-9.16107940673828,-3.11681604385376
1757687798040583200,0.6782365722656247,-0.0037124999798834,0.0098999999463558,-0.0001374999992549,0.0214060004800558,-0.1667529940605163,-0.0612509995698928,1.5885109901428225,-9.160634994506836,-3.119209051132202
1757687798050135800,0.6877890624999998,-0.0012374999932944,0.0,-0.0063249999657273,-0.0015259999781847,-0.133445993065834,-0.078073002398014,1.5863590240478516,-9.160234451293944,-3.121488094329834
1757687798059688400,0.697341796875,0.0024749999865889,-0.0048124999739229,-0.0123749999329447,-0.0113129997625947,-0.1595329940319061,-0.0669389963150024,1.5842050313949585,-9.15990924835205,-3.123542070388794
1757687798069241000,0.7068942871093751,0.0037124999798834,-0.0048124999739229,-0.0148499999195337,0.009162999689579,-0.1713639944791793,-0.0678879991173744,1.582108974456787,-9.159650802612305,-3.125368118286133
1757687798078793700,0.7164470214843748,0.0024749999865889,0.0012374999932944,-0.0111375004053115,0.0283189993351697,-0.1597899943590164,-0.0822990015149116,1.5801249742507937,-9.159400939941406,-3.127104043960572
1757687798088346400,0.7259997558593749,0.0012374999932944,0.0122375003993511,-0.0050874999724328,0.0460299998521804,-0.1457339972257614,-0.0593740008771419,1.5782710313796997,-9.159147262573242,-3.128781080245972
1757687798097899000,0.73555224609375,0.0,0.0232375003397464,0.0010999999940395,0.0806889981031417,-0.1510560065507888,-0.0536549985408782,1.5766489505767822,-9.158864974975586,-3.1304268836975098
1757687798107451600,0.7451049804687497,-0.0012374999932944,0.032999999821186,0.0071499999612569,0.1086369976401329,-0.1493760049343109,-0.0459700003266334,1.5753690004348757,-9.15855312347412,-3.131988048553467
1757687798117004000,0.7546574707031248,-0.0037124999798834,0.0391874983906745,0.0133375003933906,0.1594830006361007,-0.1363749951124191,-0.0500879995524883,1.5745370388031006,-9.158170700073242,-3.13352108001709
1757687798126557000,0.764210205078125,-0.0037124999798834,0.0379500016570091,0.0169124994426965,0.1687899976968765,-0.1472489982843399,-0.0428630001842975,1.574084997177124,-9.157734870910645,-3.135027885437012
1757687798136109600,0.7737629394531247,-0.0024749999865889,0.029424998909235,0.0169124994426965,0.1522859930992126,-0.1340129971504211,-0.0334849990904331,1.5739710330963137,-9.157257080078123,-3.136482954025269
1757687798155214600,0.7928679199218749,0.0,-0.0072874999605119,0.004674999974668,0.097631998360157,-0.1370750069618225,-0.0122320000082254,1.5746870040893557,-9.156307220458984,-3.1388940811157227
1757687798164767200,0.802420654296875,0.0,-0.0230999998748302,-0.0013749999925494,0.1055900007486343,-0.1563329994678497,-0.0211510006338357,1.5755300521850586,-9.155909538269045,-3.139625072479248
1757687798174320000,0.8119733886718747,0.0,-0.0305249989032745,-0.0013749999925494,0.101791001856327,-0.1711360067129135,-0.0481479987502098,1.5766949653625488,-9.155564308166504,-3.1400458812713623
1757687798183872500,0.8215258789062498,-0.0012374999932944,-0.0317624993622303,0.0010999999940395,0.0641359984874725,-0.1832479983568191,-0.0558120012283325,1.578052043914795,-9.155241012573242,-3.140300989151001
1757687798193425400,0.83107861328125,-0.0012374999932944,-0.0280499998480081,0.004674999974668,0.0122969998046755,-0.1547439992427826,-0.0714830011129379,1.579437017440796,-9.15490436553955,-3.140583038330078
1757687798202977800,0.8406311035156251,0.0012374999932944,-0.0230999998748302,0.0071499999612569,-0.0230480004101991,-0.1713789999485016,-0.0703380033373832,1.5806649923324585,-9.154550552368164,-3.140990972518921
1757687798212530700,0.8501840820312498,0.0012374999932944,-0.0133375003933906,0.0096249999478459,-0.0181540008634328,-0.1427560001611709,-0.0663549974560737,1.5817049741744995,-9.154205322265623,-3.1414730548858643
1757687798222083000,0.8597363281249999,0.0037124999798834,-0.0010999999940395,0.0133375003933906,-0.0065319999121129,-0.1666370034217834,-0.0535239987075328,1.5826400518417358,-9.153858184814451,-3.1420140266418457
1757687798231636000,0.8692893066406246,0.0060499999672174,0.0061874999664723,0.0181499999016523,-0.0026090000756084,-0.161871999502182,-0.0454970002174377,1.583601951599121,-9.153502464294434,-3.142561912536621
1757687798241188400,0.8788415527343747,0.0072874999605119,0.0086624994874,0.0218624994158744,0.0123089998960495,-0.1923229992389679,-0.0064759999513626,1.5847059488296509,-9.153193473815918,-3.1429100036621094
1757687798250741000,0.8883942871093748,0.0037124999798834,0.0086624994874,0.0218624994158744,0.0242219995707273,-0.2169799953699112,0.0388810001313686,1.58604097366333,-9.152955055236816,-3.142932891845703
1757687798260293600,0.897947021484375,0.0024749999865889,0.0074249999597668,0.0206249989569187,0.0556139983236789,-0.1912920027971267,0.066220998764038,1.587669014930725,-9.152795791625977,-3.142575979232788
1757687798269846300,0.9074995117187497,-0.0024749999865889,0.0024749999865889,0.0181499999016523,0.0536459982395172,-0.187048003077507,0.0621960014104843,1.589514970779419,-9.152750015258787,-3.141779899597168
1757687798279399000,0.9170522460937498,-0.0049499999731779,-0.0072874999605119,0.0120999999344348,0.0655260011553764,-0.1802670061588287,0.0694470033049583,1.5915329456329346,-9.15281867980957,-3.140558958053589
1757687798288951600,0.92660498046875,-0.0085249999538064,-0.024337500333786,0.0059124999679625,0.0585249997675418,-0.1546979993581771,0.0443719998002052,1.5935989618301392,-9.152997016906738,-3.138995885848999
1757687798298504200,0.936157470703125,-0.0085249999538064,-0.0402874983847141,-0.0013749999925494,0.0339439995586872,-0.1503459960222244,0.0454649999737739,1.5955380201339722,-9.15330696105957,-3.137103080749512
1757687798308056800,0.9457102050781248,-0.0097624994814395,-0.0536249987781047,-0.0098999999463558,-0.0091409999877214,-0.1646279990673065,0.0369889996945858,1.597025990486145,-9.15381145477295,-3.134872913360596
1757687798317609500,0.9552626953124999,-0.0109999999403953,-0.0635249987244606,-0.0173249989748001,-0.0335740000009536,-0.1737020015716552,0.0354290008544921,1.5979260206222534,-9.154521942138672,-3.1323230266571045
1757687798327162000,0.9648154296875,-0.0085249999538064,-0.0658624991774559,-0.0196624994277954,-0.0562769994139671,-0.1993789970874786,0.0246869996190071,1.5981789827346802,-9.15544319152832,-3.1294848918914795
1757687798336714800,0.9743681640624997,-0.0060499999672174,-0.0646250024437904,-0.0196624994277954,-0.039011001586914,-0.229652002453804,0.0369120016694068,1.5979000329971311,-9.156554222106934,-3.1263558864593506
1757687798346267600,0.9839208984374999,-0.0037124999798834,-0.057337500154972,-0.0173249989748001,-0.0427910014986991,-0.2644349932670593,0.0437510013580322,1.5971399545669556,-9.157848358154297,-3.12293004989624
1757687798355819800,0.9934731445312499,-0.0012374999932944,-0.0450999997556209,-0.0123749999329447,-0.0282409992069005,-0.2754560112953186,0.0458870008587837,1.5959299802780151,-9.159314155578612,-3.1192190647125244
1757687798365372700,1.0030258789062496,0.0,-0.0317624993622303,-0.0098999999463558,-0.0005770000279881,-0.2916130125522613,0.0388079993426799,1.594344973564148,-9.1609525680542,-3.115186929702759
1757687798374925300,1.0125786132812498,0.0,-0.0207624994218349,-0.0063249999657273,0.0617399998009204,-0.2731879949569702,0.0051119998097419,1.5926690101623535,-9.162680625915527,-3.110930919647217
1757687798384478000,1.02213134765625,-0.0037124999798834,-0.0170499999076128,-0.0050874999724328,0.093298003077507,-0.2412900030612945,-0.0221660006791353,1.5911320447921753,-9.164459228515623,-3.1064529418945312
1757687798394030300,1.03168359375,-0.0072874999605119,-0.0182875003665685,-0.0026124999858438,0.1268630027770996,-0.1631699949502945,-0.0722090005874633,1.589982032775879,-9.166186332702637,-3.1019299030303955
1757687798403583000,1.041236328125,-0.0085249999538064,-0.0195249989628791,-0.0050874999724328,0.1248200014233589,-0.1277649998664856,-0.1783069968223571,1.5891779661178589,-9.167774200439451,-3.097649097442627
1757687798413136000,1.0507893066406253,-0.0049499999731779,-0.0255750007927417,-0.0111375004053115,0.0889220014214515,-0.064869999885559,-0.2389450073242187,1.5885950326919556,-9.169151306152344,-3.0938849449157715
1757687798422688300,1.0603415527343745,0.0024749999865889,-0.0390499979257583,-0.0221375003457069,0.0487329997122287,-0.0546739995479583,-0.2525799870491028,1.5880630016326904,-9.170321464538574,-3.0907139778137207
1757687798432241000,1.0698942871093746,0.0097624994814395,-0.0463375002145767,-0.0306624993681907,0.0702069997787475,-0.0729940012097358,-0.2312940061092376,1.5875630378723145,-9.171259880065918,-3.088212013244629
1757687798441793800,1.0794470214843748,0.0134749999269843,-0.0450999997556209,-0.0331375002861022,0.1134300008416175,-0.0955730006098747,-0.1840099990367889,1.587172031402588,-9.171942710876465,-3.086405038833618
1757687798451346400,1.088999755859375,0.0170499999076128,-0.0390499979257583,-0.025849999859929,0.1357340067625045,-0.1084069982171058,-0.1549209952354431,1.586877942085266,-9.17237663269043,-3.0852839946746826
1757687798460899000,1.098552490234375,0.0195249989628791,-0.0340999998152256,-0.0160875003784894,0.1448879987001419,-0.1371729969978332,-0.1025469973683357,1.586745023727417,-9.172595024108888,-3.0847089290618896
1757687798470451500,1.1081047363281251,0.0195249989628791,-0.0292875003069639,-0.0075624999590218,0.1301770061254501,-0.147826001048088,-0.0301849991083145,1.586745023727417,-9.172661781311035,-3.08451509475708
1757687798480004000,1.1176574707031253,0.0195249989628791,-0.0182875003665685,-0.0038499999791383,0.1230330020189285,-0.1644780039787292,0.0293000005185604,1.5868710279464722,-9.172651290893556,-3.084480047225952
1757687798489556700,1.1272099609374995,0.0182875003665685,-0.0035749999806284,-0.0038499999791383,0.1325230002403259,-0.1709939986467361,0.060734000056982,1.5872100591659546,-9.17257595062256,-3.0845251083374023
1757687798499109400,1.1367626953124996,0.0147124994546175,0.0098999999463558,-0.0026124999858438,0.1893180012702942,-0.1731009930372238,0.0629839971661567,1.588060975074768,-9.172391891479492,-3.084628105163574
1757687798508662000,1.1463154296874998,0.0085249999538064,0.0184249989688396,-0.0026124999858438,0.2139710038900375,-0.180317997932434,0.0440789982676506,1.5895709991455078,-9.1720609664917,-3.0848209857940674
1757687798518214700,1.1558679199218749,0.0024749999865889,0.0208999998867511,-0.0013749999925494,0.2148029953241348,-0.1834499984979629,-0.0062239998951554,1.5918190479278564,-9.171541213989258,-3.085191011428833
1757687798527767300,1.165420654296875,0.0,0.017187500372529,-0.0038499999791383,0.1955509930849075,-0.1895660012960434,-0.0588349997997283,1.594696044921875,-9.170790672302246,-3.08591103553772
1757687798537320000,1.1749731445312501,-0.0012374999932944,0.0122375003993511,-0.0050874999724328,0.1501280069351196,-0.1721830070018768,-0.1039870008826255,1.5980989933013916,-9.169776916503906,-3.087142944335937
1757687798546872600,1.1845258789062503,-0.0049499999731779,0.0074249999597668,-0.0063249999657273,0.1164700016379356,-0.1884279996156692,-0.1428820043802261,1.601876974105835,-9.168502807617188,-3.0889580249786377
1757687798556425200,1.1940786132812495,-0.0049499999731779,0.0037124999798834,-0.0075624999590218,0.0689309984445571,-0.2018070071935653,-0.1481270045042038,1.605823993682861,-9.167007446289062,-3.09134292602539
1757687798565977900,1.2036311035156246,-0.0049499999731779,0.0037124999798834,-0.0086624994874,0.0285989996045827,-0.1913699954748153,-0.1732680052518844,1.6096359491348269,-9.165350914001465,-3.094275951385498
1757687798575530500,1.2131838378906248,-0.0037124999798834,0.0061874999664723,-0.0086624994874,-0.0096249999478459,-0.1735109984874725,-0.169291004538536,1.6131060123443604,-9.163593292236328,-3.097693920135498
1757687798585083100,1.222736572265625,-0.0012374999932944,0.0134749999269843,-0.0075624999590218,-0.0322929993271827,-0.1529909968376159,-0.1511240005493164,1.616036057472229,-9.161827087402344,-3.101409912109375
1757687798594635800,1.2322890625,0.0,0.0244750007987022,-0.0050874999724328,-0.0380759984254837,-0.1295679956674575,-0.1104540005326271,1.618433952331543,-9.160181045532228,-3.105041980743408
1757687798604188200,1.2418415527343751,0.0012374999932944,0.0354750007390975,-0.0026124999858438,-0.0234839990735054,-0.0939690023660659,-0.0710169970989227,1.6204630136489868,-9.15872573852539,-3.108290910720825
1757687798613740800,1.2513940429687502,0.0024749999865889,0.0439999997615814,-0.0001374999992549,-0.0006980000180192,-0.0940229967236518,-0.0402450002729892,1.6223360300064087,-9.157476425170898,-3.111006021499634
1757687798623293400,1.2609467773437495,0.0037124999798834,0.0501874983310699,-0.0013749999925494,0.0123749999329447,-0.1343380063772201,-0.0252039991319179,1.6240309476852417,-9.156444549560549,-3.11316990852356
1757687798632846000,1.2704995117187496,0.0049499999731779,0.053762499243021,-0.0038499999791383,0.043538000434637,-0.1793420016765594,-0.0229770001024007,1.6254899501800537,-9.15560817718506,-3.1148769855499268
1757687798642399000,1.2800522460937498,0.0049499999731779,0.0549999997019767,-0.0063249999657273,0.0669180005788803,-0.2291090041399002,-0.033109001815319,1.6266560554504397,-9.15496063232422,-3.1161789894104004
1757687798651951600,1.28960498046875,0.0049499999731779,0.0526624992489814,-0.0075624999590218,0.0598630011081695,-0.2524949908256531,-0.0454099997878074,1.6274360418319702,-9.154462814331056,-3.1172399520874023
1757687798661504300,1.299157470703125,0.0049499999731779,0.0452375002205371,-0.0086624994874,0.0645940005779266,-0.2711870074272156,-0.0575289987027645,1.6278419494628906,-9.154040336608888,-3.118267059326172
1757687798671056600,1.3087099609375001,0.0037124999798834,0.0354750007390975,-0.0075624999590218,0.0592940002679824,-0.2327589988708496,-0.0640949979424476,1.6279159784317017,-9.153619766235352,-3.1194629669189453
1757687798680609300,1.3182626953125003,0.0012374999932944,0.0306624993681907,-0.0075624999590218,0.0242469999939203,-0.1708859950304031,-0.0876580029726028,1.6275839805603027,-9.153145790100098,-3.1210219860076904
1757687798690162200,1.3278154296874995,0.0012374999932944,0.029424998909235,-0.0063249999657273,-0.0251490008085966,-0.1375200003385543,-0.0843269973993301,1.626574993133545,-9.15264892578125,-3.1229939460754395
1757687798699714800,1.3373681640624997,-0.0012374999932944,0.0281875003129243,-0.0063249999657273,-0.0404499992728233,-0.1042539998888969,-0.0875990018248558,1.624811053276062,-9.152142524719238,-3.1253890991210938
1757687798709267200,1.3469204101562497,-0.0024749999865889,0.0306624993681907,-0.0038499999791383,-0.0371359996497631,-0.0853419974446296,-0.0768259987235069,1.622323989868164,-9.151660919189451,-3.1280839443206787
1757687798718819800,1.35647314453125,-0.0012374999932944,0.0354750007390975,-0.0013749999925494,-0.0271799992769956,-0.1044619977474212,-0.0599719993770122,1.6192140579223633,-9.151247024536133,-3.130899906158448
1757687798728372500,1.36602587890625,0.0024749999865889,0.0439999997615814,0.0034374999813735,-0.0201970003545284,-0.1114770025014877,-0.041397999972105,1.6156400442123413,-9.150931358337402,-3.1336700916290283
1757687798737925000,1.3755783691406251,0.0024749999865889,0.0514249987900257,0.0083875004202127,0.0022209999151527,-0.1534039974212646,0.0119080003350973,1.611775040626526,-9.15076732635498,-3.1361429691314697
1757687798747477800,1.3851311035156253,0.0024749999865889,0.058712501078844,0.0133375003933906,0.0370999984443187,-0.2020539939403534,0.0389720015227794,1.6078599691390991,-9.150754928588867,-3.138195037841797
1757687798757030400,1.3946838378906246,0.0012374999932944,0.0599500015377998,0.0156750008463859,0.0496260002255439,-0.2125439941883087,0.0325470007956028,1.6040550470352173,-9.150894165039062,-3.139746904373169
1757687798766583000,1.4042363281249997,0.0,0.0549999997019767,0.0169124994426965,0.045363001525402,-0.2088350057601928,0.0217920001596212,1.6004669666290283,-9.151163101196287,-3.140800952911377
1757687798776135700,1.4137890624999998,-0.0012374999932944,0.0439999997615814,0.0156750008463859,0.0477860011160373,-0.1910800039768219,0.0093259997665882,1.597180962562561,-9.151533126831056,-3.141401052474976
1757687798785688300,1.423341552734375,-0.0024749999865889,0.0269499998539686,0.0133375003933906,0.0224259998649358,-0.1593450009822845,-0.0159019995480775,1.59415602684021,-9.151959419250488,-3.141700029373169
1757687798795241000,1.432894287109375,-0.0024749999865889,0.0122375003993511,0.0108624994754791,0.0163540001958608,-0.1700749993324279,0.0097570000216364,1.5913259983062744,-9.152463912963867,-3.1416680812835693
1757687798804793600,1.4424470214843752,-0.0037124999798834,0.0024749999865889,0.0071499999612569,0.0060419999063014,-0.1592430025339126,0.0045239999890327,1.5885950326919556,-9.153033256530762,-3.1413919925689697
1757687798814346200,1.4519995117187503,-0.0024749999865889,-0.0060499999672174,0.0059124999679625,-0.0149990003556013,-0.1746789962053299,-0.0074760001152753,1.585893988609314,-9.153650283813477,-3.1409618854522705
1757687798823899000,1.4615522460937496,-0.0024749999865889,-0.0108624994754791,0.0059124999679625,-0.0415700003504753,-0.2018209993839264,-0.0170430000871419,1.583086013793945,-9.154319763183594,-3.140420913696289
1757687798833451500,1.4711047363281247,-0.0060499999672174,-0.0085249999538064,0.0083875004202127,-0.0554240010678768,-0.2029100060462951,-0.0445679984986782,1.580104947090149,-9.15503215789795,-3.139847993850708
1757687798843004000,1.4806572265624998,-0.0060499999672174,0.0012374999932944,0.0108624994754791,-0.0662520006299018,-0.1898500025272369,-0.0543889999389648,1.5769530534744265,-9.155768394470217,-3.1392788887023926
1757687798852556500,1.4902099609375,-0.0060499999672174,0.0122375003993511,0.0120999999344348,-0.0762970000505447,-0.1817760020494461,-0.0656569972634315,1.5735830068588257,-9.15652847290039,-3.1387529373168945
1757687798862109200,1.499762451171875,-0.0049499999731779,0.0232375003397464,0.0144375003874301,-0.0540070012211799,-0.1811479926109314,-0.0647739991545677,1.5700299739837646,-9.157313346862791,-3.138240098953247
1757687798871661800,1.5093151855468752,-0.0060499999672174,0.029424998909235,0.0156750008463859,-0.0147810000926256,-0.1785400062799453,-0.0685679987072944,1.5664739608764648,-9.15812873840332,-3.137638092041016
1757687798881214500,1.5188676757812503,-0.0049499999731779,0.032999999821186,0.0181499999016523,0.037856001406908,-0.1575269997119903,-0.0718009993433952,1.563204050064087,-9.15892505645752,-3.136948108673096
1757687798890767400,1.5284206542968746,-0.0049499999731779,0.0317624993622303,0.0181499999016523,0.0490529984235763,-0.1510819941759109,-0.0748099982738494,1.560284972190857,-9.159695625305176,-3.136149883270264
1757687798900319700,1.5379731445312497,-0.0037124999798834,0.0257124993950128,0.0156750008463859,0.0664959996938705,-0.1521759927272796,-0.0868080034852027,1.5577369928359983,-9.160425186157228,-3.135292053222656
1757687798909872600,1.5475258789062498,-0.0024749999865889,0.0159499999135732,0.0096249999478459,0.0674870014190673,-0.1695750057697296,-0.0712610036134719,1.5555180311203003,-9.161120414733888,-3.134368896484375
1757687798928977700,1.566631103515625,-0.0012374999932944,-0.0035749999806284,-0.0013749999925494,0.0702409967780113,-0.1800220012664795,-0.0625379979610443,1.5518499612808228,-9.162363052368164,-3.132565975189209
1757687798938530300,1.5761835937500002,-0.0012374999932944,-0.0120999999344348,-0.0050874999724328,0.0759129971265792,-0.1749490052461624,-0.0281959995627403,1.550268054008484,-9.162879943847656,-3.131840944290161
1757687798948083000,1.5857363281249994,-0.0012374999932944,-0.015812499448657,-0.0038499999791383,0.0785119980573654,-0.1505240052938461,-0.0043469998054206,1.5488239526748655,-9.16334629058838,-3.131192922592163
1757687798967188200,1.6048415527343747,-0.0049499999731779,-0.0060499999672174,0.0071499999612569,0.0796660035848617,-0.1281239986419677,0.0045469999313354,1.5464320182800293,-9.164164543151855,-3.129991054534912
1757687798976740900,1.6143942871093748,-0.0060499999672174,0.0037124999798834,0.0120999999344348,0.0808539986610412,-0.1087210029363632,0.0068230000324547,1.545546054840088,-9.164541244506836,-3.1293320655822754
1757687798986293500,1.62394677734375,-0.0072874999605119,0.0159499999135732,0.0169124994426965,0.0819519981741905,-0.1155349984765052,0.0134819997474551,1.5448999404907229,-9.164873123168944,-3.1286799907684326
1757687798995846100,1.63349951171875,-0.0085249999538064,0.0281875003129243,0.0206249989569187,0.1060239970684051,-0.1513909995555877,-0.0057789999991655,1.544569969177246,-9.165145874023438,-3.128045082092285
1757687799005398800,1.6430520019531252,-0.0097624994814395,0.0379500016570091,0.024337500333786,0.1223009973764419,-0.1850180029869079,-0.0200769994407892,1.544648051261902,-9.1653470993042,-3.12741494178772
1757687799014951400,1.6526047363281244,-0.0122375003993511,0.0379500016570091,0.0254375003278255,0.1287920027971267,-0.1956360042095184,-0.0772389993071556,1.5452280044555664,-9.165417671203612,-3.1269190311431885
1757687799024504000,1.6621574707031246,-0.0109999999403953,0.0317624993622303,0.0279124993830919,0.1412169933319091,-0.1758600026369094,-0.099370002746582,1.5464099645614624,-9.16533374786377,-3.126573085784912
1757687799034056700,1.6717099609374997,-0.0085249999538064,0.0184249989688396,0.0266750007867813,0.1161860004067421,-0.1329489946365356,-0.1354690045118332,1.5481820106506348,-9.165066719055176,-3.1264688968658447
1757687799043609300,1.6812626953124998,-0.0037124999798834,0.0037124999798834,0.024337500333786,0.0830390006303787,-0.1249890029430389,-0.0874800011515617,1.550510048866272,-9.164673805236816,-3.126456022262573
1757687799053161700,1.6908149414062499,-0.0024749999865889,-0.0072874999605119,0.0193875003606081,0.0609820000827312,-0.1472640037536621,-0.060488998889923,1.5532610416412354,-9.164213180541992,-3.126430988311768
1757687799062714400,1.70036767578125,0.0,-0.0133375003933906,0.0169124994426965,0.0334779992699623,-0.1686320006847381,-0.0304879993200302,1.5562349557876587,-9.163751602172852,-3.1262989044189453
1757687799072267000,1.7099204101562502,0.0,-0.015812499448657,0.0133375003933906,0.0077550001442432,-0.1705570071935653,-0.0315509997308254,1.559175968170166,-9.163338661193848,-3.1260368824005127
1757687799081820000,1.7194731445312494,0.0012374999932944,-0.015812499448657,0.0133375003933906,-0.0076910001225769,-0.1553419977426529,-0.0094320001080632,1.5620139837265017,-9.163005828857422,-3.125595092773437
1757687799091372300,1.7290256347656245,0.0,-0.0170499999076128,0.0133375003933906,-0.038136001676321,-0.1656579971313476,0.0136150000616908,1.5646109580993652,-9.16281032562256,-3.1248700618743896
1757687799100925200,1.7385786132812497,0.0012374999932944,-0.015812499448657,0.0144375003874301,-0.0601079985499382,-0.1779939979314804,0.0218359995633363,1.5669209957122805,-9.162748336791992,-3.123898983001709
1757687799110477800,1.7481311035156248,-0.0012374999932944,-0.0133375003933906,0.0144375003874301,-0.0625329986214637,-0.1995629966259002,0.0268380008637905,1.5689460039138794,-9.162834167480469,-3.122637987136841
1757687799120030500,1.757683837890625,-0.0012374999932944,-0.0097624994814395,0.0133375003933906,-0.0531870014965534,-0.2093590050935745,0.015549000352621,1.570688009262085,-9.163042068481444,-3.121155023574829
1757687799129583000,1.767236328125,-0.0037124999798834,-0.0085249999538064,0.0120999999344348,-0.032710000872612,-0.2356549948453903,0.0246009994298219,1.572167992591858,-9.163359642028809,-3.1194849014282227
1757687799139135700,1.7767890625000002,-0.0060499999672174,-0.0072874999605119,0.0096249999478459,-0.0038270000368356,-0.2619690001010895,0.021128999069333,1.5734119415283203,-9.163773536682127,-3.1176459789276123
1757687799148688400,1.7863417968749995,-0.0097624994814395,-0.0072874999605119,0.0071499999612569,0.0236339997500181,-0.2459000051021576,-0.0073009999468922,1.5744580030441284,-9.164249420166016,-3.115717887878418
1757687799158240800,1.7958940429687495,-0.0134749999269843,-0.0072874999605119,0.002337499987334,0.0544250011444091,-0.2142529934644699,-0.0569010004401207,1.5753610134124756,-9.164731979370115,-3.113842964172364
1757687799167793400,1.8054467773437497,-0.0159499999135732,-0.0085249999538064,0.0010999999940395,0.0859130024909973,-0.1961189955472946,-0.1267330050468444,1.576185941696167,-9.165151596069336,-3.1121931076049805
1757687799177346000,1.8149992675781248,-0.0159499999135732,-0.0085249999538064,0.0010999999940395,0.0972170010209083,-0.1409430056810379,-0.1693869978189468,1.5769790410995483,-9.165437698364258,-3.1109509468078613
1757687799186898700,1.824552001953125,-0.0147124994546175,-0.0085249999538064,0.002337499987334,0.0938830003142356,-0.0938479974865913,-0.1975779980421066,1.577705979347229,-9.165559768676758,-3.110219955444336
1757687799196451300,1.834104736328125,-0.0097624994814395,-0.0120999999344348,0.0034374999813735,0.0834069997072219,-0.0612329989671707,-0.1847209930419922,1.578333020210266,-9.165523529052734,-3.110008955001831
1757687799206004000,1.8436572265625002,-0.0072874999605119,-0.0145749999210238,0.004674999974668,0.0729969963431358,-0.0376849994063377,-0.1446319967508316,1.578848958015442,-9.165401458740234,-3.1101109981536865
1757687799215556600,1.8532099609374995,-0.0037124999798834,-0.0170499999076128,0.0059124999679625,0.0651730000972747,-0.0490290001034736,-0.0883120000362396,1.579179048538208,-9.165276527404783,-3.110304117202759
1757687799225109200,1.8627624511718746,-0.0037124999798834,-0.0120999999344348,0.0071499999612569,0.0673350021243095,-0.1165790036320686,-0.0450519993901252,1.579347014427185,-9.165258407592772,-3.110275983810425
1757687799234662000,1.8723151855468747,-0.0024749999865889,-0.0072874999605119,0.0083875004202127,0.0766770020127296,-0.1808349937200546,-0.0140129998326301,1.5794260501861572,-9.165339469909668,-3.109998941421509
1757687799244214500,1.8818679199218749,-0.0037124999798834,-0.0072874999605119,0.0108624994754791,0.0901559963822364,-0.2163510024547577,-0.0216450002044439,1.579522967338562,-9.165475845336914,-3.109546899795532
1757687799253767200,1.89142041015625,-0.0037124999798834,-0.0108624994754791,0.0120999999344348,0.0913640037178993,-0.2159959971904754,-0.0221250001341104,1.5797419548034668,-9.16562271118164,-3.109006881713867
1757687799263319800,1.90097314453125,-0.0049499999731779,-0.0182875003665685,0.0120999999344348,0.092350997030735,-0.2182459980249405,-0.0364780016243457,1.5801810026168823,-9.165751457214355,-3.1084020137786865
1757687799272872400,1.9105258789062503,-0.0049499999731779,-0.0230999998748302,0.0096249999478459,0.0977059975266456,-0.203572005033493,-0.0204050000756979,1.5808969736099243,-9.165855407714844,-3.107733964920044
1757687799282425000,1.9200783691406245,-0.0037124999798834,-0.024337500333786,0.0059124999679625,0.1005399972200393,-0.1702850013971328,-0.0363340005278587,1.581984043121338,-9.165863037109377,-3.107151985168457
1757687799291977700,1.9296311035156246,-0.0037124999798834,-0.0268124993890523,0.0010999999940395,0.0831200033426284,-0.158500999212265,-0.0421519987285137,1.583441972732544,-9.165759086608888,-3.106705904006958
1757687799311082800,1.9487360839843748,-0.0024749999865889,-0.0292875003069639,-0.0038499999791383,0.0780169963836669,-0.1594299972057342,-0.0636110007762909,1.587455987930298,-9.16513729095459,-3.106476068496704
1757687799320635600,1.9582890625,-0.0024749999865889,-0.0230999998748302,-0.0038499999791383,0.0763709992170333,-0.1956920027732849,-0.0730250030755996,1.5899029970169067,-9.16462230682373,-3.1067419052124023
1757687799330188000,1.96784130859375,-0.0037124999798834,-0.0145749999210238,-0.0026124999858438,0.0703260004520416,-0.1795189976692199,-0.0839190036058425,1.592540979385376,-9.163955688476562,-3.107355117797852
1757687799339741000,1.9773942871093753,-0.0024749999865889,-0.0010999999940395,0.002337499987334,0.0646139979362487,-0.1735299974679947,-0.1120079979300499,1.5952800512313845,-9.1631441116333,-3.108345031738281
1757687799349293300,1.9869465332031253,-0.0012374999932944,0.0098999999463558,0.0059124999679625,0.063629999756813,-0.1582719981670379,-0.1176759973168373,1.5980520248413086,-9.162233352661133,-3.109616041183472
1757687799358846200,1.9964995117187496,-0.0012374999932944,0.017187500372529,0.0096249999478459,0.0782679989933967,-0.1476529985666275,-0.0932620018720626,1.600829005241394,-9.16130542755127,-3.110930919647217
1757687799368398600,2.0060520019531247,-0.0012374999932944,0.0184249989688396,0.0108624994754791,0.1008500009775161,-0.1365730017423629,-0.0495040006935596,1.6036399602890017,-9.160446166992188,-3.1120169162750244
1757687799377951200,2.0156044921875,0.0,0.0159499999135732,0.0133375003933906,0.1173340007662773,-0.1351419985294342,-0.0397440008819103,1.6065380573272705,-9.159697532653809,-3.112725019454956
1757687799387503900,2.0251572265625,0.0,0.0098999999463558,0.0133375003933906,0.1463949978351593,-0.1480540037155151,-0.0286100003868341,1.6096129417419434,-9.159067153930664,-3.112988948822021
1757687799397056500,2.034709716796875,0.0012374999932944,0.0012374999932944,0.0133375003933906,0.1466459929943084,-0.1725720018148422,-0.0162090007215738,1.6128740310668943,-9.15854835510254,-3.112826108932495
1757687799406609200,2.044262451171875,-0.0012374999932944,-0.0048124999739229,0.0120999999344348,0.1422020047903061,-0.1680569946765899,-0.0046660001389682,1.6163250207901,-9.158103942871094,-3.11233901977539
1757687799416161800,2.0538151855468745,-0.0037124999798834,-0.0097624994814395,0.0108624994754791,0.1131319999694824,-0.1682929992675781,-0.0234600007534027,1.6199020147323608,-9.157673835754396,-3.1117429733276367
1757687799425714400,2.0633676757812496,-0.0049499999731779,-0.0108624994754791,0.0096249999478459,0.0765089988708496,-0.1491879969835281,-0.0273630004376173,1.623500943183899,-9.157219886779783,-3.1111950874328613
1757687799435267000,2.0729204101562497,-0.0037124999798834,-0.0108624994754791,0.0071499999612569,0.0331399999558925,-0.147033005952835,-0.0603270009160041,1.626950979232788,-9.15673542022705,-3.1108169555664062
1757687799444819700,2.08247314453125,-0.0037124999798834,-0.0072874999605119,0.0071499999612569,0.0059480001218616,-0.1566680073738098,-0.0689089968800544,1.6301440000534058,-9.156229972839355,-3.11063289642334
1757687799454372000,2.092025390625,-0.0024749999865889,-0.0010999999940395,0.0083875004202127,0.000953999988269,-0.1808030009269714,-0.0863299965858459,1.63303804397583,-9.155707359313965,-3.11065411567688
1757687799463924700,2.101578125,-0.0024749999865889,0.0061874999664723,0.0120999999344348,-0.0084359999746084,-0.1829939931631088,-0.0663980022072792,1.635591983795166,-9.155179977416992,-3.110867977142334
1757687799473477400,2.111130615234375,-0.0024749999865889,0.0134749999269843,0.0156750008463859,0.009689999744296,-0.1804729998111724,-0.0564670003950595,1.6378599405288696,-9.154672622680664,-3.111177921295166
1757687799483030000,2.1206833496093744,-0.0012374999932944,0.0134749999269843,0.0193875003606081,0.0152190001681447,-0.1852059960365295,-0.0538490004837513,1.6399379968643188,-9.1541748046875,-3.11155104637146
1757687799492582700,2.1302360839843746,-0.0024749999865889,0.0134749999269843,0.0193875003606081,0.0090960003435611,-0.1803359985351562,-0.0559169985353946,1.6418230533599854,-9.153704643249512,-3.1119461059570312
1757687799502135300,2.1397885742187497,0.0,0.0098999999463558,0.0169124994426965,0.0057769999839365,-0.1966509968042373,-0.042077999562025,1.6435199975967407,-9.153280258178713,-3.1123039722442627
1757687799511688000,2.14934130859375,0.0,0.0024749999865889,0.0133375003933906,0.0322879999876022,-0.2196989953517913,-0.0158869996666908,1.6451250314712524,-9.152917861938477,-3.1125268936157227
1757687799521240600,2.158893798828125,0.0012374999932944,-0.0048124999739229,0.0108624994754791,0.0325380004942417,-0.2351749986410141,-0.0003800000122282,1.6466549634933472,-9.15264892578125,-3.112514019012451
1757687799530793200,2.168446533203125,0.0012374999932944,-0.0097624994814395,0.0083875004202127,0.0553190000355243,-0.2219319939613342,0.0144079998135566,1.6481980085372925,-9.15250301361084,-3.112131118774414
1757687799540345900,2.1779992675781252,0.0,-0.0108624994754791,0.0083875004202127,0.0653370022773742,-0.2018280029296875,0.0081620002165436,1.6497880220413208,-9.15247917175293,-3.1113600730896
1757687799549898500,2.1875517578124994,0.0,-0.0097624994814395,0.0071499999612569,0.0362729988992214,-0.1724099963903427,-0.0108070001006126,1.6512900590896606,-9.152559280395508,-3.110335111618042
1757687799559451100,2.1971044921874996,-0.0012374999932944,-0.0035749999806284,0.004674999974668,0.0183690004050731,-0.1767079979181289,-0.0379239991307258,1.6525399684906006,-9.15270709991455,-3.1092379093170166
1757687799569003500,2.2066567382812496,-0.0012374999932944,0.0049499999731779,0.0034374999813735,0.0039280001074075,-0.1549639999866485,-0.0540280006825923,1.6534219980239868,-9.152912139892578,-3.108164072036743
1757687799578556400,2.216209716796875,-0.0012374999932944,0.0086624994874,0.0034374999813735,0.0084049999713897,-0.1362600028514862,-0.0803090035915374,1.6538569927215576,-9.153142929077148,-3.1072559356689453
1757687799588108800,2.22576220703125,0.0012374999932944,0.0109999999403953,0.002337499987334,-0.0007079999777488,-0.1347000002861023,-0.1026699990034103,1.6538029909133911,-9.153360366821287,-3.106643915176392
1757687799597661700,2.23531494140625,0.0024749999865889,0.0109999999403953,0.0034374999813735,0.0131919998675584,-0.1469340026378631,-0.0649589970707893,1.653309941291809,-9.153578758239746,-3.106262922286988
1757687799607214000,2.244867431640625,0.0037124999798834,0.0098999999463558,0.0034374999813735,0.0308839995414018,-0.1658219993114471,-0.0317279994487762,1.6525139808654783,-9.15382194519043,-3.105968952178955
1757687799616767000,2.2544204101562495,0.0024749999865889,0.0049499999731779,0.0059124999679625,0.0493290014564991,-0.1557160019874572,-0.0025410000234842,1.6515979766845703,-9.154094696044922,-3.105654001235962
1757687799626319600,2.2639729003906246,0.0024749999865889,0.0012374999932944,0.0071499999612569,0.0554759986698627,-0.1837449967861175,-0.0003750000032596,1.6507209539413452,-9.154414176940918,-3.105180025100708
1757687799635872300,2.2735256347656247,-0.0012374999932944,-0.0010999999940395,0.0108624994754791,0.0722469985485076,-0.1924329996109008,0.0124859996140003,1.6500400304794312,-9.154779434204102,-3.1044609546661377
1757687799645425000,2.283078125,-0.0024749999865889,-0.0048124999739229,0.0156750008463859,0.0647199973464012,-0.167820006608963,0.0090450001880526,1.6496050357818604,-9.155190467834473,-3.1034839153289795
1757687799654977500,2.292630859375,-0.0037124999798834,-0.0072874999605119,0.0193875003606081,0.0390500016510486,-0.1530939936637878,-0.0144920004531741,1.6493849754333496,-9.155607223510742,-3.102368116378784
1757687799664530000,2.302183349609375,-0.0049499999731779,-0.0097624994814395,0.0193875003606081,0.0417530015110969,-0.1362809985876083,-0.0253420006483793,1.649338960647583,-9.15602207183838,-3.1011710166931152
1757687799674082600,2.31173583984375,-0.0037124999798834,-0.0120999999344348,0.0218624994158744,0.0326410010457038,-0.1177840009331703,-0.0579460002481937,1.649425029754639,-9.156399726867676,-3.100008010864258
1757687799683635200,2.3212885742187495,-0.0037124999798834,-0.0145749999210238,0.0218624994158744,0.033084999769926,-0.1233370006084442,-0.0662980005145073,1.6496620178222656,-9.15673542022705,-3.098891019821167
1757687799693187800,2.3308410644531246,-0.0012374999932944,-0.0170499999076128,0.0230999998748302,0.0493870005011558,-0.1503500044345855,-0.0586480014026165,1.650115966796875,-9.157015800476074,-3.097822904586792
1757687799702740500,2.3403937988281247,-0.0012374999932944,-0.0182875003665685,0.0230999998748302,0.0514589995145797,-0.1864069998264312,-0.0429250001907348,1.650712966918945,-9.157243728637695,-3.096829891204834
1757687799712293000,2.349946533203125,-0.0024749999865889,-0.0145749999210238,0.0230999998748302,0.0403009988367557,-0.224492996931076,-0.046824999153614,1.6514019966125488,-9.157419204711914,-3.0959439277648926
1757687799721845800,2.3594990234375,-0.0037124999798834,-0.0097624994814395,0.0218624994158744,0.0460110008716583,-0.2341960072517395,-0.0711899995803833,1.652107000350952,-9.15752410888672,-3.095254898071289
1757687799731398400,2.3690517578125,-0.0060499999672174,-0.0072874999605119,0.0230999998748302,0.0446520000696182,-0.2300979942083358,-0.1057879999279975,1.652781963348389,-9.157546997070312,-3.0948259830474854
1757687799740951000,2.378604248046875,-0.0060499999672174,-0.0108624994754791,0.0206249989569187,0.0232250001281499,-0.2357500046491623,-0.1319070011377334,1.653434991836548,-9.15749168395996,-3.094636917114258
1757687799750504000,2.3881572265624995,-0.0060499999672174,-0.0170499999076128,0.0181499999016523,-0.0152789996936917,-0.2058530002832412,-0.163000002503395,1.654039978981018,-9.157350540161133,-3.0947279930114746
1757687799760056300,2.3977097167968746,-0.0060499999672174,-0.0195249989628791,0.0144375003874301,-0.033670999109745,-0.1664000004529953,-0.1600040048360824,1.6546030044555664,-9.15713882446289,-3.095055103302002
1757687799769609000,2.4072622070312497,-0.0049499999731779,-0.0170499999076128,0.0108624994754791,-0.0395519994199276,-0.146013006567955,-0.1498290002346038,1.6550849676132202,-9.156889915466309,-3.0955300331115723
1757687799779161600,2.41681494140625,-0.0037124999798834,-0.0060499999672174,0.0096249999478459,-0.0266440007835626,-0.1400399953126907,-0.142097994685173,1.6555440425872805,-9.156622886657717,-3.0960729122161865
1757687799788714200,2.42636767578125,-0.0024749999865889,0.0074249999597668,0.0096249999478459,-0.0184560008347034,-0.150969997048378,-0.1482899934053421,1.6559289693832395,-9.15630054473877,-3.096813917160034
1757687799798266600,2.435919921875,-0.0012374999932944,0.0208999998867511,0.0108624994754791,0.000865000009071,-0.1568470001220703,-0.1221930012106895,1.6562329530715942,-9.155912399291992,-3.097798109054565
1757687799807819300,2.44547265625,-0.0024749999865889,0.0306624993681907,0.0120999999344348,0.0148930000141263,-0.1834290027618408,-0.0796910002827644,1.6563990116119385,-9.155485153198242,-3.098968982696533
1757687799817372000,2.4550251464843753,-0.0024749999865889,0.0342375002801418,0.0108624994754791,0.0510810017585754,-0.2047500014305114,-0.0443029999732971,1.6564990282058716,-9.155033111572266,-3.1002440452575684
1757687799826925000,2.4645783691406247,-0.0037124999798834,0.0367125011980533,0.0108624994754791,0.0897639989852905,-0.1973640024662017,-0.0244100000709295,1.6565810441970823,-9.154547691345217,-3.101630926132202
1757687799836477200,2.4741306152343747,-0.0037124999798834,0.0379500016570091,0.0096249999478459,0.1220239996910095,-0.2091159969568252,-0.0126170003786683,1.656708002090454,-9.15403938293457,-3.1030619144439697
1757687799846030000,2.483683349609375,-0.0049499999731779,0.0379500016570091,0.0096249999478459,0.1479229927062988,-0.2041970044374466,-0.0037990000564604,1.6570110321044922,-9.153519630432127,-3.104434967041016
1757687799855582500,2.49323583984375,-0.0060499999672174,0.0379500016570091,0.0096249999478459,0.1811449974775314,-0.1688349992036819,-0.0109609998762607,1.6575829982757568,-9.152969360351562,-3.1057519912719727
1757687799865135400,2.50278857421875,-0.0060499999672174,0.0379500016570091,0.0108624994754791,0.2031680047512054,-0.1458519995212555,-0.0106260003522038,1.6585140228271484,-9.15240478515625,-3.106920957565308
1757687799874688000,2.5123413085937503,-0.0072874999605119,0.032999999821186,0.0120999999344348,0.1941539943218231,-0.125559002161026,-0.0237610004842281,1.6597989797592163,-9.151814460754396,-3.107970952987671
1757687799884240600,2.5218940429687495,-0.0060499999672174,0.0269499998539686,0.0133375003933906,0.1717379987239837,-0.1197130009531974,-0.033780001103878,1.661342978477478,-9.15119171142578,-3.108974933624268
1757687799893793000,2.5314462890624996,-0.0060499999672174,0.017187500372529,0.0120999999344348,0.1413419991731643,-0.1253329962491989,-0.0252689998596906,1.663074016571045,-9.15053367614746,-3.1099770069122314
1757687799903345700,2.5409990234374997,-0.0037124999798834,0.0109999999403953,0.0133375003933906,0.1056639999151229,-0.1355980038642883,-0.0353149995207786,1.6649529933929443,-9.149831771850586,-3.111032009124756
1757687799912898300,2.550551513671875,-0.0037124999798834,0.0074249999597668,0.0133375003933906,0.0674239993095398,-0.1478009968996048,-0.0359049998223781,1.6668750047683716,-9.14912223815918,-3.1120779514312744
1757687799922451000,2.560104248046875,-0.0037124999798834,0.0098999999463558,0.0156750008463859,0.0335270017385482,-0.16423000395298,-0.027505999431014,1.66874897480011,-9.148465156555176,-3.112998962402344
1757687799932003600,2.569656982421875,-0.0024749999865889,0.0147124994546175,0.0193875003606081,0.0218000002205371,-0.1758700013160705,-0.0331390015780925,1.6706149578094482,-9.147867202758787,-3.1137468814849854
1757687799941556200,2.5792094726562502,-0.0024749999865889,0.0196624994277954,0.0218624994158744,0.026588000357151,-0.1851859986782074,-0.0363020002841949,1.672592043876648,-9.147344589233398,-3.114216089248657
1757687799951108900,2.5887622070312495,-0.0012374999932944,0.0257124993950128,0.0266750007867813,0.0149849997833371,-0.1892610043287277,-0.0118620004504919,1.6747089624404907,-9.146920204162598,-3.114320993423462
1757687799960661500,2.5983149414062496,-0.0012374999932944,0.0306624993681907,0.0291499998420476,0.0174749996513128,-0.1861139982938766,-0.0044510001316666,1.6770050525665283,-9.14659023284912,-3.114047050476074
1757687799970214100,2.6078674316406247,-0.0012374999932944,0.0354750007390975,0.0291499998420476,0.0266999993473291,-0.1851319968700409,0.0140070002526044,1.6794849634170532,-9.146370887756348,-3.1133530139923096
1757687799979766800,2.617420166015625,-0.0024749999865889,0.0379500016570091,0.0266750007867813,0.0268040001392364,-0.2007690072059631,0.010750999674201,1.682131052017212,-9.146276473999023,-3.1122069358825684
1757687799989319400,2.62697265625,-0.0024749999865889,0.0379500016570091,0.024337500333786,0.0294269993901252,-0.2090049982070922,0.018877999857068,1.684893012046814,-9.14630126953125,-3.1106410026550293
1757687799998872000,2.636525390625,-0.0037124999798834,0.0342375002801418,0.0206249989569187,0.0299789998680353,-0.2173500061035156,0.0035649999044835,1.6877299547195437,-9.146401405334473,-3.1088180541992188
1757687800008424700,2.6460781250000003,-0.0037124999798834,0.029424998909235,0.0169124994426965,0.0104310000315308,-0.2189030051231384,-0.0337360017001628,1.6904809474945068,-9.14653205871582,-3.1069529056549072
1757687800017977300,2.6556306152343745,-0.0037124999798834,0.0244750007987022,0.0133375003933906,-0.0146620003506541,-0.2087959945201873,-0.0644330009818077,1.6929490566253662,-9.14667797088623,-3.1051909923553467
1757687800027529700,2.6651831054687496,-0.0012374999932944,0.0196624994277954,0.0108624994754791,-0.0338589996099472,-0.1919459998607635,-0.0908219963312149,1.694996953010559,-9.146818161010742,-3.10367488861084
1757687800037082400,2.6747355957031247,0.0024749999865889,0.0159499999135732,0.0083875004202127,-0.0452859997749328,-0.1772840023040771,-0.074423998594284,1.696516990661621,-9.146967887878418,-3.1024179458618164
1757687800046635000,2.684288330078125,0.0060499999672174,0.0147124994546175,0.0059124999679625,-0.0471610017120838,-0.1482049971818924,-0.0557989999651908,1.697396993637085,-9.147160530090332,-3.1013729572296143
1757687800056188000,2.69384130859375,0.0085249999538064,0.0134749999269843,0.0034374999813735,-0.0353149995207786,-0.1472589969635009,-0.0129659995436668,1.6975890398025513,-9.14745044708252,-3.1004180908203125
1757687800065740500,2.703393798828125,0.0097624994814395,0.0147124994546175,0.0034374999813735,-0.0149440001696348,-0.1764609962701797,0.0431509986519813,1.6971499919891355,-9.147897720336914,-3.099334955215454
1757687800075293000,2.7129462890625002,0.0097624994814395,0.0159499999135732,0.004674999974668,0.0179019998759031,-0.2003449946641922,0.0822940021753311,1.696221947669983,-9.148534774780272,-3.0979549884796143
1757687800084845800,2.7224990234374995,0.0072874999605119,0.017187500372529,0.0071499999612569,0.0467259995639324,-0.2220340073108673,0.0756459981203079,1.6949670314788818,-9.149327278137209,-3.096297025680542
1757687800094398200,2.7320515136718746,0.0012374999932944,0.0147124994546175,0.0096249999478459,0.0714190006256103,-0.2244859933853149,0.0845519974827766,1.6935670375823977,-9.150270462036133,-3.094269037246704
1757687800103951000,2.7416044921875,-0.0012374999932944,0.0098999999463558,0.0108624994754791,0.0945679992437362,-0.2182330042123794,0.0473040007054805,1.6922099590301514,-9.151296615600586,-3.091965913772583
1757687800113503500,2.75115673828125,-0.0049499999731779,0.0049499999731779,0.0133375003933906,0.1002969965338707,-0.2080300003290176,0.0026199999265372,1.691025972366333,-9.152338027954102,-3.0895209312438965
1757687800123056000,2.76070947265625,-0.0049499999731779,-0.0010999999940395,0.0120999999344348,0.1054100021719932,-0.1701000034809112,-0.0370059981942176,1.6900780200958252,-9.15334415435791,-3.087053060531616
1757687800132608800,2.77026220703125,-0.0049499999731779,-0.0060499999672174,0.0120999999344348,0.0920369997620582,-0.1615329980850219,-0.0767780020833015,1.6893199682235718,-9.154287338256836,-3.0846710205078125
1757687800142161400,2.7798146972656252,-0.0049499999731779,-0.0085249999538064,0.0083875004202127,0.0772819966077804,-0.1459569931030273,-0.0915360003709793,1.6887190341949463,-9.155136108398438,-3.082482099533081
1757687800151714000,2.7893674316406245,-0.0037124999798834,-0.0120999999344348,0.0059124999679625,0.0566270016133785,-0.137703999876976,-0.1075600013136863,1.6881979703903198,-9.15588092803955,-3.080559015274048
1757687800161266700,2.7989199218749996,-0.0024749999865889,-0.0133375003933906,0.0034374999813735,0.041873998939991,-0.1482090055942535,-0.0978180021047592,1.687677979469299,-9.156529426574709,-3.078918933868408
1757687800170819300,2.8084726562499998,-0.0012374999932944,-0.0145749999210238,0.0010999999940395,0.003387999953702,-0.1609899997711181,-0.1181190013885498,1.6870529651641846,-9.157081604003906,-3.077622890472412
1757687800180372000,2.818025390625,-0.0012374999932944,-0.0133375003933906,-0.0013749999925494,0.0057580000720918,-0.1641329973936081,-0.1169769987463951,1.6863210201263428,-9.157529830932615,-3.076695919036865
1757687800189924600,2.827577880859375,0.0012374999932944,-0.0108624994754791,-0.0038499999791383,-0.0029949999880045,-0.1695190072059631,-0.1134300008416175,1.6854560375213623,-9.15788745880127,-3.0761139392852783
1757687800199477000,2.83713037109375,0.0037124999798834,-0.0060499999672174,-0.0038499999791383,0.0159889999777078,-0.1746300011873245,-0.0849210023880004,1.6845799684524536,-9.158185958862305,-3.075709104537964
1757687800209030000,2.8466831054687503,0.0024749999865889,0.0,-0.0026124999858438,0.0317149981856346,-0.1726299971342086,-0.0806119963526725,1.6838170289993286,-9.158437728881836,-3.075378894805908
1757687800218582500,2.8562358398437495,0.0012374999932944,0.0061874999664723,-0.0013749999925494,0.0692939981818199,-0.1756300032138824,-0.074423998594284,1.6833289861679075,-9.158655166625977,-3.0750019550323486
1757687800228135000,2.8657883300781246,0.0,0.0109999999403953,-0.0001374999992549,0.1093550026416778,-0.1718560010194778,-0.0754579976201057,1.683258056640625,-9.158806800842283,-3.074590921401977
1757687800237687600,2.8753408203124997,0.0012374999932944,0.0134749999269843,0.002337499987334,0.1310299932956695,-0.1403699964284896,-0.1031000018119812,1.6836860179901123,-9.158839225769045,-3.074260950088501
1757687800247240200,2.8848935546875,0.0,0.0147124994546175,0.0059124999679625,0.1397870033979416,-0.1304479986429214,-0.0929289981722831,1.6846280097961426,-9.158721923828123,-3.07409405708313
1757687800256793000,2.8944462890625,0.0,0.0109999999403953,0.0071499999612569,0.1545950025320053,-0.1255089938640594,-0.0923869982361793,1.6860870122909546,-9.158395767211914,-3.074259996414185
1757687800266345700,2.9039990234375,0.0012374999932944,0.0074249999597668,0.0059124999679625,0.1391099989414215,-0.1181719973683357,-0.0961989983916282,1.6879279613494873,-9.157835960388184,-3.074913024902344
1757687800275898000,2.9135515136718753,0.0037124999798834,0.0024749999865889,0.0034374999813735,0.1201959997415542,-0.1414249986410141,-0.0841120034456253,1.690000057220459,-9.157078742980955,-3.0760231018066406
1757687800285450800,2.9231040039062495,0.0049499999731779,-0.0010999999940395,-0.0001374999992549,0.0934130027890205,-0.140172004699707,-0.0679450035095214,1.6921329498291016,-9.156146049499512,-3.077615976333618
1757687800295003400,2.9326567382812496,0.0037124999798834,-0.0035749999806284,-0.0026124999858438,0.068461000919342,-0.1692360043525695,-0.0531600005924701,1.6941570043563845,-9.155123710632324,-3.079535961151123
1757687800304556000,2.9422094726562498,0.0037124999798834,-0.0048124999739229,-0.0026124999858438,0.0608429983258247,-0.1929329931735992,-0.0349740013480186,1.6960099935531616,-9.154083251953123,-3.0816071033477783
1757687800314108700,2.951761962890625,0.0024749999865889,-0.0048124999739229,-0.0013749999925494,0.0355190001428127,-0.2087610065937042,-0.0180040001869201,1.6975890398025513,-9.15310764312744,-3.0836338996887207
1757687800323661000,2.961314453125,0.0,-0.0010999999940395,0.0010999999940395,0.0205010008066892,-0.1962890028953552,-0.0472479984164238,1.698891043663025,-9.15220832824707,-3.08558988571167
1757687800333214000,2.9708671875,-0.0037124999798834,0.0012374999932944,0.0034374999813735,0.0218429993838071,-0.176813006401062,-0.052241001278162,1.6999870538711548,-9.151384353637695,-3.087435007095337
1757687800342766300,2.980419677734375,-0.0037124999798834,0.0061874999664723,0.0071499999612569,0.0001279999996768,-0.1505649983882904,-0.0722969993948936,1.700896978378296,-9.15062141418457,-3.089198112487793
1757687800352319200,2.9899726562499995,-0.0024749999865889,0.0086624994874,0.0083875004202127,0.0177459996193647,-0.1176669970154762,-0.0747779980301857,1.7017439603805542,-9.149872779846191,-3.090949058532715
1757687800361872000,2.9995251464843746,0.0,0.0109999999403953,0.0096249999478459,0.0298790000379085,-0.1096709966659545,-0.1131319999694824,1.702694058418274,-9.149087905883787,-3.0927538871765137
1757687800371424500,3.0090778808593748,0.0,0.0122375003993511,0.0083875004202127,0.0304659996181726,-0.1420349925756454,-0.1091649979352951,1.703732967376709,-9.148276329040527,-3.094580888748169
1757687800380977200,3.01863037109375,0.0037124999798834,0.0098999999463558,0.0071499999612569,0.0312880016863346,-0.1671379953622818,-0.1100960001349449,1.7048920392990112,-9.147438049316406,-3.096424102783203
1757687800390529800,3.02818310546875,0.0049499999731779,0.0061874999664723,0.0059124999679625,0.0300479996949434,-0.2012200057506561,-0.0910509973764419,1.7061049938201904,-9.146588325500488,-3.09827208518982
1757687800400082400,3.03773583984375,0.0049499999731779,0.0012374999932944,0.0034374999813735,0.0404490008950233,-0.2321790009737014,-0.0599649995565414,1.7073440551757812,-9.14576530456543,-3.100023031234741
1757687800409635000,3.0472883300781253,0.0037124999798834,0.0,0.0010999999940395,0.0323049984872341,-0.236173003911972,-0.0351700000464916,1.7084749937057495,-9.145013809204102,-3.1016271114349365
1757687800419187500,3.0568408203124995,0.0037124999798834,0.0012374999932944,-0.0038499999791383,0.0271039996296167,-0.2227579951286316,-1.59999999596e-05,1.7093549966812134,-9.144384384155272,-3.1030049324035645
1757687800428740000,3.0663933105468746,0.0012374999932944,0.0061874999664723,-0.0050874999724328,0.0267510004341602,-0.1952960044145584,-0.0117809996008872,1.709900975227356,-9.143911361694336,-3.104099035263061
1757687800438292700,3.0759460449218747,-0.0012374999932944,0.0147124994546175,-0.0050874999724328,0.026690000668168,-0.1874880045652389,-0.0410729981958866,1.710049033164978,-9.143572807312012,-3.105015993118286
1757687800447845400,3.085498779296875,-0.0037124999798834,0.0184249989688396,-0.0038499999791383,0.0220350008457899,-0.1751399934291839,-0.0551740005612373,1.709733009338379,-9.143365859985352,-3.105798959732056
1757687800457398000,3.09505126953125,-0.0037124999798834,0.0184249989688396,-0.0026124999858438,0.0240410007536411,-0.1394309997558593,-0.0702340006828308,1.709022045135498,-9.14326000213623,-3.106498956680298
1757687800466950700,3.10460400390625,-0.0037124999798834,0.0147124994546175,-0.0013749999925494,0.041287999600172,-0.1067280024290084,-0.0795409977436065,1.7080589532852173,-9.14319896697998,-3.107206106185913
1757687800476503300,3.1141567382812503,-0.0012374999932944,0.0134749999269843,0.002337499987334,0.0639059990644455,-0.1004799976944923,-0.0631510019302368,1.7070200443267822,-9.143148422241213,-3.107923984527588
1757687800486056000,3.1237092285156245,0.0,0.017187500372529,0.004674999974668,0.0718030035495758,-0.1274259984493255,-0.0479139983654022,1.7060149908065796,-9.143084526062012,-3.108665943145752
1757687800495608600,3.1332619628906246,-0.0012374999932944,0.0184249989688396,0.0034374999813735,0.0750389993190765,-0.1604200005531311,-2.49999993684e-05,1.7050659656524658,-9.143033981323242,-3.109335899353028
1757687800505161200,3.1428144531249997,-0.0012374999932944,0.0159499999135732,0.002337499987334,0.0783130005002021,-0.1857299953699112,0.0176849998533725,1.7042429447174072,-9.142988204956056,-3.1099228858947754
1757687800514713900,3.1523671875,-0.0037124999798834,0.0109999999403953,-0.0001374999992549,0.099601000547409,-0.1894659996032714,0.0227119997143745,1.7036399841308594,-9.142969131469728,-3.1103079319000244
1757687800524266500,3.161919921875,-0.0037124999798834,0.0024749999865889,0.0010999999940395,0.0968239977955818,-0.2002629935741424,0.0249010007828474,1.7032430171966553,-9.14299488067627,-3.1104540824890137
1757687800533819100,3.171472412109375,-0.0049499999731779,-0.0072874999605119,-0.0013749999925494,0.0830499976873397,-0.216046005487442,-0.0053119999356567,1.7030479907989502,-9.143072128295898,-3.1103320121765137
1757687800543371800,3.1810251464843753,-0.0072874999605119,-0.0133375003933906,-0.0026124999858438,0.0382159985601902,-0.2008309960365295,-0.0361890010535717,1.702862024307251,-9.143223762512209,-3.1099870204925537
1757687800552924400,3.1905776367187495,-0.0072874999605119,-0.015812499448657,-0.0075624999590218,0.0146639999002218,-0.2288669943809509,-0.0750159993767738,1.7025450468063354,-9.143488883972168,-3.1093790531158447
1757687800562476800,3.2001301269531246,-0.0060499999672174,-0.015812499448657,-0.0086624994874,-0.0031969998963177,-0.1951919943094253,-0.0997830033302307,1.7020740509033203,-9.14382553100586,-3.108650922775269
1757687800572029700,3.20968310546875,-0.0060499999672174,-0.0133375003933906,-0.0098999999463558,-0.0156679991632699,-0.1684529930353164,-0.0818570032715797,1.701429009437561,-9.144238471984863,-3.1077880859375
1757687800581582300,3.219235595703125,-0.0049499999731779,-0.0072874999605119,-0.0075624999590218,-0.007222999818623,-0.1609079986810684,-0.0713550001382827,1.7006579637527466,-9.144697189331056,-3.1068570613861084
1757687800591135000,3.228788330078125,-0.0049499999731779,0.0012374999932944,-0.0050874999724328,-0.0175240002572536,-0.1434769928455352,-0.0495649985969066,1.6997259855270386,-9.145182609558104,-3.1059410572052
1757687800600687400,3.238340576171875,-0.0049499999731779,0.0086624994874,-0.0026124999858438,-0.0024580000899732,-0.1357460021972656,-0.0423199981451034,1.6987110376358032,-9.145654678344728,-3.105104923248291
1757687800610240300,3.2478935546875003,-0.0049499999731779,0.0147124994546175,0.0010999999940395,0.0208940003067255,-0.1614670008420944,-0.0335760004818439,1.6977050304412842,-9.146085739135742,-3.1043848991394043
1757687800619793000,3.2574462890624996,-0.0037124999798834,0.017187500372529,0.0034374999813735,0.0385009981691837,-0.1757739931344986,-0.0572340004146099,1.6967580318450928,-9.14646339416504,-3.103787899017334
1757687800629345500,3.2669987792968747,-0.0037124999798834,0.0159499999135732,0.0059124999679625,0.0481319986283779,-0.1737439930438995,-0.0728849992156028,1.695924997329712,-9.146791458129885,-3.1032750606536865
1757687800638898200,3.276551513671875,-0.0024749999865889,0.0109999999403953,0.0010999999940395,0.0530869998037815,-0.1813790053129196,-0.0810389965772628,1.6952110528945925,-9.147077560424805,-3.102818965911865
1757687800648450800,3.286104248046875,0.0,0.0049499999731779,-0.0026124999858438,0.0555000007152557,-0.1720159947872162,-0.061243999749422,1.6945960521697998,-9.147363662719728,-3.1023108959198
1757687800658003500,3.29565673828125,0.0012374999932944,-0.0010999999940395,-0.0075624999590218,0.0623829998075962,-0.1577810049057006,-0.049049999564886,1.6940200328826904,-9.14768409729004,-3.101680994033813
1757687800667555800,3.305209228515625,0.0012374999932944,-0.0072874999605119,-0.0111375004053115,0.0712469965219497,-0.1576920002698898,-0.0353309996426105,1.693413019180298,-9.14805507659912,-3.100917100906372
1757687800677108500,3.3147617187500003,0.0012374999932944,-0.0108624994754791,-0.0123749999329447,0.0729760006070137,-0.1696539968252182,-0.0452970005571842,1.6927560567855835,-9.148457527160645,-3.1000900268554688
1757687800686661000,3.3243144531249995,0.0012374999932944,-0.0133375003933906,-0.0111375004053115,0.0609450004994869,-0.1768469959497451,-0.0548780001699924,1.692023992538452,-9.148834228515623,-3.0993831157684326
1757687800696213800,3.3338671874999997,0.0,-0.0108624994754791,-0.0098999999463558,0.0542239993810653,-0.1889369934797287,-0.0710389986634254,1.6911929845809937,-9.149152755737305,-3.0988969802856445
1757687800705766400,3.3434196777343748,0.0,-0.0072874999605119,-0.0075624999590218,0.0454029999673366,-0.1726830005645752,-0.0882920026779174,1.6901919841766355,-9.149394035339355,-3.098733901977539
1757687800715319000,3.352972412109375,0.0,-0.002337499987334,-0.0063249999657273,0.0278970003128051,-0.1541129946708679,-0.0928570032119751,1.688969969749451,-9.14954662322998,-3.0989511013031006
1757687800724871700,3.36252490234375,0.0,0.0024749999865889,-0.0050874999724328,0.0451540015637874,-0.1471090018749237,-0.0561480000615119,1.6876319646835327,-9.14964199066162,-3.0994019508361816
1757687800734424300,3.37207763671875,0.0,0.0037124999798834,-0.0050874999724328,0.0477689988911151,-0.1396880000829696,-0.0279949996620416,1.686316967010498,-9.14970588684082,-3.0999319553375244
1757687800743977000,3.3816303710937503,-0.0012374999932944,0.0061874999664723,-0.0038499999791383,0.068400003015995,-0.1537069976329803,-0.0175500009208917,1.6851860284805298,-9.149752616882324,-3.1004109382629395
1757687800753529600,3.3911828613281245,-0.0037124999798834,0.0074249999597668,-0.0038499999791383,0.0789399966597557,-0.1582050025463104,-0.0215719994157552,1.684311032295227,-9.149806022644045,-3.1007299423217773
1757687800763082200,3.4007355957031247,-0.0024749999865889,0.0074249999597668,-0.0038499999791383,0.0935750007629394,-0.1656499952077865,-0.045899000018835,1.683758020401001,-9.149827003479004,-3.100970983505249
1757687800772635000,3.4102880859374998,-0.0024749999865889,0.0074249999597668,-0.0050874999724328,0.0963170006871223,-0.1665149927139282,-0.0803719982504844,1.6834889650344849,-9.149785995483398,-3.101238965988159
1757687800782187300,3.419840576171875,0.0,0.0086624994874,-0.0063249999657273,0.0991069972515106,-0.1677069962024688,-0.0947069972753524,1.6835230588912964,-9.149651527404783,-3.1016149520874023
1757687800791740200,3.4293935546875,0.0012374999932944,0.0109999999403953,-0.0063249999657273,0.1154719963669776,-0.1784269958734512,-0.0856719985604286,1.683851957321167,-9.149432182312012,-3.102081060409546
1757687800801292500,3.43894580078125,0.0012374999932944,0.0147124994546175,-0.0026124999858438,0.1283150017261505,-0.1653439998626709,-0.0768589973449707,1.6844669580459597,-9.149118423461914,-3.102670907974243
1757687800810845400,3.4484987792968744,0.0012374999932944,0.0134749999269843,-0.0001374999992549,0.1083249971270561,-0.1496050059795379,-0.0636439993977546,1.685284972190857,-9.148751258850098,-3.1033079624176025
1757687800820398000,3.4580515136718746,0.0,0.0109999999403953,0.0010999999940395,0.0779180005192756,-0.1479569971561432,-0.064760997891426,1.6861900091171265,-9.148364067077637,-3.103954076766968
1757687800829950700,3.4676040039062497,0.0012374999932944,0.0061874999664723,-0.0001374999992549,0.0513649992644786,-0.1369549930095672,-0.0859749987721443,1.6871140003204346,-9.14795207977295,-3.1046650409698486
1757687800839503400,3.47715673828125,0.0024749999865889,0.0037124999798834,-0.0050874999724328,0.0266629997640848,-0.1400830000638961,-0.0901110023260116,1.6879570484161377,-9.147513389587402,-3.1054959297180176
1757687800849056000,3.486709228515625,0.0049499999731779,0.0061874999664723,-0.0075624999590218,0.0238409992307424,-0.1288039982318878,-0.0822200030088424,1.6886869668960571,-9.14704704284668,-3.106471061706543
1757687800858608600,3.496261962890625,0.0049499999731779,0.0086624994874,-0.0075624999590218,0.0236189998686313,-0.1503850072622299,-0.0546090006828308,1.6892729997634888,-9.146574020385742,-3.107542037963867
1757687800868161000,3.505814453125,0.0060499999672174,0.0098999999463558,-0.0038499999791383,0.0163770001381635,-0.1732690036296844,-0.0013760000001639,1.689708948135376,-9.146154403686523,-3.1085410118103027
1757687800877713700,3.5153669433593753,0.0037124999798834,0.0074249999597668,-0.0013749999925494,0.0228450000286102,-0.1837249994277954,0.0214239992201328,1.6900579929351809,-9.145811080932615,-3.109363079071045
1757687800887266600,3.5249199218749996,0.0024749999865889,0.0061874999664723,0.0034374999813735,0.010343000292778,-0.1887349933385849,0.0519730001688003,1.690335988998413,-9.145581245422363,-3.109886884689331
1757687800896819000,3.5344721679687496,-0.0012374999932944,0.0109999999403953,0.004674999974668,0.0012080000014975,-0.2247660011053085,0.0324489995837211,1.6905109882354736,-9.145490646362305,-3.110058069229126
1757687800906371600,3.54402490234375,-0.0024749999865889,0.0208999998867511,0.004674999974668,0.013349000364542,-0.223348006606102,-0.0110370004549622,1.6906390190124512,-9.145499229431152,-3.10995888710022
1757687800915924200,3.55357763671875,-0.0049499999731779,0.0281875003129243,0.0071499999612569,0.0294199995696544,-0.2134370058774948,-0.0613860003650188,1.690708041191101,-9.145535469055176,-3.1098170280456543
1757687800925476900,3.563130126953125,-0.0060499999672174,0.0281875003129243,0.004674999974668,0.0244050007313489,-0.1878640055656433,-0.1202080026268959,1.690678954124451,-9.14552116394043,-3.109874963760376
1757687800935029500,3.572682861328125,-0.0037124999798834,0.0232375003397464,0.004674999974668,-0.0010239999974146,-0.1626169979572296,-0.1367650032043457,1.690438985824585,-9.14543342590332,-3.1102590560913086
1757687800944582100,3.5822353515625003,-0.0012374999932944,0.0159499999135732,0.0010999999940395,-0.0206940006464719,-0.1394460052251815,-0.1178380027413368,1.689913988113403,-9.14529514312744,-3.110953092575073
1757687800954134800,3.5917880859374995,0.0012374999932944,0.0122375003993511,-0.0038499999791383,-0.0276430007070302,-0.1469099968671798,-0.0975539982318878,1.689031004905701,-9.14515495300293,-3.111841917037964
1757687800963687700,3.6013410644531247,0.0012374999932944,0.0109999999403953,-0.0050874999724328,-0.0181959997862577,-0.1704529970884323,-0.0651210024952888,1.6878139972686768,-9.145078659057615,-3.11272406578064
1757687800973240300,3.6108935546875,0.0012374999932944,0.0134749999269843,-0.0063249999657273,-0.0134279998019337,-0.1960009932518005,-0.0529239997267723,1.6862579584121704,-9.145101547241213,-3.1134960651397705
1757687800982793000,3.6204462890625,-0.0012374999932944,0.017187500372529,-0.0026124999858438,-0.0069140000268816,-0.1950660049915313,-0.0415100008249282,1.6843559741973877,-9.145227432250977,-3.114147901535034
1757687800992345300,3.629998779296875,-0.0024749999865889,0.0219999998807907,0.002337499987334,0.0260920003056526,-0.1943800002336502,-0.0353409983217716,1.682165026664734,-9.145450592041016,-3.1146678924560547
1757687801001898000,3.63955126953125,-0.0024749999865889,0.0269499998539686,0.0071499999612569,0.0295739993453025,-0.1651879996061325,-0.0289329998195171,1.6797579526901243,-9.14574909210205,-3.1150870323181152
1757687801011450600,3.6491040039062494,-0.0012374999932944,0.0306624993681907,0.0096249999478459,0.0438279993832111,-0.1410260051488876,-0.0200549997389316,1.6772719621658323,-9.146095275878906,-3.115406990051269
1757687801021003300,3.6586564941406245,-0.0024749999865889,0.032999999821186,0.0108624994754791,0.0551160015165805,-0.1550910025835037,-0.0165129993110895,1.6748100519180298,-9.146504402160645,-3.115528106689453
1757687801030556000,3.6682092285156247,-0.0012374999932944,0.0317624993622303,0.0096249999478459,0.0772060006856918,-0.1665190011262893,0.0048549999482929,1.672521948814392,-9.146978378295898,-3.115367889404297
1757687801040108500,3.677761962890625,-0.0012374999932944,0.0257124993950128,0.0071499999612569,0.0914039984345436,-0.1732919961214065,-0.0001120000015362,1.6704610586166382,-9.14750862121582,-3.1149239540100098
1757687801049661200,3.687314453125,-0.0012374999932944,0.0184249989688396,0.0034374999813735,0.0870819985866546,-0.1922789961099624,-0.027963999658823,1.6686049699783323,-9.14804744720459,-3.1143410205841064
1757687801059213800,3.6968671875,-0.0024749999865889,0.0098999999463558,0.0010999999940395,0.0852809995412826,-0.1946229934692382,-0.0410429984331131,1.6669549942016602,-9.14853572845459,-3.1137940883636475
1757687801068766500,3.706419677734375,-0.0024749999865889,0.0037124999798834,-0.0001374999992549,0.0632470026612281,-0.2040340006351471,-0.0513710007071495,1.6654139757156372,-9.148958206176758,-3.1133859157562256
1757687801078319000,3.7159724121093745,-0.0012374999932944,0.0,-0.0001374999992549,0.0488540008664131,-0.17985700070858,-0.0425000004470348,1.6639670133590698,-9.149282455444336,-3.1132121086120605
1757687801087871700,3.7255251464843746,-0.0024749999865889,0.0,0.0010999999940395,0.0260300002992153,-0.176827996969223,-0.0317960008978843,1.6626060009002686,-9.149523735046388,-3.113231897354126
1757687801097424400,3.7350776367187497,-0.0037124999798834,0.0024749999865889,0.002337499987334,0.0087540000677108,-0.1569080054759979,-0.0258699990808963,1.6612800359725952,-9.149733543395996,-3.1133289337158203
1757687801106976800,3.744630126953125,-0.0024749999865889,0.0074249999597668,0.002337499987334,-0.0026759998872876,-0.1822420060634613,-0.0272640008479356,1.659891963005066,-9.14997673034668,-3.113358974456787
1757687801116529700,3.75418310546875,-0.0037124999798834,0.0134749999269843,0.0034374999813735,0.0093310000374913,-0.1910309940576553,-0.0378680005669593,1.6584899425506592,-9.150297164916992,-3.113166093826294
1757687801126082000,3.7637353515625,-0.0024749999865889,0.0208999998867511,0.0034374999813735,0.0233970005065202,-0.2075880020856857,-0.0684799998998642,1.6571500301361084,-9.15068244934082,-3.1127490997314453
1757687801135634700,3.7732880859375,-0.0024749999865889,0.0244750007987022,0.0034374999813735,0.0344699993729591,-0.1890199929475784,-0.0994749963283538,1.655948042869568,-9.15107536315918,-3.1122310161590576
1757687801145187300,3.7828405761718753,0.0,0.0208999998867511,0.002337499987334,0.0492190010845661,-0.1545400023460388,-0.1213840022683143,1.6549780368804932,-9.151412963867188,-3.11175799369812
1757687801154740000,3.7923933105468746,0.0024749999865889,0.0159499999135732,-0.0001374999992549,0.0607829988002777,-0.1482679992914199,-0.0806140005588531,1.6542609930038452,-9.15168285369873,-3.1113429069519043
1757687801164292600,3.8019460449218747,0.0037124999798834,0.0061874999664723,-0.0038499999791383,0.0692979991436004,-0.139164000749588,-0.0486599989235401,1.653836011886597,-9.151890754699709,-3.110956907272339
1757687801173845200,3.81149853515625,0.0049499999731779,-0.0010999999940395,-0.0063249999657273,0.0794640034437179,-0.1412100046873092,0.0020310000982135,1.6537070274353027,-9.152069091796877,-3.1105000972747803
1757687801183398000,3.82105126953125,0.0049499999731779,-0.002337499987334,-0.0075624999590218,0.0892160013318061,-0.154910996556282,0.0180479995906353,1.6537829637527466,-9.152246475219728,-3.109937906265259
1757687801192950500,3.830603759765625,0.0037124999798834,0.0,-0.0086624994874,0.0852290019392967,-0.1778180003166198,0.0237240009009838,1.653993010520935,-9.152453422546388,-3.109217882156372
1757687801202503200,3.840156494140625,0.0012374999932944,0.0024749999865889,-0.0086624994874,0.0909029990434646,-0.2011220008134842,-0.0100880004465579,1.6542730331420898,-9.152681350708008,-3.108398914337158
1757687801212056000,3.8497094726562495,0.0,0.0024749999865889,-0.0050874999724328,0.0938400030136108,-0.205935001373291,-0.0469219982624053,1.6546119451522827,-9.15289306640625,-3.10759711265564
1757687801221608200,3.8592614746093745,-0.0024749999865889,0.0024749999865889,-0.0001374999992549,0.0894820019602775,-0.2041179984807968,-0.0797849968075752,1.65495502948761,-9.153047561645508,-3.106956958770752
1757687801231161000,3.8688144531249997,-0.0012374999932944,0.0,0.0034374999813735,0.0847970023751258,-0.1857240051031112,-0.0787720009684562,1.6552859544754028,-9.153145790100098,-3.106494903564453
1757687801240713700,3.878366943359375,-0.0024749999865889,0.0,0.0059124999679625,0.0707530006766319,-0.1573379933834076,-0.0501310005784034,1.655622959136963,-9.153216361999512,-3.1061060428619385
1757687801250266400,3.887919677734375,-0.0024749999865889,0.0037124999798834,0.0059124999679625,0.0551149994134902,-0.1338080018758773,-0.0519899986684322,1.6559339761734009,-9.153264999389648,-3.10579800605774
1757687801259819000,3.897472412109375,-0.0012374999932944,0.0098999999463558,0.004674999974668,0.0384990014135837,-0.1415919959545135,-0.0740770027041435,1.6562139987945557,-9.153274536132812,-3.1056199073791504
1757687801269371600,3.90702490234375,-0.0012374999932944,0.0134749999269843,0.002337499987334,0.0320729985833168,-0.134770005941391,-0.0630349963903427,1.6564550399780271,-9.153255462646484,-3.10555100440979
1757687801278924300,3.9165776367187495,-0.0012374999932944,0.0086624994874,0.0010999999940395,0.0488139986991882,-0.1545320004224777,-0.078013002872467,1.6567519903182983,-9.15317153930664,-3.1056339740753174
1757687801288477000,3.9261301269531246,-0.0012374999932944,0.0012374999932944,0.002337499987334,0.0689589977264404,-0.1649840027093887,-0.0857679992914199,1.6572129726409912,-9.153008460998535,-3.1058719158172607
1757687801298029600,3.9356828613281247,-0.0012374999932944,-0.0060499999672174,0.004674999974668,0.060428000986576,-0.1613509953022003,-0.1022489964962005,1.6578890085220337,-9.152734756469728,-3.1063120365142822
1757687801307582000,3.9452353515625,0.0012374999932944,-0.0097624994814395,0.004674999974668,0.0566870011389255,-0.1529459953308105,-0.097130000591278,1.6587539911270142,-9.15236473083496,-3.106940984725952
1757687801317134600,3.954787841796875,0.0024749999865889,-0.0072874999605119,0.0034374999813735,0.0442989990115165,-0.1653680056333542,-0.0673009976744651,1.6597440242767334,-9.15196132659912,-3.107598066329956
1757687801326687500,3.9643408203125,0.0012374999932944,-0.002337499987334,-0.0001374999992549,0.0442750006914138,-0.1674350053071975,-0.0299670007079839,1.6608099937438965,-9.151603698730469,-3.108081102371216
1757687801336240000,3.9738935546875003,0.0012374999932944,0.0012374999932944,-0.0026124999858438,0.0399600006639957,-0.1643059998750686,-0.0103200003504753,1.6618709564208984,-9.151354789733888,-3.1082470417022705
1757687801345792500,3.9834458007812494,0.0,0.0012374999932944,-0.0026124999858438,0.040617000311613,-0.1782789975404739,-0.0374590009450912,1.6628799438476562,-9.15117073059082,-3.10824990272522
1757687801355345200,3.9929985351562496,0.0,0.0012374999932944,0.0010999999940395,0.0229700002819299,-0.1945160031318664,-0.0429829992353916,1.6637589931488037,-9.151037216186523,-3.108175039291382
1757687801364897800,4.002551025390625,-0.0024749999865889,0.0,0.002337499987334,-0.0005479999817907,-0.1920319944620132,-0.0824360027909278,1.6644079685211182,-9.150891304016112,-3.108261108398437
1757687801374450400,4.012103759765624,-0.0012374999932944,0.0037124999798834,0.0034374999813735,-0.0272969994693994,-0.1895529925823211,-0.0923229977488517,1.664726972579956,-9.150714874267578,-3.1086080074310303
1757687801384003000,4.021656494140625,0.0,0.0074249999597668,0.0010999999940395,-0.0410180017352104,-0.1798730045557022,-0.0945200026035308,1.6646939516067505,-9.15049171447754,-3.1092801094055176
1757687801393555700,4.0312089843750005,0.0024749999865889,0.0098999999463558,-0.0001374999992549,-0.0152930002659559,-0.1961449980735778,-0.062619000673294,1.664376974105835,-9.150262832641602,-3.11012601852417
1757687801403108400,4.04076171875,0.0012374999932944,0.0134749999269843,0.0010999999940395,0.013345000334084,-0.1834519952535629,-0.029993999749422,1.6638530492782593,-9.150069236755373,-3.1109719276428223
1757687801412661000,4.050314208984375,-0.0012374999932944,0.0134749999269843,0.002337499987334,0.0493770018219947,-0.1921869963407516,-0.0108599998056888,1.6632250547409058,-9.149947166442873,-3.1116650104522705
1757687801422213600,4.059866943359374,-0.0024749999865889,0.0134749999269843,0.0034374999813735,0.0717480033636093,-0.1630219966173172,-0.0105720004066824,1.662559986114502,-9.149885177612305,-3.1122019290924072
1757687801431766500,4.069419921874999,-0.0037124999798834,0.0109999999403953,0.0034374999813735,0.0769359990954399,-0.1578869968652725,-0.0126470001414418,1.661892056465149,-9.149858474731444,-3.1126389503479004
1757687801441319000,4.07897216796875,-0.0037124999798834,0.0098999999463558,-0.0001374999992549,0.0865949988365173,-0.1460050046443939,-0.0303709991276264,1.6612759828567505,-9.149847030639648,-3.113002061843872
1757687801450871600,4.0885249023437495,-0.0024749999865889,0.0061874999664723,-0.0026124999858438,0.0959729999303817,-0.1537249982357025,-0.0541159994900226,1.660796046257019,-9.149839401245115,-3.1132819652557373
1757687801460424200,4.098077392578125,-0.0012374999932944,0.0012374999932944,-0.0050874999724328,0.0891200006008148,-0.1544650048017501,-0.0697960034012794,1.660457968711853,-9.149812698364258,-3.113542079925537
1757687801469976800,4.107630126953126,-0.0024749999865889,-0.0035749999806284,-0.0063249999657273,0.0872799977660179,-0.1671919971704483,-0.0805279985070228,1.6602109670639038,-9.149778366088867,-3.11377501487732
1757687801479529500,4.117182861328125,0.0012374999932944,-0.0035749999806284,-0.0063249999657273,0.0539389997720718,-0.1727100014686584,-0.0926569998264312,1.659883975982666,-9.149751663208008,-3.114029884338379
1757687801489082000,4.1267353515625,0.0012374999932944,0.0037124999798834,-0.0063249999657273,0.0362950004637241,-0.1849520057439804,-0.0814799964427948,1.6594150066375732,-9.149767875671388,-3.114229917526245
1757687801498634800,4.136288085937499,0.0012374999932944,0.0109999999403953,-0.0075624999590218,0.0108190001919865,-0.1755470037460327,-0.0864259973168373,1.658715009689331,-9.149835586547852,-3.114406108856201
1757687801508187400,4.1458408203125,0.0,0.0147124994546175,-0.0063249999657273,0.013667999766767,-0.1518460065126419,-0.0794159993529319,1.6578530073165894,-9.14991283416748,-3.114638090133667
1757687801517740000,4.155393310546875,0.0012374999932944,0.0134749999269843,-0.0026124999858438,0.0337949991226196,-0.1257960051298141,-0.0541200004518032,1.65693998336792,-9.149959564208984,-3.1149868965148926
1757687801527292700,4.164946044921875,0.0012374999932944,0.0098999999463558,0.002337499987334,0.0523389987647533,-0.1402129977941513,-0.0327470004558563,1.656082034111023,-9.1499662399292,-3.115422010421753
1757687801536845300,4.17449853515625,0.0012374999932944,0.0024749999865889,0.0034374999813735,0.074082002043724,-0.1541090011596679,0.0030209999531507,1.6553659439086914,-9.149977684020996,-3.115770101547241
1757687801546398000,4.184051269531249,0.0,-0.0010999999940395,0.0034374999813735,0.087908998131752,-0.1818239986896515,0.0272109992802143,1.654873013496399,-9.15001392364502,-3.1159279346466064
1757687801555950600,4.19360400390625,-0.0012374999932944,-0.002337499987334,0.002337499987334,0.1078260019421577,-0.1809049993753433,0.0295449998229742,1.6547210216522217,-9.150091171264648,-3.11578106880188
1757687801565503200,4.203156494140625,-0.0037124999798834,-0.0035749999806284,-0.0013749999925494,0.1201940029859542,-0.1780010014772415,0.006543000228703,1.6550079584121704,-9.150190353393556,-3.1153368949890137
1757687801575056000,4.2127092285156245,-0.0049499999731779,-0.0097624994814395,-0.0050874999724328,0.0821989998221397,-0.1611090004444122,-0.0332730002701282,1.655671000480652,-9.15028953552246,-3.114687919616699
1757687801584608300,4.222261474609375,-0.0049499999731779,-0.0195249989628791,-0.0063249999657273,0.0711430013179779,-0.1548629999160766,-0.0983470007777214,1.6566170454025269,-9.150318145751951,-3.1140990257263184
1757687801594161200,4.231814453125001,-0.0012374999932944,-0.024337500333786,-0.0063249999657273,0.0494120009243488,-0.167943999171257,-0.1191179975867271,1.6576869487762451,-9.15025520324707,-3.113713026046753
1757687801603713800,4.2413671875,-0.0012374999932944,-0.0255750007927417,-0.0026124999858438,0.0240959990769624,-0.1784829944372177,-0.1253190040588379,1.6587109565734863,-9.150102615356444,-3.113616943359375
1757687801613266200,4.250919433593749,0.0,-0.0207624994218349,-0.0013749999925494,0.0069820000790059,-0.1747229993343353,-0.1331779956817627,1.659554958343506,-9.149877548217772,-3.113831043243408
1757687801622819000,4.260472412109374,0.0,-0.0120999999344348,-0.0001374999992549,-0.0070000002160668,-0.1563159972429275,-0.1151430010795593,1.660161018371582,-9.149596214294434,-3.114332914352417
1757687801632371700,4.270025146484375,0.0024749999865889,-0.0048124999739229,-0.0013749999925494,-0.0267609991133213,-0.1519079953432083,-0.0998290032148361,1.6604419946670532,-9.149301528930664,-3.1150500774383545
1757687801641924400,4.27957763671875,0.0049499999731779,-0.0010999999940395,-0.0026124999858438,-0.0251759998500347,-0.1324460059404373,-0.0483429990708828,1.6603939533233645,-9.149048805236816,-3.1158180236816406
1757687801651477000,4.28913037109375,0.0037124999798834,0.0012374999932944,-0.0026124999858438,0.0081519996747374,-0.150968000292778,-0.0226910002529621,1.6601320505142212,-9.14886474609375,-3.116497039794922
1757687801661029400,4.2986826171875006,0.0024749999865889,0.0037124999798834,-0.0013749999925494,0.0533760003745555,-0.1833910048007965,0.0122659998014569,1.6597919464111328,-9.148773193359377,-3.1169469356536865
1757687801670582000,4.3082353515625,0.0012374999932944,0.0061874999664723,0.0010999999940395,0.0485569983720779,-0.1919060051441192,0.0043469998054206,1.6594630479812622,-9.148771286010742,-3.1171278953552246
1757687801680134700,4.317788085937499,0.0,0.0049499999731779,0.002337499987334,0.0436780005693435,-0.1740449965000152,0.0106450002640485,1.659212946891785,-9.148837089538574,-3.117065906524658
1757687801689687300,4.327340576171874,-0.0012374999932944,0.0012374999932944,0.002337499987334,0.0527729988098144,-0.1924339979887008,-0.0134100001305341,1.6591509580612185,-9.148950576782228,-3.1167659759521484
1757687801699240000,4.336893310546875,-0.0012374999932944,-0.002337499987334,0.0010999999940395,0.0613039992749691,-0.1823890060186386,-0.0225249994546175,1.6592830419540403,-9.149100303649902,-3.116257905960083
1757687801708792600,4.34644580078125,-0.0012374999932944,-0.0072874999605119,-0.0001374999992549,0.0739630013704299,-0.1916429996490478,-0.0291719995439052,1.6595499515533447,-9.14927864074707,-3.1155900955200195
1757687801718345200,4.35599853515625,-0.0012374999932944,-0.0120999999344348,-0.0013749999925494,0.0495910011231899,-0.1815990060567855,-0.0307739991694688,1.6598069667816162,-9.149484634399414,-3.1148509979248047
1757687801727897900,4.365551269531251,-0.0012374999932944,-0.015812499448657,-0.0038499999791383,0.0403730012476444,-0.1930799931287765,-0.0416049994528293,1.6599359512329102,-9.149690628051758,-3.114176034927368
1757687801737450500,4.375103759765626,-0.0024749999865889,-0.015812499448657,-0.0075624999590218,0.0206400007009506,-0.1922120004892349,-0.0360109992325305,1.6598269939422607,-9.14988899230957,-3.1136488914489746
1757687801747003000,4.384656249999999,-0.0024749999865889,-0.0145749999210238,-0.0086624994874,0.0088010001927614,-0.174808993935585,-0.0485359989106655,1.6593910455703735,-9.150074005126951,-3.1133360862731934
1757687801756556000,4.39420947265625,-0.0037124999798834,-0.0085249999538064,-0.0086624994874,0.0001360000023851,-0.1790540069341659,-0.0627499967813491,1.6585710048675537,-9.150261878967283,-3.113223075866699
1757687801766108400,4.403761718749999,-0.0024749999865889,-0.0035749999806284,-0.0063249999657273,-0.0059139998629689,-0.1714800000190735,-0.0668200030922889,1.6574699878692627,-9.150461196899414,-3.113221883773804
1757687801775660800,4.413314208984374,-0.0049499999731779,0.0037124999798834,-0.0038499999791383,0.0062799998559057,-0.1497700065374374,-0.0659089982509613,1.656162977218628,-9.150716781616213,-3.1131680011749268
1757687801785213400,4.4228666992187495,-0.0024749999865889,0.0098999999463558,-0.0001374999992549,0.0221539996564388,-0.1383900046348571,-0.0873100012540817,1.6547729969024658,-9.150997161865234,-3.113081932067871
1757687801794766000,4.432419433593751,-0.0037124999798834,0.0134749999269843,0.004674999974668,0.059493999928236,-0.1440010070800781,-0.0806130021810531,1.6534819602966309,-9.151284217834473,-3.1129229068756104
1757687801804318700,4.441971923828126,-0.0012374999932944,0.0159499999135732,0.0071499999612569,0.0765580013394355,-0.1496510058641433,-0.0696059986948967,1.6523970365524292,-9.151580810546877,-3.1126298904418945
1757687801813871600,4.451524902343749,0.0012374999932944,0.0147124994546175,0.0071499999612569,0.1016929969191551,-0.1552239954471588,-0.0500460006296634,1.6516319513320925,-9.151873588562012,-3.112173080444336
1757687801823424000,4.461077392578124,0.0012374999932944,0.0134749999269843,0.0071499999612569,0.1277469992637634,-0.1610739976167678,-0.0544020012021064,1.6513279676437378,-9.15213394165039,-3.111572027206421
1757687801832977000,4.470630126953125,0.0024749999865889,0.0086624994874,0.004674999974668,0.1343870013952255,-0.1646379977464676,-0.0585879981517791,1.6514910459518433,-9.15231990814209,-3.1109399795532227
1757687801842529500,4.4801828613281245,0.0024749999865889,0.0012374999932944,0.0010999999940395,0.1294959932565689,-0.1636279970407486,-0.0762820020318031,1.652008056640625,-9.152405738830566,-3.110414981842041
1757687801852082000,4.4897353515625,0.0024749999865889,-0.0060499999672174,-0.0026124999858438,0.1022550016641616,-0.1574179977178573,-0.0680089965462684,1.652677059173584,-9.152387619018556,-3.110111951828003
1757687801861634600,4.499287841796875,0.0037124999798834,-0.0108624994754791,-0.0063249999657273,0.0812970027327537,-0.1721629947423935,-0.0534959994256496,1.6534340381622314,-9.15229606628418,-3.109973907470703
1757687801871187200,4.508840576171876,0.0024749999865889,-0.0108624994754791,-0.0086624994874,0.0459269993007183,-0.181550994515419,-0.0489679984748363,1.6541589498519895,-9.15216064453125,-3.1099860668182373
1757687801880739800,4.518393066406249,0.0024749999865889,-0.0085249999538064,-0.0086624994874,0.0262119993567466,-0.1951230019330978,-0.0311629995703697,1.654768943786621,-9.152026176452637,-3.110055923461914
1757687801890292500,4.52794580078125,-0.0012374999932944,-0.0010999999940395,-0.0063249999657273,0.014390000142157,-0.2011090070009231,-0.0213510002940893,1.6551990509033203,-9.151928901672363,-3.1101150512695312
1757687801899845000,4.537498535156249,-0.0012374999932944,0.0074249999597668,-0.0013749999925494,0.0210239998996257,-0.1858769953250885,-0.0253030005842447,1.655452013015747,-9.151857376098633,-3.1101880073547363
1757687801909397800,4.5470510253906244,-0.0037124999798834,0.0147124994546175,0.0034374999813735,0.0270470008254051,-0.1781380027532577,-0.0358589999377727,1.65562105178833,-9.151790618896484,-3.110292911529541
1757687801918950400,4.5566037597656255,-0.0037124999798834,0.0257124993950128,0.0071499999612569,0.0372020006179809,-0.1615570038557052,-0.0613609999418258,1.6557799577713013,-9.151689529418944,-3.110502004623413
1757687801928503000,4.566156250000001,-0.0024749999865889,0.032999999821186,0.0096249999478459,0.0490810014307498,-0.1619880050420761,-0.0649330019950866,1.656033992767334,-9.15152645111084,-3.110852003097534
1757687801938055700,4.575708984375,-0.0012374999932944,0.0342375002801418,0.0096249999478459,0.0784899964928627,-0.1696770042181015,-0.0547799989581108,1.656499981880188,-9.151304244995115,-3.111258029937744
1757687801947608300,4.585261718749999,-0.0012374999932944,0.0306624993681907,0.0071499999612569,0.0948569998145103,-0.1487800031900406,-0.0471770018339157,1.6572710275650024,-9.15102195739746,-3.111677885055542
1757687801957161000,4.594814208984374,0.0012374999932944,0.0232375003397464,0.0059124999679625,0.1033290028572082,-0.1399659961462021,-0.0420139990746974,1.6583930253982544,-9.15068244934082,-3.1120800971984863
1757687801966713600,4.604366943359375,0.0012374999932944,0.0147124994546175,0.002337499987334,0.0932369977235794,-0.1379500031471252,-0.0281000006943941,1.6597919464111328,-9.15031623840332,-3.1124138832092285
1757687801976266200,4.6139196777343745,0.0012374999932944,0.0086624994874,-0.0026124999858438,0.0772000029683113,-0.1428530067205429,-0.02866099961102,1.6613490581512451,-9.149972915649414,-3.112592935562134
1757687801985819000,4.62347216796875,0.0037124999798834,0.0049499999731779,-0.0086624994874,0.042578000575304,-0.1903900057077407,-0.0433569997549057,1.6627930402755735,-9.14968967437744,-3.1126608848571777
1757687801995371300,4.633024658203125,0.0037124999798834,0.0012374999932944,-0.0111375004053115,0.0215130001306533,-0.2137780040502548,-0.0554190017282962,1.6639889478683472,-9.149476051330566,-3.1126511096954346
1757687802004924000,4.6425771484375,0.0037124999798834,-0.0035749999806284,-0.0123749999329447,0.010661999695003,-0.2201959937810897,-0.0533850006759166,1.664829969406128,-9.14933967590332,-3.1126039028167725
1757687802014476500,4.652129882812499,0.0037124999798834,-0.0097624994814395,-0.0111375004053115,0.0021530000958591,-0.2023530006408691,-0.0307769998908042,1.6652430295944214,-9.149311065673828,-3.112468957901001
1757687802024029400,4.661682861328124,0.0037124999798834,-0.0120999999344348,-0.0063249999657273,-0.0132719995453953,-0.1962469965219497,-0.0183039996773004,1.6652040481567385,-9.149406433105469,-3.1122078895568848
1757687802033582000,4.671235351562499,0.0024749999865889,-0.0097624994814395,-0.0038499999791383,-0.0145659996196627,-0.1850939989089965,0.000467000005301,1.6647449731826782,-9.149649620056152,-3.1117360591888428
1757687802043134700,4.6807880859375,0.0037124999798834,-0.0010999999940395,-0.0013749999925494,-0.004759999923408,-0.1480509936809539,0.0009299999801442,1.6639909744262695,-9.149998664855955,-3.1111130714416504
1757687802052687400,4.6903405761718755,0.0024749999865889,0.0074249999597668,-0.0013749999925494,0.0230969991534948,-0.1666020005941391,-0.0239829998463392,1.6630699634552002,-9.150395393371582,-3.1104331016540527
1757687802062240000,4.699893310546875,0.0,0.0134749999269843,0.002337499987334,0.0538929998874664,-0.1644749939441681,-0.0568890012800693,1.662192940711975,-9.150771141052246,-3.109797954559326
1757687802071792600,4.709446044921874,-0.0024749999865889,0.0134749999269843,0.002337499987334,0.069360002875328,-0.1486440002918243,-0.0835700035095214,1.661471962928772,-9.151060104370115,-3.1093320846557617
1757687802081345300,4.718998535156249,-0.0024749999865889,0.0086624994874,0.0010999999940395,0.0861579999327659,-0.1313350051641464,-0.1200900003314018,1.6609959602355957,-9.15119743347168,-3.10918402671814
1757687802090897700,4.728551025390624,-0.0012374999932944,0.0024749999865889,-0.0001374999992549,0.0996859967708587,-0.126351997256279,-0.1297030001878738,1.660773992538452,-9.1511812210083,-3.1093509197235107
1757687802100450800,4.738104248046875,0.0,-0.0035749999806284,-0.0050874999724328,0.0764620006084442,-0.1324750036001205,-0.0979460030794143,1.6606969833374023,-9.15106964111328,-3.109718084335327
1757687802110003200,4.7476564941406245,0.0024749999865889,-0.0108624994754791,-0.0086624994874,0.0569760017096996,-0.1567039936780929,-0.0589709989726543,1.6606669425964355,-9.15095329284668,-3.110076904296875
1757687802119555600,4.757208984375,0.0037124999798834,-0.0195249989628791,-0.0111375004053115,0.0341240018606185,-0.1778320074081421,-0.0404749996960163,1.6605759859085083,-9.150877952575684,-3.110342025756836
1757687802129108200,4.766761474609375,0.0037124999798834,-0.024337500333786,-0.0123749999329447,0.0237109996378421,-0.1723140031099319,-0.0274199992418289,1.6603219509124756,-9.15086555480957,-3.110513925552368
1757687802138660900,4.776314208984376,0.0024749999865889,-0.0280499998480081,-0.0098999999463558,-0.0021120000164955,-0.1927690058946609,-0.0290920007973909,1.659783959388733,-9.150941848754885,-3.11057996749878
1757687802148213500,4.785866943359375,-0.0012374999932944,-0.0255750007927417,-0.0075624999590218,-0.0379999987781047,-0.1821549981832504,-0.0511259995400905,1.6588289737701416,-9.151105880737305,-3.110603094100952
1757687802157766100,4.79541943359375,-0.0012374999932944,-0.0195249989628791,-0.0050874999724328,-0.0402709990739822,-0.1744270026683807,-0.0740770027041435,1.6574840545654297,-9.15131664276123,-3.110698938369751
1757687802167319000,4.804972412109375,-0.0012374999932944,-0.0072874999605119,-0.0013749999925494,-0.0423430018126964,-0.169634997844696,-0.1001249998807907,1.6557990312576294,-9.151534080505373,-3.1109559535980225
1757687802176871700,4.81452490234375,-0.0024749999865889,0.0049499999731779,0.002337499987334,-0.0172160007059574,-0.1556639969348907,-0.1018769964575767,1.654000997543335,-9.151713371276855,-3.111382007598877
1757687802186424300,4.82407763671875,-0.0012374999932944,0.0147124994546175,0.0034374999813735,0.0089400000870227,-0.1538449972867965,-0.0942389965057373,1.6522350311279297,-9.151837348937988,-3.111954927444458
1757687802195976700,4.833630126953125,0.0,0.0184249989688396,0.004674999974668,0.0382190011441707,-0.1639260053634643,-0.0757239982485771,1.6506179571151731,-9.151897430419922,-3.11263394355774
1757687802205529600,4.843182861328124,0.0,0.0159499999135732,0.002337499987334,0.0614610016345977,-0.1665450036525726,-0.051486998796463,1.6492090225219729,-9.15189266204834,-3.113394021987915
1757687802215082000,4.852735351562499,0.0,0.0086624994874,-0.0013749999925494,0.083466000854969,-0.1642940044403076,-0.0377169996500015,1.648082971572876,-9.151814460754396,-3.1142189502716064
1757687802224634600,4.862287841796874,-0.0012374999932944,0.0,-0.0063249999657273,0.0842219963669776,-0.180975005030632,-0.0388059988617897,1.6472140550613403,-9.15166187286377,-3.115128993988037
1757687802234187300,4.871840576171875,-0.0012374999932944,-0.0085249999538064,-0.0098999999463558,0.0828429982066154,-0.190430998802185,-0.0446729995310306,1.6465450525283811,-9.151458740234377,-3.116080045700073
1757687802243740000,4.8813933105468745,-0.0012374999932944,-0.0170499999076128,-0.0111375004053115,0.0565430000424385,-0.1926040053367614,-0.0548800006508827,1.6459499597549438,-9.151235580444336,-3.1170499324798584
1757687802253292500,4.89094580078125,-0.0012374999932944,-0.0230999998748302,-0.0136124994605779,0.0476530008018016,-0.1950899958610534,-0.0805889964103698,1.6453039646148682,-9.15102195739746,-3.1180191040039062
1757687802262845200,4.900498535156251,-0.0012374999932944,-0.0207624994218349,-0.0123749999329447,0.0163759998977184,-0.1756879985332489,-0.0681689977645874,1.6444820165634155,-9.150867462158203,-3.1189088821411133
1757687802272397800,4.910051025390624,-0.0024749999865889,-0.0120999999344348,-0.0098999999463558,-0.001977999927476,-0.156372994184494,-0.0741510018706321,1.643381953239441,-9.150811195373535,-3.119649887084961
1757687802281950500,4.919603759765625,-0.0012374999932944,0.0,-0.0075624999590218,-0.0170070007443428,-0.1465820074081421,-0.0702280029654502,1.6419140100479126,-9.150876998901367,-3.120229959487915
1757687802291503000,4.929156494140624,-0.0037124999798834,0.0109999999403953,-0.0063249999657273,-0.0084650004282593,-0.1412940025329589,-0.0505810007452964,1.6401740312576294,-9.151034355163574,-3.120682954788208
1757687802301055700,4.938708984374999,-0.0012374999932944,0.0196624994277954,-0.0026124999858438,0.0357300005853176,-0.1390350013971328,-0.0544040016829967,1.6383639574050903,-9.151200294494627,-3.121150016784668
1757687802310608400,4.94826171875,-0.0024749999865889,0.0208999998867511,-0.0013749999925494,0.0593659989535808,-0.1463630050420761,-0.0469550006091594,1.6366230249404907,-9.151336669921877,-3.121664047241211
1757687802320161000,4.957814453125,-0.0012374999932944,0.0196624994277954,0.002337499987334,0.1063629984855651,-0.1657660007476806,-0.0311750005930662,1.6351239681243896,-9.151426315307615,-3.1221940517425537
1757687802329713700,4.967366943359375,-0.0012374999932944,0.0147124994546175,0.0010999999940395,0.1281750053167343,-0.1755190044641494,-0.0210469998419284,1.6339969635009766,-9.151450157165527,-3.1227169036865234
1757687802339266000,4.97691943359375,-0.0024749999865889,0.0074249999597668,0.0010999999940395,0.1508850008249282,-0.1828719973564148,-0.01411799993366,1.6334110498428345,-9.15141487121582,-3.123131036758423
1757687802348819000,4.986472167968749,-0.0012374999932944,0.0,-0.0013749999925494,0.1451659947633743,-0.185135006904602,-0.000754999986384,1.633357048034668,-9.151357650756836,-3.1233251094818115
1757687802358371300,4.996024658203124,-0.0012374999932944,-0.0097624994814395,-0.0026124999858438,0.1396239995956421,-0.1851940006017685,-0.0154799995943903,1.633836030960083,-9.151296615600586,-3.123246908187866
1757687802367924200,5.0055776367187494,-0.0037124999798834,-0.015812499448657,-0.0063249999657273,0.0982640013098716,-0.1732179969549179,-0.0362630002200603,1.6346460580825806,-9.151256561279297,-3.122936964035034
1757687802377476900,5.0151301269531245,-0.0024749999865889,-0.0170499999076128,-0.0086624994874,0.0592780001461505,-0.1566749960184097,-0.0623219981789588,1.635601043701172,-9.151235580444336,-3.122497081756592
1757687802387029500,5.024682861328126,-0.0024749999865889,-0.0170499999076128,-0.0086624994874,0.001975999912247,-0.1423300057649612,-0.0752739980816841,1.6364550590515137,-9.151236534118652,-3.1220409870147705
1757687802396582100,5.034235351562501,-0.0012374999932944,-0.015812499448657,-0.0086624994874,-0.0272749997675418,-0.1397130042314529,-0.0736709982156753,1.6370609998703003,-9.151262283325195,-3.121649980545044
1757687802406134800,5.0437880859375,0.0,-0.0097624994814395,-0.0063249999657273,-0.0458349995315074,-0.1556050032377243,-0.0494379997253418,1.637300968170166,-9.151337623596191,-3.121303081512451
1757687802415687400,5.053340820312501,0.0012374999932944,-0.002337499987334,-0.0026124999858438,-0.045049998909235,-0.1929550021886825,-0.0541150011122226,1.637181043624878,-9.151456832885742,-3.1210169792175293
1757687802425239800,5.06289306640625,0.0,0.0074249999597668,0.0034374999813735,-0.0218679998070001,-0.201665997505188,-0.0473619997501373,1.6367900371551514,-9.151613235473633,-3.120763063430786
1757687802434792400,5.072445800781251,0.0,0.017187500372529,0.0071499999612569,-0.0090589998289942,-0.2009139955043792,-0.0430990010499954,1.6362390518188477,-9.1517972946167,-3.120513916015625
1757687802444345000,5.0819982910156245,0.0,0.0244750007987022,0.0096249999478459,0.0189130008220672,-0.1983319967985153,-0.0571589991450309,1.6356409788131714,-9.151994705200195,-3.120249032974243
1757687802453897700,5.0915510253906255,0.0,0.0244750007987022,0.0083875004202127,0.0474589988589286,-0.1675260066986084,-0.0587119981646537,1.6351640224456787,-9.152162551879885,-3.1200029850006104
1757687802463450400,5.101103759765625,0.0012374999932944,0.0219999998807907,0.0059124999679625,0.0835570022463798,-0.1609510034322738,-0.0532959997653961,1.634958028793335,-9.15229320526123,-3.1197290420532227
1757687802473003000,5.11065625,0.0,0.017187500372529,0.002337499987334,0.1109659969806671,-0.1521130055189132,-0.0482739992439746,1.6351430416107178,-9.152376174926758,-3.11939001083374
1757687802482555600,5.120208984375001,0.0012374999932944,0.0086624994874,-0.0026124999858438,0.1211490035057067,-0.1570950001478195,-0.0163839999586343,1.635725975036621,-9.152424812316896,-3.1189448833465576
1757687802492108300,5.12976171875,0.0012374999932944,0.0,-0.0075624999590218,0.0972020030021667,-0.176146000623703,-0.0251269992440938,1.6364829540252686,-9.152482986450195,-3.1183741092681885
1757687802501661000,5.139314208984375,0.0,-0.0048124999739229,-0.0098999999463558,0.0747369974851608,-0.1876309961080551,-0.0246440004557371,1.6372699737548828,-9.15257453918457,-3.117693901062012
1757687802511213600,5.148866943359375,0.0,-0.0060499999672174,-0.0111375004053115,0.0446010008454322,-0.198645994067192,-0.0197540000081062,1.6378450393676758,-9.152727127075195,-3.116947889328003
1757687802520766200,5.15841943359375,0.0,-0.0035749999806284,-0.0111375004053115,0.0115170003846287,-0.1830859929323196,-0.0169910006225109,1.6380510330200195,-9.152946472167969,-3.1161930561065674
1757687802530318600,5.167971923828125,-0.0024749999865889,0.0012374999932944,-0.0098999999463558,-0.0128349997103214,-0.1844729930162429,-0.0439970009028911,1.6377370357513428,-9.153225898742676,-3.11553692817688
1757687802539871200,5.177524658203126,-0.0024749999865889,0.0098999999463558,-0.0063249999657273,-0.0111490003764629,-0.1738499999046325,-0.032965000718832,1.6369340419769287,-9.15355110168457,-3.115004062652588
1757687802549424000,5.187077392578125,-0.0024749999865889,0.0196624994277954,-0.0013749999925494,0.0017640000442042,-0.1829320043325424,-0.0566180013120174,1.6356860399246216,-9.153903007507324,-3.114623069763184
1757687802558976800,5.196630126953126,-0.0012374999932944,0.0244750007987022,0.0010999999940395,0.0069550001062452,-0.1658830046653747,-0.0536179989576339,1.634145975112915,-9.154269218444824,-3.114353895187378
1757687802568529400,5.206182617187501,-0.0012374999932944,0.0257124993950128,0.0034374999813735,0.0387180000543594,-0.1494390070438385,-0.0619320012629032,1.632540941238403,-9.154630661010742,-3.1141340732574463
1757687802578082000,5.2157353515625005,0.0,0.0244750007987022,0.002337499987334,0.0642289966344833,-0.1497039943933487,-0.0448199994862079,1.6311039924621582,-9.154980659484863,-3.113861083984375
1757687802587634700,5.2252880859375,0.0024749999865889,0.0208999998867511,0.002337499987334,0.0813269987702369,-0.1427839994430542,-0.0283610001206398,1.6299829483032229,-9.155305862426758,-3.113492965698242
1757687802597187300,5.234840576171875,0.0012374999932944,0.0159499999135732,-0.0013749999925494,0.0999730005860328,-0.1546510010957718,-0.0086350003257393,1.629276990890503,-9.155593872070312,-3.1130189895629883
1757687802606740000,5.244393310546876,0.0012374999932944,0.0086624994874,-0.0063249999657273,0.1042879968881607,-0.1593749970197677,-0.0151150003075599,1.628993034362793,-9.15583610534668,-3.112454891204834
1757687802616292600,5.253946044921875,0.0,-0.0010999999940395,-0.0086624994874,0.1130129992961883,-0.1716690063476562,-0.0422060005366802,1.6290730237960815,-9.15601921081543,-3.111875057220459
1757687802625845000,5.263498291015626,0.0012374999932944,-0.0072874999605119,-0.0098999999463558,0.0782819986343383,-0.1767310053110122,-0.058797001838684,1.6293749809265137,-9.156150817871094,-3.1113290786743164
1757687802635398000,5.2730512695312495,0.0012374999932944,-0.0097624994814395,-0.0098999999463558,0.0565380007028579,-0.1556079983711242,-0.0696180015802383,1.6297680139541626,-9.15625286102295,-3.110826015472412
1757687802644950500,5.282603759765625,0.0,-0.0097624994814395,-0.0098999999463558,0.022461000829935,-0.1627500057220459,-0.066379003226757,1.6300599575042725,-9.1563720703125,-3.110322952270508
1757687802654503000,5.29215625,0.0012374999932944,-0.0060499999672174,-0.0086624994874,0.0057950001209974,-0.1270249933004379,-0.0693039968609809,1.6301170587539673,-9.156511306762695,-3.109882116317749
1757687802664055600,5.301708984375001,0.0012374999932944,-0.002337499987334,-0.0075624999590218,0.00161100004334,-0.1557240039110183,-0.0702230036258697,1.629838943481445,-9.156689643859863,-3.109503030776977
1757687802673608200,5.311261474609376,0.0012374999932944,0.0037124999798834,-0.0013749999925494,0.0062600001692771,-0.1507759988307953,-0.0527549982070922,1.6292380094528198,-9.156886100769045,-3.109241008758545
1757687802683160800,5.320814208984375,0.0012374999932944,0.0086624994874,0.0010999999940395,0.0083360001444816,-0.1530440002679824,-0.0520510002970695,1.6284140348434448,-9.157084465026855,-3.10909104347229
1757687802692713700,5.330366943359376,0.0012374999932944,0.0122375003993511,0.0034374999813735,0.0284119993448257,-0.1628350019454956,-0.0629130005836486,1.6274980306625366,-9.157245635986328,-3.109092950820923
1757687802702266000,5.339919433593749,0.0012374999932944,0.0159499999135732,0.004674999974668,0.0408359989523887,-0.1893460005521774,-0.0645579993724823,1.626608967781067,-9.157352447509766,-3.1092469692230225
1757687802711819000,5.349472412109375,0.0012374999932944,0.0147124994546175,0.0034374999813735,0.0550329983234405,-0.2015810012817382,-0.0686590000987052,1.6258699893951416,-9.157384872436523,-3.10953688621521
1757687802721371600,5.35902490234375,0.0,0.0134749999269843,-0.0001374999992549,0.0618840008974075,-0.1946689933538437,-0.0680380016565322,1.625365972518921,-9.157354354858398,-3.109890937805176
1757687802730924300,5.368577636718751,0.0,0.0098999999463558,-0.0038499999791383,0.0638070032000541,-0.1641869992017746,-0.0783630013465881,1.6250900030136108,-9.157238960266112,-3.110374927520752
1757687802740477000,5.378130126953126,-0.0012374999932944,0.0049499999731779,-0.0063249999657273,0.0608679987490177,-0.1336809992790222,-0.069641999900341,1.6250079870224,-9.157068252563477,-3.1109209060668945
1757687802750029300,5.387682617187501,-0.0012374999932944,0.0037124999798834,-0.0086624994874,0.0491390004754066,-0.1269139945507049,-0.0635079964995384,1.6250540018081665,-9.156861305236816,-3.111504077911377
1757687802759582000,5.3972353515625,-0.0012374999932944,0.0024749999865889,-0.0098999999463558,0.0178490001708269,-0.1320309937000274,-0.0781470015645027,1.6250200271606443,-9.15665340423584,-3.112128973007202
1757687802769134600,5.406787841796875,0.0,0.0,-0.0086624994874,-0.0049660000950098,-0.1511030048131942,-0.0717779994010925,1.6247680187225342,-9.156463623046877,-3.1128170490264893
1757687802788240000,5.425893310546876,0.0037124999798834,0.0,-0.0050874999724328,-0.022079000249505,-0.2240680009126663,-0.0539419986307621,1.623231053352356,-9.156185150146484,-3.114434003829956
1757687802797792500,5.435445800781251,0.0024749999865889,0.0012374999932944,-0.0013749999925494,-0.0065310001373291,-0.232460007071495,-0.0340240001678466,1.621948003768921,-9.156122207641602,-3.115283966064453
1757687802807345200,5.44499853515625,0.0012374999932944,0.0049499999731779,0.002337499987334,-0.0015020000282675,-0.1883949935436248,-0.0235450007021427,1.6203709840774536,-9.15612506866455,-3.116097927093506
1757687802816897800,5.454551025390625,0.0012374999932944,0.0122375003993511,0.0034374999813735,0.0075810002163052,-0.1564159989356994,-0.0107089998200535,1.6186389923095703,-9.156182289123535,-3.116826057434082
1757687802826450400,5.464103759765626,0.0,0.0244750007987022,0.002337499987334,0.0073779998347163,-0.127250999212265,-0.0252229999750852,1.6167869567871094,-9.156283378601074,-3.1174890995025635
1757687802836003000,5.473656494140625,0.0,0.0317624993622303,0.0010999999940395,0.0392379984259605,-0.1251579970121383,-0.0503010004758834,1.6149909496307373,-9.156366348266602,-3.1181728839874268
1757687802845556000,5.483209228515625,-0.0012374999932944,0.029424998909235,0.0010999999940395,0.0579929985105991,-0.1235150024294853,-0.0674550011754036,1.6133379936218262,-9.15642261505127,-3.1188650131225586
1757687802855108600,5.492761962890626,-0.0012374999932944,0.0184249989688396,-0.0013749999925494,0.0600010007619857,-0.1503939926624298,-0.068460002541542,1.6118550300598145,-9.156450271606444,-3.11955189704895
1757687802864661000,5.502314208984375,0.0012374999932944,0.0074249999597668,-0.0001374999992549,0.090768001973629,-0.1393599957227707,-0.0647279992699623,1.6106230020523071,-9.156421661376951,-3.120270013809204
1757687802874213600,5.511866943359376,0.0024749999865889,0.0,-0.0026124999858438,0.0950729995965957,-0.1658090054988861,-0.0275650005787611,1.609637975692749,-9.156381607055664,-3.1208949089050293
