time,seconds_elapsed,z,y,x
1757088703282386000,0.026385986328125,0.31604514053463933,0.34956001825407146,-0.07010404831767082
1757088703292432000,0.036431884765625,0.38115912548005576,0.321095263531059,0.10157353781461716
1757088703302477800,0.046477783203125,-0.07608078463971614,-0.2611811853162944,0.8671873231887817
1757088703312525000,0.056525146484375,-0.042052258309721945,-0.1890983842715621,0.90557229116261
1757088703322571000,0.066571044921875,0.1182633913308382,0.055269321148842566,0.6499424563631415
1757088703332618000,0.076617919921875,0.1823988866329193,-0.18145006147548556,0.4512202114388346
1757088703342664000,0.086663818359375,0.22102643119096754,-0.30123394037187096,0.46984717049747704
1757088703352711000,0.0967109375,0.08595335935652255,-0.12405381130054592,0.3179664639860391
1757088703362756900,0.1067568359375,-0.021360183414816856,0.1519536256171763,0.2403168225944042
1757088703372803000,0.116802978515625,-0.042238720792531964,0.3013110972613096,0.10842179627418518
1757088703382850000,0.12685009765625,-0.0037672435790300366,0.2700704480841756,-0.0205652336448431
1757088703392896000,0.13689599609375,0.18532383416891096,0.2809273576632142,0.1098848545640707
1757088703402943000,0.14694287109375,0.3288777341008186,0.19530337639153003,0.07611264108270406
1757088703412989000,0.156989013671875,0.5931845040917396,-0.006090571960061788,0.04439151491224765
1757088703423035000,0.167034912109375,0.7650614121884107,-0.17711743909865615,0.007599076826870441
1757088703433081900,0.177081787109375,0.7268716745257378,-0.23146862248927352,-0.09540975448787212
1757088703443127800,0.1871279296875,0.5630389566749334,-0.1883734309978783,-0.09457710305601358
1757088703453175800,0.19717578125,0.23108722195625303,-0.11522300072163343,-0.08377309270799159
1757088703463221800,0.2072216796875,-0.06808160257935524,-0.012577303630858658,-0.19497195248007773
1757088703473268700,0.217268798828125,-0.230313314974308,0.06474807424247264,-0.2447574353903532
1757088703483314700,0.227314697265625,-0.27111002026498315,0.10807195992320776,-0.2959469398796558
1757088703493360600,0.237360595703125,-0.2215513318479061,0.10803498891368507,-0.4602978363856673
1757088703503407600,0.24740771484375,-0.07406944481730461,0.10358473150655627,-0.5673612037882209
1757088703513453800,0.257453857421875,0.14608020353913306,0.05042334242239594,-0.6479606348961592
1757088703523500800,0.267500732421875,0.25061083759367464,-0.0401502240806818,-0.6157084705889224
1757088703533546800,0.277546630859375,0.358607101932168,-0.14221198380365968,-0.682758099772036
1757088703543592700,0.2875927734375,0.17301906386911867,-0.12244330736398697,-0.7141606615126133
1757088703553639700,0.2976396484375,-0.1644225004374981,-0.01469546482861042,-0.7132777411982417
1757088703563685600,0.307685546875,-0.35168577823638913,0.04936301971450448,-0.7231959086224437
1757088703573732600,0.317732666015625,-0.30842414413690566,0.08566665136963128,-0.7821773821622133
1757088703583778600,0.327778564453125,-0.19752806670367717,0.30107568107023835,-0.7286649876832961
1757088703593824500,0.337824462890625,-0.23114801223278045,0.5095258315436542,-0.6833592805355787
1757088703603871700,0.347871826171875,-0.4017863184452057,0.49174116852805017,-0.6314993294388055
1757088703613918000,0.35791796875,-0.6078484047383069,0.43356516615226864,-0.5658496301814914
1757088703623964700,0.367964599609375,-0.7352116328477859,0.453440810097754,-0.4569628467440605
1757088703634011000,0.378010986328125,-0.8890577942132949,0.4933556179873645,-0.2605494632840156
1757088703644057900,0.388057861328125,-0.9172522075623273,0.5633905465915798,-0.11670388692915439
1757088703654103800,0.398103759765625,-0.7554290759682655,0.5816764371275901,-0.11554361097812652
1757088703664149800,0.408149658203125,-0.5981716448545455,0.6316378611266613,-0.19094576570391653
1757088703674196700,0.41819677734375,-0.5703086554169654,0.7118664130955934,-0.3368383377164602
1757088703684242700,0.42824267578125,-0.5564344438433647,0.7965707953043282,-0.5330535682559013
1757088703694289700,0.43828955078125,-0.45191725379228587,1.040453347556293,-0.6277285787284373
1757088703704335600,0.448335693359375,-0.2847784801334142,1.1413418257161974,-0.7135223636090755
1757088703714381600,0.458381591796875,-0.05896423014402389,1.0712066516079009,-0.8642173674672842
1757088703724428500,0.468428466796875,0.16441197904348373,1.1118884983472526,-0.8481985450804234
1757088703734474800,0.478474853515625,0.34828269179463384,1.320962041416019,-0.7759779430001974
1757088703744521700,0.488521728515625,0.4460603444576263,1.5919517963021992,-0.8264163368612527
1757088703754567700,0.498567626953125,0.5359083731651306,1.5170475080959498,-1.1333254002600908
1757088703764615000,0.508614990234375,0.041740708142519,0.5927106029696763,-2.243590827450156
1757088703774660900,0.518660888671875,0.4355693455815315,0.5612988350093364,-2.795636096423864
1757088703784706800,0.528706787109375,1.1773252855062484,1.5052540483191608,-2.6916227642416954
1757088703794753800,0.53875390625,1.4987889439582824,2.219491282199323,-2.7432588434547185
1757088703804799700,0.5487998046875,1.7773299910068512,2.3326539893902836,-2.588428931748867
1757088703814846700,0.5588466796875,1.8879145182728767,2.002176711138338,-2.04522104922533
1757088703824892700,0.568892578125,1.874828826728463,1.5445450252220034,-1.2415414448291062
1757088703834939000,0.57893896484375,1.7907739944696426,1.1815776822537183,-0.8408803310215472
1757088703844985600,0.588985595703125,1.3341846572130918,1.1412282092738897,-0.4009779246717691
1757088703855031800,0.59903173828125,0.262100492118299,1.2551920767799019,0.47076808473467824
1757088703865078800,0.609078857421875,-0.9128566029518842,1.090123971915245,0.978184522908926
1757088703875124700,0.619124755859375,-1.8792203396856784,0.8280741870708763,1.3761159194916486
1757088703885171700,0.629171630859375,-2.741097866028547,0.5962171863185242,1.5365695162981747
1757088703895217700,0.6392177734375,-3.2098645478129386,0.4083373475238681,1.0577186628729105
1757088703905263600,0.649263671875,-3.3516774492964148,0.47390331402048463,0.9090829296320676
1757088703915310600,0.659310546875,-3.395077615083754,0.6159121764674782,1.0791033962070942
1757088703925356500,0.6693564453125,-2.9571549843743443,0.4186436374828219,0.9652075524359941
1757088703935403800,0.67940380859375,-2.083097190894186,0.22417441036049277,1.0351830059379339
1757088703945449700,0.68944970703125,-1.1530696729108691,0.12113079999331385,1.5550579436689613
1757088703955496000,0.699495849609375,-0.3443399455182254,-0.15422986345347017,1.8525714022129773
1757088703965543000,0.70954296875,0.4357056853123009,-0.47565866978783156,1.6354951699525118
1757088703975588900,0.7195888671875,1.0596237658418715,-0.4706275802854448,1.3781827888935803
1757088703985635800,0.7296357421875,1.3668804736346005,-0.30582185268402096,0.8893155683666467
1757088703995681800,0.739681884765625,1.5814539292939007,-0.3174601218990981,0.08521452368795872
1757088704005728800,0.749728759765625,1.5559621990323065,-0.375785615748167,-0.3044961570382118
1757088704015774700,0.759774658203125,1.4277245261758564,-0.41925278235711155,-0.5181581969410181
1757088704025820700,0.769820556640625,1.182272094258666,-0.47171486406549806,-0.4583575159728527
1757088704035867600,0.77986767578125,0.9814191939812154,-0.5929891276501119,-0.3028893063634634
1757088704045913600,0.78991357421875,0.9856851077973842,-0.6365443378686905,-0.25173370414376256
1757088704055960600,0.799960693359375,1.0577935547400266,-0.5813609414376318,-0.3245937731713056
1757088704066006800,0.8100068359375,1.0585340709090232,-0.639991847974062,-0.5928992574095726
1757088704076053500,0.820053466796875,0.8427174833208322,-0.70830112182945,-0.7270178049981594
1757088704086099700,0.830099609375,0.5382248334139585,-0.7524363238930701,-0.7133914307057857
1757088704096145700,0.840145751953125,0.29807226147055627,-0.7575903456553816,-0.7055214279830455
1757088704106193000,0.85019287109375,0.07521742754234001,-0.6442594422906637,-0.833348181951046
1757088704116238800,0.86023876953125,-0.19232991353869436,-0.48270723659247156,-0.8300894724160433
1757088704126285800,0.870285888671875,-0.33518125469181687,-0.3872371302194893,-0.6906447613686323
1757088704136331800,0.880331787109375,-0.12471592847108841,-0.3802129306711256,-0.6384516327947378
1757088704146377700,0.890377685546875,0.11687281375527381,-0.30814342749938367,-0.45507834817171094
1757088704156424700,0.9004248046875,0.08775419823341071,-0.2628396200478077,-0.1997796450227499
1757088704166470700,0.910470703125,-0.41177002538628876,-0.43994010801166294,0.2745242126226425
1757088704176517600,0.920517578125,-0.5326290592335164,-0.8228641973376274,0.2696194894462824
1757088704186563800,0.930563720703125,-0.31488669121451673,-0.7202966800495981,0.19161621231138706
1757088704196610800,0.94061083984375,-0.46604529399648303,-0.5745927624769509,0.39079438430964947
1757088704206656800,0.95065673828125,-0.23599603678584097,-0.8430860243722796,0.292919701012969
1757088704216702700,0.96070263671875,-0.0965161082945764,-0.9944345237031579,0.3171031251549721
1757088704226749700,0.970749755859375,-0.049532384932041165,-0.9577268412917852,0.5559609811127185
1757088704236795600,0.980795654296875,0.35337373132333155,-0.7770432341441512,0.7342495098173618
1757088704246842600,0.990842529296875,0.680599606563896,-0.42131256443113085,0.8274696453064679
1757088704256888600,1.000888671875,0.7883342973567545,-0.26789222726225853,0.7112520805895328
1757088704266935800,1.010935791015625,0.718380763425678,-0.3745870536133647,0.5875093810647726
1757088704276981800,1.020981689453125,0.2456790802799165,-0.6413558298036456,1.028461004206538
1757088704287027700,1.03102783203125,-0.5765773604229092,-1.075617892178893,1.3267448626011609
1757088704297074700,1.04107470703125,-1.2625450698912144,-1.3499375221401453,1.068417167019844
1757088704307121000,1.051120849609375,-2.0792413922488686,-1.4301383093193172,1.4472048871934413
1757088704317167900,1.06116796875,-2.8970433377608655,-1.5229288212195038,2.0992425622701645
1757088704327213800,1.0712138671875,-3.0467326717078684,-1.4551353879317641,1.8003449558913707
1757088704337260800,1.0812607421875,-2.5639833495393396,-1.0860317341655492,0.9409826272398233
1757088704347306800,1.091306640625,-2.2286463562965393,-0.37820407506674525,0.0016389993786811827
1757088704357352700,1.101352783203125,-2.0591709563836456,0.35190117455273867,-0.6546557486206293
1757088704367399700,1.111399658203125,-1.7661048326373099,0.761541421368718,-0.941376594993472
1757088704377445600,1.121445556640625,-1.3512427595198153,1.0381696205332875,-1.086390046083927
1757088704387492600,1.13149267578125,-0.6451252653397619,1.1427739043459295,-0.9372118765294551
1757088704397538600,1.14153857421875,-0.039976621079444885,1.1089143048420549,-0.9834814602732658
1757088704407584800,1.151584716796875,0.1503039587140083,1.1532260325163601,-1.1699673239588737
1757088704417631700,1.1616318359375,0.0032075638696551323,1.217052607999742,-0.5980155775099992
1757088704427677700,1.171677734375,-0.3516919157162309,1.1052563668563962,-0.1657604710429907
1757088704437725000,1.181724853515625,-0.8703539705261587,1.163224863961339,0.16526888813376425
1757088704447771000,1.19177099609375,-1.150798513108492,1.2751371326997876,0.35641572936773297
1757088704457818600,1.201818603515625,-1.4382824528083205,1.5686279115989803,0.3328261794656515
1757088704467864600,1.211864501953125,-1.7989897418901324,1.938729636491835,0.5644295342504978
1757088704477910500,1.22191064453125,-2.08923554751873,2.3404566259652375,0.4852443538546562
1757088704487957800,1.231957763671875,-2.3367982495881616,2.780371599535644,0.325337285014987
1757088704498003500,1.24200341796875,-2.2270741385437547,2.7893372885406014,0.3387128994166851
1757088704508050700,1.25205078125,0.2515549865759909,1.92605661740154,2.06049519072473
1757088704518096600,1.2620966796875,5.890797575736046,-1.387467334589362,4.596011447453499
1757088704528143600,1.2721435546875,5.454686962884664,-2.9322365239560604,2.939126283469796
1757088704538189600,1.282189453125,3.915567177581787,-1.9922265411406754,1.8208698575258253
1757088704548235800,1.29223583984375,2.6620494637548924,-0.9772159701377153,1.2789175280213356
1757088704558282500,1.302282470703125,-0.7953529439471662,-0.7763251490026712,0.8416635903537273
1757088704568328700,1.31232861328125,-4.47470912681818,-1.9286723528578877,0.16968319744467733
1757088704578375700,1.322375732421875,1.34594669893831,-3.5425001731425523,-0.4837093993723392
1757088704588421600,1.332421630859375,5.015166249328852,-1.8411574432730673,-0.09158230515420436
1757088704598467600,1.342467529296875,3.5525592103421686,-0.661426265668869,0.03499824814498424
1757088704608514600,1.3525146484375,0.9873705766662955,-0.2863578582793474,0.30087212132215496
1757088704618560500,1.362560546875,0.6398153223633766,-0.5314338580995798,1.1721592810451984
1757088704628607500,1.372607421875,1.539283597562462,-0.6651175214022398,0.4491629866480827
1757088704638653400,1.3826533203125,2.5193653323948384,0.05457505527436733,-0.4826508302301168
1757088704648700700,1.39270068359375,2.8111224193692204,0.39680122350901365,-0.9942460153937339
1757088704658746600,1.40274658203125,2.758783744844794,0.386468337804079,-1.4833628267675638
1757088704668792600,1.41279248046875,2.279879699927568,0.7602844070449472,-1.9563976873904465
1757088704678839800,1.42283984375,-0.4842261167228222,0.9418924355611205,-0.6359814432889223
1757088704688885800,1.4328857421875,-0.5629271668635308,0.20225567974746225,-0.06635083326399326
1757088704698932700,1.4429326171875,0.6174667124330997,-0.28921792388558387,-0.2839619030535221
1757088704708978700,1.452978759765625,0.8994333500161766,-0.28643793777823445,-0.4501847309112549
1757088704719025700,1.463025634765625,0.4691442829251289,-0.06563800881952046,-0.10065291583836078
1757088704729071600,1.473071533203125,-0.4754942364737391,-0.0173214294180274,0.13783786037266255
1757088704739117600,1.48311767578125,-0.4936486095845699,-0.18344985699057578,0.4009533747524023
1757088704749164500,1.49316455078125,-0.14804302804470063,-1.177149052156508,0.7167524315714836
1757088704759210500,1.50321044921875,1.6945897484779358,-2.2512255601122972,1.3025941716849803
1757088704769257500,1.513257568359375,0.5670037686526775,1.2787643832862376,-3.280045753020048
1757088704779303400,1.523303466796875,-2.208137821274996,1.5085042822867631,0.891825505360961
1757088704789350400,1.533350341796875,-2.1809683670595286,-4.4638554321095345,1.1166039825618266
1757088704799396600,1.543396728515625,-0.39431145251989363,-1.1342395924955606,-1.2096622054874897
1757088704809442600,1.553442626953125,-2.2053987516999243,1.0081170120969414,-0.6926233679652214
1757088704819489800,1.56348974609375,-2.4702552645280957,1.1675921192601322,-1.3482324717879295
1757088704829535500,1.573535400390625,-0.3339084217444062,-0.9017541941791772,-3.5977217096269127
1757088704839582700,1.583582763671875,1.329960025255382,-4.920671271598339,-3.6718601280272005
1757088704849628700,1.593628662109375,0.7366063020765781,-3.9691736800849435,-0.7929080350130796
1757088704859675600,1.603675537109375,0.22174539311528205,-0.16291268039643764,0.06031389118731022
1757088704869721600,1.6137216796875,0.6896119111895561,-1.6942913500532506,-2.0625071150690317
1757088704879767600,1.623767578125,0.9992635512948036,-2.2774513037368656,-1.349022160860896
1757088704889814500,1.633814453125,-1.083760574363172,0.5161275678962469,-0.24462065726816654
1757088704899860700,1.64386083984375,-2.3935960954785345,1.128509232150018,1.4956407090604305
1757088704909907500,1.653907470703125,-3.690307638865709,0.7174835223250091,2.072741508835554
1757088704919953700,1.66395361328125,-2.562251703441143,1.5801159586884082,0.52692018006742
1757088704929999600,1.67399951171875,0.10589227779656649,3.366404770568013,-0.27684125739336013
1757088704940046600,1.684046630859375,1.7700465560004115,2.261807598272711,1.1661901435077189
1757088704950092500,1.694092529296875,1.3149921732261776,1.017373062350601,1.166264377787709
1757088704960139500,1.704139404296875,1.0764484977841378,0.6863805280528962,0.631093671247363
1757088704970185500,1.714185546875,1.394651400874555,-0.7917237936645746,-0.1560258434921503
1757088704980232700,1.724232666015625,1.9952081872999667,-1.5300100116521118,-0.49040334405303
1757088704990278400,1.7342783203125,1.8070666653618215,-1.7974581484086811,0.12589315555691719
1757088705000324600,1.74432470703125,-0.9103405284777283,-1.9595229798041283,0.5831839190810918
1757088705010371600,1.75437158203125,-4.112698353922367,-1.8760760503105818,0.8804477867782116
1757088705020417800,1.764417724609375,-4.053622187836468,-2.2012790414214134,1.234063656294346
1757088705030464800,1.77446484375,-0.4760220597401261,-2.568415194506943,1.8582365883678196
1757088705040510700,1.7845107421875,2.736936946956813,-4.732645192733407,2.9992163027733563
1757088705050556700,1.794556640625,-1.302790571039915,-4.519476489305496,0.9395996484488248
1757088705060603600,1.804603759765625,-4.988570503348112,1.8818997880280017,1.1324293282032012
1757088705070649600,1.814649658203125,-2.6662437005743382,7.150493685936928,5.883989649286866
1757088705080696600,1.824696533203125,0.6513163750648499,-0.6557091301310807,4.297548140838742
1757088705090742500,1.834742431640625,-0.09322919557839632,3.247509218813479,4.587366368705034
1757088705100789500,1.84478955078125,0.20464666653722524,5.111970673045516,-1.5652847386509179
1757088705110835500,1.85483544921875,4.000351493158936,5.602238992542028,-5.321798833873868
1757088705120881700,1.864881591796875,3.4643034192621704,2.6471236973017453,-2.6225872219383715
1757088705130928600,1.8749287109375,2.266074169676006,1.825795185098797,-2.270616781541705
1757088705140974600,1.884974609375,1.3238251757621764,1.7366592501834033,-3.084935853374004
1757088705151021800,1.895021728515625,1.3701520426511764,0.41885720716826613,-4.657307335415482
1757088705161067500,1.905067626953125,0.7069792255759239,0.8372075607929378,-4.946733933615684
1757088705171114800,1.91511474609375,0.24203736277669666,-0.7584742158178239,-3.5295080051004883
1757088705181160700,1.92516064453125,0.02367489009797573,-1.0623792750950902,-2.858895977935195
1757088705191206700,1.93520654296875,0.3688414956986904,-0.6608071839224546,-3.0581290949910875
1757088705201253600,1.945253662109375,1.1827061017617582,-1.0578778720226139,-2.781684143438935
1757088705211299600,1.955299560546875,2.30719908400774,-1.5704565883308648,-2.2268770085364578
1757088705221346600,1.9653466796875,2.5106325753629206,-1.4436410572320222,-2.1127526167064903
1757088705231392500,1.975392578125,1.9542378790080546,-0.7893217740241437,-1.3877502431839703
1757088705241439500,1.985439453125,0.712344552001357,-0.11950973813012242,0.4476385535597801
1757088705251485700,1.995485595703125,-0.9925026788577437,-0.22025705425366757,0.5638952812433242
1757088705261531600,2.00553173828125,-1.6089613832920788,-0.4504594561994075,0.5382885462999344
1757088705271578600,2.01557861328125,-1.974185273015499,-0.2850028634738177,1.2783844440579413
1757088705281624600,2.02562451171875,-1.1042182559803129,0.13029599362574518,0.4889958153426647
1757088705291671600,2.035671630859375,-0.48933659160435194,0.3343797655832022,0.26651041751503945
1757088705301717500,2.045717529296875,-0.22130378682762383,0.629648440875113,0.6446241839498281
1757088705311763500,2.055763427734375,-0.2618278126567602,1.1972351239822805,0.6499462557554244
1757088705321810400,2.065810546875,-0.1744032117038965,1.4519170104071497,0.2159264777034521
1757088705331856400,2.0758564453125,0.452213606390357,0.8928187541820108,0.6347030939161777
1757088705341903600,2.085903564453125,0.6287146671563386,0.8657255800731479,1.4871096120804548
1757088705351949600,2.095949462890625,-0.1526882235020399,0.9317094797208905,1.0318979929178953
1757088705361996500,2.10599658203125,-0.8466972006067633,1.0776938216701148,0.5696148279339075
1757088705372042800,2.116042724609375,-0.8256389227479696,1.1721936947714537,1.1258587176412342
1757088705382088700,2.126088623046875,-0.8004331698209047,0.5604168645430356,1.3031903840124606
1757088705392135700,2.1361357421875,-1.121866433134675,-0.5308595653429627,0.7736550530105829
1757088705402181600,2.146181640625,-0.35818916878104207,-1.0513671749543398,-0.08384089724719523
1757088705412228600,2.156228515625,1.5396750810980795,-0.9347869874700904,0.7439572493612766
1757088705422274600,2.166274658203125,2.0231553478896616,-1.3974614898592232,0.824291599792242
1757088705432321500,2.176321533203125,1.699941630899906,-0.8500735451720655,0.5164104764908551
1757088705442367500,2.186367431640625,-1.3564315603345631,-0.4899695192130282,1.152210133472085
1757088705452413400,2.196413330078125,-2.9138766914010046,1.0143834520805626,0.7024392440587282
1757088705462459400,2.20645947265625,-2.6190090711906553,1.9523105642072855,0.6064350308090448
1757088705472505300,2.21650537109375,-1.731710395604372,2.2700226150408387,0.9824830968856811
1757088705482552300,2.22655224609375,-1.165474104192853,2.064789088526368,1.6467004545778035
1757088705492598300,2.236598388671875,-1.2732757227420806,2.381315582837164,2.004487472298741
1757088705502644200,2.246644287109375,-1.3527479033857583,3.1432164851680398,2.7047663234531876
1757088705512691200,2.256691162109375,-1.2984294532209635,3.591473170626163,2.761300111579895
1757088705522737200,2.266737060546875,-1.699988392651081,2.3386735419407487,2.908001077365875
1757088705532784000,2.2767841796875,-2.3468799370110034,1.4488780811026691,3.176445093291998
1757088705542830300,2.286830322265625,-3.2845512477457524,0.5733218657582998,0.6289245105147362
1757088705552877300,2.296877197265625,-0.4865852470695972,0.24987507066503165,-1.2642068656235932
1757088705562923300,2.30692333984375,5.069799756792188,0.43811362323686476,-0.964648164987564
1757088705572969200,2.31696923828125,5.2755830261439085,-1.2596031712204216,-1.4925170240819454
1757088705583016400,2.327016357421875,3.7109623043596742,-2.319797430426627,-1.3685147968381643
1757088705593062400,2.3370625,2.46130477309227,-1.7077091961614788,-0.055820086899399754
1757088705603109400,2.347109375,1.1667156286865472,-0.404187826628983,1.5219424405306576
1757088705613155300,2.3571552734375,-0.1569318524211645,0.18230762815289198,2.837688939255476
1757088705623202300,2.367202392578125,-1.3429057238072155,-0.15742891522310673,3.083437139248848
1757088705633248300,2.377248291015625,-0.4131429942399263,-0.9316880716066807,3.2958231678664682
1757088705643294200,2.387294189453125,0.6293804375886917,-1.711847757270932,1.7673831820100545
1757088705653341200,2.397341064453125,0.9584814590513706,-1.7224765571825205,0.4231201983749866
1757088705663387400,2.407387451171875,-0.30072715989351273,-1.2266101254180073,-0.7378279528260231
1757088705673434400,2.417434326171875,-0.9725549925893544,0.17341695887921377,-0.7033966909140348
1757088705683480300,2.427480224609375,-1.723567421159148,0.36497371435463427,-2.662954303640127
1757088705693526300,2.4375263671875,-1.6086270367711781,0.0786100473890081,-3.2522593359500167
1757088705703573200,2.4475732421875,-0.8228980996072291,0.2015039115320891,-2.76365924192667
1757088705713619200,2.457619140625,-1.2974351814866065,0.8161144308164715,-4.546532838535309
1757088705723666200,2.467666259765625,-0.070148471981287,0.702969113151729,-4.818203999814391
1757088705733712100,2.477712158203125,1.5075801531791686,0.6376517145887017,-3.778733525815606
1757088705743759400,2.48775927734375,1.8096739252507685,0.7822747781220823,-2.4174954419821497
1757088705753805300,2.497805419921875,0.6400584834694862,0.8788640247181058,-1.153866083985567
1757088705763851500,2.5078515625,-0.47508945506513117,1.3045225093990565,-0.36202363237738605
1757088705773898200,2.517898193359375,-0.06683247930109501,1.372451405634731,-0.04584112919867039
1757088705783944400,2.5279443359375,0.5044084885299206,0.9922941506735979,0.1465221020877361
1757088705793991400,2.537991455078125,1.0706488715946674,0.9311679201900959,-0.3517074055463075
1757088705804037400,2.548037353515625,0.8572805539414287,0.9176441294893621,0.09364975907802581
1757088705814084400,2.55808447265625,0.2025374192982912,1.0621705277152358,0.33656945764720436
1757088705824130300,2.56813037109375,-0.2591781749308109,1.1863489883087575,0.5018576350033283
1757088705834176300,2.57817626953125,-0.6617828240215778,1.0055164742097258,0.41892742286026474
1757088705844223200,2.58822314453125,-1.0635691424667835,1.6793215983279048,-1.2928729881376027
1757088705854269200,2.598269287109375,-1.6663167169347404,1.102755489951372,-0.9296861571997403
1757088705864316200,2.608316162109375,-0.9004860739395022,-0.4960261523708701,1.796218815872073
1757088705874362000,2.618362060546875,-0.47972296008467674,-0.8740914034888148,1.653946772444248
1757088705884409300,2.628409423828125,-1.9054814468845724,-1.4925804447069764,-0.11502397101819514
1757088705894455300,2.638455322265625,-1.884519615137577,-1.2568769611269235,-1.8404086707323788
1757088705904501200,2.648501220703125,-0.2945233368173241,-1.0291019324585795,-1.6901625796854496
1757088705914548500,2.658548583984375,1.4099094680219888,-0.7552116338253021,-0.932089126688242
1757088705924594400,2.668594482421875,2.3505519035220144,-0.1852113137051463,-0.1820323914080858
1757088705934641400,2.678641357421875,2.1641537181198593,0.13226298284977675,0.4351894063532352
1757088705944687400,2.688687255859375,1.4536150464966893,0.06538286501467228,0.6291583192706107
1757088705954734300,2.698734375,0.6735398973107337,-0.4710357957601547,0.5096346987456083
1757088705964780300,2.7087802734375,-0.09071107527762651,-1.0818535716980695,0.19923253253400325
1757088705974826200,2.718826171875,-0.6956541139632463,-1.8300056424006819,0.3694382925480604
1757088705984873200,2.728873291015625,-1.3089941018551587,-1.9561308531478045,0.27047990566790103
1757088705994919400,2.73891943359375,-2.520702133956551,-0.8874120728328824,-1.1455945147246123
1757088706004966100,2.748966064453125,-1.2813158213347196,0.9190393832400441,-1.5835200680434702
1757088706015012400,2.759012451171875,1.8556258213475345,2.935849746017158,-1.9832541301339863
1757088706025059300,2.769059326171875,1.041799793729186,3.307537863318622,-0.9456523726165295
1757088706035105300,2.779105224609375,-0.526703906968236,2.405357260420918,0.8713537952184677
1757088706045151200,2.789151123046875,-1.3909189363479613,1.4225000695258379,0.9218529793560505
1757088706055198200,2.7991982421875,-1.022513493978977,0.7240963645935058,1.1345242546558378
1757088706065244200,2.809244140625,0.0348629313275218,0.06274930164068937,1.6170803923398256
1757088706075291400,2.81929150390625,0.5810790557563305,0.12241174318194388,0.8554770116508007
1757088706085337300,2.82933740234375,0.07706570402383804,0.6552770953893661,0.06477320868372917
1757088706095384300,2.83938427734375,-0.42424686431735753,0.904557561162114,-0.8281769167929888
1757088706105430300,2.84943017578125,-1.3192261575341224,0.404060985378921,-1.6758897241830826
1757088706115476500,2.8594765625,-1.3787225948587059,-0.11814210303872823,-2.6356086160749195
1757088706125523500,2.8695234375,-1.3244184654802083,-1.1969517769962548,-3.4428725086987018
1757088706135569400,2.8795693359375,-1.2329469272240996,-2.0706445365563035,-3.5903877134770155
1757088706145616400,2.889616455078125,-0.3308013956397772,-2.4821374255016444,-3.482753268188238
1757088706155662300,2.899662353515625,0.9137544285744428,-2.9867151331186292,-2.395672901752591
1757088706165709300,2.909709228515625,0.9151064277052878,-2.5584157785400747,-1.541272579422593
1757088706175755300,2.91975537109375,0.07440057646781206,-1.7364102438583968,-0.61409051399827
1757088706185801200,2.92980126953125,-0.05724018283039331,-2.083083454629779,1.5832552796274422
1757088706195848200,2.93984814453125,-0.6558090103089809,-2.387998129341006,0.9246481630325317
1757088706205894100,2.94989404296875,-1.0519804114818572,-1.3538856752440334,0.23279519491791723
1757088706215941000,2.959941162109375,-0.8866086474955082,-0.8156555811330676,0.8121931657195091
1757088706225987000,2.969987060546875,-1.4976941344588994,-0.47513475551158185,0.8539742058724165
1757088706236034300,2.980034423828125,-1.0113993947684765,0.5580265353403985,0.5112772052556276
1757088706246080500,2.99008056640625,0.4134691574543714,0.36045375271216035,0.05562427206635475
1757088706256126500,3.00012646484375,1.979114546111226,0.022903905725479123,0.3772387371659279
1757088706266173400,3.01017333984375,1.623293860027194,0.1425248491451144,0.7680798832267522
1757088706276219400,3.020219482421875,0.29044191272258757,0.9269444572761655,1.5030553692311048
1757088706286266400,3.030266357421875,-1.0892390057742596,-0.3843604057393968,3.1963153304100036
1757088706296312300,3.040312255859375,-1.4241846616119145,-4.263746116741001,3.6205274156749248
1757088706306359300,3.050359375,-0.030017537122964857,0.14856632126644254,-1.1501526164203881
1757088706316405200,3.0604052734375,1.3328063545972109,4.032089278203249,-2.4620816026836634
1757088706326452200,3.0704521484375,2.6878309707432986,2.631432499434054,-0.7606283981770277
1757088706336498200,3.080498291015625,2.1443828497231006,1.3400864286027847,-1.2187883457511663
1757088706346544400,3.09054443359375,0.3316407690733671,1.0119170619670301,-0.9956085359185933
1757088706356591000,3.100591064453125,-0.3448474566489458,0.6901306743666529,-0.9214362152487039
1757088706366637300,3.11063720703125,-0.9924503641486168,0.7431330734968185,-0.24368249963521957
1757088706376684500,3.1206845703125,-1.2789321410685777,0.8657367590542883,0.6322825887709855
1757088706386730200,3.130730224609375,-0.7170522913008928,-0.003261997470632195,1.5097282711237667
1757088706396777500,3.140777587890625,-0.34198563747704025,-0.7700351089477538,2.2028531588703393
1757088706406823400,3.150823486328125,0.2899514988571405,-1.1830603220269083,1.9787410366237161
1757088706416870400,3.160870361328125,0.4397860864937305,-1.005871425127238,1.1735481050550938
1757088706426916400,3.170916259765625,-0.05306523523330688,-0.5956025980841368,-0.024904724153876304
1757088706436962300,3.18096240234375,-0.19474048181176185,-0.3057470338821411,-0.733952572697401
1757088706447009300,3.19100927734375,-0.23662965851426124,0.03248827461805195,-0.9021721273303032
1757088706457055700,3.2010556640625,-0.06742109284400939,-0.11300868567302823,-1.1234282756239176
1757088706467102700,3.211102783203125,1.6391390794128178,-2.406015285938233,-0.5782289270222186
1757088706477148700,3.221148681640625,1.0980699624836445,-1.0551073113307357,0.19074001399874685
1757088706487195600,3.231195556640625,-0.9538818563014269,0.47584389016162604,-0.8796709571868181
1757088706497241900,3.241241943359375,-0.8009744370907544,-0.7995003459502011,-0.2514882049500942
1757088706507288600,3.25128857421875,0.4006862482488155,-1.3314604929462075,0.16889000124037265
1757088706517334800,3.261334716796875,1.0500438904613256,-1.7667901845529674,-0.08280629350244999
1757088706527380700,3.271380615234375,0.5742489174753427,-0.7150823064021766,0.8769774803191422
1757088706537428000,3.281427978515625,1.015909565669298,-2.094610226294398,0.6943038683980703
1757088706547474000,3.291473876953125,1.8227210383504628,-3.394719303165376,0.11878536937832831
1757088706557521000,3.30152099609375,1.545614408019185,-4.208016338473558,-0.234334241053462
1757088706567566800,3.31156689453125,1.0982990950644016,-4.247995005379617,-0.0023228899896144866
1757088706577613800,3.32161376953125,0.5947784952849149,-3.702278939427435,0.3171282595962286
1757088706587659800,3.33165966796875,0.578181580749154,-2.5955820183739067,-0.17338322100639342
1757088706597705700,3.341705810546875,0.5098854586362839,0.8259677163109183,0.05828969188332557
1757088706607752700,3.351752685546875,-2.6878397385716437,4.400757170900702,2.198864381495118
1757088706617799000,3.361798828125,-3.720296534416079,4.164352553313971,0.8812257854133844
1757088706627846000,3.371845947265625,-3.1928017693310973,2.1856791750989855,-2.201857718092203
1757088706637891800,3.381891845703125,-0.934593802985549,2.681235225740075,-1.2539736409008502
1757088706647938800,3.391938720703125,0.7135077505618334,2.469672203943133,-0.7948211751580238
1757088706657984800,3.40198486328125,1.2027858899772166,2.0712284739241005,-1.2444336591392755
1757088706668031700,3.41203173828125,1.844455315774679,1.2783736304029822,-1.0056026911884546
1757088706678077700,3.42207763671875,1.6680717439085244,1.8180498316690326,-1.324946873268485
1757088706688123600,3.43212353515625,0.2802157022625208,0.10297544050179422,-0.8569225342839956
1757088706698171000,3.4421708984375,-0.21379764898121356,-1.1380820932678877,-0.0736468354910612
1757088706708216800,3.452216796875,-2.2251824795782564,-2.6518568633034825,0.006996727019548415
1757088706718263800,3.462263916015625,-3.3626661685615775,-2.737833019013703,-1.0187433277904987
1757088706728309800,3.472309814453125,-2.124694983434677,-1.6672934530124068,-0.7954699944555759
1757088706738356700,3.482356689453125,0.6654588821858167,1.8729180246710777,-0.20718962901830673
1757088706748403000,3.49240283203125,2.693654562330246,4.451204624851048,0.0701005411863327
1757088706758450000,3.502449951171875,2.713510770922899,2.209427130433172,-0.25282383746802806
1757088706768495900,3.512495849609375,1.2655419136196373,0.3143133483059704,-0.2762391998469829
1757088706778541800,3.522541748046875,-0.018935586616396903,0.02823079983666539,-0.6419821450084447
1757088706788588800,3.5325888671875,-0.4455290140599012,1.7771796227507293,-0.07367547706365585
1757088706798634800,3.542634765625,-1.0292255588382482,2.5708634644418953,0.41018940513134
1757088706808681700,3.552681640625,-1.147968842640519,1.8165432264983652,-0.5155570745319128
1757088706818727700,3.562727783203125,-0.9310656288594007,1.3984778272949159,-0.021959902873635292
1757088706828774700,3.572774658203125,-0.46840135560333723,-0.07144201892316342,0.002773556366562843
1757088706838820600,3.582820556640625,-0.23647300664782522,-0.5658857244081795,0.13269699035286903
1757088706848867800,3.592867919921875,-0.5263455950498581,-0.5774259400762617,-0.8387176000297069
1757088706858913800,3.602913818359375,-0.4846680152714252,-1.1873239708207548,-1.2111381232589482
1757088706868960000,3.6129599609375,0.2917939118534326,-1.37361416580379,-0.3874918356329202
1757088706879007000,3.623007080078125,1.5068290425509214,-0.12167772981896996,1.7796785999596119
1757088706889053000,3.633052978515625,2.5354396843612195,1.4924036268353462,2.150434404847026
1757088706899100000,3.643099853515625,1.9760604192376137,1.5171838478267192,0.31209611064791676
1757088706909145900,3.653145751953125,0.5202168830364943,-0.03936959509700536,-0.16230770024061203
1757088706919192800,3.66319287109375,-1.2790665811032056,-0.7975048612840473,0.3074672818034887
1757088706929238800,3.67323876953125,-2.0270348196715116,-1.3694387798152863,0.35341011781096454
1757088706939285800,3.68328564453125,-1.9035691835224626,-1.7535377581395208,-0.08276713053584098
1757088706949331700,3.693331787109375,-1.322561439436674,-1.2894504663430153,-0.03273088773488998
1757088706959377700,3.703377685546875,-0.5603823046863079,0.34315745773538947,0.0010538929671049118
1757088706969424600,3.713424560546875,0.33015023825466633,1.3829421122498808,0.13548399072289466
1757088706979470800,3.723470947265625,0.6396639311939477,1.2885294059753418,-0.01690612661540508
1757088706989517800,3.733517822265625,0.2210597489386797,-0.4744233923718333,-0.30018998427689075
1757088706999563800,3.743563720703125,0.17573767517805097,-1.2669243078887462,-0.591807370519638
1757088707009611000,3.753611083984375,0.28415128814578056,-0.8354045299589633,-0.34665772094130515
1757088707019657000,3.763656982421875,0.18211773160398007,-0.15799655904322862,0.2568511932879686
1757088707029704000,3.773703857421875,-0.9334183294653892,1.0833245210334659,0.1276958210647106
1757088707039750000,3.78375,-1.6303443630605936,0.4905912678405642,-0.4485439779669046
1757088707049795800,3.7937958984375,-1.0853174484163521,-0.618963672992587,0.20133271968364713
1757088707059842800,3.8038427734375,-1.0882581780433653,-0.9267077259108424,0.7704659015804529
1757088707069888800,3.813888671875,-0.7088350825756787,-0.6351815250828862,0.4798544775098562
1757088707079935700,3.823935791015625,-0.40962884863913057,-0.62865139266178,-0.2941495350688696
1757088707089981700,3.833981689453125,-0.480699696162343,-0.7157920621067285,-0.9716612586200236
1757088707100028700,3.844028564453125,0.108808165243268,-0.35957156305015087,-0.6278524973690509
1757088707110075000,3.854074951171875,1.0975789640963076,0.4919743927620351,0.18815642724633216
1757088707120121600,3.86412158203125,1.3509136736959217,1.171798046517372,0.9646101710647345
1757088707130167800,3.874167724609375,0.9184925630122422,1.3931472799219191,1.471664790189266
1757088707140213800,3.8842138671875,0.10731880346834659,1.121493946560472,1.2697095546931028
1757088707150261000,3.894260986328125,-0.24618776045441626,0.7325412445947528,0.04573240812718868
1757088707160306700,3.904306640625,-0.3003057196110487,-0.44183132858574387,-0.9990466936737299
1757088707170354000,3.91435400390625,0.2163227835446596,-2.1116782654732464,-2.020579359921813
1757088707180399900,3.92439990234375,1.494481602153182,-1.4576722129330038,-0.8084440423190593
1757088707190446800,3.93444677734375,0.5646463918715715,-0.07221066520810127,1.021290089663863
1757088707200492800,3.944492919921875,-0.5788397523969412,-0.2295586972147226,0.23862112459242343
1757088707210539800,3.954539794921875,-1.2929308558046817,0.5567579767093062,-0.3284492795556784
1757088707220585700,3.964585693359375,-1.5020359630554914,0.7321314947500824,-0.47614393255412574
1757088707230632700,3.9746328125,-0.3620189562022686,-0.25736235768049953,0.27316169209778307
1757088707240679000,3.984678955078125,0.1730436137884855,-0.363278893135488,1.0506067850410938
1757088707250724900,3.994724853515625,0.19443653042912482,-0.13299772686511277,0.623491964071989
1757088707260771800,4.004771728515625,0.27252164062857626,-0.039996494823694224,-0.35101766971647735
1757088707270817800,4.01481787109375,1.1523194390654563,-4.129840627381205,-2.413216741749644
1757088707280864800,4.02486474609375,-0.33381752859055996,-3.5065313263997435,-4.148711332067847
1757088707290910700,4.03491064453125,-0.5012935713797807,0.1882525810971856,-1.8172656955540178
1757088707300958000,4.0449580078125,0.10159282703697681,1.1904586155846715,-0.23302900367379187
1757088707311004000,4.05500390625,-0.9500912318468093,2.427847909170389,1.2255676306277512
1757088707321051000,4.06505078125,-1.6444734261780976,1.4216571889609098,1.7795079195678234
1757088707331096800,4.075096923828125,-1.2478987049013375,0.2335761161625385,0.9694494277894496
1757088707341142800,4.085142822265625,0.1671317593961954,-0.3566398935124278,0.1837280894100666
1757088707351189800,4.095189697265625,1.1983996377170085,-1.211541443362832,-0.4169125759065151
1757088707361236000,4.105236083984375,1.834806028419733,-2.2254639268681404,-1.1047656607300043
1757088707371282700,4.11528271484375,1.9769383711159227,-2.448898588244617,-2.1137673467069864
1757088707381329000,4.125328857421875,1.1178355701833962,-3.3354648579031227,-3.2947318654984232
1757088707391376000,4.1353759765625,1.3416630302697419,-4.499563874350488,-4.438700240325928
1757088707401421800,4.145421875,1.8004408174812794,-3.2526530114427206,-3.4590894840061663
1757088707411468800,4.15546875,-1.020473512583971,-1.9665677837491033,-4.584948201647401
1757088707421514800,4.1655146484375,-0.7438900293439626,-0.010317688135802746,-4.519522666534781
1757088707431560700,4.175560791015625,-1.975828364047408,-0.7766951513588428,-1.2888789500653743
1757088707441607700,4.185607666015625,-1.8851900617450474,1.1592033533602952,2.883050760504603
1757088707451653600,4.195653564453125,-0.20581424901187417,5.129591085410118,4.897663905498385
1757088707461700900,4.205700927734375,0.040376434051990505,4.619090709745883,3.5564912890940903
1757088707471746800,4.215746826171875,-0.2956120088368654,2.445858489896357,2.4100872115522622
1757088707481793800,4.225793701171875,0.06861059488952159,1.2173019065856934,1.1705109293162823
1757088707491840000,4.235840087890625,-0.16919453714489935,1.1660551189512014,0.49588031415939327
1757088707501886700,4.24588671875,-0.1931429834872484,1.137996606941521,0.43798985072672364
1757088707511933000,4.255932861328125,0.3034031011044979,1.6901795308202505,0.40217911715507504
1757088707521980200,4.265980224609375,0.23010230257213116,2.3883552722156045,0.7731120321750641
1757088707532026000,4.276026123046875,0.03359071943461895,2.5958900614097713,1.3492524624854325
1757088707542071800,4.28607177734375,0.11418225949704647,1.9926345374196766,1.5849802037239074
1757088707552119000,4.296119140625,0.2256388934224844,1.2036705638572573,1.3617922105848788
1757088707562165000,4.3061650390625,0.06827332575917243,1.202734744311869,1.070703816652298
1757088707572212000,4.3162119140625,-0.07756547023952007,1.1800763377800583,0.7727648261725902
1757088707582258000,4.3262578125,-0.09178221164047717,1.102172137105465,0.17643968596756457
1757088707592305000,4.336304931640625,-0.16068389843106268,1.522484584583342,-0.16610241634845732
1757088707602350800,4.346350830078125,-0.17329846533238888,1.8847829422488807,-0.1776449701040983
1757088707612397800,4.356397705078125,-0.12353227164447307,2.0269372045159337,-0.31089842529594897
1757088707622444000,4.366444091796875,-0.07388356685638427,1.492398073877394,-0.12417232311367987
1757088707632490800,4.37649072265625,-0.18653905517756939,1.3416343886971474,-0.488467407554388
1757088707642537000,4.386536865234375,-0.21144962455034255,0.7180357493802905,-0.8543319332689047
1757088707652583000,4.3965830078125,-0.1907382604330778,-0.05872369938641786,-1.2205389888107776
1757088707662630000,4.4066298828125,-0.08391922318041324,-0.8466694358170032,-1.2488234185308218
1757088707672675800,4.41667578125,-0.019960253489017487,-1.3095944058358668,-1.1680845789521932
1757088707682723000,4.42672314453125,0.20035072290897368,-1.240493981602788,-1.097224159309268
1757088707692769000,4.43676904296875,0.3721224170655012,-0.9448752507641911,-1.1276754116743803
1757088707702816000,4.44681591796875,0.44409810447394843,-0.4631912197396159,-1.0241741206675767
1757088707712862000,4.456862060546875,0.4592980116933584,-0.5553717830479145,-0.9537707971423863
1757088707722909000,4.466908935546875,0.4122907613247633,-1.2779331931591034,-0.7788450228691101
1757088707732955000,4.476954833984375,0.2743891880661249,-2.3139698933169246,-0.527585950499773
1757088707743001000,4.4870009765625,0.08822422689795494,-2.15920194093138,0.03463935170471668
1757088707753048000,4.497048095703125,-0.12326222253143787,-1.6442258811578154,0.4032435315161943
1757088707763094000,4.507093994140625,-0.2469131521195173,-1.1892758355408906,0.36990707910358905
1757088707773141000,4.51714111328125,-0.07229600540399551,-0.5240864179462195,0.32963352090418335
1757088707783187000,4.52718701171875,-0.019110358661413192,-0.35666853508502244,0.006785130095481872
1757088707793234000,4.53723388671875,-0.04141629849374294,-0.372542396043241,-0.20859949581623077
1757088707803280000,4.54727978515625,-0.09287702113986014,-0.278490193644166,-0.3121685913622379
1757088707813326800,4.557326904296875,-0.05543664053976535,-0.3753390410244465,-0.3535521566301584
1757088707823372800,4.567372802734375,0.0900426744967699,-0.3728668056920171,-0.33918986927866934
1757088707833418800,4.577418701171875,0.10530629460215568,-0.319190160562098,-0.4731272150814533
1757088707843466000,4.587466064453125,0.07257014617025852,-0.2880456652358174,-0.2823486226379871
1757088707853512000,4.597511962890625,0.013866028267145156,-0.1502282631292939,-0.12611118222177028
1757088707863559000,4.607558837890625,-0.10302490566670894,-0.2245791552364826,0.10358370859324932
1757088707873605000,4.617605224609375,-0.13298691321015357,-0.16332739867717028,0.24654899498224256
1757088707883652000,4.627652099609375,-0.1949865655273199,-0.19745441694557667,0.41621348772644995
1757088707893698000,4.637697998046875,-0.19982991390526295,0.07405512403100728,0.36554479224085806
1757088707903745000,4.6477451171875,-0.18955051195323466,0.1151221706956625,0.33632337393164635
1757088707913791000,4.657791015625,-0.12368074020445347,0.23493775990456342,0.24773031372129917
1757088707923838000,4.667837890625,-0.11483107879459857,0.3027390842378139,0.15164017575383185
1757088707933884000,4.6778837890625,-0.13338205000758172,0.46555502626150846,0.043625206714868546
1757088707943929900,4.687929931640625,-0.13161387129127977,0.44818069761246443,-0.05910042374432087
1757088707953976800,4.697976806640625,-0.14685527956485747,0.4263455901622772,-0.03212649210095406
1757088707964022800,4.708022705078125,-0.20724632764160633,0.2981181464388966,-0.01618891825675964
1757088707974069800,4.71806982421875,-0.29696225440204144,0.21551555881500242,0.07692132711708545
1757088707984115700,4.72811572265625,-0.3265601048082113,0.13246201255321502,0.12548808188736438
1757088707994163000,4.738162841796875,-0.32765199169814585,0.006262567526102066,0.19974106657803056
1757088708004209200,4.748209228515625,-0.3041477819919586,0.019547581034898755,0.22282500504553318
1757088708014256000,4.758256103515625,-0.29799218197166916,-0.06354980436861514,0.20886954492926596
1757088708024302000,4.768302001953125,-0.3017424744158983,0.06432458813339471,0.11463935561478138
1757088708034349000,4.77834912109375,-0.3093108638435602,0.03223082925826311,0.11387363193929195
1757088708044395000,4.78839501953125,-0.2826847227245569,0.15110796857327222,0.048989364096522325
1757088708054441000,4.79844091796875,-0.2093517754882574,0.1309875560864806,-0.0034895956814289092
1757088708064488000,4.808488037109375,-0.20970599575340745,0.07052870347052813,-0.045994858455657955
1757088708074534000,4.818533935546875,-0.09923311216831207,-0.05518821873664856,-0.0009264671951532363
1757088708084580900,4.828580810546875,-0.1218096856355667,-0.18410510602891444,0.00048339960277080535
1757088708094626800,4.838626708984375,-0.0625935265570879,-0.17907324934154747,0.05678162540793419
1757088708104673800,4.848673828125,-0.07515197935700416,0.2652165783122182,-0.07098141567409039
1757088708114719700,4.8587197265625,-0.0504892472654581,0.18964783484786749,-0.1099807161539793
1757088708124766700,4.8687666015625,0.280955706974864,-0.2821729738101363,-0.11672259162962435
1757088708134813000,4.87881298828125,0.3404424996882677,-0.1629509665802121,-0.1095621984809637
1757088708144860000,4.88885986328125,0.14426467854976655,-0.28086042990684507,-0.238687175565958
1757088708154906000,4.898906005859375,0.1057405943661928,-0.4509127529248595,-0.19365210205316544
1757088708164953000,4.908953125,0.20574118377566336,-0.26034020444750783,-0.24623101507425307
1757088708174999000,4.9189990234375,0.02148760918676853,0.03980243355631828,-0.44598844826519485
1757088708185045000,4.929044921875,-0.022754852643609047,0.19850304921567438,-0.49772798785269257
1757088708195092000,4.939092041015625,0.03418284010887146,0.18101006262302397,-0.46092122898101806
1757088708205138000,4.949137939453125,0.4719119940727949,0.5485360918089747,0.14410802668333053
1757088708215185000,4.959184814453125,0.536060348856449,0.7993886292040348,0.35255379324257374
1757088708225230800,4.96923095703125,0.2568342421531677,0.7698264346331357,0.39892859092652794
1757088708235277800,4.97927783203125,0.07124269695878029,0.5842962642371654,0.3105512192934751
1757088708245323800,4.98932373046875,-0.10565642321407795,0.29392858579456804,0.22133915040194987
1757088708255370800,4.999370849609375,-0.1732972962886095,0.3364803180590272,0.11508885294795036
1757088708265417000,5.0094169921875,-0.26727555666863917,0.3108344201490283,0.06248480548560619
1757088708275464000,5.0194638671875,-0.3642658583462238,0.19562983186691998,-0.020790274572372435
1757088708285510000,5.029510009765625,-0.42612639445364475,0.00537350973188877,-0.14602993465662
1757088708295555800,5.039555908203125,-0.39007600690722466,0.009242752380669116,-0.10616612630188464
1757088708305603000,5.04960302734375,-0.33339199665486813,0.1275613810300827,-0.07180208440721035
1757088708315649000,5.05964892578125,-0.3778647601097822,0.41687312067896126,-0.11243512356877326
1757088708325696000,5.069696044921875,-0.19697978517115114,0.5622165343761444,0.2746720966607332
1757088708335742000,5.079741943359375,0.19817045626044272,0.8207184174805879,0.6492389842689037
1757088708345789000,5.089788818359375,0.271399358600378,1.2293407194256782,0.33295711236894127
1757088708355835000,5.0998349609375,0.23857670092880726,-0.5858890863865613,0.15056816260814665
1757088708365881900,5.1098818359375,-0.1193394961297512,-2.0881641188949347,0.1902981154501438
1757088708375927800,5.119927734375,-0.4838321489691734,-1.8640502430826424,0.4028706065505743
1757088708385974800,5.129974853515625,-0.5701373905032873,-0.6751157683253288,-0.09311316798329353
1757088708396021000,5.14002099609375,-0.18222177650034427,0.9264832695052028,0.38184886130988593
1757088708406068000,5.15006787109375,0.2804758145034313,1.0253732673242688,0.7898989163249731
1757088708416114000,5.160114013671875,0.2537888831079006,1.4382099720939994,0.46153030079007146
1757088708426159900,5.170159912109375,0.10852934830188751,0.9488727959677576,-0.04352583799362182
1757088708436206800,5.180206787109375,-0.546808537364006,1.0679352287217974,0.38584114581644535
1757088708446252800,5.190252685546875,0.2532885323703289,-0.7098255549177527,0.016246785923838613
1757088708456300000,5.200300048828125,0.619950345942378,-1.2629112728551029,-0.42317631247639653
1757088708466346000,5.210345947265625,-0.3745563662141561,-1.3314692607745529,-0.3417272788017988
1757088708476393000,5.22039306640625,-1.8504817364573478,-0.37488252942860123,-0.35389527097940443
1757088708486439000,5.23043896484375,-1.1967717442542314,0.09515081129074096,-0.08631693197190761
1757088708496486000,5.24048583984375,-0.9630752165824175,-0.7937877404570579,-0.8066659267306328
1757088708506531800,5.25053173828125,0.08184066334068775,1.7546540488183497,0.1101940666437149
1757088708516578800,5.260578857421875,0.7096545822650194,1.1696145649984477,0.37252924430072304
1757088708526625000,5.270625,0.4301292003542185,-2.627769593012333,-0.4934446114450693
1757088708536671000,5.2806708984375,-0.5529471862494946,-3.0023750590652227,0.05322773231863975
1757088708546718000,5.290718017578125,-0.3372317209482193,1.2555346066072584,1.2187228792995213
1757088708556764000,5.300763916015625,-0.2776829689145088,0.5473764003798365,0.1269195759952068
1757088708566811000,5.310810791015625,0.4703554122805595,-0.02615063256174326,0.4263666329503059
1757088708576856800,5.32085693359375,-0.04435819716453552,0.45530806527435774,0.32645430634617806
1757088708586904000,5.330904052734375,-0.32406361181735993,0.499090508377552,0.1574468162059784
1757088708596949800,5.34094970703125,0.09864859027862548,0.3218330762863159,0.15096622201502322
1757088708606997000,5.3509970703125,0.18620120152533054,0.18492489797919986,-0.08096797215938567
1757088708617043000,5.36104296875,0.13230886781811713,0.030115736800432204,-0.10446107594966887
1757088708627090000,5.37108984375,0.19975860223472117,-0.10826952832192181,-0.01804945143163204
1757088708637136000,5.381135986328125,0.15464695635437964,-0.22192688716202974,0.07902209878861903
1757088708647182800,5.391182861328125,0.120380529615283,-0.2321872921526432,0.2103583221822977
1757088708657229000,5.40122900390625,0.04938099376261234,-0.23732903895527124,0.13795125761926175
1757088708667276000,5.411276123046875,-0.11188158133924007,-0.10368746122866869,0.10179565613269806
1757088708677322000,5.421322021484375,-0.22082535566091535,-0.2380687514066696,0.07691139024496078
1757088708687368000,5.431367919921875,-0.17083412104547022,-0.2990858224272728,-0.25922552120387554
1757088708697415000,5.441414794921875,-0.1875268971711397,-0.22325755124390123,-0.3655594052881002
1757088708707460900,5.4514609375,-0.03340659503936767,-0.27621552671045063,-0.5130225876182317
1757088708717507800,5.4615078125,0.048288522350788114,-0.321679931551218,-0.43474049354195593
1757088708727553800,5.4715537109375,0.11939970188438892,-0.3834019359707832,-0.42489772944152354
1757088708737601000,5.48160107421875,0.06043021104335784,-0.28759353755414485,-0.25849954501688477
1757088708747647000,5.49164697265625,0.0312619842261076,-0.19035189146399498,-0.10539105027616023
1757088708757694000,5.50169384765625,0.007782324439287185,-0.15996961268186569,-0.011355506750941276
1757088708767740000,5.511739990234375,0.017109540233016012,-0.13189122692793606,0.0733984136879444
1757088708777787000,5.521786865234375,-0.01880757632255554,-0.018570844957232473,0.04813596213757992
1757088708787833000,5.5318330078125,-0.0786187786847353,0.0881976311519742,-0.02651215935051441
1757088708797879000,5.541879150390625,-0.0943038390725851,0.23725422015339134,-0.11368892302215099
1757088708807926000,5.551926025390625,-0.10493161607086658,0.3576829728245735,-0.260227976244688
1757088708817972000,5.561971923828125,-0.05797814171612262,0.4478533653542399,-0.37807869512140746
1757088708828019000,5.57201904296875,0.025032149925827977,0.49735973906219005,-0.4433154296636581
1757088708838065000,5.58206494140625,0.11513678374290466,0.5261842670083046,-0.45850540001094336
1757088708848111900,5.59211181640625,0.13571604591310024,0.5406134821161628,-0.4279015874326229
1757088708858157800,5.60215771484375,0.10147416909337043,0.5475029493689537,-0.40312545809447764
1757088708868204800,5.612204833984375,0.039347675526142115,0.5229194199934601,-0.35327860038578507
1757088708878250800,5.622250732421875,-0.011148001480102539,0.4328925275877118,-0.2661146961957216
1757088708888298000,5.632298095703125,-0.055417351317405696,0.3228171188876033,-0.20298457854390142
1757088708898344000,5.642343994140625,-0.12318038946688174,0.18261574425399302,-0.11652794584035872
1757088708908391000,5.652390869140625,-0.1931868226289749,0.08948007217794657,-0.05332359390854835
1757088708918437000,5.66243701171875,-0.22706512683331964,0.009054536332190036,-0.00029985972940921784
1757088708928483000,5.672483154296875,-0.2808803036510944,-0.0771761786609888,0.05811082818508148
1757088708938530000,5.682530029296875,-0.28297172297239304,-0.12751666510552168,0.15055471860468386
1757088708948576000,5.692575927734375,-0.2800292397797107,-0.1481178468465805,0.22829028471410273
1757088708958623000,5.702623046875,-0.29890929681658746,-0.11532266170382499,0.25821429833471776
1757088708968669000,5.7126689453125,-0.31681144873201844,-0.0816100694552064,0.26771277904212476
1757088708978716000,5.7227158203125,-0.28545360291600225,-0.040080081453919406,0.20964871260821819
1757088708988761900,5.732761962890625,-0.24524668021202087,-0.03393412604480982,0.08640811738669872
1757088708998808800,5.742808837890625,-0.20777765803933143,-0.05178863942623138,-0.004940379011631012
1757088709008854800,5.752854736328125,-0.14874679239988325,-0.13072744384557008,-0.04636719889938831
1757088709018901800,5.76290185546875,-0.08383329846262931,-0.214548467348516,-0.04789806172847748
1757088709028947700,5.77294775390625,0.013314824125170707,-0.28465485375374555,-0.07089198382496834
1757088709038995000,5.782994873046875,0.06968903777599335,-0.3563759818792343,-0.1478390299052
1757088709049041200,5.793041259765625,0.08480594288706779,-0.3605567746952176,-0.25356851835548877
1757088709059087000,5.803087158203125,0.10085457589030265,-0.3434653546407819,-0.29099311686456203
1757088709069134000,5.813134033203125,0.05627952110469341,-0.3628095220580697,-0.2753986573696136
1757088709079180000,5.823179931640625,0.005230301868915557,-0.33770869081020355,-0.183710553753376
1757088709089227000,5.83322705078125,-0.03847206173539162,-0.2919800820752978,-0.09301087665259837
1757088709099273000,5.84327294921875,-0.05745441010296344,-0.19454495923966167,0.016370120042562483
1757088709109320000,5.85331982421875,-0.017764789271354674,-0.05259206476360559,0.12558394347727297
1757088709119366000,5.863365966796875,0.023947861820459364,0.031056817042827603,0.17793313939571379
1757088709129412900,5.873412841796875,0.06726736358702183,0.08457914839386939,0.1849357116341591
1757088709139458800,5.883458740234375,0.08822188881039619,0.10148585953116417,0.0864350053936243
1757088709149505000,5.893505126953125,0.034276948133110996,0.13721183742880821,-0.002687047126889229
1757088709159551700,5.9035517578125,0.01243453415930271,0.19065905771702527,-0.06679857703149318
1757088709169598000,5.913597900390625,0.03093991266489029,0.23148294327557087,-0.13004559906125068
1757088709179645000,5.92364501953125,0.002389525485038757,0.24288258142918348,-0.14798925203084945
1757088709189691000,5.93369091796875,0.0008563245683908462,0.18688538439720867,-0.13406477157473565
1757088709199738000,5.943738037109375,-0.015473463463783263,0.11932020690739154,-0.10976795018613338
1757088709209784000,5.9537841796875,-0.05043605577349662,0.06653992609530687,-0.08798632648885249
1757088709219831000,5.9638310546875,-0.09349018460214137,0.024026187753677368,-0.07639525741636753
1757088709229877000,5.973876953125,-0.16349954037368297,-0.05956219603717327,-0.06352291636168957
1757088709239924000,5.983924072265625,-0.219934544301033,-0.09792173730880022,-0.06376783103346824
1757088709249970000,5.993969970703125,-0.24996201829612252,-0.13017623970359563,-0.06986030268967151
1757088709260017000,6.004016845703125,-0.26454583944380283,-0.13855711455792188,-0.07801204496324061
1757088709270062800,6.014062744140625,-0.24668401953876018,-0.1274944532737136,-0.07287643564045429
1757088709280109000,6.024109130859375,-0.224013338047266,-0.11430763944238424,-0.07164952419400215
1757088709290155800,6.03415576171875,-0.1662999847471714,-0.10617577091306447,-0.06699906803965568
1757088709300202000,6.044201904296875,-0.1344149001866579,-0.14813567476421594,-0.08322247308790683
1757088709310249000,6.0542490234375,-0.10455284588634967,-0.15109861622303725,-0.07492576938569545
1757088709320295000,6.064294921875,-0.07662614356279372,-0.1587587755873799,-0.10509060602486132
1757088709330342000,6.074341796875,-0.07217617841660975,-0.16058599101454019,-0.12278759075701236
1757088709340387800,6.084387939453125,-0.06762801359295845,-0.17084785730987787,-0.14464344873428345
1757088709350435000,6.09443505859375,-0.05629413415193557,-0.12844430134445428,-0.15209785639345644
1757088709360481000,6.10448095703125,-0.01834872663915157,-0.12154314365386962,-0.13537994582653046
1757088709370528000,6.114528076171875,0.04106792344748974,-0.07742021654993295,-0.1258358724117279
1757088709380574000,6.124573974609375,0.06442424911558628,-0.046262569481134413,-0.09145254129469395
1757088709390620000,6.134619873046875,0.08778875809013843,0.007471943315863609,-0.04066811047494411
1757088709400667000,6.1446669921875,0.11201719041764735,0.09676555301100015,0.04111643876433372
1757088709410712800,6.154712890625,0.19169862989783287,0.19884645582586527,0.12594108635187148
1757088709420759800,6.164759765625,0.15609364803135395,0.37157062840163707,0.31439620428383347
1757088709430806000,6.174805908203125,-0.08534662563502789,0.5193184728920459,0.47119887736737726
1757088709440853000,6.18485302734375,-0.13052724509835242,0.4709627305239439,0.5162573317557573
1757088709450899000,6.19489892578125,-0.21847265505492686,0.38341245736479757,0.4372328948795795
1757088709460945400,6.2049453125,-0.288587224766612,0.2381207738548517,0.16757833411991596
1757088709470991400,6.214991455078125,-0.2502384971499443,0.019850363373756407,-0.17935002045631407
1757088709481038300,6.225038330078125,-0.15600012452900408,-0.10196166034936904,-0.38302550387382506
1757088709491084300,6.235084228515625,-0.08233166172802447,-0.13389438344389198,-0.47843642740547654
1757088709501130200,6.245130126953125,-0.036300562915205954,-0.07504910350441932,-0.4871919807910919
1757088709511177200,6.25517724609375,-0.03814122234582901,0.0040308629512786865,-0.40605099015235896
1757088709521223400,6.265223388671875,-0.054446460458636284,0.05111819281876087,-0.3096341044485569
1757088709531270100,6.275270263671875,-0.036706221106648444,0.036010347796976566,-0.25247195529043676
1757088709541316400,6.28531640625,0.004774959316849708,-0.008480828097462654,-0.21940964364409446
1757088709551363600,6.295363525390625,0.008992869272828101,-0.035923838557302946,-0.22139117285013196
1757088709561409300,6.3054091796875,-0.02708206819295883,-0.07379618083387612,-0.198746210321784
1757088709571456500,6.31545654296875,-0.028206103786826132,-0.07473141585737467,-0.16117723490595817
1757088709581502500,6.32550244140625,-0.05403086539506912,-0.03988192853331566,-0.08419745559990406
1757088709591549400,6.335549560546875,-0.09151508513689041,0.00670242024809122,-0.04732932192981243
1757088709601595400,6.345595458984375,-0.09974281525611876,-0.037605508033931256,-0.013999883779883385
1757088709611642400,6.355642333984375,-0.08761106343567371,-0.11355652881413697,-0.0006388824254274368
1757088709621688300,6.365688232421875,-0.13830781597197056,-0.1618532344713807,0.015957447588443755
1757088709631734300,6.375734375,-0.18557284049391745,-0.2147086263462901,0.06929916167557239
1757088709641781200,6.38578125,-0.12186521521508693,-0.2278188678100705,0.09702420394718646
1757088709651827500,6.395827392578125,-0.10282383013665676,-0.22118103723078966,0.06946107423901557
1757088709661874200,6.405874267578125,-0.14462591307759284,-0.18969138172864913,0.0751285984814167
1757088709671920400,6.41592041015625,-0.17865853106081483,-0.15425561894923448,0.08410627018511295
1757088709681967400,6.42596728515625,-0.1386193661391735,-0.08969225362390279,0.10198679479062557
1757088709692013300,6.436013427734375,-0.10283318248689174,-0.04727525365501642,0.08456687343418598
1757088709702060500,6.446060546875,-0.1085299328237772,-0.011749474504590034,0.052147535866498944
1757088709712106500,6.4561064453125,-0.0960334393441677,0.023342589403688906,0.046941199395060536
1757088709722152200,6.466152099609375,-0.08946399782598018,0.028380291309952736,0.019231354692578313
1757088709732199400,6.476199462890625,-0.09694646253585815,0.04055822035968303,-0.01580780998468399
1757088709742245400,6.486245361328125,-0.0538140077739954,0.05148322673887014,-0.055253685188293454
1757088709752292400,6.496292236328125,-0.05424480040669441,0.057954176318645474,-0.0818254657715559
1757088709762338300,6.50633837890625,-0.03216214793622493,0.08538491181880235,-0.10521978536248207
1757088709772385300,6.51638525390625,-0.022445056042075157,0.09552548982203006,-0.12987374962568282
1757088709782431500,6.526431396484375,-0.05050912100970745,0.10159428834170102,-0.1300567049771547
1757088709792478200,6.536478271484375,-0.04682312597334384,0.11135025094151496,-0.11098960093557834
1757088709802524400,6.5465244140625,-0.05251812274456024,0.116232762286067,-0.08557400465011596
1757088709812571400,6.5565712890625,-0.04841653264462947,0.0878486715838313,-0.07350830380320549
1757088709822617300,6.566617431640625,-0.06919920843243599,0.07818418665975332,-0.07642915968596935
1757088709832663300,6.576663330078125,-0.11550327896773814,0.0536459577307105,-0.0828144768089056
1757088709842710300,6.586710205078125,-0.10535831705033778,0.023245558770000934,-0.06111234808862209
1757088709852756200,6.596756103515625,-0.12164251237511634,0.007076514257490635,-0.04592296226322651
1757088709862803500,6.606803466796875,-0.11202303563654423,-0.009969020828604697,-0.038922728112339974
1757088709872849400,6.616849365234375,-0.0855816034346819,-0.011202362015843391,-0.03137888860404491
1757088709882896400,6.626896484375,-0.07405716985762119,0.007577449516952038,-0.00009176993668079376
1757088709892942300,6.6369423828125,-0.07872866879999638,0.035602059257030486,-0.008833879318833351
1757088709902989300,6.6469892578125,-0.06402443614304065,0.024373978278040883,-0.020509704065322876
1757088709913035500,6.657035400390625,-0.03828443020880222,-0.006949088485538959,-0.02683773804306984
1757088709923082200,6.667082275390625,-0.011501637223362922,-0.0035299276918172836,-0.023682488882541656
1757088709933128400,6.67712841796875,-0.023171032229065892,0.00783960758447647,-0.027385435053706168
1757088709943174400,6.68717431640625,-0.054932198148965834,0.01593202088624239,-0.04964636670053005
1757088709953221400,6.697221435546875,-0.07784136457145213,0.012544132013618946,-0.06066401979923248
1757088709963267300,6.707267333984375,-0.06120002637207508,-0.019020926812291145,-0.09151859226822853
1757088709973314300,6.717314208984375,-0.04212181641459465,-0.05230886390805244,-0.11262801579236983
1757088709983360300,6.7273603515625,-0.04858136781752109,-0.0951949426934123,-0.13819909490048884
1757088709993407200,6.7374072265625,-0.07320552146434783,-0.06673778675496578,-0.14691840792894362
1757088710003453200,6.747453125,-0.0589724134504795,-0.031074644960463044,-0.14193828142881393
1757088710013500400,6.75750048828125,-0.0093371526658535,-0.0019338906720280647,-0.09563830254673958
1757088710023546400,6.76754638671875,-0.009392097723484039,-0.0012070377022027968,-0.11271510955393314
1757088710033592600,6.777592529296875,-0.034850948628783227,0.03750789287835359,-0.056987377113103865
1757088710043639300,6.787639404296875,-0.012775894942879677,0.030065175656974315,0.0035784430086612698
1757088710053685500,6.797685546875,-0.007866495591402053,0.022342180189490315,0.03008183453083038
1757088710063732500,6.807732421875,-0.04718026884794235,0.010702303539216518,0.05092296250760555
1757088710073778400,6.8177783203125,-0.09347849416434764,0.011514204443991184,0.04873275898694992
1757088710083825400,6.827825439453125,-0.13892974726259708,-0.012041443188488482,-0.014447627547383308
1757088710093871400,6.837871337890625,-0.15417933884263038,-0.046858197286725044,-0.05622457604706287
1757088710103918300,6.84791845703125,-0.12380524336695671,-0.05829436805844307,-0.09026128568351269
1757088710113964300,6.85796435546875,-0.12342471961677073,-0.06169014797657728,-0.12157061618268489
1757088710124011300,6.86801123046875,-0.12428513583838939,-0.04803454758971929,-0.1633235992848873
1757088710134057200,6.87805712890625,-0.07864391312599181,-0.04327916975617409,-0.18754443282783032
1757088710144103200,6.888103271484375,-0.05766717607080936,-0.03253974907696247,-0.15283143136501312
1757088710154150100,6.898150146484375,-0.044264673662185665,-0.029882512566447257,-0.11762392438352107
1757088710164196400,6.9081962890625,-0.059253568479418754,0.005312427194416523,-0.10360416685938835
1757088710174243300,6.918243408203125,-0.05427051936984062,0.007217968554794788,-0.06336567997336387
1757088710184289500,6.92828955078125,-0.05237433035969734,-0.00371960504502058,-0.03332826910614967
1757088710194336500,6.93833642578125,-0.06318681627511978,0.013225392276048659,-0.028008535388112068
1757088710204382500,6.948382568359375,-0.06345218921303748,-0.018288813145458698,-0.040295770031213755
1757088710214429400,6.958429443359375,-0.03978372885584831,-0.011863456273078919,-0.07119418164193629
1757088710224475400,6.968475341796875,-0.054827568730711936,-0.017035890474915504,-0.07758709754943847
1757088710234521300,6.978521240234375,-0.03729658821523189,0.009937748907506466,-0.08097323285639285
1757088710244568300,6.988568359375,-0.03586626315116882,0.008077215732634067,-0.09959960739314555
1757088710254614300,6.9986142578125,-0.049693712973594664,0.018376491428911686,-0.09496668689548969
1757088710264661200,7.0086611328125,-0.045189387291669846,0.02767711147665977,-0.07359715113043784
1757088710274707200,7.018707275390625,-0.020660510712862012,0.043732758742570876,-0.08394201953411101
1757088710284754200,7.028754150390625,-0.03447860818505287,0.07390139477401972,-0.07718962266445159
1757088710294800400,7.03880029296875,-0.05454758274555206,0.07854717475324868,-0.059931029349565505
1757088710304847400,7.048847412109375,-0.07902502139806747,0.05988455985933542,-0.05274725532531738
1757088710314893300,7.058893310546875,-0.08154431074261664,0.052017772006988525,-0.04365852446258068
1757088710324939300,7.068939208984375,-0.08724865986406803,0.05499123485982418,-0.058503626894950866
1757088710334986500,7.078986572265625,-0.07511807708740234,0.0538943795338273,-0.06354220558404922
1757088710345032400,7.089032470703125,-0.06381459278464317,0.06354015975743532,-0.053534021788835526
1757088710355079400,7.099079345703125,-0.06876432414650917,0.06174538529515266,-0.03608019816279411
1757088710365125400,7.10912548828125,-0.06355564958751202,0.041085459104180336,-0.031073768177628514
1757088710375172400,7.11917236328125,-0.07326046652197837,0.03698912970125675,-0.03475742512643337
1757088710385218300,7.12921826171875,-0.07166355271935462,-0.006319558410346508,-0.04615151032209396
1757088710395265300,7.139265380859375,-0.075128013959527,-0.03462093926519155,-0.06853986774086952
1757088710405311200,7.149311279296875,-0.10705459957420825,-0.0740153765425086,-0.07874269732534885
1757088710415357400,7.159357421875,-0.14080372444093225,-0.06338555371761322,-0.07302256611287593
1757088710425404400,7.169404296875,-0.12911504021286963,-0.07743599864095449,-0.06454816775619983
1757088710435450400,7.179450439453125,-0.10153086771667003,-0.08425999944210052,-0.0785100576132536
1757088710445497300,7.189497314453125,-0.060550622552633285,-0.08296616023927926,-0.045205753904581064
1757088710455543300,7.199543212890625,-0.030305706414580344,-0.07330196757614613,-0.0214192201256752
1757088710465590800,7.2095908203125,-0.01643091031908989,-0.07615911057293415,-0.0015828852772712706
1757088710475636500,7.219636474609375,-0.0030810148805379867,-0.08142828314751387,0.0180512049973011
1757088710485683700,7.22968359375,-0.008846154278516769,-0.092892218708992,0.022236381727457045
1757088710495729700,7.239729736328125,-0.02346446221768856,-0.10104220741689204,-0.006940612918138503
1757088710505775600,7.249775634765625,-0.04608195221722126,-0.11790274132490157,-0.02964928833246231
1757088710515822600,7.259822509765625,-0.058732759475708,-0.105760760371387,-0.0646323389083147
1757088710525868500,7.26986865234375,-0.09644202014505862,-0.09626987844854593,-0.07985913413465022
1757088710535915500,7.27991552734375,-0.09473287813961505,-0.08001607826203107,-0.0961947673857212
1757088710545961700,7.289961669921875,-0.10475976663529872,-0.06654109513908624,-0.09853110137879847
1757088710556008700,7.3000087890625,-0.11451719053983687,-0.06037380468100309,-0.08950666792392731
1757088710566054700,7.3100546875,-0.1172784719467163,-0.0505634815454483,-0.06754676505029202
1757088710576101600,7.3201015625,-0.10963701728284359,-0.04085632652342319,-0.051828971436619756
1757088710586147600,7.330147705078125,-0.10870704295635222,-0.018492519024014473,-0.030420272704958912
1757088710596193500,7.340193603515625,-0.08966741144359111,0.00025952771902084347,0.0034130233138799666
1757088710606240500,7.350240478515625,-0.10107143351137637,0.021717034028470514,-0.008612345522642135
1757088710616286500,7.360286376953125,-0.0688894118309021,0.008902268379926682,0.008569090902805328
1757088710626333700,7.370333740234375,-0.06659457889199256,0.029962299804389476,0.013453355813026428
1757088710636379600,7.380379638671875,-0.08851414975523948,0.025838790133595465,0.0013654431343078613
1757088710646426600,7.390426513671875,-0.1000420904636383,0.025627485470473766,-0.006174889242649078
1757088710656472600,7.40047265625,-0.11341419773399829,0.01890957539230585,-0.008468553137779236
1757088710666519600,7.41051953125,-0.10556056162416934,0.03431757240444422,-0.01423486157953739
1757088710676565800,7.420565673828125,-0.09749591311216353,0.015404197619855403,-0.03274959243535995
1757088710686611700,7.43061181640625,-0.0917336963236332,0.0007391279295086861,-0.025592706418037414
1757088710696658700,7.44065869140625,-0.09882862302064895,-0.001964285810291767,-0.01829261253774166
1757088710706704600,7.45070458984375,-0.08388473638892173,0.00043254619836807247,-0.04060030593574047
1757088710716751600,7.460751708984375,-0.08782616749107837,0.005204290644824505,-0.04794657704532146
1757088710726797600,7.470797607421875,-0.08096914120316505,0.005769815573096275,-0.05327507859170436
1757088710736844500,7.480844482421875,-0.05602408503890037,-0.005181494291126728,-0.04751695345640182
1757088710746890500,7.490890380859375,-0.0501975708425045,-0.00535392824858427,-0.0386164386421442
1757088710756937500,7.5009375,-0.0528378562182188,0.004084346704185009,-0.03944295259416103
1757088710766983400,7.5109833984375,-0.046585225564241405,0.017298633064329622,-0.05784311715960502
1757088710777029600,7.521029541015625,-0.037416415202617646,0.02196720939725637,-0.026852351090312
1757088710787076600,7.53107666015625,-0.05211538716256618,0.014454349549114703,-0.036329204487800595
1757088710797122800,7.541122802734375,-0.03925415202379227,0.003158464030921459,-0.025010522615909574
1757088710807169800,7.551169677734375,-0.039541736793518065,0.003190612734854221,-0.012429857984185218
1757088710817215700,7.5612158203125,-0.06972703169882297,-0.02650251473933458,-0.011502221745252608
1757088710827262700,7.5712626953125,-0.08938800998032093,-0.03307458660602569,-0.04365677089691162
1757088710837308700,7.58130859375,-0.07741232550442219,-0.05095277312397956,-0.05440320583879947
1757088710847355600,7.591355712890625,-0.08752981489300728,-0.04003507326841354,-0.06453121662139892
1757088710857401600,7.601401611328125,-0.09649228902757168,-0.045561727735400195,-0.07510989378094672
1757088710867447600,7.611447509765625,-0.08654489550888537,-0.040623686811327935,-0.09387129287421703
1757088710877494500,7.62149462890625,-0.07953530900776386,-0.026710312271118163,-0.09851648833155631
1757088710887540500,7.63154052734375,-0.0815203453451395,-0.02577975342273712,-0.09035364014208316
1757088710897587500,7.64158740234375,-0.05774608652591705,-0.02141220586299896,-0.0825660550057888
1757088710907633700,7.651633544921875,-0.02566694069802761,-0.022879648067057133,-0.08040273949205876
1757088710917680400,7.661680419921875,-0.018909867653250693,-0.02057867764830589,-0.09019465018808841
1757088710927726600,7.6717265625,-0.024617723906040192,-0.039111820943653584,-0.09137889153659343
1757088710937773800,7.68177392578125,-0.02500117026567459,-0.026864041528105734,-0.09169161074757576
1757088710947819800,7.69181982421875,-0.026840076130628585,-0.0210749367326498,-0.08197393433153628
1757088710957865700,7.70186572265625,-0.028289105895161627,-0.010844050097465514,-0.08266951538026332
1757088710967912700,7.71191259765625,-0.043240591311454774,-0.004297697193920612,-0.08599427588880061
1757088710977958700,7.721958740234375,-0.03968143752515316,0.0021942951738834378,-0.07517009953558444
1757088710988005600,7.732005615234375,-0.047505847540497775,-0.018254910875856876,-0.06621873131692409
1757088710998051600,7.742051513671875,-0.052120063337683674,-0.05267419008910656,-0.07765314852297306
1757088711008098600,7.7520986328125,-0.06733692169189452,-0.11770166579484939,-0.09132160839140414
1757088711018144500,7.76214453125,-0.06032382805943489,-0.16849164957255125,-0.08753799819946288
1757088711028191500,7.77219140625,-0.07522387554943562,-0.17228139724433422,-0.07282032153904437
1757088711038237700,7.78223779296875,-0.07243336804807186,-0.17387684974223375,0.013346972829103469
1757088711048283600,7.79228369140625,-0.04430091401934624,-0.13988894768357277,0.10596797338128089
1757088711058330600,7.80233056640625,-0.058278001445531843,-0.10146978517919779,0.1542483124256134
1757088711068376600,7.81237646484375,-0.06394494116604328,-0.06348229209035634,0.23269115002155302
1757088711078423600,7.822423583984375,-0.069874331215024,-0.044720892997086044,0.24556816725134847
1757088711088469500,7.832469482421875,-0.09241466432511806,-0.06404810927957295,0.196594000723958
1757088711098516700,7.842516845703125,-0.10908347505331038,-0.05252309118062257,0.10843699384331702
1757088711108562700,7.852562744140625,-0.11516659435927867,-0.03725011872500181,0.007407645907998085
1757088711118609700,7.862609619140625,-0.11984569208621978,-0.06190788238048553,-0.03028057197332382
1757088711128655600,7.872655517578125,-0.15060031131207943,-0.07971621853262185,-0.038982349345088
1757088711138701600,7.88270166015625,-0.1876449705928564,-0.05217997683137655,-0.12429741079807281
1757088711148748500,7.89274853515625,-0.148866619387269,0.002571604053676128,-0.20651684432327747
1757088711158794800,7.902794677734375,-0.08146423124372959,0.03534779223501682,-0.2554062551766634
1757088711168841700,7.912841796875,0.005367079991102218,0.04706014959961176,-0.24844226138293743
1757088711178887700,7.9228876953125,-0.015659925946593285,0.1067214220970869,-0.22820786712765692
1757088711188934700,7.9329345703125,-0.06331599561274051,0.17499620916098355,-0.19606910006701944
1757088711198980600,7.942980712890625,-0.09057049776315688,0.19134470189362762,-0.19646540590822695
1757088711209027600,7.953027587890625,-0.09110650433599948,0.163715813472867,-0.21758067465126513
1757088711219073500,7.963073486328125,-0.09221475783884525,0.11269815841913222,-0.1927554454743862
1757088711229119500,7.973119384765625,-0.054253568235039705,0.05111614699214696,-0.1442307762801647
1757088711239166500,7.98316650390625,-0.03606149346232414,0.015008768561482429,-0.09364508290290832
1757088711249212400,7.99321240234375,-0.011828969481587409,0.017883739475905894,-0.04376140031516552
1757088711259259600,8.003259765625,-0.019010405418276786,0.055799044111371036,-0.005866846206784248
1757088711269305600,8.0133056640625,-0.025875030490756033,0.08317337324917316,0.03605097206830978
1757088711279352600,8.0233525390625,-0.003976502415537834,0.10027794504612683,0.05353285274505615
1757088711289398800,8.033398681640625,0.007019523373246192,0.0947284942254424,0.04199263707697391
1757088711299445500,8.043445556640625,-0.018847908332943916,0.08448094871640205,0.006669394761323929
1757088711309491700,8.05349169921875,-0.05462824676632881,0.06719663643836975,-0.008988777619600296
1757088711319537700,8.06353759765625,-0.06778817259073257,0.02542640994042158,-0.04372106830477714
1757088711329584600,8.073584716796875,-0.08038286574780941,-0.023280045561492442,-0.07454407659173011
1757088711339630600,8.083630615234375,-0.07091127304732799,-0.046562136949598786,-0.07587678650021552
1757088711349677600,8.093677490234375,-0.07605097402334213,-0.09950988328307867,-0.06736147161126137
1757088711359723500,8.1037236328125,-0.08606675660312176,-0.12441285387128591,-0.05449088412225246
1757088711369770500,8.1137705078125,-0.091650109693408,-0.12599077071249484,-0.027505262041091917
1757088711379816400,8.12381640625,-0.09019874184131622,-0.11478782417476177,-0.020839958932995794
1757088711389863400,8.133863525390625,-0.09169687144458294,-0.08626052560955286,-0.010817162090539931
1757088711399909400,8.143909423828125,-0.08347381750047206,-0.05237900653481483,-0.037978725260496136
1757088711409955600,8.15395556640625,-0.08372340834736823,0.0004071194961667061,-0.06071838033497333
1757088711420002800,8.1640029296875,-0.07784779431223869,0.028337036690115926,-0.07590075189769267
1757088711430048800,8.174048828125,-0.03931669586598873,0.030436054795980452,-0.10788871231079102
1757088711440095700,8.184095703125,-0.016431494840979576,0.021852935367822644,-0.1237140579521656
1757088711450141700,8.1941416015625,-0.031655367457866665,0.011789514254033564,-0.13377777132689952
1757088711460188700,8.204188720703126,-0.04308861562013626,-0.006746259389817715,-0.12262684723734855
1757088711470234600,8.214234619140624,-0.03415419853627682,-0.033954292050004005,-0.12044248893558979
1757088711480281600,8.224281494140625,-0.04368658151328563,-0.05250497100204229,-0.11718494844436644
1757088711490327600,8.23432763671875,-0.04566109645664692,-0.04458236130923032,-0.10653320604860782
1757088711500373500,8.24437353515625,-0.06584639087319373,-0.028365386001765726,-0.12434651063680648
1757088711510420500,8.25442041015625,-0.07917524352371692,-0.02398644026517868,-0.10837503452301024
1757088711520466700,8.264466796875,-0.06161036073863506,-0.014821429295837879,-0.10362053347229958
1757088711530513400,8.274513427734375,-0.07370704124569892,-0.014738427187502384,-0.09319792365729808
1757088711540559600,8.2845595703125,-0.08132803764343262,-0.007398585818707943,-0.08133096025288104
1757088711550606600,8.294606689453126,-0.043917467659711835,-0.018162556417286396,-0.07143442013859748
1757088711560652500,8.304652587890626,-0.023130115696787832,-0.02251198379844427,-0.07861176442205906
1757088711570699500,8.314699462890625,-0.029435353320837018,-0.0074658058360219,-0.06199556066393852
1757088711580745500,8.324745361328125,-0.002117138284444809,0.009593465514481068,-0.07218611528873443
1757088711590791400,8.33479150390625,0.010715455281734466,0.011460136169195174,-0.05986088672280311
1757088711600838700,8.344838623046876,-0.011810849303007125,0.03159545396417379,-0.06291501359641552
1757088711610884600,8.354884521484376,-0.024456395864486693,0.019368717336654663,-0.06607493893206119
1757088711620931600,8.364931640625,-0.0387953023403883,0.0032847207590937615,-0.07684007857441902
1757088711630977500,8.3749775390625,-0.05934533841609955,0.0034942718565464017,-0.09633739072680472
1757088711641024500,8.3850244140625,-0.046751814302802085,0.01810615005493164,-0.11396657091975211
1757088711651070700,8.39507080078125,-0.04204758213460445,0.021968086180090902,-0.11230886684060096
1757088711661116700,8.40511669921875,-0.04851473232209682,0.035301907266676424,-0.10477964037954807
1757088711671163600,8.41516357421875,-0.04364098880589008,0.041761166408658026,-0.07535130132138729
1757088711681209600,8.425209716796875,-0.05593699127733707,0.040561142969131464,-0.060065469384193416
1757088711691256600,8.435256591796875,-0.06484627391994,0.012801906166970729,-0.041592239582538604
1757088711701302500,8.445302490234376,-0.07390694773197173,0.0017114800930023192,-0.034573300731182095
1757088711711349500,8.455349609375,-0.05719137525260448,-0.02034223854392767,-0.04522679669260978
1757088711721395500,8.4653955078125,-0.07581774978935718,-0.011343524052202701,-0.05014379482865333
1757088711731442400,8.4754423828125,-0.07239537412524223,-0.002359130346775055,-0.04683598545491695
1757088711741488400,8.48548828125,-0.051878071275353425,0.0031812603846192358,-0.008514730367064476
1757088711751534300,8.495534423828126,-0.06814999164044856,0.009124386698007582,0.019902385821938512
1757088711761581600,8.50558154296875,-0.10633037695288658,0.01665127507150173,0.023764906468987462
1757088711771627800,8.515627685546875,-0.11600012257397174,-0.0006032265901565551,0.013116671204566955
1757088711781674500,8.525674560546875,-0.11440788494646549,-0.013459201031923293,-0.0023714053064584732
1757088711791720700,8.535720703125,-0.12449497919678687,-0.040217736358940596,-0.020011106893420217
1757088711801767700,8.545767578125,-0.13249065412580965,-0.06160948395580053,-0.020997779843211172
1757088711811813600,8.555813720703124,-0.12774784351289273,-0.06036971302777529,-0.019200375032424926
1757088711821860600,8.565860595703125,-0.11219897672533988,-0.05953647707402706,-0.004787234276533127
1757088711831906600,8.575906494140625,-0.09788812730014324,-0.059195116290450094,-0.006816109755635261
1757088711841953500,8.58595361328125,-0.08009060480296612,-0.07252396894097328,-0.005032148948311805
1757088711851999500,8.59599951171875,-0.08959025455415248,-0.07164981645494699,-0.03219137403070926
1757088711862045400,8.60604541015625,-0.08628536778986454,-0.07563128730654715,-0.06035246963202953
1757088711872092400,8.616092529296875,-0.06753332104682921,-0.07524345703274012,-0.09902911402881145
1757088711882138400,8.626138427734375,-0.07517477571070194,-0.0705865711376071,-0.12338789473772048
1757088711892185300,8.636185302734376,-0.07531447644233703,-0.0897395998969674,-0.11049509541690349
1757088711902231600,8.6462314453125,-0.08862579343616962,-0.08718874637037514,-0.08021569248735905
1757088711912278500,8.656278564453125,-0.04392214383482933,-0.09930676192641258,-0.047865913024544716
1757088711922324700,8.66632470703125,-0.00433656789958477,-0.08757277725189924,-0.01670797369480133
1757088711932371700,8.676371826171875,0.006679916155338287,-0.1004018636867404,-0.02855038717985153
1757088711942417700,8.686417724609376,-0.022930793732404708,-0.08430676119327545,-0.0049731122374534606
1757088711952463600,8.696463623046874,-0.05829612162411212,-0.07490794146806001,0.017143442502617835
1757088711962510600,8.706510498046875,-0.019921090522408483,-0.028043022179603576,0.11422259150743484
1757088711972556500,8.716556640625,0.051034021666646,0.0686734309926629,0.2179880864083767
1757088711982603500,8.726603515625,0.20120997008681296,0.14472323597222567,0.1886597005933523
1757088711992649500,8.7366494140625,0.2589998957544565,0.1736065083682537,-0.052039399316906924
1757088712002696400,8.746696533203124,0.18369827879369258,0.09850596693754196,-0.2684504456669092
1757088712012742400,8.756742431640625,-0.008062310424447059,-0.03721183254122734,-0.3756540983229875
1757088712022789400,8.766789306640625,-0.11151099446117878,-0.1921019500017166,-0.2849257796496153
1757088712032835600,8.776835693359375,-0.14660276610851286,-0.2598199799656868,-0.1331815589994192
1757088712042881500,8.786881591796876,-0.19008651852607725,-0.23747809203714132,0.044669162809848784
1757088712052928500,8.796928466796874,-0.07068564759790896,-0.1832435207635164,0.14995967532098292
1757088712062974500,8.806974365234375,0.1262754328727722,-0.16271686556339263,0.06523439645469188
1757088712073021700,8.817021728515625,0.30159809750914574,-0.12869243088662624,-0.013619944551587104
1757088712083067600,8.827067626953125,0.4058008147835731,-0.046881578162312504,-0.04779401683211326
1757088712093114600,8.837114501953126,0.3906967691540718,0.02036182002723217,-0.10080430700778961
1757088712103160600,8.84716064453125,0.23837153374552725,0.050314475220441815,-0.1286205346941948
1757088712113206500,8.85720654296875,-0.0060655836492776866,0.05186345822811127,-0.07595218982398509
1757088712123253500,8.86725341796875,-0.2528080553770065,-0.0198442258939147,-0.04460018922686577
1757088712133299700,8.8772998046875,-0.3846346926361322,-0.11978460954874753,-0.05178162516355514
1757088712143346400,8.887346435546876,-0.4599012382835149,-0.2332026066750288,-0.08336100477576255
1757088712153392600,8.897392578125,-0.4769914892941713,-0.3200385940849781,-0.1256745443701744
1757088712163439600,8.907439697265625,-0.4279395813554525,-0.39682840377688405,-0.0645931759417057
1757088712173485600,8.917485595703125,-0.29232641129493714,-0.4721522325694561,0.013626374292373657
1757088712183532500,8.927532470703126,-0.18289280762970447,-0.45747167304903263,0.08397650632560252
1757088712193578500,8.93757861328125,-0.12261924845278262,-0.38997897627353667,0.08910685495138168
1757088712203624400,8.94762451171875,-0.1102677164018154,-0.2902405449315905,0.11977554945945738
1757088712213671400,8.95767138671875,-0.10098667783737182,-0.1357961254119873,0.15974281818866728
1757088712223717400,8.96771728515625,-0.08794073378145695,0.0006581716477870941,0.1910392892062664
1757088712233764600,8.9777646484375,-0.09775719439685344,0.05481412472724914,0.1651321100115776
1757088712243810600,8.987810546875,-0.09115034347772598,0.10599135425686836,0.16068156034350395
1757088712253857500,8.997857421875,-0.0809539436340332,0.19540742128789423,0.11157646091282367
1757088712263903700,9.00790380859375,-0.0033060558080673214,0.06591653349995613,0.08536065416038036
1757088712273950500,9.017950439453125,0.07453355519771576,-0.1584486867249012,0.03492693647444248
1757088712283996700,9.02799658203125,0.08819733889102935,-0.03439765190333128,-0.07779694090783595
1757088712294042600,9.038042724609374,0.11768529918193817,0.009516016364097594,-0.11812310607731341
1757088712304089600,9.048089599609375,0.0745189421504736,0.03320698081403971,-0.17062544673085211
1757088712314135600,9.058135498046875,0.012644962039589881,0.11668898162096739,-0.21800153041183948
1757088712324182500,9.0681826171875,-0.07003799734413624,0.07501753932237624,-0.23015490954220294
1757088712334228500,9.078228515625,-0.13047697621583937,-0.07840688949972391,-0.26311609890162946
1757088712344275500,9.088275390625,-0.0967524012684822,-0.3154474669024348,-0.2878875520646572
1757088712354321400,9.0983212890625,-0.13642857809662817,-0.47716859942674633,-0.26077859586477276
1757088712364368600,9.10836865234375,-0.10924889474809168,-0.5338458876773715,-0.19807459467053412
1757088712374414300,9.118414306640625,0.01675765805542469,-0.5127919937327504,-0.07556932798624039
1757088712384460500,9.12846044921875,0.06093582247793674,-0.45236441303789615,0.06696691933572292
1757088712394507500,9.138507568359374,0.21820786663889882,-0.5389622077777981,0.18777181184291838
1757088712404553700,9.1485537109375,0.307524564948678,-0.6235714590489864,0.33115093972980975
1757088712414600700,9.1586005859375,0.3067050652593374,-0.43850422998964783,0.3708382224738598
1757088712424646700,9.168646728515625,0.2843336589753628,-0.2816884051635861,0.35255730037391186
1757088712434693600,9.178693603515624,0.24589900664091108,-0.3110249742850661,0.39212300256490706
1757088712444739600,9.188739501953124,0.29339550183117385,-0.4465612797170877,0.4133744649082422
1757088712454786600,9.19878662109375,0.46441140918433665,-0.5204623822301626,0.44087095912098884
1757088712464832500,9.20883251953125,0.73680796212852,-0.31939152835309503,0.7426958511233329
1757088712474878500,9.21887841796875,1.0247457830756903,0.0460343136832118,1.1371084259301423
1757088712484925400,9.228925537109374,1.3691700458765028,0.03340191886425018,1.7217706008702516
1757088712494971400,9.238971435546874,1.5718302147716283,-0.0012070377022027968,2.5284908881366253
1757088712505018400,9.249018310546875,1.384315592560172,0.12651947076171635,2.964064909893274
1757088712515064600,9.259064697265625,0.6019231063425541,-0.3862327754825353,3.098852735045552
1757088712525111600,9.269111572265626,0.33883214188218114,-0.8582812554165721,2.4982547398269177
1757088712535157500,9.279157470703124,1.3622107282578944,-1.5832590790197252,1.5281266821235417
1757088712545204500,9.28920458984375,2.4156442611575124,-2.003309076169133,1.0910738199859857
1757088712555250400,9.29925048828125,2.220976260060072,-1.154220304250717,0.5865501806437969
1757088712565297400,9.30929736328125,1.8017016311973333,-0.6507116871699691,0.7912018156170845
1757088712575343400,9.31934326171875,1.3280179512768984,-0.034467210008203984,1.7138035675138235
1757088712585389300,9.329389404296874,1.2742536278635264,0.8437289984509349,2.575601598879695
1757088712595436300,9.339436279296875,1.465376503700018,1.426371358001232,2.897112603604793
1757088712605482200,9.349482177734375,2.1381109298467633,1.607812213256955,2.8254122260063883
1757088712615529500,9.359529541015625,2.4391519779950377,1.2480720156416296,2.475027008974552
1757088712625575400,9.369575439453126,1.681371954986453,0.5714847134590149,1.6203467006593941
1757088712635622400,9.379622314453124,1.2607406508177519,0.21124241154044865,0.6021808804959058
1757088712645668600,9.389668701171875,1.2592536271303891,0.5330217118129134,-0.1470282980442047
1757088712655715600,9.399715576171875,1.3202479017972946,0.9669684246286749,-0.5236445193976164
1757088712665761500,9.409761474609375,1.3446072670280933,1.4910095421284437,-0.7349334004282951
1757088712675807500,9.419807373046876,1.437041220575571,1.74441439435482,-0.6308943492829799
1757088712685854500,9.4298544921875,1.4021774124652147,1.6058195781350135,-0.4245528615266084
1757088712695900400,9.439900390625,1.269140230372548,1.2548790653079747,-0.16399930658936498
1757088712705947400,9.449947509765625,1.2332137614667416,0.8147165467172861,0.1624520771473646
1757088712715993300,9.459993408203125,1.1310445958465336,0.5662631794184446,0.43415947878360744
1757088712726040300,9.470040283203126,0.8286223224729299,0.49528293278813357,0.6361380951553582
1757088712736086300,9.480086181640624,0.5984539689272642,0.3877098622977733,0.8360136017680168
1757088712746133200,9.49013330078125,0.4400999747484922,0.3354927683264017,1.0944231304138898
1757088712756179500,9.500179443359375,0.15945114176571368,0.3433879054903984,1.3012217142879963
1757088712766225400,9.510225341796875,-0.09650456398725508,-0.09453764782845973,1.2120663440197705
1757088712776272600,9.520272705078124,-0.29354397039115426,-0.3186509391188621,1.02985625795722
1757088712786318600,9.530318603515624,-0.22511165467798708,-0.2927636336684227,0.8416904783606529
1757088712796365600,9.540365478515625,-0.15846914499104023,-0.4037836297422647,0.668147682878375
1757088712806411500,9.55041162109375,-0.0705272421658039,-0.21344459775984287,0.5335170941144227
1757088712816458500,9.56045849609375,-0.18747604376673696,-0.5462520725250244,0.26576778245419264
1757088712826504400,9.57050439453125,-0.11249386801868677,-0.6299088453769683,0.0746925451517105
1757088712836551400,9.580551513671875,-0.18541151245236395,-0.869135534647107,-0.1856535045146942
1757088712846597400,9.590597412109375,0.027717443487048146,-0.7734002014666795,-0.3224535462722182
1757088712856643300,9.600643310546875,0.0014940379500389099,-0.8246072416126727,-0.485351029099524
1757088712866690300,9.610690185546876,-0.0005868599772453308,-0.9723287826180458,-0.6217629483222961
1757088712876736500,9.620736572265624,-0.06825052940547466,-1.1389601912766694,-0.5772980759128928
1757088712886783500,9.630783447265625,0.12339900065362452,-1.1637269682645797,-0.3438970240563154
1757088712896829400,9.640829345703125,0.04095861785411835,-1.2270523162275553,-0.01791734948456287
1757088712906876400,9.65087646484375,-0.17557225548326968,-1.3652093255519866,0.22155483897924422
1757088712916922400,9.66092236328125,-0.19480653278529642,-1.4055834215164185,0.597460281714797
1757088712926969600,9.670969482421874,-0.11839110936373472,-1.5796604700058698,0.948266062246263
1757088712937015600,9.681015625,-0.1771884585082531,-1.2282833193272351,0.9939180986136198
1757088712947062500,9.6910625,-0.24031214641928672,-0.6747369981408119,1.1490750503167508
1757088712957108500,9.7011083984375,-0.13897680127471684,-0.16288988404273985,1.1975082418352365
1757088712967154400,9.711154541015626,-0.2179328490898013,0.1525058526724577,1.2986705685004591
1757088712977201400,9.721201416015624,-0.28151567894518376,-0.6965344039291143,1.247163084103167
1757088712987247400,9.731247314453125,-0.4170224660217762,-1.700844132697582,0.8387275369018315
1757088712997294300,9.74129443359375,-0.3484001806944608,-1.9257161334007977,0.7676029133647679
1757088713007340500,9.751340576171875,0.013729542405903338,-2.032789437675476,0.38459582193046804
1757088713017387300,9.76138720703125,0.019264087918400764,-2.1379285590171815,0.2666755449488759
1757088713027433500,9.77143359375,-0.013559446536004542,-2.3112661873161793,0.0002446224108338356
1757088713037480400,9.78148046875,0.25660627861618995,-2.310205280086398,-0.2540574709162116
1757088713047526400,9.7915263671875,0.33052871617823837,-2.171336907622218,-0.271804140008986
1757088713057572400,9.801572265625,0.24478724600672722,-2.0191309146791694,-0.060704644070565694
1757088713067619300,9.811619384765624,0.28127880144938827,-1.8821569776594638,0.22438158683776854
1757088713077665300,9.821665283203124,0.22980448866933584,-1.7479045745581387,0.615034224589169
1757088713087712500,9.83171240234375,-0.04951718736290931,-1.5517103868067263,1.1663897577330469
1757088713097758500,9.841758544921875,-0.19342881469130516,-1.4632365690618752,1.5587071138262747
1757088713107805400,9.851805419921876,-0.28692060672864317,-1.4990391193270682,1.7139345004171131
1757088713117851400,9.861851318359374,-0.03260331583246588,-1.5695920804560184,1.4762228918850422
1757088713127898400,9.8718984375,0.3245686387300491,-1.7522785518586634,0.6705342857539653
1757088713137944600,9.881944580078125,0.2835433853805065,-1.952066380187869,0.226620597936213
1757088713147991300,9.8919912109375,0.3142180712379515,-2.172562650024891,-0.38502982943356034
1757088713158037500,9.90203759765625,0.2528009680490941,-2.397025485405326,-0.9623501171782612
1757088713168084500,9.91208447265625,0.060384618335962294,-2.679911283659935,-1.202275894628465
1757088713178130400,9.92213037109375,0.04839139820337295,-2.665399358704686,-1.5313351227760315
1757088713188176400,9.93217626953125,-0.037921442115306854,-2.3886872806489468,-1.5668094640001653
1757088713198223400,9.942223388671875,-0.12846753608956932,-1.9029034130901097,-0.9667606270968914
1757088713208269300,9.952269287109376,-0.3279086698729545,-1.7094056248158216,-0.6250900469183921
1757088713218316300,9.96231640625,-0.5139807651259005,-1.7320009029835461,-0.34425855084508655
1757088713228362200,9.9723623046875,-0.5858452472448349,-1.8378361898958682,-0.47486470639854667
1757088713238409500,9.982409423828125,-0.654700683740899,-1.7777660443365573,-0.5925201949641108
1757088713248455400,9.992455322265625,-0.6440390775382518,-1.5032915160745381,-0.5560488055266439
1757088713258502400,10.00250244140625,-0.6951765595793724,-1.0528525181412696,-0.5773638346254826
1757088713268548600,10.012548583984374,-0.5110568405032158,-0.5995259820729494,-1.031391212439537
1757088713278595300,10.02259521484375,-0.5180839626610279,-0.4285363782048225,-1.7001850842669606
1757088713288641500,10.0326416015625,-0.8289841415226459,-0.3321551483362913,-2.1341842579223216
1757088713298687500,10.0426875,-0.9451403314411639,-0.21868366745710371,-2.5398124926179646
1757088713308734500,10.052734375,-0.8125228360652923,-0.18372282871305942,-2.80420460280478
1757088713318780400,10.062780517578124,-0.3949450742483139,-0.19027005839943884,-2.59370073467195
1757088713328827400,10.072827392578125,-0.1292085637152195,-0.06582359451949596,-2.1285734323032197
1757088713338873300,10.082873291015625,0.2425654783040285,0.16283376994132995,-1.4746296313442289
1757088713348920300,10.09292041015625,0.2615349671900272,0.14205927745997904,-0.981726141038537
1757088713358966300,10.10296630859375,0.08554244046807288,-0.03955108914375305,-0.70540583877936
1757088713369013500,10.113013427734375,-0.17224166802214458,-0.04796177461445331,-0.6687899263046682
1757088713379059500,10.1230595703125,-0.5033300456434489,0.1660854652136564,-0.8715811742335557
1757088713389106400,10.1331064453125,-0.5139893868237734,0.5956991172611713,-1.1238136216796935
1757088713399152600,10.143152587890626,-0.1719336432525888,1.032545643171668,-1.30550392165184
1757088713409199400,10.153199462890624,0.11128186188042163,1.414261818012595,-1.2915284416608512
1757088713419245600,10.16324560546875,0.5243646868983284,1.5294553003787994,-0.8814996339187026
1757088713429291500,10.17329150390625,0.6125421155124903,1.3551742537498472,-0.40845732064172624
1757088713439338500,10.18333837890625,0.3887877206623554,0.9387579369276762,0.05633183581382036
1757088713449384400,10.193384521484376,0.16120759351160377,0.4835124154955148,0.36915523782297965
1757088713459431400,10.203431396484374,-0.05685644420981407,-0.16527824048399925,0.6349900941640139
1757088713469478000,10.213477783203125,-0.3455131905486807,-0.7348778708487749,0.6720160487443209
1757088713479524900,10.22352490234375,-0.529622424763441,-1.1357587648868561,0.5404657442085444
1757088713489570800,10.23357080078125,-0.6850438726216554,-1.2618062342226504,0.354007060790807
1757088713499617800,10.24361767578125,-0.7175842062205076,-1.0674480297267437,0.06011120822206139
1757088713509663700,10.253663818359374,-0.6966063001215458,-0.7991220872223377,-0.08366451776698232
1757088713519711000,10.2637109375,-0.7504634894501417,-0.4725444467574358,-0.20785086940601466
1757088713529757000,10.2737568359375,-0.7318447867631912,-0.16438567555844782,-0.32880160012468695
1757088713539804000,10.283803955078126,-0.6682599110811949,0.09390928679704666,-0.4713900160253048
1757088713549850000,10.29385009765625,-0.6752192286998033,0.18801789555847645,-0.6213011760294437
1757088713559896800,10.303896728515625,-0.8890133705496788,0.16408815391659737,-0.7113726382292807
1757088713569943000,10.313943115234375,-0.917320012101531,0.06623509792983531,-0.6992221817083656
1757088713579989000,10.323989013671875,-0.932560835853219,-0.06675532241165638,-0.6311493469573557
1757088713590036000,10.334035888671876,-0.9742401691973209,-0.23886837735176086,-0.6299803031779825
1757088713600082000,10.34408203125,-0.9369891736894845,-0.3194435508012771,-0.6531228399649261
1757088713610129000,10.35412890625,-0.8340069381207227,-0.2669032162249088,-0.7645584311023355
1757088713620174800,10.3641748046875,-0.9376490989029407,-0.22168577188253402,-0.8974481675483286
1757088713630221800,10.374221923828125,-1.0299971277326345,-0.13797756110429762,-0.9371427568159997
1757088713640267800,10.384267822265626,-0.906663666595891,-0.03774140937328339,-0.9950107161559164
1757088713650315000,10.39431494140625,-0.7353145087003707,0.09635200377404689,-0.9739959851779043
1757088713660361000,10.40436083984375,-0.5933925573518499,0.23750761039257048,-1.0232916387446225
1757088713670408000,10.414407958984375,-0.49224747408237307,0.32242285887300964,-1.0305084382556378
1757088713680454000,10.424453857421875,-0.5782102223217487,0.4097217876195907,-0.7974551769234239
1757088713690500900,10.4345009765625,-0.43249417591989037,0.32917174861133097,-0.5646800018802285
1757088713700547000,10.444547119140625,-0.2568681078901514,0.025801380732655525,-0.494117542270571
1757088713710593000,10.454593017578125,-0.45934360440075395,-0.28947686708271503,-0.4058344247922301
1757088713720640000,10.464639892578125,-0.5908715509742498,-0.6734510499835014,-0.42959626252129673
1757088713730686000,10.47468603515625,-0.89103223609142,-0.9876754048317671,-0.47967517542019483
1757088713740733000,10.48473291015625,-0.8611082955360412,-1.6338362968295812,-0.7084305934280156
1757088713750779000,10.49477880859375,-0.8062655292361974,-1.9626807131826876,-0.9198635591045021
1757088713760825900,10.504825927734375,-1.1206921286582947,-2.123202699050307,-1.2788421246975659
1757088713770871800,10.514871826171875,-1.177544481214881,-1.7480062813669441,-1.3812369157671927
1757088713780918800,10.524918701171876,-1.482409471565485,-0.7339724464416504,-1.4425816113069652
1757088713790964700,10.53496484375,-0.6575923865944147,0.18232172974348068,-1.1637091403469442
1757088713801012000,10.545011962890625,0.2784715072100051,0.7718313447147608,-0.05706774887293577
1757088713811058000,10.555057861328125,1.4687971257984638,1.8149854756623505,1.3674042052477597
1757088713821105000,10.56510498046875,2.5566625051319596,2.085121682459116,2.1575956747785208
1757088713831151000,10.575151123046876,2.1909067004889247,2.5022774194717408,2.411967618471384
1757088713841197000,10.585197021484374,0.9515034367322921,2.298338316681981,1.9090251108407974
1757088713851244000,10.595244140625,-0.10034195019304752,1.8455284979641438,1.413357270388305
1757088713861290000,10.6052900390625,-0.6184533853828906,1.7147364644497631,0.682321754181385
1757088713871337000,10.6153369140625,-0.40343412218485025,1.1707722106009721,0.002059270617365837
1757088713881383000,10.6253828125,-0.1495943856725469,0.25362697054445743,0.0721069125726819
1757088713891430000,10.635429931640624,-0.0011620295166969298,-0.30739070943593977,0.03194675161987543
1757088713901475800,10.645475830078125,0.03650394000019878,-0.6251929227709769,-0.08269114269018173
1757088713911522800,10.655522705078125,-0.06995035559330136,-0.7486158888220786,-0.13957447490692138
1757088713921568800,10.66556884765625,-0.21400164712071418,-0.7048094803214072,-0.24166852946430442
1757088713931615700,10.67561572265625,-0.2196808252682909,-0.4204202917665243,-0.35666268986612554
1757088713941662000,10.685661865234374,-0.1610450964262709,-0.10248539196252822,-0.5365083848848938
1757088713951709000,10.695708984375,-0.22376612182054667,0.09263210646808147,-0.6428814319357276
1757088713961755100,10.705755126953125,-0.33381635954678057,0.24352643229067325,-0.6695210170581937
1757088713971801000,10.715801025390626,-0.43281854903604833,0.3279904298722744,-0.7184951835855842
1757088713981848000,10.72584814453125,-0.4961380883127451,0.32728140482008455,-0.720574912469089
1757088713991894000,10.73589404296875,-0.48943712936937805,0.3065069123387337,-0.6738152071207761
1757088714001941000,10.74594091796875,-0.433856075390242,0.2725625571608543,-0.6258326819792389
1757088714011987000,10.755987060546875,-0.36445582796037196,0.2919651767671108,-0.5017638192400335
1757088714022034000,10.766033935546876,-0.23785014021992681,0.28336276811659333,-0.3476505313709378
1757088714032080000,10.776079833984374,-0.12190145557224749,0.2830442036867142,-0.20351327859312296
1757088714042126800,10.786126953125,-0.06663487436976283,0.31427403920888897,-0.10473609349876642
1757088714052172800,10.7961728515625,-0.06154135062303394,0.29992928751409054,-0.09140490276068448
1757088714062219800,10.8062197265625,-0.12282258900515734,0.27516835574507714,-0.15470657758712766
1757088714072266000,10.816265869140626,-0.22760168139543382,0.2116600524306297,-0.25831834323108194
1757088714082312700,10.826312744140624,-0.3648182315319776,0.19008593400418758,-0.5660226486608386
1757088714092359000,10.83635888671875,-0.5195809232205152,0.1781687017172575,-0.5810729182764888
1757088714102406100,10.84640625,-0.5252502375612035,0.10941139183342456,-0.3835883984535932
1757088714112452000,10.8564521484375,-0.41318928106706587,0.015216858354210853,-0.2665478269159794
1757088714122498000,10.866498046875,-0.30039456693828104,-0.03326221813261509,-0.10932634389847516
1757088714132545000,10.876544921875,-0.2221791448900476,-0.02177870108783245,-0.05322013353407383
1757088714142591000,10.886591064453125,-0.22185937488377094,0.014657470905780791,-0.04029021707326173
1757088714152638000,10.896637939453125,-0.26666593687031415,0.04468085324764252,-0.049477147613465784
1757088714162684000,10.906683837890625,-0.26975042234957214,0.032194881162047384,-0.06086538759022951
1757088714172731000,10.91673095703125,-0.2632633984178305,0.009775544083118438,-0.04976064072996378
1757088714182776800,10.92677685546875,-0.2600906501332298,-0.008658522751927375,-0.07109890457391739
1757088714192823800,10.93682373046875,-0.25742932196948676,-0.04520516938269138,-0.08316314411610365
1757088714202870000,10.9468701171875,-0.2562579035699367,-0.06883797390460968,-0.11243892296105623
1757088714212916700,10.956916748046876,-0.22403788796663282,-0.08311725914776324,-0.10900924077332019
1757088714222963000,10.966962890625,-0.17573358352482318,-0.059899465167522425,-0.10793518180102109
1757088714233010000,10.977010009765625,-0.09621113399863243,-0.03474631921052933,-0.10552870518118143
1757088714243055900,10.987055908203125,-0.0298632233440876,-0.03516483688354492,-0.07097118654102087
1757088714253103000,10.99710302734375,-0.027720950618386267,0.0007703998506069183,-0.05416968934386968
1757088714263149000,11.007149169921876,-0.03522332560513168,-0.002928454667329788,-0.044433308227360246
1757088714273195000,11.017195068359374,-0.08063015503976494,0.016503391033411027,-0.046863750244677066
1757088714283242000,11.027241943359375,-0.06924889279305935,0.0355664034217596,-0.0223886496797204
1757088714293288000,11.037287841796875,-0.04255494713485241,0.025997780087590214,-0.02462678399533033
1757088714303335000,11.0473349609375,-0.023691877765394744,0.040761633977293966,0.010060790765285491
1757088714313380900,11.057380859375,-0.028586627537012098,0.03388531846702099,0.04792056582123041
1757088714323427800,11.067427734375,-0.022146986410953102,0.027263854500651358,0.04441372674405575
1757088714333474000,11.07747412109375,-0.037231669752858576,0.03460661847889423,0.03861906899064779
1757088714343520800,11.087520751953125,-0.07731642738189548,0.023971827217936514,0.022727672375738618
1757088714353567000,11.09756689453125,-0.0918897271355614,0.027237551015615463,-0.010165712444484233
1757088714363614000,11.107614013671874,-0.08527586195375769,-0.02584288178682327,-0.03136719816625118
1757088714373660000,11.117659912109374,-0.09180033181905746,-0.0786269619911909,-0.06903437325954437
1757088714383707100,11.12770703125,-0.07849537150077521,-0.07386836928725242,-0.07579583021849394
1757088714393753000,11.137753173828125,-0.05939089459087699,-0.046237435039877886,-0.100175069193542
1757088714403800000,11.147800048828126,-0.04230184915661812,-0.011674655702710151,-0.08965776683241128
1757088714413846000,11.157845947265624,-0.05212002680506557,0.006168459501862526,-0.05945668983608484
1757088714423893000,11.16789306640625,-0.054120297244191165,0.03457096264362335,-0.04254471800178289
1757088714433939000,11.17793896484375,-0.07164371550772339,0.037168577921390535,-0.05453063161075115
1757088714443985000,11.18798486328125,-0.0838473269879818,0.03320727307498455,-0.06959229940325021
1757088714454032000,11.198031982421876,-0.09549564267303794,0.022826748836040495,-0.10119155275970697
1757088714464077800,11.208077880859374,-0.08353395018987357,0.002756605231761932,-0.11583762548863887
1757088714474124500,11.21812451171875,-0.08189674090947956,-0.006504559588432312,-0.09768003750741482
1757088714484170800,11.228170654296875,-0.06651099226176738,-0.013960136291384696,-0.103491061873734
1757088714494217700,11.2382177734375,-0.061850672300532455,0.0077174425095319745,-0.08227204049527645
1757088714504263700,11.248263671875,-0.051694531401991844,0.00923953751027584,-0.06397562856525182
1757088714514310700,11.258310546875,-0.03868362212684005,0.013915128105878829,-0.03280366071015596
1757088714524356600,11.268356689453125,-0.046779286831617355,0.04379530258476734,0.009503449143469333
1757088714534403800,11.27840380859375,-0.06864683524668216,0.03874035728275776,0.004408756352961063
1757088714544449500,11.288449462890625,-0.09592128420658409,0.05537234313189983,-0.004592880748212337
1757088714554496800,11.298496826171874,-0.09115268156528472,0.03901917422413826,-0.03329436683654785
1757088714564542700,11.308542724609374,-0.07210727789886295,0.007369651985168457,-0.03805442084521055
1757088714574589700,11.318589599609375,-0.03351473158895969,-0.03785188401043415,-0.03211889331638813
1757088714584635600,11.3286357421875,-0.03854520003683865,-0.06342179407477379,-0.010553834979236126
1757088714594682600,11.3386826171875,-0.0647936669498682,-0.07566226696670054,0.02845452558994293
1757088714604728600,11.348728515625,-0.05892561516668647,-0.051748307415843006,0.022217677026987074
1757088714614775600,11.358775634765625,-0.060063715818524356,-0.031472996628284455,0.016785715106129646
1757088714624821800,11.36882177734375,-0.05125727249588817,-0.010272387689352035,0.000391045144200325
1757088714634867700,11.37886767578125,-0.06928337958455086,-0.016349077254533766,-0.03680822017639875
1757088714644914700,11.388914794921876,-0.07598959922492504,-0.0020867431461811066,-0.07659253355413675
1757088714654960600,11.398960693359374,-0.10687453029956669,-0.00684182871878147,-0.07216010406464338
1757088714665007600,11.409007568359375,-0.12440258820559828,-0.02101005480289459,-0.05651274533867836
1757088714675053600,11.419053466796875,-0.10841006930377334,-0.0006558335602283477,-0.042158933554589745
1757088714685100800,11.429100830078125,-0.0898556640246883,-0.013968904119729996,-0.03558540038317442
1757088714695146800,11.439146728515626,-0.08417644934449345,-0.011430325552821159,-0.016437047798931598
1757088714705193700,11.44919384765625,-0.0836339764982462,-0.014785481199622154,-0.06196721135228872
1757088714715239700,11.45923974609375,-0.09425532375574111,-0.022814473876357075,-0.0800716078415513
1757088714725286700,11.46928662109375,-0.09761574009954929,-0.01367547413110733,-0.08707125747054814
1757088714735332600,11.47933251953125,-0.07701251253187656,-0.02406885785162449,-0.07894903355240822
1757088714745379600,11.489379638671876,-0.08489942985679953,-0.01912614075243473,-0.06350771879255772
1757088714755425800,11.49942578125,-0.09539981761574745,-0.019075871869921684,-0.06404167953878641
1757088714765472800,11.50947265625,-0.07629877477195113,-0.00525543631017208,-0.06503478222936392
1757088714775518700,11.519518798828125,-0.08292144431471825,0.02233107427358627,-0.0621358459174633
1757088714785565700,11.529565673828126,-0.06393321419563144,0.039380408751964566,-0.07881547030061482
1757088714795611600,11.539611572265626,-0.05473353377170861,0.03850479496121406,-0.06769026517421006
1757088714805658600,11.54965869140625,-0.04869472853150218,0.028729250878095625,-0.08374386661350726
1757088714815704600,11.55970458984375,-0.05260050379838794,0.0026151509344577786,-0.07631254756897687
1757088714825750500,11.56975048828125,-0.07963650435991584,-0.016748305705189703,-0.061948506651818745
1757088714835797800,11.5797978515625,-0.07740764932930469,-0.03440086677372455,-0.04763444235622882
1757088714845843700,11.58984375,-0.06274488119389861,-0.030159575942158696,-0.043354573079943656
1757088714855890700,11.599890625,-0.06339673269875347,-0.04033025682270527,-0.026303777296841142
1757088714865936600,11.6099365234375,-0.04563479297161102,-0.04865618661940097,0.00019026187509298324
1757088714875983600,11.619983642578125,-0.0354489145219326,-0.04639116429686546,-0.00779518392086029
1757088714886029800,11.63002978515625,-0.05396477788891643,-0.05645955384671688,-0.005885550907254219
1757088714896076800,11.640076904296874,-0.04880578769054263,-0.05512625941634178,-0.02065115836262703
1757088714906122800,11.650122802734375,-0.015362404304742812,-0.05156476754248142,-0.025518472138047216
1757088714916169700,11.660169677734375,-0.010398059895634651,-0.02792027258276939,-0.03914338512569666
1757088714926215700,11.670215576171875,-0.031918913764879105,-0.03091536274552345,-0.05227583842128515
1757088714936262700,11.6802626953125,-0.0416881011724472,-0.04692717086970806,-0.06526976002901792
1757088714946308600,11.69030859375,-0.0609375760436058,-0.028768413844704625,-0.07016308502852917
1757088714956355600,11.70035546875,-0.06854392286147921,-0.023176292926073074,-0.055035366262495514
1757088714966401500,11.710401611328125,-0.06997194637060165,-0.03340484147369861,-0.04730857140272855
1757088714976448800,11.72044873046875,-0.0546720859080553,-0.017473697370290756,-0.03410363739281892
1757088714986494700,11.73049462890625,-0.03181790107581764,-0.038812837997078894,-0.012685294049978256
1757088714996541700,11.740541748046875,-0.028304887986183164,-0.023996377137303352,-0.0014499065473675726
1757088715006587600,11.750587646484375,-0.031233890642784534,-0.03671440441310406,-0.005588321526348591
1757088715016633900,11.7606337890625,-0.034626492223143575,-0.04027823437452316,0.0012827332869172095
1757088715026680800,11.770680908203126,-0.044200924243591726,-0.032495909935235975,-0.0017976970717310905
1757088715036726800,11.780726806640626,-0.03972060049176216,-0.03496200778782368,-0.019124094925820827
1757088715046773800,11.790773681640625,-0.03861059342324733,-0.020877952855825423,-0.017965572540462015
1757088715056819700,11.80081982421875,-0.011079612419009208,0.026247955456376076,-0.03261076848655939
1757088715066866700,11.81086669921875,-0.012336919003725052,0.045697921335697174,-0.021838614581525324
1757088715076912600,11.82091259765625,-0.016010639080405235,0.040350715088844295,-0.0031719080343842504
1757088715086959600,11.830959716796874,-0.024157157189585266,0.0152671272367239,0.0038400165542960166
1757088715097005600,11.841005615234375,-0.04567165438327938,-0.0022018939584493636,0.0024055998370051384
1757088715107052800,11.851052734375,-0.05358666529152542,-0.030692075383663177,-0.007314122405648231
1757088715117098500,11.861098388671875,-0.04153207036051899,-0.04832242462038994,-0.051313423129916186
1757088715127145700,11.871145751953126,-0.04454933582246303,-0.07168576455116271,-0.08490618839114904
1757088715137191700,11.881191650390624,-0.045368250989913934,-0.06382862130999564,-0.1079176461443305
1757088715147238700,11.89123876953125,-0.022128793167136607,-0.03731237030625343,-0.10868073947131633
1757088715157284900,11.901284912109375,0.0014765022933483122,-0.010611410385370255,-0.1092003794312477
1757088715167331600,11.91133154296875,0.02179740578830242,0.0229746328741312,-0.077651394957304
1757088715177377800,11.921377685546876,0.050336687052249904,0.05005144037008285,-0.05186345822811127
1757088715187423700,11.931423828125,0.07980944977402686,0.047236382949352264,-0.05343406854569912
1757088715197470700,11.941470703125,0.04946403240356594,0.03434592171609401,-0.061306993877887725
1757088715207516700,11.9515166015625,0.01341185475885868,0.014642857858538626,-0.07488251476585865
1757088715217563600,11.961563720703126,-0.003974200860597193,-0.008851414975523948,-0.08889496576637029
1757088715227609600,11.971609619140626,-0.030867395417951044,-0.001925415104627609,-0.10309007985740899
1757088715237656600,11.981656494140625,-0.0324818814098835,-0.003039513826370239,-0.09182312817275523
1757088715247702500,11.99170263671875,-0.021745419872738418,0.012129413732886314,-0.07647621369808912
1757088715257749800,12.001749755859375,-0.05324994415044784,0.05127601372897625,-0.07927285867929458
1757088715267795700,12.011795654296876,-0.05775547540877014,0.053012043741345403,-0.0956762964695692
1757088715277842700,12.0218427734375,-0.01585223364830017,0.0496615642696619,-0.11389379794448613
1757088715287888600,12.031888671875,0.0184218284079805,0.04476151726841926,-0.09219868348687886
1757088715297935600,12.041935546875,0.049490335888601834,0.014942717587947844,-0.09385404947847127
1757088715307981800,12.05198193359375,0.0702227427938953,-0.003440495842695236,-0.06420066949278116
1757088715318028800,12.06202880859375,0.07060381453335285,0.0004804769933223724,-0.0004471592456102371
1757088715328074800,12.07207470703125,0.036682255709171295,-0.021755320212244987,0.015627777242660523
1757088715338121700,12.082121826171875,-0.013133622339367866,-0.029980712243914603,0.031930092746019365
1757088715348167700,12.092167724609375,-0.02925411500241607,-0.040025720918178555,0.052226738582551474
1757088715358214700,12.102214599609376,-0.01979596630539745,-0.04333703742325306,0.029191607692837712
1757088715368260600,12.112260498046876,-0.025182335518859324,-0.016050386568903924,-0.002526303607225418
1757088715378306600,12.122306640625,-0.041172516333125526,0.0039344168394804,-0.014826397731900214
1757088715388353500,12.132353515625,-0.03910330884363502,0.0004161795854568481,-0.05866495493650436
1757088715398399500,12.1423994140625,-0.03021744360923767,-0.005209259080886841,-0.082263564927876
1757088715408446700,12.15244677734375,-0.013134170328639446,0.004415478354692459,-0.08638269068449735
1757088715418492700,12.16249267578125,-0.016408698487281798,-0.021919570863246918,-0.0920557678848505
1757088715428539600,12.17253955078125,0.008673099266551434,-0.010411503899097441,-0.0797597654134035
1757088715438585900,12.1825859375,0.01891691844854504,-0.02099310366809368,-0.05353489857167005
1757088715448632800,12.1926328125,-0.018972411495447157,-0.030490415331721303,-0.022752806816995142
1757088715458678800,12.2026787109375,-0.02957856118381023,-0.011297054561972617,-0.004956745624542236
1757088715468725500,12.2127255859375,-0.03629354865252971,-0.02501519879102707,0.006600421178340912
1757088715478771500,12.222771484375,-0.03431961823105812,-0.00670505059659481,0.00698737466931343
1757088715488818700,12.232818603515625,-0.021185411369800566,-0.0029196868389844894,0.013626082031428814
1757088715498864600,12.24286474609375,-0.020106420494057236,0.00604454086124897,0.017249825486540794
1757088715508911600,12.25291162109375,-0.02017941266503185,0.021777532044053076,-0.011937982814013957
1757088715518957600,12.26295751953125,-0.027616321200132368,0.015442483803629874,-0.03210223444253206
1757088715529004500,12.273004638671875,-0.029982429276965556,-0.012847791135311126,-0.0696536742016673
1757088715539050500,12.283050537109375,-0.05106204218473285,-0.05791968952715396,-0.0788213155195117
1757088715549097500,12.293097412109375,-0.06746489545311779,-0.0486725532323122,-0.08585691324472428
1757088715559143400,12.303143310546876,-0.0709113095799461,-0.045368250989913934,-0.07246376318633556
1757088715569189600,12.313189697265624,-0.07251812372207642,-0.043318917244672774,-0.03709931207746267
1757088715579236600,12.323236572265625,-0.07279807317461819,-0.03891454480588436,-0.021579379123449323
1757088715589282600,12.333282470703125,-0.07702950019929558,-0.06863222219944,0.014313187512755393
