time,seconds_elapsed,gyro_x,gyro_y,gyro_z,acc_x,acc_y,acc_z,grav_x,grav_y,grav_z
1757088703282386000,0.026385986328125,-0.0184358060359954,0.001552992966026,-0.0070912926457822,0.3160451405346393,0.3495600182540714,-0.0701040483176708,-8.69156109817624,-1.3596138436324894,4.333429017037153
1757088703292432000,0.036431884765625,-0.0723096951842308,0.0437366627156734,-0.0727488622069358,0.3811591254800557,0.321095263531059,0.1015735378146171,-8.693677651938795,-1.3523976286433637,4.331440473568439
1757088703302477800,0.046477783203125,-0.0651409924030304,0.105103351175785,0.0027544142212718,-0.0760807846397161,-0.2611811853162944,0.8671873231887817,-8.690288594022393,-1.3460763166673482,4.340201287651062
1757088703312525000,0.056525146484375,0.0648873075842857,0.1050786301493644,0.027488088235259,-0.0420522583097219,-0.1890983842715621,0.90557229116261,-8.685560396456719,-1.3473803850032389,4.349251147808134
1757088703322571000,0.066571044921875,0.1958991289138794,0.0849965363740921,0.0248270574957132,0.1182633913308382,0.0552693211488425,0.6499424563631415,-8.680826353672146,-1.355470460217446,4.356183577419817
1757088703332618000,0.076617919921875,0.2570332884788513,0.0204007755964994,0.0271004028618335,0.1823988866329193,-0.1814500614754855,0.4512202114388346,-8.678373115301131,-1.367748050249368,4.357234547777474
1757088703342664000,0.086663818359375,0.2685538530349731,0.055604301393032,0.0460248254239559,0.2210264311909675,-0.3012339403718709,0.469847170497477,-8.676448869240284,-1.3824885232634845,4.356414463566243
1757088703352711000,0.0967109375,0.2532667219638824,0.1076942086219787,0.0933600962162017,0.0859533593565225,-0.1240538113005459,0.3179664639860391,-8.671859787884355,-1.3998553992584346,4.360004304751754
1757088703362756900,0.1067568359375,0.1987408995628357,0.1371423751115799,0.1640267968177795,-0.0213601834148168,0.1519536256171763,0.2403168225944042,-8.664653802028297,-1.421029996973276,4.367473909980059
1757088703372803000,0.116802978515625,0.1375419199466705,0.1373500525951385,0.2122916132211685,-0.0422387207925319,0.3013110972613096,0.1084217962741851,-8.655746272951363,-1.444991302797198,4.377264651632308
1757088703382850000,0.12685009765625,0.0913504511117935,0.0311479847878217,0.1977273076772689,-0.00376724357903,0.2700704480841756,-0.0205652336448431,-8.648578281018137,-1.468218741388619,4.383698484072089
1757088703392896000,0.13689599609375,0.0508769862353801,-0.0855820104479789,0.1335819363594055,0.1853238341689109,0.2809273576632142,0.1098848545640707,-8.647629601991175,-1.4856595594026147,4.379692171040177
1757088703402943000,0.14694287109375,0.0460071302950382,-0.1440967321395874,0.0733175277709961,0.3288777341008186,0.19530337639153,0.076112641082704,-8.651122120282054,-1.4967014701597392,4.369021723943948
1757088703412989000,0.156989013671875,0.0732028782367706,-0.1590486764907837,-0.0145537126809358,0.5931845040917396,-0.0060905719600617,0.0443915149122476,-8.657603298994898,-1.5019570526003836,4.354355192948877
1757088703423035000,0.167034912109375,0.1148762926459312,-0.0807381644845008,-0.1123700141906738,0.7650614121884107,-0.1771174390986561,0.0075990768268704,-8.663981601855157,-1.5003200990483163,4.342216426865757
1757088703433081900,0.177081787109375,0.1523267179727554,-0.0065275356173515,-0.1520765870809555,0.7268716745257378,-0.2314686224892735,-0.0954097544878721,-8.66784003084898,-1.494301715541631,4.336588357850909
1757088703443127800,0.1871279296875,0.1866157203912735,0.0508947446942329,-0.1299164146184921,0.5630389566749334,-0.1883734309978783,-0.0945771030560135,-8.669057005423307,-1.4892135986223816,4.335905051761865
1757088703453175800,0.19717578125,0.1973037868738174,0.0976561233401298,-0.0710435211658477,0.231087221956253,-0.1152230007216334,-0.0837730927079915,-8.66720640912056,-1.4887424739792945,4.3397658188432455
1757088703463221800,0.2072216796875,0.1873656660318374,0.0816420018672943,0.001735343132168,-0.0680816025793552,-0.0125773036308586,-0.1949719524800777,-8.663721489614248,-1.4941237286262212,4.344871617549658
1757088703473268700,0.217268798828125,0.1760412156581878,0.0595774836838245,0.0676873177289962,-0.230313314974308,0.0647480742424726,-0.2447574353903532,-8.660105637204646,-1.5051596480339764,4.348269443294406
1757088703483314700,0.227314697265625,0.1560094505548477,0.0052412739023566,0.1199353411793708,-0.2711100202649831,0.1080719599232077,-0.2959469398796558,-8.657166661143302,-1.5206507932849227,4.3487315078482025
1757088703493360600,0.237360595703125,0.1318018436431884,-0.0311233904212713,0.1526349633932113,-0.2215513318479061,0.108034988913685,-0.4602978363856673,-8.655699511200188,-1.539019539798796,4.345189305196702
1757088703503407600,0.24740771484375,0.1015773639082908,-0.0475902967154979,0.1527062356472015,-0.0740694448173046,0.1035847315065562,-0.5673612037882209,-8.655189808112382,-1.5576133272401989,4.339575556968152
1757088703513453800,0.257453857421875,0.0851386785507202,0.024226626381278,0.1230405941605568,0.146080203539133,0.0504233424223959,-0.6479606348961592,-8.653726165300608,-1.57373414869681,4.336677205178141
1757088703523500800,0.267500732421875,0.088357113301754,0.1249982491135597,0.0860767140984535,0.2506108375936746,-0.0401502240806818,-0.6157084705889224,-8.64887171100676,-1.58656016639173,4.341684804207087
1757088703533546800,0.277546630859375,0.1000650376081466,0.2531931102275848,0.0753117054700851,0.358607101932168,-0.1422119838036596,-0.682758099772036,-8.639402456393837,-1.5974747975073753,4.356510909678041
1757088703543592700,0.2875927734375,0.1154863387346267,0.3807081878185272,0.106055237352848,0.1730190638691186,-0.1224433073639869,-0.7141606615126133,-8.624102011409402,-1.60976159375906,4.382227242475748
1757088703553639700,0.2976396484375,0.1236826404929161,0.4821306765079498,0.1655028164386749,-0.1644225004374981,-0.0146954648286104,-0.7132777411982417,-8.60269506624341,-1.6268290484160184,4.417855897478759
1757088703563685600,0.307685546875,0.1124840527772903,0.5429311990737915,0.2167311310768127,-0.3516857782363891,0.0493630197145044,-0.7231959086224437,-8.576591487693786,-1.648839366302639,4.46024542491883
1757088703573732600,0.317732666015625,0.080277532339096,0.5865164995193481,0.2217462807893753,-0.3084241441369056,0.0856666513696312,-0.7821773821622133,-8.547427937051653,-1.672274164034426,4.507255890157818
1757088703583778600,0.327778564453125,0.0072161071002483,0.6239453554153442,0.1991506814956665,-0.1975280667036771,0.3010756810702383,-0.7286649876832961,-8.516318513038755,-1.692406120828539,4.558340180706978
1757088703593824500,0.337824462890625,-0.0690933093428611,0.6795065402984619,0.1711924523115158,-0.2311480122327804,0.5095258315436542,-0.6833592805355787,-8.48314748032093,-1.7067762992255389,4.614488768908381
1757088703603871700,0.347871826171875,-0.1320243328809738,0.747198224067688,0.1577232480049133,-0.4017863184452057,0.4917411685280501,-0.6314993294388055,-8.447183017492295,-1.715926404886693,4.67665267187655
1757088703613918000,0.35791796875,-0.180876538157463,0.8443683981895447,0.1758584082126617,-0.6078484047383069,0.4335651661522686,-0.5658496301814914,-8.406769758561254,-1.72239384733513,4.746574641625583
1757088703623964700,0.367964599609375,-0.2183011472225189,0.9477198123931884,0.2440025806427002,-0.7352116328477859,0.453440810097754,-0.4569628467440605,-8.360210836482047,-1.7301488453760745,4.825333413302898
1757088703634011000,0.378010986328125,-0.2471705824136734,1.065755009651184,0.3523429930210113,-0.8890577942132949,0.4933556179873645,-0.2605494632840156,-8.305873681616783,-1.7435777974002062,4.913530752193927
1757088703644057900,0.388057861328125,-0.2662345767021179,1.1969666481018066,0.4732560813426971,-0.9172522075623272,0.5633905465915798,-0.1167038869291543,-8.242364793780446,-1.76513028851673,5.011798818722367
1757088703654103800,0.398103759765625,-0.2780255675315857,1.383825182914734,0.5758401155471802,-0.7554290759682655,0.5816764371275901,-0.1155436109781265,-8.167461820748448,-1.7946388532042503,5.122717107987404
1757088703664149800,0.408149658203125,-0.3028227686882019,1.5778508186340332,0.6845623254776001,-0.5981716448545455,0.6316378611266613,-0.1909457657039165,-8.078864084362984,-1.830833617657423,5.248846410387754
1757088703674196700,0.41819677734375,-0.3514661192893982,1.762678623199463,0.8136406540870667,-0.5703086554169654,0.7118664130955934,-0.3368383377164602,-7.975644532907008,-1.8738025524206456,5.389651303872466
1757088703684242700,0.42824267578125,-0.4251304864883423,1.9355536699295044,0.9508181810379028,-0.5564344438433647,0.7965707953043282,-0.5330535682559013,-7.857239102756977,-1.922743401200324,5.544117642962933
1757088703694289700,0.43828955078125,-0.4962427616119385,2.080418348312378,1.0637738704681396,-0.4519172537922858,1.040453347556293,-0.6277285787284373,-7.723832502830028,-1.975688371054828,5.710469065636396
1757088703704335600,0.448335693359375,-0.5585170388221741,2.2011983394622803,1.134150743484497,-0.2847784801334142,1.1413418257161974,-0.7135223636090755,-7.576881946197152,-2.029590495503694,5.885746137565374
1757088703714381600,0.458381591796875,-0.6108056902885437,2.299977779388428,1.1712803840637207,-0.0589642301440238,1.0712066516079009,-0.8642173674672842,-7.417977916920185,-2.0814101145900783,6.067266487798094
1757088703724428500,0.468428466796875,-0.6403806209564209,2.420527458190918,1.2002781629562378,0.1644119790434837,1.1118884983472526,-0.8481985450804234,-7.24690881807506,-2.129872970594465,6.254305309191346
1757088703734474800,0.478474853515625,-0.642314076423645,2.523484468460083,1.2438911199569702,0.3482826917946338,1.320962041416019,-0.7759779430001974,-7.062671025577187,-2.1765898597143587,6.446046024665236
1757088703744521700,0.488521728515625,-0.6480633020401001,2.573791265487671,1.306450605392456,0.4460603444576263,1.5919517963021992,-0.8264163368612527,-6.867159559392928,-2.223721759375929,6.638340866890549
1757088703754567700,0.498567626953125,-0.8186548352241516,2.763335704803467,1.4056485891342163,0.5359083731651306,1.5170475080959498,-1.1333254002600908,-6.656684332832693,-2.266731610671431,6.83526570700407
1757088703764615000,0.508614990234375,-1.0878212451934814,2.915006160736084,1.4717508554458618,0.041740708142519,0.5927106029696763,-2.243590827450156,-6.424981024804711,-2.295287258548289,7.044264431270957
1757088703774660900,0.518660888671875,-1.3689775466918943,2.919881820678711,1.379322171211243,0.4355693455815315,0.5612988350093364,-2.795636096423864,-6.181653329956531,-2.298142501848936,7.257829440540075
1757088703784706800,0.528706787109375,-1.719731092453003,2.7807271480560303,1.126383900642395,1.1773252855062484,1.5052540483191608,-2.6916227642416954,-5.941337676405906,-2.2610735849097368,7.467157250630855
1757088703794753800,0.53875390625,-2.107775449752808,2.552663326263428,0.7662442922592163,1.4987889439582824,2.219491282199323,-2.7432588434547185,-5.717371684631705,-2.1711581900544465,7.666036147421598
1757088703804799700,0.5487998046875,-2.4250648021698,2.2715721130371094,0.3594954907894134,1.7773299910068512,2.332653989390284,-2.588428931748867,-5.517222621774673,-2.0257472640790044,7.8502856303572655
1757088703814846700,0.5588466796875,-2.592796802520752,1.97200608253479,-0.0660898983478546,1.8879145182728767,2.002176711138338,-2.04522104922533,-5.345739681431651,-1.8330862188898025,8.014564338409901
1757088703824892700,0.568892578125,-2.63724136352539,1.7644286155700684,-0.4976551234722137,1.874828826728463,1.5445450252220034,-1.2415414448291062,-5.199476522541046,-1.6051479624837637,8.158389456498622
1757088703834939000,0.57893896484375,-2.622037649154663,1.633848786354065,-0.864010751247406,1.7907739944696426,1.1815776822537185,-0.8408803310215472,-5.070530409154296,-1.3520146206751464,8.284452707925439
1757088703844985600,0.588985595703125,-2.5662684440612797,1.6369048357009888,-1.0578430891036987,1.3341846572130918,1.1412282092738897,-0.4009779246717691,-4.946735687181353,-1.0852637454677372,8.397761107197404
1757088703855031800,0.59903173828125,-2.4703054428100586,1.7553391456604004,-1.0197103023529053,0.262100492118299,1.255192076779902,0.4707680847346782,-4.81377712328285,-0.8194473015662282,8.504494804254174
1757088703865078800,0.609078857421875,-2.2971949577331543,2.0443131923675537,-0.7731085419654846,-0.9128566029518842,1.090123971915245,0.978184522908926,-4.658301022627949,-0.5707318492650986,8.610742763620614
1757088703875124700,0.619124755859375,-2.0646090507507324,2.4936294555664062,-0.3560538291931152,-1.8792203396856784,0.8280741870708763,1.3761159194916486,-4.46451594184488,-0.3543215335674584,8.724272696688772
1757088703885171700,0.629171630859375,-1.8519574403762815,2.977175712585449,0.1744217723608017,-2.741097866028547,0.5962171863185242,1.5365695162981747,-4.223933746312558,-0.1772319323237985,8.848579459837078
1757088703895217700,0.6392177734375,-1.6661481857299805,3.4126672744750977,0.74234938621521,-3.2098645478129386,0.4083373475238681,1.0577186628729105,-3.9372766128256913,-0.0384331818965729,8.981468173369764
1757088703905263600,0.649263671875,-1.5243338346481323,3.776750326156616,1.2906272411346436,-3.3516774492964148,0.4739033140204846,0.9090829296320676,-3.610211773365736,0.0677847933235578,9.117683400976658
1757088703915310600,0.659310546875,-1.4462143182754517,3.958874464035034,1.7300636768341064,-3.395077615083754,0.6159121764674782,1.0791033962070942,-3.253620102909207,0.152028060826566,9.249930893996355
1757088703925356500,0.6693564453125,-1.4331858158111572,3.861342191696167,1.9766901731491089,-2.9571549843743443,0.4186436374828219,0.965207552435994,-2.890084604664146,0.2289878567905165,9.36831761944592
1757088703935403800,0.67940380859375,-1.4277002811431885,3.5422751903533936,2.027585506439209,-2.083097190894186,0.2241744103604927,1.035183005937934,-2.5442963600337505,0.3095828857179731,9.465786644551155
1757088703945449700,0.68944970703125,-1.380827784538269,3.1087801456451416,1.9311736822128296,-1.1530696729108691,0.1211307999933138,1.555057943668961,-2.2333786455154416,0.3963160703405737,9.54071884367764
1757088703955496000,0.699495849609375,-1.3190679550170898,2.5968050956726074,1.746561050415039,-0.3443399455182254,-0.1542298634534701,1.8525714022129771,-1.966962043763697,0.4871735318189487,9.595003976094722
1757088703965543000,0.70954296875,-1.2516169548034668,2.095106363296509,1.499828219413757,0.4357056853123009,-0.4756586697878315,1.6354951699525118,-1.7498228292696176,0.5810034332368522,9.63176689582467
1757088703975588900,0.7195888671875,-1.1832762956619265,1.7439247369766235,1.2129433155059814,1.0596237658418717,-0.4706275802854448,1.3781827888935805,-1.5734791510224342,0.6762295747861266,9.655943890225888
1757088703985635800,0.7296357421875,-1.1543210744857788,1.503597378730774,0.9259805679321288,1.3668804736346003,-0.3058218526840209,0.8893155683666467,-1.4241916758745907,0.7734395105637609,9.67180722979009
1757088703995681800,0.739681884765625,-1.14708149433136,1.3721139430999756,0.6593514084815979,1.5814539292939007,-0.3174601218990981,0.0852145236879587,-1.291755382284522,0.8745607745662332,9.681780926793811
1757088704005728800,0.749728759765625,-1.1377547979354858,1.3385807275772097,0.4290928840637207,1.5559621990323065,-0.375785615748167,-0.3044961570382118,-1.1652582694850862,0.979124434107542,9.687820791479943
1757088704015774700,0.759774658203125,-1.105276346206665,1.3346672058105469,0.2856157422065735,1.4277245261758564,-0.4192527823571115,-0.5181581969410181,-1.038966250803694,1.0846910601463169,9.69094272289276
1757088704025820700,0.769820556640625,-1.0366929769515991,1.368733525276184,0.2277111709117889,1.182272094258666,-0.471714864065498,-0.4583575159728527,-0.9106801356956362,1.1866833348296582,9.69189549357295
1757088704035867600,0.77986767578125,-0.9589852690696716,1.448296308517456,0.2232510596513748,0.9814191939812154,-0.5929891276501119,-0.3028893063634634,-0.7764156037651002,1.2819206553600728,9.691453010502457
1757088704045913600,0.78991357421875,-0.9052999019622804,1.504391312599182,0.2440604567527771,0.9856851077973842,-0.6365443378686905,-0.2517337041437625,-0.6355328227385878,1.3709655509911476,9.68952701087594
1757088704055960600,0.799960693359375,-0.8707946538925171,1.5085660219192505,0.283097892999649,1.0577935547400266,-0.5813609414376318,-0.3245937731713056,-0.4924628703987225,1.4558429516792295,9.685471598005297
1757088704066006800,0.8100068359375,-0.8284562230110168,1.4886314868927002,0.3363070487976074,1.0585340709090232,-0.639991847974062,-0.5928992574095726,-0.351346792072989,1.5372189201176163,9.6790441953063
1757088704076053500,0.820053466796875,-0.7738166451454163,1.4759738445281982,0.391196072101593,0.8427174833208322,-0.70830112182945,-0.7270178049981594,-0.2133416488420218,1.614057391256839,9.670556937468051
1757088704086099700,0.830099609375,-0.7158893942832947,1.477405071258545,0.4406856000423431,0.5382248334139585,-0.7524363238930701,-0.7133914307057857,-0.0768921832209918,1.685725912412256,9.660373397105932
1757088704096145700,0.840145751953125,-0.6652016639709473,1.450474500656128,0.4675672054290771,0.2980722614705562,-0.7575903456553816,-0.7055214279830455,0.0573169789602281,1.7525309191845355,9.648613985729217
1757088704106193000,0.85019287109375,-0.6408371925354004,1.4028781652450562,0.4731166958808899,0.07521742754234,-0.6442594422906637,-0.833348181951046,0.1870967255929485,1.8162210088066757,9.63518108818233
1757088704116238800,0.86023876953125,-0.6453996300697327,1.3661940097808838,0.4603134989738464,-0.1923299135386943,-0.4827072365924715,-0.8300894724160433,0.3123388333626091,1.879424630086124,9.619802317264677
1757088704126285800,0.870285888671875,-0.6769128441810608,1.299517273902893,0.4168693423271179,-0.3351812546918168,-0.3872371302194893,-0.6906447613686323,0.4325954443372786,1.9446653101511295,9.602162031155824
1757088704136331800,0.880331787109375,-0.723099410533905,1.2392667531967163,0.3506611585617065,-0.1247159284710884,-0.3802129306711256,-0.6384516327947378,0.5469930636180564,2.014105926124006,9.581991934308409
1757088704146377700,0.890377685546875,-0.739092230796814,1.2142257690429688,0.2727826237678528,0.1168728137552738,-0.3081434274993836,-0.4550783481717109,0.657951209969446,2.086586202053726,9.55947907372713
1757088704156424700,0.9004248046875,-0.6898795366287231,1.2682085037231443,0.2388732284307479,0.0877541982334107,-0.2628396200478077,-0.1997796450227499,0.7713151388209313,2.15755095885396,9.535220246261355
1757088704166470700,0.910470703125,-0.618610680103302,1.3252583742141724,0.2954968214035034,-0.4117700253862887,-0.4399401080116629,0.2745242126226425,0.8895623096693307,2.22182454745248,9.510128475102782
1757088704176517600,0.920517578125,-0.5693296194076538,1.3781110048294067,0.3857583999633789,-0.5326290592335164,-0.8228641973376274,0.2696194894462824,1.0105713464464992,2.2819807638600467,9.48376069265902
1757088704186563800,0.930563720703125,-0.4655736982822418,1.4938050508499146,0.5018341541290283,-0.3148866912145167,-0.7202966800495981,0.191616212311387,1.1363973550513389,2.3362328707903623,9.456267705577613
1757088704196610800,0.94061083984375,-0.3521573841571808,1.6406500339508057,0.613476574420929,-0.466045293996483,-0.5745927624769509,0.3907943843096494,1.2716940065085889,2.381616319349408,9.42767640186548
1757088704206656800,0.95065673828125,-0.2677493095397949,1.6903132200241089,0.7016908526420593,-0.2359960367858409,-0.8430860243722796,0.292919701012969,1.4143923125244675,2.4196676714546976,9.397611518469452
1757088704216702700,0.96070263671875,-0.2100569605827331,1.52158784866333,0.7448708415031433,-0.0965161082945764,-0.994434523703158,0.3171031251549721,1.5490484741210937,2.4528029022067783,9.367743034428358
1757088704226749700,0.970749755859375,-0.2003236263990402,1.1761242151260376,0.6807363629341125,-0.0495323849320411,-0.9577268412917852,0.5559609811127185,1.6585855381608008,2.4832825038835407,9.34092049395442
1757088704236795600,0.980795654296875,-0.2616427838802337,0.8100757002830505,0.4611693620681762,0.3533737313233315,-0.7770432341441512,0.7342495098173618,1.7366151187807322,2.514335521534085,9.318404126241802
1757088704246842600,0.990842529296875,-0.3873639702796936,0.5043333172798157,0.123363122344017,0.680599606563896,-0.4213125644311308,0.8274696453064679,1.7902169451087713,2.5496079104453324,9.298655469676852
1757088704256888600,1.000888671875,-0.5313984751701355,0.2239381521940231,-0.2550253272056579,0.7883342973567545,-0.2678922272622585,0.7112520805895328,1.825535657379776,2.591464938443899,9.280201529097557
1757088704266935800,1.010935791015625,-0.5923824310302734,0.0416016317903995,-0.5645506381988525,0.718380763425678,-0.3745870536133647,0.5875093810647726,1.8479039949238296,2.6368080549925565,9.262983852314948
1757088704276981800,1.020981689453125,-0.5354564785957336,0.0074050677940249,-0.7228060364723206,0.2456790802799165,-0.6413558298036456,1.028461004206538,1.8669041712090373,2.677624341766536,9.247451936662197
1757088704287027700,1.03102783203125,-0.3970876634120941,0.0449689552187919,-0.7177377939224243,-0.5765773604229092,-1.075617892178893,1.3267448626011609,1.889048198477924,2.7075650142610077,9.234227128908037
1757088704297074700,1.04107470703125,-0.1714245378971099,0.0801722928881645,-0.5288786292076111,-1.2625450698912144,-1.3499375221401453,1.068417167019844,1.9121224923342464,2.722263986220956,9.225153595614431
1757088704307121000,1.051120849609375,0.1096436008810997,0.1313127130270004,-0.1962862759828567,-2.0792413922488686,-1.4301383093193172,1.447204887193441,1.931249655999988,2.71806916487962,9.222405173689127
1757088704317167900,1.06116796875,0.3777658343315124,0.3572216331958771,0.2329069972038269,-2.897043337760865,-1.5229288212195038,2.0992425622701645,1.952381729747355,2.695489376541972,9.224584271293878
1757088704327213800,1.0712138671875,0.5925212502479553,0.7215031981468201,0.7211818695068359,-3.0467326717078684,-1.455135387931764,1.800344955891371,1.9889441584691403,2.6595681683331724,9.227197668662669
1757088704337260800,1.0812607421875,0.7100851535797119,1.0921717882156372,1.23230242729187,-2.56398334953934,-1.0860317341655492,0.9409826272398232,2.0478823773890733,2.6181711590617893,9.226143191173673
1757088704347306800,1.091306640625,0.6605261564254761,1.2251567840576172,1.6721149682998655,-2.2286463562965397,-0.3782040750667452,0.0016389993786811,2.1180635825961827,2.5840119920894504,9.219927969920636
1757088704357352700,1.101352783203125,0.4388756453990936,1.2736648321151731,1.9539614915847776,-2.0591709563836456,0.3519011745527386,-0.6546557486206293,2.186661902526021,2.571718327705562,9.207344382679462
1757088704367399700,1.111399658203125,0.1439523845911026,1.2709205150604248,2.0764176845550537,-1.76610483263731,0.761541421368718,-0.941376594993472,2.252277261122316,2.589891697777808,9.186408562156558
1757088704377445600,1.121445556640625,-0.103233590722084,1.1448360681533811,2.0292086601257324,-1.351242759519815,1.0381696205332875,-1.086390046083927,2.310419799619913,2.6357331192374227,9.158889856112005
1757088704387492600,1.13149267578125,-0.301928848028183,0.8397336602210999,1.8252395391464236,-0.6451252653397619,1.1427739043459295,-0.9372118765294551,2.350394667133689,2.6997698303401467,9.130019735458491
1757088704397538600,1.14153857421875,-0.4825601279735565,0.4686636924743652,1.518463373184204,-0.0399766210794448,1.1089143048420549,-0.9834814602732658,2.3641474442847072,2.775528251157701,9.103715665900706
1757088704407584800,1.151584716796875,-0.5836403965950012,0.1719726473093032,1.2143285274505615,0.1503039587140083,1.15322603251636,-1.1699673239588737,2.354330106886476,2.857062040506303,9.081008159530162
1757088704417631700,1.1616318359375,-0.5921350121498108,-0.0753761902451515,1.0403735637664795,0.0032075638696551,1.217052607999742,-0.5980155775099992,2.3260513762548563,2.9371862553179264,9.06271437794864
1757088704427677700,1.171677734375,-0.5493782162666321,-0.304191529750824,1.0370731353759766,-0.3516919157162309,1.1052563668563962,-0.1657604710429907,2.277827297442406,3.0130697638198733,9.050043112424015
1757088704437725000,1.181724853515625,-0.4978289008140564,-0.4443196654319763,1.1772809028625488,-0.8703539705261587,1.163224863961339,0.1652688881337642,2.209162488147616,3.085435911850631,9.042682228267193
1757088704447771000,1.19177099609375,-0.4443805813789367,-0.457602709531784,1.4274712800979614,-1.150798513108492,1.2751371326997876,0.3564157293677329,2.12703467842862,3.156529847988486,9.037833034670353
1757088704457818600,1.201818603515625,-0.3986730575561523,-0.465335875749588,1.7899776697158811,-1.4382824528083205,1.5686279115989803,0.3328261794656515,2.0338399696417158,3.228005769181251,9.034040072128176
1757088704467864600,1.211864501953125,-0.4282186925411224,-0.4846014678478241,2.229482412338257,-1.7989897418901324,1.938729636491835,0.5644295342504978,1.924835551173985,3.304721636854112,9.030185150265693
1757088704477910500,1.22191064453125,-0.5462097525596619,-0.4828326404094696,2.709350109100342,-2.08923554751873,2.340456625965237,0.4852443538546562,1.7975924423128364,3.3947038133353,9.02302826424837
1757088704487957800,1.231957763671875,-0.6793920993804932,-0.4081799983978271,3.139005184173584,-2.3367982495881616,2.780371599535644,0.325337285014987,1.6548989586025475,3.5011157310917973,9.009653818890452
1757088704498003500,1.24200341796875,-0.6544302105903625,-0.0370979085564613,3.3014883995056152,-2.2270741385437547,2.7893372885406014,0.3387128994166851,1.5131532771363854,3.616199323342741,8.989096184030174
1757088704508050700,1.25205078125,0.0456927455961704,0.7476456165313721,2.409071445465088,0.2515549865759909,1.92605661740154,2.06049519072473,1.4406974049955603,3.686850191888213,8.972286503526568
1757088704518096600,1.2620966796875,0.5117555260658264,1.049573302268982,1.5547435283660889,5.890797575736046,-1.387467334589362,4.596011447453499,1.4523691380888222,3.6860505659431215,8.970732259821892
1757088704528143600,1.2721435546875,0.4387838542461395,0.9144718647003174,1.2109161615371704,5.454686962884664,-2.9322365239560604,2.939126283469796,1.4911913284361362,3.6611215841308233,8.974570815071463
1757088704538189600,1.282189453125,0.150541752576828,0.5454148650169373,1.20362651348114,3.915567177581787,-1.9922265411406757,1.8208698575258253,1.5152303756713863,3.652306117251515,8.974135930785536
1757088704548235800,1.29223583984375,-0.0481668189167976,0.0601823478937149,1.6339865922927856,2.6620494637548924,-0.9772159701377152,1.2789175280213356,1.4914410654135049,3.669495736983418,8.97110869191885
1757088704558282500,1.302282470703125,-0.0650447681546211,-0.2246793508529663,2.614990234375,-0.7953529439471662,-0.7763251490026712,0.8416635903537273,1.3994403887167572,3.7069779108986256,8.970524170029163
1757088704568328700,1.31232861328125,0.1848335117101669,0.6108152270317078,2.3621630668640137,-4.47470912681818,-1.928672352857888,0.1696831974446773,1.3137645311273634,3.737940327656269,8.970629968491195
1757088704578375700,1.322375732421875,0.5426879525184631,1.3561091423034668,1.176950454711914,1.34594669893831,-3.5425001731425523,-0.4837093993723392,1.3419927006155252,3.728798697562516,8.970254705438018
1757088704588421600,1.332421630859375,0.5784403681755066,1.028528332710266,0.5064799785614014,5.015166249328852,-1.8411574432730675,-0.0915823051542043,1.4238894780576228,3.6864883728384967,8.975117927560209
1757088704598467600,1.342467529296875,0.3957730829715729,0.3608980178833008,0.5151861310005188,3.5525592103421686,-0.661426265668869,0.0349982481449842,1.4680812326140702,3.6499890724807975,8.98291311148107
1757088704608514600,1.3525146484375,0.4129837453365326,0.0784479528665542,0.6080902814865112,0.9873705766662956,-0.2863578582793474,0.3008721213221549,1.4636926422663032,3.622826924788952,8.994613486146926
1757088704618560500,1.362560546875,0.4660051763057709,0.2669791877269745,0.5681101679801941,0.6398153223633766,-0.5314338580995798,1.1721592810451984,1.4567574361756443,3.591523147247732,9.008285453146696
1757088704628607500,1.372607421875,0.4301350712776184,0.411738246679306,0.4989566802978515,1.539283597562462,-0.6651175214022398,0.4491629866480827,1.4693300636313855,3.5582109524935484,9.019456250980497
1757088704638653400,1.3826533203125,0.3396103084087372,0.4470083713531494,0.3773621916770935,2.5193653323948384,0.0545750552743673,-0.4826508302301168,1.4924189705349504,3.5298441051870584,9.026809536352753
1757088704648700700,1.39270068359375,0.2324386090040207,0.5159059762954712,0.2273766994476318,2.8111224193692204,0.3968012235090136,-0.994246015393734,1.5252258461154995,3.50814168420583,9.029786506336928
1757088704658746600,1.40274658203125,0.0694873705506324,0.5170349478721619,0.0806711912155151,2.758783744844794,0.386468337804079,-1.4833628267675638,1.5666409755654631,3.4969276317521927,9.027045683196189
1757088704668792600,1.41279248046875,0.0295519400388002,0.7336625456809998,0.2780513763427734,2.279879699927568,0.7602844070449472,-1.9563976873904465,1.6169832155756652,3.4955589737474915,9.018694034436344
1757088704678839800,1.42283984375,0.0385469235479831,0.935300350189209,0.6592839360237122,-0.4842261167228222,0.9418924355611203,-0.6359814432889223,1.6763891981378196,3.5003993995159863,9.005960809591413
1757088704688885800,1.4328857421875,0.0570321902632713,1.102449893951416,0.8684778809547424,-0.5629271668635308,0.2022556797474622,-0.0663508332639932,1.7410246057860552,3.509505081513524,8.990140140125154
1757088704698932700,1.4429326171875,0.0852690786123275,1.2276368141174316,0.9087631106376648,0.6174667124330997,-0.2892179238855838,-0.2839619030535221,1.8150420281551776,3.518995963436365,8.971771539741754
1757088704708978700,1.452978759765625,0.11002928763628,1.21820867061615,0.910232424736023,0.8994333500161766,-0.2864379377782344,-0.4501847309112549,1.8937028924159705,3.527139814664423,8.952295270377396
1757088704719025700,1.463025634765625,0.0791410133242607,1.0819364786148071,0.9400429725646972,0.4691442829251289,-0.0656380088195204,-0.1006529158383607,1.964861564353108,3.536332590423524,8.933312337487935
1757088704729071600,1.473071533203125,0.009365658275783,0.8957029581069946,0.8821623921394348,-0.4754942364737391,-0.0173214294180274,0.1378378603726625,2.0205026414237914,3.550564529393613,8.915238336136937
1757088704739117600,1.48311767578125,-0.0394262745976448,0.8105723857879639,0.6937627792358398,-0.4936486095845699,-0.1834498569905757,0.4009533747524023,2.06738699606508,3.5687013668477534,8.897228047671913
1757088704749164500,1.49316455078125,0.1178632155060768,1.0159300565719604,0.36940598487854,-0.1480430280447006,-1.177149052156508,0.7167524315714836,2.1262522958792744,3.578981937843561,8.879207822334767
1757088704759210500,1.50321044921875,0.0674977228045463,1.2818477153778076,-0.0645324140787124,1.6945897484779358,-2.251225560112297,1.3025941716849805,2.228758584499359,3.5651930664658544,8.859594774848222
1757088704769257500,1.513257568359375,0.3482172787189483,1.2037677764892578,-0.497684895992279,0.5670037686526775,1.2787643832862376,-3.280045753020048,2.353024723376333,3.5451030491173263,8.835491430205106
1757088704779303400,1.523303466796875,0.5557287931442261,0.9005005955696106,-0.7202322483062744,-2.208137821274996,1.5085042822867631,0.891825505360961,2.466562255229056,3.487147411493957,8.827585771647096
1757088704789350400,1.533350341796875,0.6234122514724731,0.6407396197319031,-0.9514101147651672,-2.180968367059529,-4.463855432109535,1.1166039825618266,2.564788820703328,3.414446624681353,8.828010134539008
1757088704799396600,1.543396728515625,0.7547591328620911,0.3669039309024811,-1.009311556816101,-0.3943114525198936,-1.1342395924955606,-1.2096622054874897,2.643364344768226,3.327477950802445,8.838037607556581
1757088704809442600,1.553442626953125,0.8453995585441589,0.010044353082776,-0.8241134881973267,-2.2053987516999243,1.0081170120969414,-0.6926233679652214,2.6906729161709544,3.2309663725525137,8.85954450596571
1757088704819489800,1.56348974609375,0.7143101692199707,-0.2553859353065491,-0.7116014361381531,-2.470255264528096,1.1675921192601322,-1.3482324717879297,2.702792393031716,3.1392773921534416,8.888769431406258
1757088704829535500,1.573535400390625,0.4094171226024627,-0.2390370517969131,-0.911482572555542,-0.3339084217444062,-0.9017541941791772,-3.5977217096269127,2.702671397000551,3.067309011268616,8.913896273878215
1757088704839582700,1.583582763671875,0.3700903058052063,0.1366202384233474,-1.0500266551971436,1.329960025255382,-4.920671271598339,-3.671860128027201,2.728810631385445,3.0081530579447744,8.92608472432196
1757088704849628700,1.593628662109375,0.6858512163162231,0.1431247442960739,-0.9444877505302428,0.7366063020765781,-3.969173680084944,-0.7929080350130796,2.772545143693685,2.9327836364448068,8.937683392179013
1757088704859675600,1.603675537109375,0.780780553817749,0.4269020557403564,-0.9991452693939208,0.221745393115282,-0.1629126803964376,0.0603138911873102,2.8223329646915194,2.839031878297031,8.952358983263373
1757088704869721600,1.6137216796875,0.710033118724823,0.8503435850143433,-1.289803147315979,0.6896119111895561,-1.6942913500532506,-2.062507115069032,2.9126141241192816,2.73831320374608,8.954815144243836
1757088704879767600,1.623767578125,0.6205584406852722,1.2274532318115234,-1.4223730564117432,0.9992635512948036,-2.2774513037368656,-1.349022160860896,3.044243777501583,2.637329740779102,8.941334900423884
1757088704889814500,1.633814453125,0.6872810125350952,1.2509149312973022,-1.3922425508499146,-1.083760574363172,0.5161275678962469,-0.2446206572681665,3.193950354844332,2.535581723180413,8.91851516585052
1757088704899860700,1.64386083984375,0.9124534726142884,1.0328059196472168,-1.1629256010055542,-2.3935960954785345,1.128509232150018,1.4956407090604305,3.329878874464333,2.420595453824103,8.900731087356805
1757088704909907500,1.653907470703125,0.9388965368270874,0.5746862292289734,-1.0153694152832031,-3.690307638865709,0.7174835223250091,2.072741508835554,3.427244731456041,2.2990610779985783,8.895994121962785
1757088704919953700,1.66395361328125,0.7797873020172119,0.1895443499088287,-1.0415899753570557,-2.562251703441143,1.5801159586884082,0.52692018006742,3.48372006739378,2.1868613706208766,8.902343783250451
1757088704929999600,1.67399951171875,0.7503836154937744,-0.0510413721203804,-1.0673235654830933,0.1058922777965664,3.366404770568013,-0.2768412573933601,3.5112981024101373,2.081451761774719,8.916768029922247
1757088704940046600,1.684046630859375,0.8071137070655823,-0.0336406007409095,-0.9182159304618835,1.7700465560004115,2.261807598272711,1.1661901435077189,3.526527235724032,1.9763789836674928,8.934649723571539
1757088704950092500,1.694092529296875,0.907554566860199,0.0868599787354469,-0.6582991480827332,1.3149921732261776,1.017373062350601,1.166264377787709,3.543591183249652,1.87093225768134,8.950585543850064
1757088704960139500,1.704139404296875,0.9348150491714478,0.3209650814533233,-0.409851610660553,1.0764484977841378,0.6863805280528962,0.631093671247363,3.570546702453494,1.7685739992298184,8.960676729753613
1757088704970185500,1.714185546875,0.9536116719245912,0.5912852883338928,-0.3343022465705871,1.394651400874555,-0.7917237936645746,-0.1560258434921503,3.6183582549422977,1.67084486188367,8.960255873993038
1757088704980232700,1.724232666015625,0.9636002779006958,0.630155086517334,-0.4499958455562591,1.9952081872999667,-1.5300100116521118,-0.49040334405303,3.681294019065797,1.569963105725497,8.952858749479056
1757088704990278400,1.7342783203125,0.9017717838287354,0.5128793120384216,-0.6241080164909363,1.8070666653618213,-1.7974581484086811,0.1258931555569171,3.7410458924561736,1.4658609262160955,8.945736350253224
1757088705000324600,1.74432470703125,0.9035272002220154,0.260549247264862,-0.4997842609882355,-0.9103405284777284,-1.9595229798041285,0.5831839190810918,3.7848788967028257,1.362468794672191,8.943643177366257
1757088705010371600,1.75437158203125,0.8123264312744141,0.1289749592542648,-0.2212753891944885,-4.112698353922367,-1.8760760503105816,0.8804477867782116,3.805492061142623,1.2710912183098495,8.948348578578234
1757088705020417800,1.764417724609375,0.7468490600585938,-0.07463289052248,-0.1424691081047058,-4.053622187836468,-2.2012790414214134,1.234063656294346,3.812555423657596,1.195115720675513,8.955807662412523
1757088705030464800,1.77446484375,0.4841095805168152,-0.933752179145813,-0.7143776416778564,-0.4760220597401261,-2.568415194506943,1.85823658836782,3.7705931817188856,1.123065579791367,8.98285758190155
1757088705040510700,1.7845107421875,0.205783262848854,-1.4158061742782593,-1.0867279767990112,2.736936946956813,-4.732645192733407,2.9992163027733563,3.672191259677708,1.057096731582284,9.03149623286426
1757088705050556700,1.794556640625,0.2098858654499054,-0.928002655506134,-0.5042022466659546,-1.302790571039915,-4.519476489305496,0.9395996484488248,3.5721944696605203,1.011671855034307,9.076692049896716
1757088705060603600,1.804603759765625,0.6093003749847412,-0.8637849688529968,0.2121645361185073,-4.988570503348112,1.8818997880280015,1.1324293282032012,3.496683301602304,0.967350044357404,9.110863199567794
1757088705070649600,1.814649658203125,1.0709073543548584,-0.7259293794631958,0.3449987471103668,-2.6662437005743382,7.150493685936928,5.883989649286866,3.4225127344980835,0.9025531625371426,9.145612441387772
1757088705080696600,1.824696533203125,1.4739028215408323,-0.7579116821289062,0.6079840660095215,0.6513163750648499,-0.6557091301310807,4.297548140838742,3.3531355391502378,0.7986131147868931,9.180909380218386
1757088705090742500,1.834742431640625,1.4646190404891968,-0.5964670777320862,1.1440049409866333,-0.0932291955783963,3.247509218813479,4.587366368705034,3.280060658328235,0.6872117181800306,9.216252496278283
1757088705100789500,1.84478955078125,0.8618416786193848,-0.0703943893313407,1.4175829887390137,0.2046466665372252,5.111970673045516,-1.565284738650918,3.2407600368142124,0.6213938958141952,9.234812819841505
1757088705110835500,1.85483544921875,0.5927313566207886,0.4248800575733185,1.51006019115448,4.000351493158936,5.602238992542028,-5.321798833873868,3.2477938809737563,0.6042798986017703,9.233473680192231
1757088705120881700,1.864881591796875,0.4671546220779419,0.7707096934318542,1.4335250854492188,3.4643034192621704,2.6471236973017453,-2.6225872219383715,3.2966222092896698,0.6033044411657378,9.216218594008684
1757088705130928600,1.8749287109375,0.3116862177848816,0.7070351243019104,1.2144206762313845,2.266074169676006,1.825795185098797,-2.270616781541705,3.357755892427265,0.6134473937891424,9.193450297361611
1757088705140974600,1.884974609375,0.1502496302127838,0.7358483672142029,0.8471444249153137,1.3238251757621764,1.7366592501834033,-3.084935853374004,3.417142439636588,0.6259688025142998,9.170697198283673
1757088705151021800,1.895021728515625,-0.0314871482551097,0.7605624794960022,0.5030898451805115,1.3701520426511764,0.4188572071682661,-4.657307335415482,3.4812487088441846,0.6449166640903801,9.145238347378372
1757088705161067500,1.905067626953125,-0.0706199631094932,0.8812352418899536,0.2044127583503723,0.7069792255759239,0.8372075607929378,-4.946733933615684,3.554100886826217,0.6621610827494412,9.115936849570272
1757088705171114800,1.91511474609375,-0.0999751910567283,1.0144271850585938,-0.0110473688691854,0.2420373627766966,-0.7584742158178239,-3.5295080051004883,3.6391140427231785,0.6733304192785173,9.08151435548663
1757088705181160700,1.92516064453125,-0.1786342561244964,1.1938270330429075,-0.3009537160396576,0.0236748900979757,-1.0623792750950902,-2.858895977935195,3.741357150362432,0.6799057060156017,9.039379095068574
1757088705191206700,1.93520654296875,-0.4148592948913574,1.1252281665802002,-0.684337317943573,0.3688414956986904,-0.6608071839224546,-3.0581290949910875,3.851537188480794,0.6868439808461815,8.992457184895873
1757088705201253600,1.945253662109375,-0.7253472805023193,0.7759361267089844,-1.1311904191970823,1.1827061017617582,-1.057877872022614,-2.781684143438935,3.944327115859091,0.7023387062937021,8.950942686724662
1757088705211299600,1.955299560546875,-0.995946764945984,0.420982301235199,-1.6448323726654053,2.30719908400774,-1.5704565883308648,-2.2268770085364578,4.006908951978385,0.7241064475961029,8.921364125540853
1757088705221346600,1.9653466796875,-1.1553009748458862,0.2595580220222473,-2.107287645339966,2.5106325753629206,-1.4436410572320222,-2.1127526167064903,4.050378383609652,0.7446835908744484,8.90001504804194
1757088705231392500,1.975392578125,-1.104126214981079,0.2346100807189941,-2.4244840145111084,1.9542378790080543,-0.7893217740241437,-1.3877502431839703,4.08902697095573,0.7532591845832765,8.881601439473032
1757088705241439500,1.985439453125,-1.014588475227356,0.2132225334644317,-2.6187636852264404,0.712344552001357,-0.1195097381301224,0.4476385535597801,4.12828346106708,0.7427503577895462,8.864310697454213
1757088705251485700,1.995485595703125,-1.0495080947875977,0.0650650262832641,-2.7778472900390625,-0.9925026788577436,-0.2202570542536675,0.5638952812433242,4.161526974499226,0.7209444033686071,8.85055280573666
1757088705261531600,2.00553173828125,-1.036962389945984,-0.061632964760065,-2.752894878387451,-1.6089613832920788,-0.4504594561994075,0.5382885462999344,4.181531651651859,0.6982593280255794,8.842942915254831
1757088705271578600,2.01557861328125,-0.9474728107452391,-0.0390988923609256,-2.596242427825928,-1.974185273015499,-0.2850028634738177,1.2783844440579413,4.194507745341957,0.6728634593538939,8.838763583743571
1757088705281624600,2.02562451171875,-0.8724256157875061,0.0578548908233642,-2.436210870742798,-1.1042182559803129,0.1302959936257451,0.4889958153426647,4.212489976756275,0.6478193997945636,8.832079575935005
1757088705291671600,2.035671630859375,-0.7253269553184509,0.1084176674485206,-2.2664146423339844,-0.4893365916043519,0.3343797655832022,0.2665104175150394,4.234766105972231,0.6185124951589852,8.823526267123222
1757088705301717500,2.045717529296875,-0.6349802613258362,0.1235658824443817,-2.0305910110473637,-0.2213037868276238,0.629648440875113,0.6446241839498281,4.258226768797636,0.5864563283478841,8.814417077994346
1757088705311763500,2.055763427734375,-0.5853192210197449,0.0670578703284263,-1.8119096755981443,-0.2618278126567602,1.1972351239822805,0.6499462557554244,4.27735290955007,0.5580137854566797,8.806999495214223
1757088705321810400,2.065810546875,-0.4968177378177643,-0.035954762250185,-1.7233824729919434,-0.1744032117038965,1.4519170104071497,0.2159264777034521,4.289736005783081,0.5295839924491942,8.802731316375732
1757088705331856400,2.0758564453125,-0.3197766542434692,-0.2636789977550506,-1.6997584104537964,0.452213606390357,0.8928187541820108,0.6347030939161777,4.284864015832543,0.4920773416798562,8.807281234765052
1757088705341903600,2.085903564453125,-0.059211540967226,-0.3792839646339416,-1.621147871017456,0.6287146671563386,0.8657255800731479,1.4871096120804548,4.263237874957919,0.4368696875903755,8.820677891954778
1757088705351949600,2.095949462890625,0.1098286136984825,-0.2337691187858581,-1.347866773605347,-0.1526882235020399,0.9317094797208904,1.0318979929178953,4.240038493417203,0.3699879257874563,8.83490515474975
1757088705361996500,2.10599658203125,0.2156369686126709,-0.0383635349571704,-0.96713787317276,-0.8466972006067633,1.0776938216701148,0.5696148279339075,4.2325466763570905,0.3060051368290558,8.840942681348324
1757088705372042800,2.116042724609375,0.299270898103714,-0.0351307205855846,-0.5721045136451721,-0.8256389227479696,1.1721936947714535,1.1258587176412342,4.232589054194093,0.2495131785500794,8.84270033867061
1757088705382088700,2.126088623046875,0.3467312157154083,-0.2597998678684234,-0.2113081961870193,-0.8004331698209047,0.5604168645430356,1.3031903840124606,4.22249465342015,0.2046802400132641,8.84867239881754
1757088705392135700,2.1361357421875,0.2408253103494644,-0.7569757699966431,0.0266969110816717,-1.121866433134675,-0.5308595653429627,0.7736550530105829,4.174771655997634,0.1718791365863755,8.871983716300129
1757088705402181600,2.146181640625,-0.1262569725513458,-0.8469996452331543,0.2835381627082824,-0.358189168781042,-1.0513671749543398,-0.0838408972471952,4.100924621759355,0.1737427202348597,8.906324377319216
1757088705412228600,2.156228515625,-0.385768711566925,-0.7215354442596436,0.3947563171386719,1.5396750810980795,-0.9347869874700904,0.7439572493612766,4.029537547893822,0.2111394443563185,8.938044626706839
1757088705422274600,2.166274658203125,-0.5835913419723511,-0.6649985313415527,0.1522936224937439,2.0231553478896616,-1.3974614898592232,0.824291599792242,3.965789882865548,0.2676974170762114,8.965000438171625
1757088705432321500,2.176321533203125,-0.5269719958305359,-0.524505615234375,0.171351745724678,1.699941630899906,-0.8500735451720655,0.5164104764908551,3.9099727185755966,0.3229001209959387,8.987672288706898
1757088705442367500,2.186367431640625,-0.5246150493621826,-0.045553583651781,0.477618932723999,-1.3564315603345631,-0.4899695192130282,1.152210133472085,3.882762640088796,0.3828289218557998,8.997108810093998
1757088705452413400,2.196413330078125,-0.5075638890266418,0.395162284374237,0.7990835309028625,-2.9138766914010046,1.0143834520805626,0.7024392440587282,3.8962475600838657,0.4544593029579147,8.987942337819934
1757088705462459400,2.20645947265625,-0.547722578048706,0.6936498880386353,0.9686447978019714,-2.6190090711906557,1.952310564207285,0.6064350308090448,3.941805780687928,0.5370606119401753,8.963487695521115
1757088705472505300,2.21650537109375,-0.5887908935546875,0.877017080783844,1.082477331161499,-1.731710395604372,2.2700226150408387,0.9824830968856813,4.006501540221274,0.6289066825971007,8.928763588142395
1757088705482552300,2.22655224609375,-0.6130607724189758,1.0147874355316162,1.2300819158554075,-1.165474104192853,2.064789088526368,1.6467004545778037,4.083705775932968,0.7299922176990657,8.8859900298208
1757088705492598300,2.236598388671875,-0.5860270261764526,1.1713978052139282,1.4284617900848389,-1.2732757227420806,2.381315582837164,2.004487472298741,4.169810234197974,0.8382870265927165,8.836308007284998
1757088705502644200,2.246644287109375,-0.7007269859313965,1.5426466464996338,1.565335035324097,-1.3527479033857583,3.14321648516804,2.704766323453188,4.274272771452367,0.9573026975955814,8.774085067605972
1757088705512691200,2.256691162109375,-0.8839002847671509,2.078377485275269,1.574612736701965,-1.2984294532209637,3.591473170626163,2.761300111579895,4.417027337700128,1.097121941043809,8.686576295500993
1757088705522737200,2.266737060546875,-0.9130732417106628,2.6024885177612305,1.246049880981445,-1.699988392651081,2.3386735419407487,2.908001077365875,4.601311307427287,1.2405083023890853,8.570849144649506
1757088705532784000,2.2767841796875,-1.0132821798324585,3.64340615272522,0.567631185054779,-2.3468799370110034,1.4488780811026691,3.176445093291998,4.854356970952451,1.36565546188429,8.410742753845453
1757088705542830300,2.286830322265625,-0.960648238658905,4.029576778411865,-0.2303844690322876,-3.2845512477457524,0.5733218657582998,0.6289245105147362,5.181058237797021,1.4590560685068368,8.197449547255038
1757088705552877300,2.296877197265625,-0.3178421258926391,2.716616630554199,-0.987969934940338,-0.4865852470695972,0.2498750706650316,-1.2642068656235932,5.469816727477312,1.4796363535903394,8.003885123485325
1757088705562923300,2.30692333984375,0.2680834829807281,1.2804957628250122,-1.1142845153808594,5.069799756792188,0.4381136232368647,-0.964648164987564,5.643204624658822,1.4179912137992678,7.893916097769141
1757088705572969200,2.31696923828125,0.4682453572750091,0.2955243289470672,-0.6494532227516174,5.2755830261439085,-1.2596031712204216,-1.4925170240819454,5.716047742551565,1.336067986741662,7.855707655405998
1757088705583016400,2.327016357421875,0.5673831701278687,-0.308324784040451,-0.0955834686756134,3.710962304359674,-2.319797430426627,-1.3685147968381643,5.718601518687605,1.2741300014838577,7.86413353844583
1757088705593062400,2.3370625,0.7882398962974548,-0.7044313549995422,0.2438515871763229,2.46130477309227,-1.7077091961614788,-0.0558200868993997,5.676138341489434,1.2275221256963909,7.902217477646469
1757088705603109400,2.347109375,1.2158877849578855,-0.9374816417694092,0.3771027326583862,1.1667156286865472,-0.404187826628983,1.5219424405306576,5.605732679876684,1.1644965643975882,7.961790779599547
1757088705613155300,2.3571552734375,1.5017927885055542,-0.9100513458251952,0.438902735710144,-0.1569318524211645,0.1823076281528919,2.837688939255476,5.526677263340353,1.0788379502039402,8.028843039131164
1757088705623202300,2.367202392578125,1.7203527688980105,-1.0235834121704102,0.2489777654409408,-1.3429057238072155,-0.1574289152231067,3.083437139248848,5.446266925063729,0.9666692224863916,8.097783888888358
1757088705633248300,2.377248291015625,1.7278093099594116,-1.34190034866333,-0.1328481584787368,-0.4131429942399263,-0.9316880716066808,3.295823167866468,5.348491025966405,0.8293360967654735,8.1777909070611
1757088705643294200,2.387294189453125,1.7492287158966064,-1.3812304735183716,-0.6292507648468018,0.6293804375886917,-1.711847757270932,1.7673831820100545,5.235065137794614,0.665731050190702,8.2656667589128
1757088705653341200,2.397341064453125,1.9372600317001345,-0.7283942699432373,-0.8837627172470093,0.9584814590513706,-1.7224765571825205,0.4231201983749866,5.149873994982242,0.4733018775286152,8.33217424404323
1757088705663387400,2.407387451171875,2.334557056427002,-0.2229377776384353,-0.9080275297164916,-0.3007271598935127,-1.2266101254180073,-0.7378279528260231,5.11576597367525,0.2470823164076544,8.3629113276124
1757088705673434400,2.417434326171875,2.552804470062256,0.1049173176288604,-0.6984021663665771,-0.9725549925893544,0.1734169588792137,-0.7033966909140348,5.111232421898841,-0.0010346329993808,8.369332885092497
1757088705683480300,2.427480224609375,2.570174217224121,0.3006902039051056,-0.3572365641593933,-1.723567421159148,0.3649737143546342,-2.662954303640127,5.1305169680833815,-0.243617855167482,8.353972818875313
1757088705693526300,2.4375263671875,2.604361295700073,-0.1183374226093292,-0.0498811490833759,-1.608627036771178,0.0786100473890081,-3.2522593359500167,5.139925432419776,-0.4711095185834914,8.33844265678823
1757088705703573200,2.4475732421875,2.437852144241333,-0.4080403745174408,0.2470055967569351,-0.8228980996072291,0.2015039115320891,-2.76365924192667,5.116747970449924,-0.6783987355187535,8.338406416431068
1757088705713619200,2.457619140625,2.039052963256836,-0.5783947706222534,0.4213971197605133,-1.2974351814866063,0.8161144308164715,-4.546532838535309,5.078028071433305,-0.8491842681821435,8.346428979367017
1757088705723666200,2.467666259765625,1.5797090530395508,-0.7225633263587952,0.3298881649971008,-0.070148471981287,0.702969113151729,-4.818203999814391,5.0268946810454125,-0.9805472334522752,8.362970948845147
1757088705733712100,2.477712158203125,1.247099757194519,-0.6596496105194092,0.0646295994520187,1.5075801531791686,0.6376517145887017,-3.778733525815606,4.969633747687936,-1.0883601040478794,8.383830781522393
1757088705743759400,2.48775927734375,1.1135823726654053,-0.5615977048873901,-0.1837660819292068,1.8096739252507683,0.7822747781220823,-2.4174954419821497,4.917433020329475,-1.190186447579786,8.40075327475071
1757088705753805300,2.497805419921875,1.1499675512313845,-0.4582697749137878,-0.325621485710144,0.6400584834694862,0.8788640247181058,-1.153866083985567,4.87124526965022,-1.2976998237721622,8.411740532711148
1757088705763851500,2.5078515625,1.2572133541107178,-0.4818591475486755,-0.418216198682785,-0.4750894550651311,1.3045225093990565,-0.362023632377386,4.82655126466006,-1.4180974506527184,8.418064475035667
1757088705773898200,2.517898193359375,1.274550199508667,-0.461162120103836,-0.4845611155033111,-0.066832479301095,1.372451405634731,-0.0458411291986703,4.7798196163624525,-1.547377910560369,8.42195680629909
1757088705783944400,2.5279443359375,1.2181499004364014,-0.473374605178833,-0.5237594246864319,0.5044084885299206,0.992294150673598,0.1465221020877361,4.732459607033431,-1.6773356852076946,8.423823184692859
1757088705793991400,2.537991455078125,1.1501295566558838,-0.4622612595558166,-0.5242859721183777,1.0706488715946674,0.931167920190096,-0.3517074055463075,4.683366198040544,-1.8025078330136837,8.425404316404462
1757088705804037400,2.548037353515625,1.0741682052612305,-0.3939007222652435,-0.4721819162368774,0.8572805539414287,0.917644129489362,0.0936497590780258,4.637561601459979,-1.92006629094556,8.424769525632263
1757088705814084400,2.55808447265625,1.0405820608139038,-0.2930124402046203,-0.4241049289703369,0.2025374192982912,1.0621705277152358,0.3365694576472043,4.599781029120088,-2.029726835234463,8.41977303251922
1757088705824130300,2.56813037109375,1.111084222793579,-0.3629491925239563,-0.4280590116977691,-0.2591781749308109,1.1863489883087577,0.5018576350033283,4.563655238249898,-2.1396906002536413,8.412205812135339
1757088705834176300,2.57817626953125,1.2179008722305298,-0.6291268467903137,-0.4799033105373382,-0.6617828240215778,1.0055164742097258,0.4189274228602647,4.513753727744519,-2.258581768094003,8.40804518532455
1757088705844223200,2.58822314453125,1.4768810272216797,-1.1195099353790283,-0.4495483934879303,-1.0635691424667837,1.6793215983279048,-1.2928729881376029,4.426974146696925,-2.3920455050356684,8.417268940743803
1757088705854269200,2.598269287109375,1.88751232624054,-0.5555503368377686,-0.3910400867462158,-1.6663167169347404,1.102755489951372,-0.9296861571997403,4.340040836392343,-2.553342128537595,8.415157063156366
1757088705864316200,2.608316162109375,1.932108759880066,0.1517224162817001,-0.2905684411525726,-0.9004860739395022,-0.4960261523708701,1.796218815872073,4.3147666944041845,-2.732404564224183,8.37180424364209
1757088705874362000,2.618362060546875,1.5584499835968018,0.4982270896434784,-0.0574326589703559,-0.4797229600846767,-0.8740914034888148,1.653946772444248,4.339175743995607,-2.8876483174279333,8.30682995942831
1757088705884409300,2.628409423828125,1.17117440700531,0.2489348649978637,0.2037330865859985,-1.9054814468845724,-1.4925804447069764,-0.1150239710181951,4.37495052947104,-2.9972952715829013,8.249023082625865
1757088705894455300,2.638455322265625,0.8595771789550781,-0.1902688592672348,0.3326412737369537,-1.884519615137577,-1.2568769611269237,-1.8404086707323788,4.38586063054204,-3.0686963739737867,8.216914126181601
1757088705904501200,2.648501220703125,0.6717668771743774,-0.5498794317245483,0.2861579656600952,-0.2945233368173241,-1.0291019324585795,-1.6901625796854496,4.3631700753062965,-3.1175054130673407,8.210620578995346
1757088705914548500,2.658548583984375,0.5341546535491943,-0.5077495574951172,0.124565877020359,1.4099094680219888,-0.7552116338253021,-0.932089126688242,4.324802642989158,-3.158111271961033,8.215401383531093
1757088705924594400,2.668594482421875,0.3791452944278717,-0.4812552630901336,-0.0556580014526844,2.3505519035220144,-0.1852113137051463,-0.1820323914080858,4.285875238701701,-3.1948025877594945,8.221611928609013
1757088705934641400,2.678641357421875,0.1871186047792434,-0.7980982065200806,-0.2351958006620407,2.16415371811986,0.1322629828497767,0.4351894063532352,4.229561523066461,-3.224524064545333,8.239152845996617
1757088705944687400,2.688687255859375,0.0304151531308889,-1.2172977924346924,-0.3866016864776611,1.4536150464966893,0.0653828650146722,0.6291583192706107,4.135497922490537,-3.24652809882164,8.278167928567528
1757088705954734300,2.698734375,-0.1092271655797958,-1.4478377103805542,-0.4816959798336029,0.6735398973107337,-0.4710357957601547,0.5096346987456083,4.009070221665501,-3.26122531721592,8.334396596267819
1757088705964780300,2.7087802734375,-0.1732169538736343,-1.3877997398376465,-0.5039421319961548,-0.0907110752776265,-1.0818535716980695,0.1992325325340032,3.871604701736569,-3.2682620839849115,8.396402093803882
1757088705974826200,2.718826171875,-0.1266955286264419,-1.0307492017745972,-0.4631749987602234,-0.6956541139632463,-1.8300056424006816,0.3694382925480604,3.750506379240751,-3.274282951709628,8.448856503662466
1757088705984873200,2.728873291015625,-0.1097890436649322,-0.2170590311288833,-0.298743724822998,-1.3089941018551587,-1.9561308531478043,0.270479905667901,3.682096275359392,-3.2790900597304105,8.477033965876698
1757088705994919400,2.73891943359375,-0.0991995111107826,0.2921770513057709,-0.1533162146806717,-2.520702133956551,-0.8874120728328824,-1.1455945147246125,3.683085870918631,-3.277451060351729,8.477237379494309
1757088706004966100,2.748966064453125,0.1086511239409446,-0.3077394366264343,-0.2302773296833038,-1.2813158213347196,0.919039383240044,-1.5835200680434702,3.6810531960472463,-3.283762143194675,8.475677290570735
1757088706015012400,2.759012451171875,0.4473991096019745,-0.9921587705612184,-0.3098115622997284,1.8556258213475345,2.935849746017158,-1.9832541301339863,3.6139278712794174,-3.317425927865505,8.491443599501252
1757088706025059300,2.769059326171875,0.7759450674057007,-1.1208351850509644,-0.2950917184352875,1.041799793729186,3.307537863318622,-0.9456523726165296,3.510474803328514,-3.381158979846537,8.509681851503252
1757088706035105300,2.779105224609375,0.9690189361572266,-0.7615222930908203,-0.2042504996061325,-0.526703906968236,2.405357260420918,0.8713537952184677,3.420245081827044,-3.465688736140728,8.512418582990765
1757088706045151200,2.789151123046875,1.0352643728256226,-0.470692366361618,-0.1478249430656433,-1.3909189363479613,1.422500069525838,0.9218529793560504,3.3619448685497044,-3.5576790375739336,8.497684539717435
1757088706055198200,2.7991982421875,1.14470374584198,-0.0926500111818313,-0.1659490913152694,-1.022513493978977,0.7240963645935058,1.1345242546558378,3.331721287460625,-3.655497022247314,8.468020053815842
1757088706065244200,2.809244140625,1.2356178760528564,0.1400269120931625,-0.2776756286621094,0.0348629313275218,0.0627493016406893,1.6170803923398256,3.32614640993774,-3.7643344135850665,8.422405719110369
1757088706075291400,2.81929150390625,1.2494308948516846,0.3554593324661255,-0.3772906363010406,0.5810790557563305,0.1224117431819438,0.8554770116508007,3.3337402260676026,-3.8804105240046978,8.366538870459795
1757088706085337300,2.82933740234375,1.215476632118225,0.7091066241264343,-0.4805176258087158,0.077065704023838,0.6552770953893661,0.0647732086837291,3.360708604753017,-3.998630368454754,8.299819203883409
1757088706095384300,2.83938427734375,1.066443920135498,1.0719314813613892,-0.3746596276760101,-0.4242468643173575,0.904557561162114,-0.8281769167929888,3.416699956566095,-4.108748154991865,8.222819550833105
1757088706105430300,2.84943017578125,0.7772406339645386,1.4152271747589111,-0.1888757348060608,-1.3192261575341224,0.404060985378921,-1.6758897241830826,3.506329081825912,-4.195578589443862,8.140832757019997
1757088706115476500,2.8594765625,0.3502826690673828,1.7005343437194824,0.0642822235822677,-1.378722594858706,-0.1181421030387282,-2.6356086160749195,3.631815702408552,-4.244093029505014,8.060270443052053
1757088706125523500,2.8695234375,-0.1837116777896881,1.869112491607666,0.3511008620262146,-1.3244184654802085,-1.1969517769962548,-3.4428725086987018,3.783861828614771,-4.244020548790693,7.99005884270668
1757088706135569400,2.8795693359375,-0.8318066000938416,2.104297876358032,0.6066458225250244,-1.2329469272240996,-2.0706445365563035,-3.5903877134770155,3.963831734535098,-4.184655336630344,7.9339166842460624
1757088706145616400,2.889616455078125,-1.4563947916030884,1.9570595026016235,0.7691303491592407,-0.3308013956397772,-2.4821374255016444,-3.482753268188238,4.1559883373335005,-4.06510687392503,7.897662298560142
1757088706155662300,2.899662353515625,-1.9838052988052368,1.66436767578125,0.8836827278137207,0.9137544285744428,-2.986715133118629,-2.395672901752591,4.33268901232481,-3.892573547746241,7.889616354748606
1757088706165709300,2.909709228515625,-2.3231656551361084,1.4427175521850586,0.9975619316101074,0.9151064277052878,-2.5584157785400747,-1.541272579422593,4.49040266277343,-3.6790780965819954,7.903863491287827
1757088706175755300,2.91975537109375,-2.246236085891724,1.497014403343201,1.0357497930526731,0.074400576467812,-1.7364102438583968,-0.61409051399827,4.642774952194094,-3.448681779499352,7.919696435713767
1757088706185801200,2.92980126953125,-2.121217727661133,1.690898895263672,1.0750302076339722,-0.0572401828303933,-2.083083454629779,1.5832552796274422,4.8043432322442525,-3.2262080721095203,7.917085960954427
1757088706195848200,2.93984814453125,-2.187401533126831,1.9140459299087524,1.1482192277908323,-0.6558090103089809,-2.387998129341006,0.9246481630325316,4.983029820355773,-3.0003026367053387,7.895441115379333
1757088706205894100,2.94989404296875,-2.205023765563965,2.1976852416992188,1.1291661262512207,-1.0519804114818572,-1.3538856752440334,0.2327951949179172,5.177937475427985,-2.7678821203187107,7.854818013089894
1757088706215941000,2.959941162109375,-2.1565818786621094,2.5679500102996826,1.1259007453918457,-0.8866086474955082,-0.8156555811330676,0.8121931657195091,5.394740735965967,-2.536526018293202,7.786731734335422
1757088706225987000,2.969987060546875,-2.104257345199585,2.880232572555542,1.1223515272140503,-1.4976941344588994,-0.4751347555115818,0.8539742058724165,5.635024240812659,-2.308872716308385,7.686741081798076
1757088706236034300,2.980034423828125,-2.1344940662384038,2.966470003128052,1.071690559387207,-1.0113993947684763,0.5580265353403985,0.5112772052556276,5.884048101475835,-2.083282776594162,7.563616806432604
1757088706246080500,2.99008056640625,-2.250471353530884,2.744972944259644,0.9263007640838624,0.4134691574543714,0.3604537527121603,0.0556242720663547,6.1198588448226445,-1.8581768210045992,7.434038240361213
1757088706256126500,3.00012646484375,-2.4051673412323,2.4578373432159424,0.717484712600708,1.979114546111226,0.0229039057254791,0.3772387371659279,6.325173912140727,-1.634800027295202,7.313684598752856
1757088706266173400,3.01017333984375,-2.49641752243042,2.483644962310791,0.7456718683242798,1.623293860027194,0.1425248491451144,0.7680798832267522,6.516093958881497,-1.409057673498243,7.192042670899629
1757088706276219400,3.020219482421875,-2.053598403930664,2.371568202972412,1.0035756826400757,0.2904419127225875,0.9269444572761656,1.5030553692311048,6.70167439815998,-1.1859671493843198,7.060555056336522
1757088706286266400,3.030266357421875,-0.7746527194976807,2.1657111644744877,1.326423168182373,-1.0892390057742596,-0.3843604057393968,3.196315330410004,6.873929491919279,-1.0035283691324293,6.921880160617828
1757088706296312300,3.040312255859375,-0.0887204706668853,1.3081461191177368,1.3694723844528198,-1.4241846616119145,-4.263746116741001,3.6205274156749248,7.008509811800718,-0.8863312918588518,6.801880739274621
1757088706306359300,3.050359375,-0.4238178133964538,0.9709846377372742,1.2611684799194336,-0.0300175371229648,0.1485663212664425,-1.150152616420388,7.093510984998941,-0.7771938946612179,6.726697195735573
1757088706316405200,3.0604052734375,-0.548429548740387,0.5505761504173279,0.9776821732521056,1.3328063545972109,4.032089278203249,-2.4620816026836634,7.154041149285435,-0.6624000791370869,6.6746800082504745
1757088706326452200,3.0704521484375,-0.5390267372131348,0.1007497534155845,0.4475116729736328,2.6878309707432986,2.631432499434054,-0.7606283981770277,7.179122399049997,-0.5740649026779457,6.655900488978624
1757088706336498200,3.080498291015625,-0.4257745146751404,0.0603533275425434,0.058023564517498,2.144382849723101,1.3400864286027847,-1.2187883457511663,7.184173252698779,-0.5247110526505857,6.654522770884633
1757088706346544400,3.09054443359375,-0.3550674617290497,0.0402033366262912,-0.1305450499057769,0.3316407690733671,1.01191706196703,-0.9956085359185932,7.187201076087355,-0.502700369437784,6.652958005785941
1757088706356591000,3.100591064453125,-0.2604003250598907,0.1563898622989654,-0.1672780215740203,-0.3448474566489458,0.6901306743666529,-0.921436215248704,7.19196609853208,-0.49320780701451,6.648517977511882
1757088706366637300,3.11063720703125,-0.0791081935167312,0.3957553803920746,-0.0982217788696289,-0.9924503641486168,0.7431330734968185,-0.2436824996352195,7.2098928003668785,-0.491891536784172,6.629167964875697
1757088706376684500,3.1206845703125,0.0605027042329311,0.4973491132259369,-0.0154528617858886,-1.2789321410685777,0.8657367590542883,0.6322825887709855,7.239595280191302,-0.4959821670986711,6.596410189133882
1757088706386730200,3.130730224609375,0.08755474537611,0.4735251665115356,0.0456492528319358,-0.7170522913008928,-0.0032619974706321,1.5097282711237667,7.272375852286816,-0.500268502648361,6.559927839910984
1757088706396777500,3.140777587890625,-0.028863476589322,0.3024226427078247,0.0256009772419929,-0.3419856374770402,-0.7700351089477538,2.2028531588703397,7.298637836268544,-0.4996398858886212,6.530745000046491
1757088706406823400,3.150823486328125,-0.1547010242938995,0.1294516623020172,-0.0886893793940544,0.2899514988571405,-1.1830603220269085,1.978741036623716,7.311638187617063,-0.4957238814886659,6.516484419503808
1757088706416870400,3.160870361328125,-0.2319992780685424,0.1640394628047943,-0.1613260209560394,0.4397860864937305,-1.005871425127238,1.1735481050550938,7.319970547154545,-0.4927491034615784,6.507348926889896
1757088706426916400,3.170916259765625,-0.2990447282791137,0.2413521111011505,-0.1254756450653076,-0.0530652352333068,-0.5956025980841368,-0.0249047241538763,7.332186470127105,-0.4867261533776298,6.494037609896063
1757088706436962300,3.18096240234375,-0.3454178273677826,0.3161685764789581,0.0161328800022602,-0.1947404818117618,-0.3057470338821411,-0.733952572697401,7.350259886956215,-0.4701238320143893,6.4747980718970295
1757088706447009300,3.19100927734375,-0.3909318745136261,0.3192390501499176,0.1919469386339187,-0.2366296585142612,0.0324882746180519,-0.9021721273303032,7.371351190301776,-0.4389040429621935,6.452979038798809
1757088706457055700,3.2010556640625,-1.0304266214370728,-0.2916251420974731,-0.0867627263069152,-0.0674210928440093,-0.1130086856730282,-1.1234282756239176,7.382154908388853,-0.3894743877522647,6.443792692780495
1757088706467102700,3.211102783203125,-1.2769155502319336,-0.2419663667678833,-0.4946556687355041,1.6391390794128178,-2.406015285938233,-0.5782289270222186,7.359765966448188,-0.3339988399742171,6.472453554597497
1757088706477148700,3.221148681640625,-0.902355968952179,-0.1977443099021911,-0.1723572611808776,1.0980699624836443,-1.0551073113307357,0.1907400139987468,7.342538352793455,-0.2919304707799107,6.494020658761262
1757088706487195600,3.231195556640625,-1.013318657875061,0.0263468194752931,0.3531028032302856,-0.9538818563014267,0.475843890161626,-0.8796709571868181,7.337869776460528,-0.2235548171574249,6.502002889686823
1757088706497241900,3.241241943359375,-0.9697977900505066,-0.0168091729283332,0.8143066763877869,-0.8009744370907544,-0.7995003459502011,-0.2514882049500942,7.341333068656921,-0.1131392989159096,6.500951334807277
1757088706507288600,3.25128857421875,-0.9143075942993164,-0.576969563961029,0.4145988523960113,0.4006862482488155,-1.3314604929462075,0.1688900012403726,7.321511346855759,-0.0045040471207117,6.524250377330183
1757088706517334800,3.261334716796875,-0.8294062614440918,-0.6346437931060791,0.0914615541696548,1.0500438904613256,-1.7667901845529674,-0.0828062935024499,7.2799834046810865,0.0691515881647355,6.5701967204689975
1757088706527380700,3.271380615234375,-0.8260167241096497,-0.8261328339576721,0.0138503601774573,0.5742489174753427,-0.7150823064021766,0.8769774803191422,7.233245034381746,0.1267072301524691,6.620766047233343
1757088706537428000,3.281427978515625,-1.0307669639587402,-1.3308335542678833,-0.04282783344388,1.015909565669298,-2.094610226294398,0.6943038683980703,7.1617854798018925,0.1865810859546996,6.696596656504273
1757088706547474000,3.291473876953125,-1.3201489448547363,-1.9457353353500368,-0.0928524062037468,1.8227210383504628,-3.394719303165376,0.1187853693783283,7.050639811521768,0.2608590224235318,6.811081698340177
1757088706557521000,3.30152099609375,-1.3673995733261108,-2.609671831130981,-0.1072278842329979,1.545614408019185,-4.208016338473558,-0.234334241053462,6.893498700264096,0.3488627201722935,6.966232512563467
1757088706567566800,3.31156689453125,-1.2414963245391846,-3.104106903076172,-0.2957927882671356,1.0982990950644016,-4.247995005379617,-0.0023228899896144,6.690338180631398,0.4284950963463634,7.157244913762807
1757088706577613800,3.32161376953125,-1.2285799980163574,-3.197590112686157,-0.5666934847831726,0.5947784952849149,-3.702278939427435,0.3171282595962286,6.459888672056794,0.4892604576282203,7.362125681316852
1757088706587659800,3.33165966796875,-1.2994613647460938,-2.995577812194824,-1.0193079710006714,0.578181580749154,-2.5955820183739067,-0.1733832210063934,6.235566706451773,0.5313313841057941,7.550217226633429
1757088706597705700,3.341705810546875,-1.1705377101898191,-2.704542875289917,-1.0798066854476929,0.5098854586362839,0.8259677163109183,0.0582896918833255,6.017456454968452,0.5638662012793123,7.722865703624486
1757088706607752700,3.351752685546875,-0.4788059592247009,-1.3040882349014282,-1.0481239557266235,-2.687839738571644,4.400757170900702,2.198864381495118,5.862551724460721,0.5622731964668258,7.841220280370115
1757088706617799000,3.361798828125,-0.1470157951116562,-0.3742786049842834,-0.5176315307617188,-3.720296534416079,4.164352553313971,0.8812257854133844,5.80729336309731,0.5377097234986722,7.883947661462425
1757088706627846000,3.371845947265625,0.0341966599225997,-0.1490027010440826,0.0094365561380982,-3.1928017693310973,2.185679175098985,-2.201857718092203,5.789613914021849,0.5291959795122966,7.897514999043941
1757088706637891800,3.381891845703125,0.2486695498228073,-0.2416705936193466,0.0681797638535499,-0.934593802985549,2.681235225740075,-1.2539736409008502,5.774921371802687,0.5210093120558187,7.908807961952686
1757088706647938800,3.391938720703125,0.3174904584884643,-0.2841760814189911,0.0866753458976745,0.7135077505618334,2.469672203943133,-0.7948211751580238,5.7529328273564575,0.5010833626952022,7.926101626580953
1757088706657984800,3.40198486328125,0.1513462364673614,-0.4019117653369903,0.1596494168043136,1.2027858899772166,2.0712284739241005,-1.2444336591392755,5.7258840769112105,0.489220490944013,7.946402656331658
1757088706668031700,3.41203173828125,0.1401451677083969,-0.7871403694152832,0.0747241973876953,1.844455315774679,1.2783736304029822,-1.0056026911884546,5.678574044203758,0.4854045493850484,7.98050950859487
1757088706678077700,3.42207763671875,0.0784413293004036,-0.8390195369720459,0.1941121071577072,1.6680717439085244,1.8180498316690328,-1.324946873268485,5.610749631255865,0.4817302447864785,8.028560715058445
1757088706688123600,3.43212353515625,-0.1824794560670852,-0.8695492148399353,0.3309385776519775,0.2802157022625208,0.1029754405017942,-0.8569225342839956,5.538592742061614,0.5002138498516753,8.077386997547745
1757088706698171000,3.4421708984375,-0.5137265920639038,-0.256708949804306,0.5788847208023071,-0.2137976489812135,-1.1380820932678877,-0.0736468354910612,5.487175274035335,0.5521011273467913,8.109035350742936
1757088706708216800,3.452216796875,-1.0707666873931885,0.7894048690795898,0.8621377944946289,-2.2251824795782564,-2.6518568633034825,0.0069967270195484,5.501944973143935,0.6544939091224223,8.091389219415188
1757088706718263800,3.462263916015625,-1.5464723110198977,1.6748735904693604,1.0386731624603271,-3.362666168561577,-2.737833019013703,-1.0187433277904987,5.596456317487359,0.8149897376354783,8.011606657648086
1757088706728309800,3.472309814453125,-1.4398006200790403,1.757741928100586,1.0830409526824951,-2.124694983434677,-1.6672934530124068,-0.7954699944555759,5.727221462994813,0.998862423148006,7.89757169766724
1757088706738356700,3.482356689453125,-0.7903581857681274,1.109727144241333,0.9519705176353456,0.6654588821858167,1.8729180246710777,-0.2071896290183067,5.832553476560116,1.1476664256278424,7.799651421663165
1757088706748403000,3.49240283203125,-0.3660889565944671,0.244269922375679,0.7355600595474243,2.693654562330246,4.451204624851048,0.0701005411863327,5.874745435601472,1.24011214267835,7.753703324958682
1757088706758450000,3.502449951171875,-0.3486734628677368,-0.4326592683792114,0.4620757400989532,2.713510770922899,2.209427130433172,-0.252823837468028,5.858927104222774,1.3021183708667754,7.755502483335137
1757088706768495900,3.512495849609375,-0.37284716963768,-0.7740266919136047,0.2117022424936294,1.2655419136196373,0.3143133483059704,-0.2762391998469829,5.805283192318678,1.3499559345796703,7.787597411254048
1757088706778541800,3.522541748046875,-0.3116815388202667,-0.7158664464950562,-0.0223035961389541,-0.0189355866163969,0.0282307998366653,-0.6419821450084447,5.744221113112569,1.383001733482629,7.82698249618113
1757088706788588800,3.5325888671875,-0.1183947399258613,-0.5040777921676636,-0.168955385684967,-0.4455290140599012,1.7771796227507293,-0.0736754770636558,5.696911080405116,1.3943895350679754,7.8594708073318
1757088706798634800,3.542634765625,0.0672371685504913,-0.2609239518642425,-0.2089488804340362,-1.0292255588382482,2.5708634644418957,0.41018940513134,5.668739463409781,1.3846566610828042,7.881528325361013
1757088706808681700,3.552681640625,0.1752429455518722,-0.0783965811133384,-0.2083931565284729,-1.147968842640519,1.8165432264983647,-0.5155570745319128,5.658495717293024,1.3628070867158473,7.892692108932137
1757088706818727700,3.562727783203125,0.1106919199228286,0.011106664314866,-0.1813333183526992,-0.9310656288594008,1.398477827294916,-0.0219599028736352,5.658116947108507,1.3386930745482444,7.8970865444988
1757088706828774700,3.572774658203125,-0.0211805719882249,0.1217219084501266,-0.1387621462345123,-0.4684013556033372,-0.0714420189231634,0.0027735563665628,5.665614024865627,1.326602093129605,7.893751847118139
1757088706838820600,3.582820556640625,-0.1506440192461013,0.329016774892807,-0.0975289642810821,-0.2364730066478252,-0.5658857244081795,0.132696990352869,5.684478299811482,1.3261942429810762,7.88024588433504
1757088706848867800,3.592867919921875,-0.3981897830963135,0.5690584778785706,-0.0226780176162719,-0.5263455950498581,-0.5774259400762617,-0.8387176000297069,5.721014425048232,1.3431215585149825,7.8508853498160835
1757088706858913800,3.602913818359375,-0.7770646810531616,0.6195256114006042,0.137647733092308,-0.4846680152714252,-1.1873239708207548,-1.2111381232589482,5.76807135977745,1.3923271957106886,7.807761078360676
1757088706868960000,3.6129599609375,-0.9955137968063354,0.3632406294345855,0.3536712527275085,0.2917939118534326,-1.37361416580379,-0.3874918356329202,5.804440896275639,1.4773130252093076,7.765073444756865
1757088706879007000,3.623007080078125,-0.671039342880249,-0.1899682283401489,0.5130968689918518,1.5068290425509214,-0.1216777298189699,1.779678599959612,5.8076060823082925,1.5716659641206263,7.744155744412541
1757088706889053000,3.633052978515625,-0.231022298336029,-0.7219534516334534,0.6686124801635742,2.5354396843612195,1.4924036268353462,2.150434404847026,5.760319430476427,1.63846395663023,7.765601268023252
1757088706899100000,3.643099853515625,-0.1882039904594421,-0.6671621203422546,0.6502651572227478,1.9760604192376137,1.5171838478267192,0.3120961106479167,5.690772431519627,1.692692682684958,7.805147096469998
1757088706909145900,3.653145751953125,-0.3297426104545593,-0.1907493025064468,0.5505692958831787,0.5202168830364943,-0.0393695950970053,-0.162307700240612,5.645302473720908,1.746435524918884,7.826298021048307
1757088706919192800,3.66319287109375,-0.4989162087440491,0.3759623169898987,0.4694651365280151,-1.2790665811032056,-0.7975048612840473,0.3074672818034887,5.64309648810923,1.807708324266225,7.813962855610251
1757088706929238800,3.67323876953125,-0.7609062194824219,0.8825226426124573,0.3631539046764374,-2.027034819671512,-1.3694387798152865,0.3534101178109645,5.685374956390262,1.880151629186421,7.7660753152757875
1757088706939285800,3.68328564453125,-1.0172096490859983,1.1925346851348877,0.3052136301994324,-1.9035691835224624,-1.7535377581395208,-0.0827671305358409,5.760776526594162,1.9684170648775996,7.688246810185909
1757088706949331700,3.693331787109375,-1.1786056756973269,1.2519055604934692,0.3351233303546905,-1.322561439436674,-1.2894504663430153,-0.0327308877348899,5.848949900087714,2.071307384379208,7.594070396885275
1757088706959377700,3.703377685546875,-1.1226234436035156,1.1232845783233645,0.4183636307716369,-0.5603823046863079,0.3431574577353894,0.0010538929671049,5.931772560203075,2.1821263049229978,7.498182503491639
1757088706969424600,3.713424560546875,-0.8665006160736084,0.926708996295929,0.5469129681587219,0.3301502382546663,1.3829421122498808,0.1354839907228946,5.997724165016413,2.285423743920773,7.41448072245419
1757088706979470800,3.723470947265625,-0.6451901197433472,0.9746719598770142,0.7038871049880981,0.6396639311939477,1.2885294059753418,-0.016906126615405,6.05257979079783,2.3792383381716906,7.340021401536465
1757088706989517800,3.733517822265625,-0.4440082609653473,0.9457774758338928,0.7913514375686646,0.2210597489386797,-0.4744233923718333,-0.3001899842768907,6.105318278294801,2.465202072791755,7.267615506017208
1757088706999563800,3.743563720703125,-0.3378607928752899,0.6486970782279968,0.6790699362754822,0.1757376751780509,-1.2669243078887462,-0.591807370519638,6.145403620445728,2.5389935774505137,7.208183658361435
1757088707009611000,3.753611083984375,-0.3026430904865265,0.1736093312501907,0.4708786904811859,0.2841512881457805,-0.8354045299589633,-0.3466577209413051,6.160591252705454,2.597836227041483,7.174172667688131
1757088707019657000,3.763656982421875,-0.082554668188095,0.0465057007968425,0.0646818950772285,0.18211773160398,-0.1579965590432286,0.2568511932879686,6.158776896759868,2.6292618773967025,7.164276712095737
1757088707029704000,3.773703857421875,0.0991650894284248,0.2624509334564209,-0.2634277939796448,-0.9334183294653892,1.083324521033466,0.1276958210647106,6.173129247239232,2.620805014696717,7.155016716319322
1757088707039750000,3.78375,0.1331430226564407,0.3338478803634643,-0.4492543935775757,-1.6303443630605936,0.4905912678405642,-0.4485439779669046,6.20386749985218,2.589698513293266,7.139737898644804
1757088707049795800,3.7937958984375,0.1567492485046386,0.5152587890625,-0.5262559652328491,-1.085317448416352,-0.618963672992587,0.2013327196836471,6.246617677298188,2.54839122813195,7.117293427124619
1757088707059842800,3.8038427734375,0.2041178196668625,0.6284665465354919,-0.4589720070362091,-1.088258178043365,-0.9267077259108424,0.7704659015804529,6.300734467411041,2.5041873447462915,7.085209020599723
1757088707069888800,3.813888671875,0.2429589331150055,0.8480751514434814,-0.3717082440853119,-0.7088350825756787,-0.6351815250828862,0.4798544775098562,6.362593249952793,2.4613591336280107,7.044822649675608
1757088707079935700,3.823935791015625,0.2431546747684478,1.1756229400634766,-0.2297300547361374,-0.4096288486391305,-0.62865139266178,-0.2941495350688696,6.440923274824023,2.4247521351121364,6.986094566375017
1757088707089981700,3.833981689453125,0.171471357345581,1.3452003002166748,-0.0303499512374401,-0.480699696162343,-0.7157920621067285,-0.9716612586200236,6.534288371741772,2.401309884726256,6.907036227229237
1757088707100028700,3.844028564453125,0.0546161048114299,1.0954113006591797,0.0995832830667495,0.108808165243268,-0.3595715630501508,-0.6278524973690509,6.618150896298885,2.3965884091623124,6.828386468884348
1757088707110075000,3.854074951171875,0.008625098504126,0.6168180108070374,0.1339143365621566,1.0975789640963076,0.4919743927620351,0.1881564272463321,6.674597006142139,2.4023158468984067,6.771188079369068
1757088707120121600,3.86412158203125,-0.0549956895411014,0.1680572628974914,0.162914827466011,1.3509136736959215,1.171798046517372,0.9646101710647343,6.696597241026162,2.414267419846356,6.745168671971559
1757088707130167800,3.874167724609375,0.009663569740951,0.0702956318855285,0.1743426620960235,0.9184925630122422,1.3931472799219191,1.471664790189266,6.699107178020477,2.4275489262238144,6.737901311317086
1757088707140213800,3.8842138671875,0.0407951213419437,0.155121847987175,0.2220742404460907,0.1073188034683465,1.121493946560472,1.2697095546931028,6.701341220682859,2.4385338460966945,6.731711809027194
1757088707150261000,3.894260986328125,0.0019734795205295,0.2987255156040191,0.3385464549064636,-0.2461877604544162,0.7325412445947528,0.0457324081271886,6.709933107939362,2.4550389906957744,6.717139093795418
1757088707160306700,3.904306640625,-0.1007222682237625,0.1890695691108703,0.6062604188919067,-0.3003057196110487,-0.4418313285857438,-0.99904669367373,6.718112322741747,2.488424542947113,6.696647509908676
1757088707170354000,3.91435400390625,-0.4123651087284088,-0.5038623213768005,0.9168462157249452,0.2163227835446596,-2.1116782654732464,-2.020579359921813,6.689452629968524,2.557149704127013,6.699448538804054
1757088707180399900,3.92439990234375,-0.6082630157470703,-0.5534967184066772,0.7639349699020386,1.494481602153182,-1.4576722129330038,-0.8084440423190593,6.627548839241266,2.649685656744241,6.724965841898322
1757088707190446800,3.93444677734375,-0.6274147033691406,-0.2645642459392547,0.5625774264335632,0.5646463918715715,-0.0722106652081012,1.021290089663863,6.581895926091074,2.736508200150728,6.735026048141718
1757088707200492800,3.944492919921875,-0.5120316743850708,-0.0471211448311805,0.3510361909866333,-0.5788397523969412,-0.2295586972147226,0.2386211245924234,6.557761017265915,2.805570630460977,6.7301528891474005
1757088707210539800,3.954539794921875,-0.3503174781799316,0.2368437051773071,0.288876861333847,-1.2929308558046817,0.5567579767093062,-0.3284492795556784,6.5558338485956185,2.854230908733606,6.7115393740922205
1757088707220585700,3.964585693359375,-0.2977317571640014,0.2884584069252014,0.3337167799472809,-1.5020359630554914,0.7321314947500824,-0.4761439325541257,6.56547378360033,2.89568286306262,6.684309421861172
1757088707230632700,3.9746328125,-0.3396254479885101,0.2099649012088775,0.3822064697742462,-0.3620189562022686,-0.2573623576804995,0.273161692097783,6.571529430377483,2.9403640085712075,6.65879913302958
1757088707240679000,3.984678955078125,-0.35435351729393,0.1252771764993667,0.4620839953422546,0.1730436137884855,-0.363278893135488,1.0506067850410938,6.570226531085372,2.991064852760732,6.637474605450033
1757088707250724900,3.994724853515625,-0.3181616365909576,0.1253937631845474,0.5745136737823486,0.1944365304291248,-0.1329977268651127,0.623491964071989,6.562298076173663,3.0479373713225124,6.619415801668167
1757088707260771800,4.004771728515625,-0.2000600397586822,-0.0234622918069362,0.6523304581642151,0.2725216406285762,-0.0399964948236942,-0.3510176697164773,6.547061344075202,3.107566787377,6.606766163453459
1757088707270817800,4.01481787109375,-0.6151491403579712,0.0159001350402832,0.1648744344711303,1.1523194390654563,-4.129840627381205,-2.413216741749644,6.532319702017307,3.1574951858893034,6.59768269328773
1757088707280864800,4.02486474609375,-0.8797065019607544,0.0503068454563617,0.0780055746436119,-0.3338175285905599,-3.5065313263997435,-4.148711332067847,6.532406211256981,3.217282130593061,6.568651244592666
1757088707290910700,4.03491064453125,-0.920721709728241,-0.1425335109233856,-0.3030019998550415,-0.5012935713797807,0.1882525810971856,-1.8172656955540176,6.532439529004693,3.270621506592631,6.542224425438046
1757088707300958000,4.0449580078125,-0.8909590244293213,-0.2230898737907409,-0.7434340119361877,0.1015928270369768,1.1904586155846717,-0.2330290036737918,6.537379323494434,3.295377762186527,6.524841913482547
1757088707311004000,4.05500390625,-0.7983999848365784,-0.0992719829082489,-0.989386260509491,-0.9500912318468092,2.427847909170389,1.2255676306277512,6.554916733750701,3.29294732016921,6.508451919695735
1757088707321051000,4.06505078125,-0.7332544922828674,0.1961897611618042,-1.0484410524368286,-1.6444734261780976,1.4216571889609098,1.7795079195678234,6.592090572369099,3.2750179879859087,6.47988867303431
1757088707331096800,4.075096923828125,-0.6681992411613464,0.2771607935428619,-1.0351864099502563,-1.2478987049013377,0.2335761161625385,0.9694494277894496,6.642634764692187,3.251184692455828,6.440156382104754
1757088707341142800,4.085142822265625,-0.7109075784683228,0.1550367772579193,-0.9789308309555054,0.1671317593961954,-0.3566398935124278,0.1837280894100666,6.690163408586383,3.227288560822606,6.402872068849206
1757088707351189800,4.095189697265625,-0.9083470702171326,-0.1489558964967727,-0.940850794315338,1.1983996377170083,-1.211541443362832,-0.4169125759065151,6.722067782369256,3.2145901150301097,6.375780063784122
1757088707361236000,4.105236083984375,-1.1147921085357666,-0.5415617227554321,-1.006957769393921,1.834806028419733,-2.2254639268681404,-1.1047656607300045,6.73089932360053,3.213969937305152,6.366771996942163
1757088707371282700,4.11528271484375,-1.2296088933944702,-0.4981080293655395,-1.0847539901733398,1.9769383711159227,-2.448898588244617,-2.1137673467069864,6.728678140419722,3.2180358715698123,6.367066011452675
1757088707381329000,4.125328857421875,-1.5788191556930542,-0.5271825790405273,-1.274217128753662,1.1178355701833962,-3.3354648579031227,-3.2947318654984232,6.740681881946325,3.2283243336111305,6.349134048920869
1757088707391376000,4.1353759765625,-1.6797491312026978,-1.7341227531433103,-1.6729835271835327,1.341663030269742,-4.499563874350488,-4.438700240325928,6.703153823062777,3.2294396013766526,6.3881783575862645
1757088707401421800,4.145421875,-1.8438979387283323,-1.334352970123291,-1.74872887134552,1.8004408174812794,-3.252653011442721,-3.4590894840061663,6.662612553837895,3.2285613572373983,6.4308917101532215
1757088707411468800,4.15546875,-2.055259943008423,-1.5471285581588743,-1.8787394762039185,-1.020473512583971,-1.9665677837491036,-4.584948201647401,6.627095250254869,3.232651256899536,6.465443968096375
1757088707421514800,4.1655146484375,-2.436547040939331,-0.9052011966705322,-1.650565266609192,-0.7438900293439626,-0.0103176881358027,-4.519522666534781,6.602949820035696,3.2595483239144083,6.476632301586866
1757088707431560700,4.175560791015625,-2.428427457809448,0.0169561877846717,-1.3074216842651367,-1.975828364047408,-0.7766951513588428,-1.2888789500653743,6.623423868265748,3.321881445969641,6.423843545207381
1757088707441607700,4.185607666015625,-1.8874855041503904,0.1542277634143829,-1.2096775770187378,-1.8851900617450477,1.1592033533602952,2.883050760504603,6.675088589051366,3.379304876412451,6.339862362706661
1757088707451653600,4.195653564453125,-1.1411547660827637,-0.1592108309268951,-1.1680314540863037,-0.2058142490118741,5.129591085410118,4.897663905498385,6.71355480556786,3.393766532485187,6.291338862556219
1757088707461700900,4.205700927734375,-0.6785753965377808,-0.1003704071044921,-0.9972570538520812,0.0403764340519905,4.619090709745883,3.5564912890940903,6.742247231566906,3.3764953719496726,6.269910874602198
1757088707471746800,4.215746826171875,-0.3606414496898651,-0.1534005403518676,-0.7579139471054077,-0.2956120088368654,2.445858489896357,2.4100872115522622,6.7653440295159815,3.3490076455652718,6.259766497206687
1757088707481793800,4.225793701171875,-0.1244629919528961,-0.4838863015174866,-0.4738630652427673,0.0686105948895215,1.2173019065856934,1.1705109293162823,6.764290136548876,3.321655528259277,6.275455649247765
1757088707491840000,4.235840087890625,-0.0345031693577766,-0.2857422530651092,-0.1657588481903076,-0.1691945371448993,1.1660551189512014,0.4958803141593932,6.750555041185021,3.304966843786836,6.299013634967803
1757088707501886700,4.24588671875,-0.0121589824557304,-0.2890506982803345,0.0266726594418287,-0.1931429834872484,1.137996606941521,0.4379898507267236,6.734851276096701,3.3022005939438936,6.317252471491694
1757088707511933000,4.255932861328125,-0.036501795053482,-0.319534420967102,0.1318540573120117,0.3034031011044979,1.6901795308202503,0.402179117155075,6.712205729046463,3.309212810793519,6.337647609266639
1757088707521980200,4.265980224609375,-0.0508642233908176,-0.2881019115447998,0.1700584292411804,0.2301023025721311,2.3883552722156045,0.7731120321750641,6.687793756845593,3.32241423767209,6.356521821084618
1757088707532026000,4.276026123046875,-0.0453832186758518,-0.2847791016101837,0.1939937472343444,0.0335907194346189,2.5958900614097717,1.3492524624854323,6.663439652311801,3.3378391858190297,6.37399259584546
1757088707542071800,4.28607177734375,-0.0216379407793283,-0.3101201355457306,0.2192349284887313,0.1141822594970464,1.9926345374196768,1.5849802037239074,6.636867871728539,3.3539176294386386,6.393248500457406
1757088707552119000,4.296119140625,-0.0277269389480352,-0.2931021153926849,0.2154542207717895,0.2256388934224844,1.2036705638572571,1.3617922105848788,6.610258097222447,3.370003671842813,6.412331971111893
1757088707562165000,4.3061650390625,-0.0505829863250255,-0.2189192324876785,0.19275663793087,0.0682733257591724,1.202734744311869,1.070703816652298,6.586409604123235,3.386351287792623,6.428235058164597
1757088707572212000,4.3162119140625,-0.0404201298952102,-0.1114035323262214,0.1404586285352707,-0.07756547023952,1.1800763377800585,0.7727648261725902,6.56989393813014,3.4004809354320167,6.437674502161145
1757088707582258000,4.3262578125,-0.0620713643729686,0.0160239320248365,0.0656600296497345,-0.0917822116404771,1.102172137105465,0.1764396859675645,6.563159076917171,3.4105987170815464,6.439187829333544
1757088707592305000,4.336304931640625,-0.0945855304598808,0.0863900557160377,0.0177624933421611,-0.1606838984310626,1.522484584583342,-0.1661024163484573,6.565172170305252,3.418249231834709,6.433073730367422
1757088707602350800,4.346350830078125,-0.1293530911207199,0.1027629077434539,0.0091607496142387,-0.1732984653323888,1.8847829422488809,-0.1776449701040983,6.571354073810577,3.426304820257425,6.422471672332287
1757088707612397800,4.356397705078125,-0.1902994215488433,0.0693924650549888,0.0735441222786903,-0.123532271644473,2.0269372045159337,-0.3108984252959489,6.575009673708677,3.4390260624036197,6.411924559354782
1757088707622444000,4.366444091796875,-0.0710476040840148,0.0654216930270195,-0.0040015359409153,-0.0738835668563842,1.492398073877394,-0.1241723231136798,6.579228168186545,3.450131978307664,6.401619438439608
1757088707632490800,4.37649072265625,0.0744612663984298,-0.0795379728078842,0.0099610108882188,-0.1865390551775693,1.3416343886971474,-0.488467407554388,6.579058656838536,3.4497619759514926,6.401996455058455
1757088707642537000,4.386536865234375,0.1577036827802658,-0.1885214447975158,0.063186414539814,-0.2114496245503425,0.7180357493802905,-0.8543319332689047,6.568653582680225,3.44428383680135,6.415613477000594
1757088707652583000,4.3965830078125,0.2108192443847656,-0.2787392437458038,0.1324748992919922,-0.1907382604330778,-0.0587236993864178,-1.2205389888107776,6.5500371450155965,3.4388872384548184,6.437504406291246
1757088707662630000,4.4066298828125,0.2272376269102096,-0.2761216461658478,0.1844547390937805,-0.0839192231804132,-0.8466694358170032,-1.2488234185308218,6.526266393327712,3.434950775788724,6.463693325036764
1757088707672675800,4.41667578125,0.245140790939331,-0.2243727445602417,0.2170356065034866,-0.0199602534890174,-1.3095944058358668,-1.1680845789521932,6.503308127066493,3.432952003186941,6.48785103021562
1757088707682723000,4.42672314453125,0.2808670997619629,-0.2934548854827881,0.2256360203027725,0.2003507229089736,-1.240493981602788,-1.097224159309268,6.479172049197555,3.4302903827622533,6.513357227393985
1757088707692769000,4.43676904296875,0.3206897377967834,-0.3730922043323517,0.2359946072101593,0.3721224170655012,-0.9448752507641912,-1.1276754116743803,6.449408779096603,3.42556832267642,6.545306609362363
1757088707702816000,4.44681591796875,0.3235744535923004,-0.3820537328720093,0.248460590839386,0.4440981044739484,-0.4631912197396159,-1.0241741206675767,6.415590096125007,3.4198809246897697,6.581416033619642
1757088707712862000,4.456862060546875,0.2997175455093384,-0.3227734565734863,0.2811217606067657,0.4592980116933584,-0.5553717830479145,-0.9537707971423864,6.383179526385665,3.415993561862409,6.61485945353806
1757088707722909000,4.466908935546875,0.2008226662874221,-0.2281963676214218,0.2395466268062591,0.4122907613247633,-1.2779331931591034,-0.7788450228691101,6.354920815628766,3.4170030311658977,6.641497285094857
1757088707732955000,4.476954833984375,0.1559087187051773,-0.281168669462204,0.1228785812854766,0.2743891880661249,-2.3139698933169246,-0.527585950499773,6.333010597115755,3.4163507047370074,6.662729458215832
1757088707743001000,4.4870009765625,0.1214466169476509,-0.3520702719688415,0.0091549511998891,0.0882242268979549,-2.15920194093138,0.0346393517047166,6.308633696228266,3.411519046796858,6.6882789100140325
1757088707753048000,4.497048095703125,0.0871840342879295,-0.2974682748317718,-0.0779034048318862,-0.1232622225314378,-1.6442258811578154,0.4032435315161943,6.288033391270041,3.402019104784727,6.7124740245938295
1757088707763094000,4.507093994140625,0.0851046368479728,-0.2912905514240265,-0.0757747367024421,-0.2469131521195173,-1.1892758355408906,0.369907079103589,6.27117577997148,3.391194051648676,6.733691000145673
1757088707773141000,4.51714111328125,0.1012960746884346,-0.318577378988266,-0.0170529354363679,-0.0722960054039955,-0.5240864179462195,0.3296335209041833,6.252178818556666,3.3818650822892784,6.756006292328238
1757088707783187000,4.52718701171875,0.1009168401360511,-0.3576571345329284,0.0372220203280448,-0.0191103586614131,-0.3566685350850224,0.0067851300954818,6.228622586402297,3.3757568285420536,6.780776576447487
1757088707793234000,4.53723388671875,0.1071314588189125,-0.3817852139472961,0.067728653550148,-0.0414162984937429,-0.372542396043241,-0.2085994958162307,6.201546947950124,3.371878233543038,6.807467599496245
1757088707803280000,4.54727978515625,0.0892893448472023,-0.371259868144989,0.084725484251976,-0.0928770211398601,-0.278490193644166,-0.3121685913622379,6.173100605666637,3.369852865195274,6.8342720197916025
1757088707813326800,4.557326904296875,0.0820448026061058,-0.3804494142532348,0.106852650642395,-0.0554366405397653,-0.3753390410244465,-0.3535521566301584,6.144043438008428,3.3698876442477106,6.860395472085475
1757088707823372800,4.567372802734375,0.1029125303030014,-0.380400151014328,0.1379090994596481,0.0900426744967699,-0.3728668056920171,-0.3391898692786693,6.113633686697483,3.370856781540811,6.887032719120383
1757088707833418800,4.577418701171875,0.0955079272389411,-0.3765695989131927,0.1544709503650665,0.1053062946021556,-0.319190160562098,-0.4731272150814533,6.0828060022354125,3.372993793569505,6.913229236650467
1757088707843466000,4.587466064453125,0.1146406158804893,-0.3780678808689117,0.1724723279476165,0.0725701461702585,-0.2880456652358174,-0.2823486226379871,6.050900459408759,3.375668273475766,6.9398758360356085
1757088707853512000,4.597511962890625,0.102941483259201,-0.3524147570133209,0.1573476493358612,0.0138660282671451,-0.1502282631292939,-0.1261111822217702,6.019671792930365,3.378210359174013,6.965746774873137
1757088707863559000,4.607558837890625,0.1011790037155151,-0.3568864464759826,0.1669206470251083,-0.1030249056667089,-0.2245791552364826,0.1035837085932493,5.989470131412148,3.380586148394644,6.990586032575369
1757088707873605000,4.617605224609375,0.0917878225445747,-0.357304185628891,0.1707959771156311,-0.1329869132101535,-0.1633273986771702,0.2465489949822425,5.958676933741569,3.383976959876716,7.015212524309754
1757088707883652000,4.627652099609375,0.1197443529963493,-0.3581750392913818,0.1904162764549255,-0.1949865655273199,-0.1974544169455766,0.4162134877264499,5.927303305834531,3.3871292864277955,7.040227723100781
1757088707893698000,4.637697998046875,0.1313313692808151,-0.3316147029399872,0.1972285211086273,-0.1998299139052629,0.0740551240310072,0.365544792240858,5.89623421383202,3.3897558355391024,7.065009113135933
1757088707903745000,4.6477451171875,0.1479777246713638,-0.3071682155132293,0.2052885740995407,-0.1895505119532346,0.1151221706956625,0.3363233739316463,5.866651560994982,3.3916347811535,7.088693940106034
1757088707913791000,4.657791015625,0.1551648378372192,-0.2719736695289612,0.2066804468631744,-0.1236807402044534,0.2349377599045634,0.2477303137212991,5.838789156079292,3.393025650990009,7.1109975418508045
1757088707923838000,4.667837890625,0.1757193803787231,-0.2487290501594543,0.2170838117599487,-0.1148310787945985,0.3027390842378139,0.1516401757538318,5.813180667570233,3.393608711574972,7.13167032752335
1757088707933884000,4.6778837890625,0.1804060041904449,-0.2083275765180587,0.2161267548799514,-0.1333820500075817,0.4655550262615084,0.0436252067148685,5.789084337189793,3.3935987747028467,7.151250057262182
1757088707943929900,4.687929931640625,0.1807428896427154,-0.1766476780176162,0.1991243362426757,-0.1316138712912797,0.4481806976124644,-0.0591004237443208,5.768461820399761,3.39256709356755,7.168382393848896
1757088707953976800,4.697976806640625,0.1692016273736953,-0.1491256207227707,0.1734723448753357,-0.1468552795648574,0.4263455901622772,-0.032126492100954,5.75018498995304,3.390760044145584,7.183906126195192
1757088707964022800,4.708022705078125,0.1604765802621841,-0.127152681350708,0.1614766716957092,-0.2072463276416063,0.2981181464388966,-0.0161889182567596,5.734560135319828,3.3885037896513936,7.197447744813561
1757088707974069800,4.71806982421875,0.1476051211357116,-0.1074604392051696,0.14686980843544,-0.2969622544020414,0.2155155588150024,0.0769213271170854,5.720877062404155,3.386261563682556,7.209383097279072
1757088707984115700,4.72811572265625,0.1362523287534713,-0.0877312123775482,0.1304024308919906,-0.3265601048082113,0.132462012553215,0.1254880818873643,5.70917434965074,3.383871745936572,7.21977238934636
1757088707994163000,4.738162841796875,0.1217089369893074,-0.0807539671659469,0.1135670244693756,-0.3276519916981458,0.006262567526102,0.1997410665780305,5.699043416258692,3.3815324893340466,7.228867549949884
1757088708004209200,4.748209228515625,0.1037360653281211,-0.0666858255863189,0.0944130420684814,-0.3041477819919586,0.0195475810348987,0.2228250050455331,5.690054638639092,3.379470880629122,7.236908817586302
1757088708014256000,4.758256103515625,0.0991130769252777,-0.0586211867630481,0.0816470086574554,-0.2979921819716691,-0.0635498043686151,0.2088695449292659,5.682253024977445,3.3771251942858096,7.24413117005527
1757088708024302000,4.768302001953125,0.0867959558963775,-0.0408560372889041,0.0555304549634456,-0.3017424744158983,0.0643245881333947,0.1146393556147813,5.67612665105164,3.3743472540050745,7.250223641711473
1757088708034349000,4.77834912109375,0.0812318697571754,-0.0144350379705429,0.0517911165952682,-0.3093108638435602,0.0322308292582631,0.1138736319392919,5.67247163567543,3.371126538392901,7.254580667877197
1757088708044395000,4.78839501953125,0.090903140604496,-0.00339250639081,0.0627937018871307,-0.2826847227245569,0.1511079685732722,0.0489893640965223,5.669489404994249,3.3682191265136003,7.258264324826001
1757088708054441000,4.79844091796875,0.1012457236647605,0.0233364850282669,0.0786908790469169,-0.2093517754882574,0.1309875560864806,-0.0034895956814289,5.6678311163932085,3.3652947634994983,7.260912793508171
1757088708064488000,4.808488037109375,0.1124102249741554,0.0282809101045131,0.1022968739271164,-0.2097059957534074,0.0705287034705281,-0.0459948584556579,5.6665399075388905,3.3626068395897746,7.263165540871023
1757088708074534000,4.818533935546875,0.1172243580222129,0.046740248799324,0.0955845415592193,-0.099233112168312,-0.0551882187366485,-0.0009264671951532,5.666051247239112,3.359934697771072,7.264784666505456
1757088708084580900,4.828580810546875,0.1197753995656967,0.02479899674654,0.0977781862020492,-0.1218096856355667,-0.1841051060289144,0.0004833996027708,5.665732682809233,3.356721580943465,7.266517189386486
1757088708094626800,4.838626708984375,0.1458287537097931,0.0667108297348022,0.0158346407115459,-0.0625935265570879,-0.1790732493415474,0.0567816254079341,5.665773599341511,3.3515397943913934,7.268876319733262
1757088708104673800,4.848673828125,0.2068071663379669,-0.051220066845417,0.00036460487172,-0.0751519793570041,0.2652165783122182,-0.0709814156740903,5.666959594255686,3.3382065578266977,7.274086747857928
1757088708114719700,4.8587197265625,0.2098844349384308,-0.1175638809800148,0.103639155626297,-0.0504892472654581,0.1896478348478674,-0.1099807161539793,5.658757583099604,3.325788682541251,7.286151864182949
1757088708124766700,4.8687666015625,0.1964839398860931,-0.1026744171977043,0.1313115209341049,0.280955706974864,-0.2821729738101363,-0.1167225916296243,5.645741449660062,3.318020971149206,7.299777069431543
1757088708134813000,4.87881298828125,0.1740778684616089,-0.0092743001878261,0.0779199004173278,0.3404424996882677,-0.1629509665802121,-0.1095621984809637,5.637879630243778,3.310578253927827,7.309226450300216
1757088708144860000,4.88885986328125,0.1265465766191482,0.0288770794868469,0.0567965060472488,0.1442646785497665,-0.280860429906845,-0.238687175565958,5.637134364834427,3.302941475439072,7.313253806120157
1757088708154906000,4.898906005859375,0.0979213193058967,-0.0028829264920204,0.0883830189704895,0.1057405943661928,-0.4509127529248595,-0.1936521020531654,5.635853092852234,3.298815335419774,7.316102181288599
1757088708164953000,4.908953125,0.0972613841295242,-0.0003156391612719,0.0390181355178356,0.2057411837756633,-0.2603402044475078,-0.246231015074253,5.6320694826602935,3.296187325003743,7.320197926169634
1757088708174999000,4.9189990234375,0.1179928481578826,-0.0800066515803337,0.0466113649308681,0.0214876091867685,0.0398024335563182,-0.4459884482651948,5.627781430077553,3.2902330927744505,7.326176416057348
1757088708185045000,4.929044921875,0.1341145634651184,-0.10036251693964,0.0455330535769462,-0.022754852643609,0.1985030492156743,-0.4977279878526925,5.62084783142209,3.282816094516217,7.334820325762033
1757088708195092000,4.939092041015625,0.0924849882721901,-0.1687113046646118,0.2104863673448562,0.0341828401088714,0.1810100626230239,-0.460921228981018,5.6068543773829935,3.281304228648543,7.346194537213444
1757088708205138000,4.949137939453125,0.0813918560743331,-0.149625763297081,0.2669520676136017,0.4719119940727949,0.5485360918089747,0.1441080266833305,5.5869151666820045,3.2889205488711597,7.357974406856298
1757088708215185000,4.959184814453125,0.0942005366086959,-0.1290217638015747,0.2460301369428634,0.536060348856449,0.7993886292040348,0.3525537932425737,5.5679573682338,3.296941065980494,7.368746560761332
1757088708225230800,4.96923095703125,0.1209911331534385,-0.1030101478099823,0.1792825311422348,0.2568342421531677,0.7698264346331357,0.3989285909265279,5.552397395530343,3.3010648679122325,7.37863550209105
1757088708235277800,4.97927783203125,0.1349448561668396,-0.0981766879558563,0.107219822704792,0.0712426969587802,0.5842962642371654,0.3105512192934751,5.540318250679969,3.299398688265681,7.388454885315895
1757088708245323800,4.98932373046875,0.1515797525644302,-0.1391323804855346,0.0787652805447578,-0.1056564232140779,0.293928585794568,0.2213391504019498,5.529121149361133,3.293632672084868,7.399404149353503
1757088708255370800,4.999370849609375,0.1462772935628891,-0.1364335715770721,0.080389954149723,-0.1732972962886095,0.3364803180590272,0.1150888529479503,5.515808078801632,3.286993964722752,7.41227999753952
1757088708265417000,5.0094169921875,0.1561863869428634,-0.1084583848714828,0.0706382542848587,-0.2672755566686391,0.3108344201490283,0.0624848054856061,5.504142775449156,3.280019157274068,7.424035901784896
1757088708275464000,5.0194638671875,0.1775950789451599,-0.0682676807045936,0.01949343085289,-0.3642658583462238,0.1956298318669199,-0.0207902745723724,5.496387923538684,3.270127585595846,7.434138193604349
1757088708285510000,5.029510009765625,0.2047454714775085,-0.0619237646460533,-0.0138970157131552,-0.4261263944536447,0.0053735097318887,-0.14602993465662,5.49180702548921,3.2556787890046834,7.44385470097661
1757088708295555800,5.039555908203125,0.223371610045433,-0.0490085482597351,-0.0123225720599293,-0.3900760069072246,0.0092427523806691,-0.1061661263018846,5.48777908514738,3.2389404201716183,7.454119489881396
1757088708305603000,5.04960302734375,0.2350586205720901,0.0505880862474441,-0.0553616508841514,-0.3333919966548681,0.1275613810300827,-0.0718020844072103,5.488408615222573,3.2201313825443387,7.461805952730774
1757088708315649000,5.05964892578125,0.230214774608612,0.0741873830556869,-0.0851106867194175,-0.3778647601097822,0.4168731206789612,-0.1124351235687732,5.496218412190675,3.1982214562922717,7.465476750198007
1757088708325696000,5.069696044921875,0.247229978442192,-0.0281294006854295,0.0270970743149518,-0.1969797851711511,0.5622165343761444,0.2746720966607332,5.499387105354667,3.178723559617996,7.471467515045404
1757088708335742000,5.079741943359375,0.3701121807098388,-0.0778697282075882,0.2165055871009826,0.1981704562604427,0.8207184174805879,0.6492389842689037,5.490750794434547,3.1623350271359083,7.484761296382546
1757088708345789000,5.089788818359375,0.3413023650646209,0.1007594019174575,0.2694391310214996,0.271399358600378,1.2293407194256782,0.3329571123689412,5.482765640899538,3.1493548417925834,7.496082316341996
1757088708355835000,5.0998349609375,0.2065841555595398,0.1787790209054947,-0.0031367752235382,0.2385767009288072,-0.5858890863865613,0.1505681626081466,5.489700408598781,3.1358634920567274,7.496662746578455
1757088708365881900,5.1098818359375,0.019755944609642,0.0634361803531646,-0.2025244534015655,-0.1193394961297512,-2.0881641188949347,0.1902981154501438,5.503301063928007,3.121113082170486,7.492846403160691
1757088708375927800,5.119927734375,-0.0295305866748094,-0.0163323283195495,-0.2680642008781433,-0.4838321489691734,-1.8640502430826424,0.4028706065505743,5.5143502812087535,3.1075393148481845,7.490365107738971
1757088708385974800,5.129974853515625,-0.1074815765023231,-0.1102545633912086,-0.0283102057874202,-0.5701373905032873,-0.6751157683253288,-0.0931131679832935,5.512668027210236,3.104182990157604,7.492993702676892
1757088708396021000,5.14002099609375,-0.1370257139205932,-0.0852246657013893,0.1429483443498611,-0.1822217765003442,0.9264832695052028,0.3818488613098859,5.503635410448909,3.117323626759648,7.494177944025397
1757088708406068000,5.15006787109375,-0.0539068467915058,-0.0268228743225336,0.2721726596355438,0.2804758145034313,1.0253732673242688,0.7898989163249731,5.492542938548326,3.136796681253612,7.494188465419411
1757088708416114000,5.160114013671875,0.0812913700938224,0.064801812171936,0.1860804408788681,0.2537888831079006,1.4382099720939994,0.4615303007900714,5.4870595387011765,3.1490812855482098,7.493056831040978
1757088708426159900,5.170159912109375,0.1141686290502548,0.0274533759802579,-0.2358958423137664,0.1085293483018875,0.9488727959677576,-0.0435258379936218,5.495249274897575,3.1386276960730557,7.4914382899284355
1757088708436206800,5.180206787109375,0.1439114809036255,-0.2184679508209228,0.4777456223964691,-0.546808537364006,1.0679352287217974,0.3858411458164453,5.474675273424387,3.135385937672853,7.50784348128438
1757088708446252800,5.190252685546875,0.083575963973999,0.1646514683961868,0.5677040219306946,0.2532885323703289,-0.7098255549177527,0.0162467859238386,5.458529025265574,3.157747991606593,7.510227161550522
1757088708456300000,5.200300048828125,0.152828186750412,0.3447273969650268,-0.0091433692723512,0.619950345942378,-1.2629112728551029,-0.4231763124763965,5.46566019231975,3.167947606320679,7.500734526062011
1757088708466346000,5.210345947265625,0.199452668428421,0.0786714926362037,-0.5483810305595398,-0.3745563662141561,-1.3314692607745529,-0.3417272788017988,5.496352267703414,3.1363983295857905,7.491562793090939
1757088708476393000,5.22039306640625,0.2123835831880569,-0.1103407070040702,-0.3907002806663513,-1.850481736457348,-0.3748825294286012,-0.3538952709794044,5.50089108017683,3.0951445281773804,7.505375629866123
1757088708486439000,5.23043896484375,0.3094328939914703,0.5247872471809387,-0.8732296228408813,-1.1967717442542314,0.0951508112907409,-0.0863169319719076,5.546587832468748,3.0411040181711315,7.493828399935363
1757088708496486000,5.24048583984375,0.4903315603733063,-0.2484843581914901,-0.7554673552513123,-0.9630752165824176,-0.7937877404570579,-0.8066659267306328,5.586278037822246,2.960390313033759,7.496663331100344
1757088708506531800,5.25053173828125,0.4460258781909942,-0.5677919983863831,0.065402552485466,0.0818406633406877,1.7546540488183495,0.1101940666437149,5.5606952682763335,2.904762241575121,7.537336117750406
1757088708516578800,5.260578857421875,0.2608942985534668,0.1437492817640304,0.321638822555542,0.7096545822650194,1.1696145649984475,0.372529244300723,5.529336253416538,2.8922984813213346,7.565148253783583
1757088708526625000,5.270625,0.0081856297329068,0.9459514617919922,-0.5656846165657043,0.4301292003542185,-2.627769593012333,-0.4934446114450693,5.595626880925893,2.874372071747481,7.523119376349449
1757088708536671000,5.2806708984375,-0.0724524930119514,0.0515639558434486,-0.621601939201355,-0.5529471862494946,-3.0023750590652227,0.0532277323186397,5.647808319061994,2.839868329121172,7.497187062713503
1757088708546718000,5.290718017578125,-0.0980774313211441,0.0052364021539688,-0.099603995680809,-0.3372317209482193,1.2555346066072584,1.2187228792995213,5.658492794683576,2.825980089022219,7.494374343380332
1757088708556764000,5.300763916015625,-0.0721712857484817,0.0501466765999794,0.0846456438302993,-0.2776829689145088,0.5473764003798365,0.1269195759952068,5.660297213757038,2.834134169383347,7.489933730584383
1757088708566811000,5.310810791015625,-0.0511139370501041,0.0341804921627044,-0.0216328632086515,0.4703554122805595,-0.0261506325617432,0.4263666329503059,5.661944980964064,2.840385630993545,7.486321969828009
1757088708576856800,5.32085693359375,-0.0400027707219123,0.0853438824415206,-0.0184495318681001,-0.0443581971645355,0.4553080652743577,0.326454306346178,5.667590877896547,2.842256685562432,7.481338336196542
1757088708586904000,5.330904052734375,-0.0173091776669025,0.0576318278908729,0.0028400437440723,-0.3240636118173599,0.499090508377552,0.1574468162059784,5.673009395813942,2.8442621801659462,7.476465177202225
1757088708596949800,5.34094970703125,-0.000656648655422,0.0589958354830741,-0.0282691195607185,0.0986485902786254,0.3218330762863159,0.1509662220150232,5.677511383408308,2.8441987595409155,7.473068520501256
1757088708606997000,5.3509970703125,-0.0050926757976412,0.0892498791217804,-0.0448411703109741,0.1862012015253305,0.1849248979791998,-0.0809679721593856,5.684081993970275,2.8420944807380435,7.468876914030313
1757088708617043000,5.36104296875,-0.0154284043237566,0.0815730467438697,-0.0480529442429542,0.1323088678181171,0.0301157368004322,-0.1044610759496688,5.691884192153811,2.8402321939975024,7.463637259811162
1757088708627090000,5.37108984375,-0.0264365803450346,0.0774821639060974,-0.0544887371361255,0.1997586022347211,-0.1082695283219218,-0.018049451431632,5.699255013182759,2.839006451594829,7.458481192222237
1757088708637136000,5.381135986328125,-0.026747902855277,0.0658159255981445,-0.0699483901262283,0.1546469563543796,-0.2219268871620297,0.079022098788619,5.706356954142451,2.837591616360843,7.453584067830443
1757088708647182800,5.391182861328125,-0.01573789678514,0.0606929659843444,-0.0921838283538818,0.120380529615283,-0.2321872921526432,0.2103583221822977,5.712939839664101,2.834833549824357,7.449588276192546
1757088708657229000,5.40122900390625,-0.0061131184920668,0.0261064171791076,-0.1014000326395034,0.0493809937626123,-0.2373290389552712,0.1379512576192617,5.718699133843184,2.8299495771750807,7.447028070315718
1757088708667276000,5.411276123046875,-0.0180725753307342,0.0212871618568897,-0.0883289724588394,-0.11188158133924,-0.1036874612286686,0.101795656132698,5.723142084726691,2.82544612827599,7.44532769613862
1757088708677322000,5.421322021484375,-0.0260795280337333,0.031874593347311,-0.083929568529129,-0.2208253556609153,-0.2380687514066696,0.0769113902449607,5.727939840397238,2.822310752859712,7.44282886506021
1757088708687368000,5.431367919921875,-0.0429146997630596,0.0201995577663183,-0.0876215100288391,-0.1708341210454702,-0.2990858224272728,-0.2592255212038755,5.732565746632218,2.819881187625229,7.440185657075047
1757088708697415000,5.441414794921875,-0.0467845425009727,0.0247301813215017,-0.0799368619918823,-0.1875268971711397,-0.2232575512439012,-0.3655594052881002,5.7365387419164175,2.818273167906701,7.437733003225922
1757088708707460900,5.4514609375,-0.064085766673088,0.0407741293311119,-0.062314998358488,-0.0334065950393676,-0.2762155267104506,-0.5130225876182317,5.741035468813776,2.8184093615069985,7.43421301240623
1757088708717507800,5.4615078125,-0.0756812542676925,0.0254866946488618,-0.0477137081325054,0.0482885223507881,-0.321679931551218,-0.4347404935419559,5.745082698377966,2.820478861257434,7.430300222876667
1757088708727553800,5.4715537109375,-0.087057739496231,0.0291570629924535,-0.0549071729183197,0.1193997018843889,-0.3834019359707832,-0.4248977294415235,5.748488122907281,2.823691685824096,7.4264400403171775
1757088708737601000,5.48160107421875,-0.0913467332720756,0.0121835609897971,-0.0711380690336227,0.0604302110433578,-0.2875935375541448,-0.2584995450168847,5.751942647275328,2.826494176024198,7.422697931179404
1757088708747647000,5.49164697265625,-0.0951950028538703,0.0109244184568524,-0.0662045627832412,0.0312619842261076,-0.1903518914639949,-0.1053910502761602,5.7546250182271,2.8293603791102764,7.419526315405965
1757088708757694000,5.50169384765625,-0.0964593961834907,0.015710262581706,-0.0512462668120861,0.0077823244392871,-0.1599696126818656,-0.0113555067509412,5.757306220135092,2.8330963507682085,7.416024444764852
1757088708767740000,5.511739990234375,-0.088322639465332,0.0116183161735534,-0.0394415408372879,0.017109540233016,-0.131891226927936,0.0733984136879444,5.759649568390846,2.837488448247313,7.412521405079961
1757088708777787000,5.521786865234375,-0.0799993574619293,0.0058545218780636,-0.0239124335348606,-0.0188075763225555,-0.0185708449572324,0.0481359621375799,5.761150036081672,2.84193315269649,7.409652571645378
1757088708787833000,5.5318330078125,-0.0710546001791954,0.0067008743062615,-0.0117468470707535,-0.0786187786847353,0.0881976311519742,-0.0265121593505144,5.7620046070843935,2.846494761523604,7.407236742675304
1757088708797879000,5.541879150390625,-0.0648935288190841,0.0109230279922485,-0.0045205950736999,-0.0943038390725851,0.2372542201533913,-0.1136889230221509,5.762874375656247,2.8511159915834665,7.404779997172951
1757088708807926000,5.551926025390625,-0.0597728043794631,0.0120985470712184,0.0023136083036661,-0.1049316160708665,0.3576829728245735,-0.260227976244688,5.763776292932033,2.855784275655448,7.402279997050762
1757088708817972000,5.561971923828125,-0.0544800460338592,0.0122392680495977,0.0069120079278945,-0.0579781417161226,0.4478533653542399,-0.3780786951214074,5.764558967742324,2.8601851409628987,7.399974058195948
1757088708828019000,5.57201904296875,-0.0472807213664054,0.0056548696011304,0.0130540560930967,0.0250321499258279,0.49735973906219,-0.4433154296636581,5.764896821394562,2.864548596869409,7.398023508650064
1757088708838065000,5.58206494140625,-0.0426851138472557,0.0045606726780533,0.0139870634302496,0.1151367837429046,0.5261842670083046,-0.4585054000109433,5.764872271475196,2.868644049489498,7.396452898332476
1757088708848111900,5.59211181640625,-0.0335818976163864,0.0067649707198143,0.0084753846749663,0.1357160459131002,0.5406134821161628,-0.4279015874326229,5.764944167667627,2.8721716390937564,7.39502958753109
1757088708858157800,5.60215771484375,-0.026909003034234,0.014522636309266,0.0015518167056143,0.1014741690933704,0.5475029493689537,-0.4031254580944776,5.765518168163299,2.874709633138776,7.393597508901357
1757088708868204800,5.612204833984375,-0.0173040442168712,0.0343946106731891,-0.008790036663413,0.0393476755261421,0.5229194199934601,-0.353278600385785,5.767339538371562,2.876098749409616,7.391632930830121
1757088708878250800,5.622250732421875,-0.0099228071048855,0.0576389953494071,-0.0192117672413587,-0.0111480014801025,0.4328925275877118,-0.2661146961957216,5.77114828300476,2.8763430795595046,7.388565359953045
1757088708888298000,5.632298095703125,-0.004417254589498,0.0763397142291069,-0.0305256731808185,-0.0554173513174056,0.3228171188876033,-0.2029845785439014,5.776960768675804,2.875387386269867,7.384392458182573
1757088708898344000,5.642343994140625,-0.002725796541199,0.0889700576663017,-0.0387897975742816,-0.1231803894668817,0.182615744253993,-0.1165279458403587,5.784120577302574,2.87358325945735,7.379489488571882
1757088708908391000,5.652390869140625,0.0005283199716359,0.0926257818937301,-0.0442924201488494,-0.1931868226289749,0.0894800721779465,-0.0533235939085483,5.792026235860586,2.8712489712908864,7.374192551207542
1757088708918437000,5.66243701171875,-0.0008134852396324,0.0937026813626289,-0.0522280596196651,-0.2270651268333196,0.00905453633219,-0.0002998597294092,5.800318847909569,2.868476876229048,7.368755913111567
1757088708928483000,5.672483154296875,-0.0036212559789419,0.0980777218937873,-0.0592870377004146,-0.2808803036510944,-0.0771761786609888,0.0581108281850814,5.808941714826226,2.8653739417776465,7.3631661302804945
1757088708938530000,5.682530029296875,-0.0054648309014737,0.0922057405114173,-0.0579213164746761,-0.282971722972393,-0.1275166651055216,0.1505547186046838,5.817617188712954,2.862293511418998,7.357512050041556
1757088708948576000,5.692575927734375,-0.00256038736552,0.08411505818367,-0.0526368059217929,-0.2800292397797107,-0.1481178468465805,0.2282902847141027,5.825746719154715,2.8594012971088287,7.352199915108084
1757088708958623000,5.702623046875,0.0096726305782794,0.0703948661684989,-0.0502054095268249,-0.2989092968165874,-0.1153226617038249,0.2582142983347177,5.8329562121421095,2.856234065249562,7.34771429412663
1757088708968669000,5.7126689453125,0.0256872829049825,0.0607630088925361,-0.0454977415502071,-0.3168114487320184,-0.0816100694552064,0.2677127790421247,5.839186630964279,2.852150010806322,7.344351539695262
1757088708978716000,5.7227158203125,0.0397644862532615,0.0627348721027374,-0.0492993108928203,-0.2854536029160022,-0.0400800814539194,0.2096487126082181,5.845090302050114,2.846983129562437,7.341665077090263
1757088708988761900,5.732761962890625,0.0457808300852775,0.0687216594815254,-0.0572488456964492,-0.2452466802120208,-0.0339341260448098,0.0864081173866987,5.851420089593529,2.840686659766733,7.339058693984151
1757088708998808800,5.742808837890625,0.0476794764399528,0.0772957876324653,-0.066349372267723,-0.2077776580393314,-0.0517886394262313,-0.004940379011631,5.85884176402688,2.8337016231849788,7.335836224806308
1757088709008854800,5.752854736328125,0.0516907311975955,0.0774332135915756,-0.0847664624452591,-0.1487467923998832,-0.13072744384557,-0.0463671988993883,5.866549269664287,2.825551049955189,7.332820676377415
1757088709018901800,5.76290185546875,0.0557326413691043,0.0646955147385597,-0.0843983218073844,-0.0838332984626293,-0.214548467348516,-0.0478980617284774,5.874360235676169,2.8165967591270804,7.330012048697471
1757088709028947700,5.77294775390625,0.064984992146492,0.0475580804049968,-0.0829863101243972,0.0133148241251707,-0.2846548537537455,-0.0708919838249683,5.880760750368237,2.807245285674929,7.328464819255471
1757088709038995000,5.782994873046875,0.0639771148562431,0.0472398027777671,-0.0826209783554077,0.0696890377759933,-0.3563759818792343,-0.1478390299052,5.886635195359587,2.797563265094161,7.327449504733085
1757088709049041200,5.793041259765625,0.0546057261526584,0.0532415024936199,-0.0714599341154098,0.0848059428870677,-0.3605567746952176,-0.2535685183554887,5.89246813929677,2.7885765333011743,7.32618986006081
1757088709059087000,5.803087158203125,0.0390496179461479,0.0646577402949333,-0.0625588670372963,0.1008545758903026,-0.3434653546407819,-0.290993116864562,5.898713755688071,2.781210972969234,7.323958740007876
1757088709069134000,5.813134033203125,0.0213475842028856,0.0426083654165267,-0.0496859475970268,0.0562795211046934,-0.3628095220580697,-0.2753986573696136,5.9043853715837,2.7755665373414757,7.321534143209457
