time,seconds_elapsed,z,y,x
1757088703276106800,0.020106689453125,0.03795856609940529,0.1295212358236313,0.11140508949756622
1757088703286154000,0.030154052734375,-0.031182419508695602,-0.06650179624557495,-0.07246620953083038
1757088703296200000,0.040199951171875,-0.08630985766649246,0.09670736640691757,-0.04493285343050957
1757088703306247000,0.050246826171875,-0.023390809074044228,0.10163261741399765,0.012827914208173752
1757088703316293000,0.060293212890625,0.12397174537181854,0.1084124967455864,0.022156434133648872
1757088703326339000,0.070339111328125,0.22779588401317596,0.054364439100027084,0.021756693720817566
1757088703336386000,0.080385986328125,0.2675877809524536,0.02472585253417492,0.02852272056043148
1757088703346432000,0.090431884765625,0.2686415910720825,0.07914195954799652,0.054619304835796356
1757088703356479000,0.10047900390625,0.2365345060825348,0.11922306567430496,0.11575376242399216
1757088703366525000,0.11052490234375,0.17512840032577515,0.14295129477977753,0.18454188108444214
1757088703376572000,0.120572021484375,0.12041589617729187,0.11664485931396484,0.21231013536453247
1757088703386617900,0.130617919921875,0.07717441022396088,-0.024448351934552193,0.16945241391658783
1757088703396663800,0.140663818359375,0.04575177654623985,-0.1067967563867569,0.10900717973709106
1757088703406710800,0.150710693359375,0.05495592579245567,-0.16095000505447388,0.039073098450899124
1757088703416757000,0.160757080078125,0.08893972635269165,-0.1371690332889557,-0.05890992283821106
1757088703426803700,0.1708037109375,0.13125576078891754,-0.046552322804927826,-0.13855335116386414
1757088703436850000,0.180849853515625,0.1691882312297821,0.01444019190967083,-0.15321671962738037
1757088703446895900,0.190895751953125,0.1951814740896225,0.07452776283025742,-0.1161566972732544
1757088703456943900,0.20094384765625,0.19596125185489655,0.09686076641082764,-0.04737790301442146
1757088703466989800,0.21098974609375,0.18394213914871216,0.07304571568965912,0.024754349142313004
1757088703477036800,0.221036865234375,0.1720852106809616,0.04420767351984978,0.08385974913835526
1757088703487082800,0.231082763671875,0.15030215680599213,-0.01242497842758894,0.13176229596138
1757088703497129700,0.241129638671875,0.1226060763001442,-0.043603405356407166,0.15424096584320068
1757088703507175700,0.25117578125,0.0943259671330452,-0.030375216156244278,0.14044366776943207
1757088703517221600,0.2612216796875,0.08652397245168686,0.06061461195349693,0.1058121845126152
1757088703527268600,0.2712685546875,0.09440906345844269,0.1723605841398239,0.07337408512830734
1757088703537314600,0.281314453125,0.10772699862718582,0.301338791847229,0.07676508277654648
1757088703547361500,0.291361572265625,0.12349849939346313,0.4251595437526703,0.12368305772542953
1757088703557407700,0.30140771484375,0.12395230680704117,0.5083958506584167,0.18583564460277557
1757088703567453700,0.31145361328125,0.10651552677154541,0.5621842741966248,0.21857547760009766
1757088703577501000,0.3215009765625,0.05575966835021973,0.600065290927887,0.21116337180137634
1757088703587547000,0.331546875,-0.021372400224208832,0.6465819478034973,0.1857680082321167
1757088703597593900,0.34159375,-0.09287800639867783,0.701521098613739,0.1601225584745407
1757088703607639800,0.351639892578125,-0.14830158650875092,0.7821688055992126,0.15635551512241364
1757088703617685800,0.361685791015625,-0.1958632469177246,0.8802778124809265,0.19179153442382812
1757088703627732700,0.371732666015625,-0.22989071905612946,0.9885755181312561,0.277798056602478
1757088703637778700,0.38177880859375,-0.2516215741634369,1.1096776723861694,0.39546316862106323
1757088703647825700,0.39182568359375,-0.26907727122306824,1.260188341140747,0.5115072131156921
1757088703657871600,0.40187158203125,-0.28435689210891724,1.4572950601577759,0.6105062365531921
1757088703667918600,0.411918701171875,-0.31544557213783264,1.6488392353057861,0.7261020541191101
1757088703677964800,0.42196484375,-0.3752867877483368,1.8289439678192139,0.8620926737785339
1757088703688010800,0.4320107421875,-0.44953733682632446,1.9949548244476318,0.9929622411727905
1757088703698057700,0.4420576171875,-0.5181624889373779,2.1295881271362305,1.0928571224212646
1757088703708103700,0.452103759765625,-0.5772463083267212,2.2371158599853516,1.1473352909088135
1757088703718150700,0.462150634765625,-0.6249133944511414,2.3432559967041016,1.1788139343261719
1757088703728196600,0.472196533203125,-0.6407248377799988,2.4637155532836914,1.2085672616958618
1757088703738242600,0.48224267578125,-0.6313350796699524,2.541712999343872,1.261216402053833
1757088703748289800,0.492289794921875,-0.690021276473999,2.6265177726745605,1.3344039916992188
1757088703758335700,0.502335693359375,-0.9156326055526733,2.8387322425842285,1.4368550777435303
1757088703768382700,0.5123828125,-1.1875828504562378,2.9346089363098145,1.4540263414382935
1757088703778428700,0.5224287109375,-1.4900975227355957,2.883909225463867,1.2977330684661865
1757088703788475600,0.5324755859375,-1.8647749423980713,2.698439121246338,0.9951026439666748
1757088703798521900,0.54252197265625,-2.238884687423706,2.4553000926971436,0.6116479635238647
1757088703808567800,0.55256787109375,-2.5055112838745117,2.150500535964966,0.19968807697296143
1757088703818614800,0.56261474609375,-2.618695020675659,1.8874109983444214,-0.2332705408334732
1757088703828660700,0.57266064453125,-2.634796619415283,1.7039633989334106,-0.6523836255073547
1757088703838707700,0.582707763671875,-2.603100299835205,1.6196634769439697,-0.9635708332061768
1757088703848753700,0.592753662109375,-2.5344369411468506,1.668895959854126,-1.0741032361984253
1757088703858800600,0.602800537109375,-2.4132769107818604,1.8395963907241821,-0.9534886479377747
1757088703868846600,0.6128466796875,-2.2093517780303955,2.201809883117676,-0.6374102830886841
1757088703878892500,0.622892578125,-1.9778940677642822,2.675020694732666,-0.17071528732776642
1757088703888939500,0.632939453125,-1.7766176462173462,3.148010730743408,0.38135799765586853
1757088703898985700,0.64298583984375,-1.6039724349975586,3.561450958251953,0.9489394426345825
1757088703909032700,0.65303271484375,-1.4840673208236694,3.8761677742004395,1.4718247652053833
1757088703919079000,0.663078857421875,-1.4337961673736572,3.953383445739746,1.8413790464401245
1757088703929124900,0.673124755859375,-1.430849552154541,3.7633981704711914,2.0111098289489746
1757088703939171800,0.683171875,-1.4139095544815063,3.38980770111084,2.00199031829834
1757088703949217800,0.6932177734375,-1.3550955057144165,2.9267759323120117,1.8671963214874268
1757088703959264800,0.7032646484375,-1.293219804763794,2.397925853729248,1.6562448740005493
1757088703969310700,0.713310791015625,-1.2229036092758179,1.943856120109558,1.3893718719482422
1757088703979357700,0.723357666015625,-1.1658326387405396,1.6436386108398438,1.0988212823867798
1757088703989403600,0.733403564453125,-1.150335669517517,1.4396486282348633,0.8192235231399536
1757088703999449900,0.743449951171875,-1.1412193775177002,1.3537055253982544,0.5633320808410645
1757088704009496600,0.75349658203125,-1.1298245191574097,1.3353912830352783,0.3580542802810669
1757088704019542800,0.763542724609375,-1.081969141960144,1.3394323587417603,0.2512972056865692
1757088704029589800,0.77358984375,-1.0058064460754395,1.3970588445663452,0.2207755148410797
1757088704039635700,0.7836357421875,-0.9356180429458618,1.474997639656067,0.2252006232738495
1757088704049681700,0.793681640625,-0.8907661437988281,1.5116496086120605,0.2519049346446991
1757088704059728600,0.803728759765625,-0.8537561893463135,1.5026700496673584,0.29977181553840637
1757088704069774600,0.813774658203125,-0.8049638867378235,1.4792224168777466,0.3515319228172302
1757088704079821800,0.82382177734375,-0.7490108609199524,1.4787859916687012,0.40799015760421753
1757088704089867800,0.83386767578125,-0.6933119297027588,1.4704986810684204,0.4492856562137604
1757088704099914800,0.843914794921875,-0.6508626937866211,1.434585452079773,0.46675893664360046
1757088704109960700,0.853960693359375,-0.637552797794342,1.3919671773910522,0.4679400324821472
1757088704120007000,0.8640068359375,-0.6506842970848083,1.3428422212600708,0.4449939727783203
1757088704130053600,0.8740537109375,-0.6929821968078613,1.274919867515564,0.3910082280635834
1757088704140099800,0.884099853515625,-0.7333663702011108,1.2210718393325806,0.31962671875953674
1757088704150146800,0.894146728515625,-0.7307186722755432,1.2284488677978516,0.24507872760295868
1757088704160192800,0.90419287109375,-0.6509207487106323,1.2919108867645264,0.25141653418540955
1757088704170239700,0.91423974609375,-0.6030824184417725,1.342389464378357,0.3213564455509186
1757088704180285700,0.92428564453125,-0.5333086848258972,1.4133957624435425,0.4245254397392273
1757088704190331600,0.93433154296875,-0.41724568605422974,1.5489912033081055,0.5416091680526733
1757088704200378600,0.944378662109375,-0.3153374493122101,1.6820580959320068,0.6451957821846008
1757088704210424600,0.954424560546875,-0.24113112688064575,1.6505534648895264,0.7222253084182739
1757088704220471600,0.964471435546875,-0.19642303884029388,1.405967116355896,0.7329184412956238
1757088704230517500,0.974517578125,-0.21360576152801514,1.031323790550232,0.6118969321250916
1757088704240563700,0.984563720703125,-0.2995781898498535,0.6925052404403687,0.34097835421562195
1757088704250611000,0.99461083984375,-0.4441409707069397,0.3946005702018738,-0.02388456091284752
1757088704260657000,1.004656982421875,-0.5659763216972351,0.13828277587890625,-0.38739272952079773
1757088704270703900,1.014703857421875,-0.5817374587059021,0.014138455502688885,-0.6483479142189026
1757088704280749800,1.024749755859375,-0.4925127625465393,0.02075321599841118,-0.7460930943489075
1757088704290796800,1.034796875,-0.3198685348033905,0.05879833549261093,-0.6705083250999451
1757088704300842800,1.0448427734375,-0.06825175881385803,0.08546856045722961,-0.4219864010810852
1757088704310888700,1.054888671875,0.21776987612247467,0.19426295161247253,-0.048650361597537994
1757088704320935700,1.064935791015625,0.4673546850681305,0.48135972023010254,0.4079102575778961
1757088704330981600,1.074981689453125,0.6529650092124939,0.8746838569641113,0.9095011949539185
1757088704341028600,1.085028564453125,0.716465413570404,1.1632951498031616,1.4081248044967651
1757088704351074800,1.09507470703125,0.5977627635002136,1.2475497722625732,1.794715404510498
1757088704361121500,1.10512158203125,0.33048444986343384,1.2844394445419312,2.0139925479888916
1757088704371167700,1.115167724609375,0.04386332631111145,1.245823860168457,2.077824115753174
1757088704381213700,1.125213623046875,-0.17860755324363708,1.0474321842193604,1.9653500318527222
1757088704391260700,1.1352607421875,-0.3709013760089874,0.702194333076477,1.7143641710281372
1757088704401306600,1.145306640625,-0.5305216312408447,0.3464255928993225,1.3922902345657349
1757088704411353900,1.155353759765625,-0.5928212404251099,0.07843834906816483,1.1270465850830078
1757088704421399800,1.16539990234375,-0.5790476202964783,-0.1633353978395462,1.0144702196121216
1757088704431446800,1.17544677734375,-0.5283045768737793,-0.37395015358924866,1.0728150606155396
1757088704441492700,1.18549267578125,-0.47902438044548035,-0.4591532051563263,1.253826379776001
1757088704451538700,1.19553857421875,-0.42080315947532654,-0.4559347629547119,1.5501266717910767
1757088704461586700,1.205586669921875,-0.3970906436443329,-0.4736146926879883,1.941163182258606
1757088704471632600,1.215632568359375,-0.46318042278289795,-0.48795104026794434,2.403419256210327
1757088704481679600,1.2256796875,-0.596683919429779,-0.46756505966186523,2.878131628036499
1757088704491725600,1.2357255859375,-0.7172713279724121,-0.3479097783565521,3.2686150074005127
1757088704501771800,1.245771728515625,-0.39673349261283875,0.2894517779350281,3.01983904838562
1757088704511818800,1.25581884765625,0.3023231029510498,0.9253616333007812,2.026343822479248
1757088704521864700,1.26586474609375,0.533474862575531,1.0178213119506836,1.379814863204956
1757088704531911700,1.27591162109375,0.3372326195240021,0.8155539035797119,1.162081003189087
1757088704541957600,1.28595751953125,0.061591990292072296,0.36215686798095703,1.304711937904358
1757088704552004600,1.296004638671875,-0.07910121232271194,-0.1430482417345047,1.9915461540222168
1757088704562050600,1.306050537109375,0.010512827895581722,-0.034861575812101364,2.736278533935547
1757088704572096500,1.316096435546875,0.3113051652908325,1.0111939907073975,1.9262827634811401
1757088704582143500,1.3261435546875,0.6141140460968018,1.3177722692489624,0.8184692859649658
1757088704592189400,1.336189453125,0.5067630410194397,0.7737625241279602,0.4595590829849243
1757088704602236400,1.346236328125,0.3794996440410614,0.1836550533771515,0.5583117604255676
1757088704612282600,1.35628271484375,0.43860530853271484,0.12355069816112518,0.5996277332305908
1757088704622329600,1.36632958984375,0.466873437166214,0.34299197793006897,0.5407372713088989
1757088704632375800,1.376375732421875,0.3985111713409424,0.425368070602417,0.45939502120018005
1757088704642421500,1.38642138671875,0.30660921335220337,0.47019681334495544,0.3184208571910858
1757088704652468700,1.39646875,0.1731898933649063,0.516821026802063,0.15861521661281586
1757088704662514700,1.4065146484375,0.0403658002614975,0.5760518312454224,0.10344783216714859
1757088704672561700,1.416561767578125,0.03141890838742256,0.8187243938446045,0.42183831334114075
1757088704682607600,1.426607666015625,0.046301186084747314,0.9984337091445923,0.7624265551567078
1757088704692654600,1.436654541015625,0.06923526525497437,1.1608346700668335,0.892198383808136
1757088704702700500,1.446700439453125,0.09503436833620071,1.2403830289840698,0.907451868057251
1757088704712746500,1.45674658203125,0.10477834194898605,1.1799873113632202,0.9155052900314331
1757088704722793500,1.46679345703125,0.061285462230443954,1.0100760459899902,0.9362739324569702
1757088704732839700,1.476839599609375,-0.017836520448327065,0.8417647480964661,0.8163491487503052
1757088704742886700,1.48688671875,-0.0223282091319561,0.8337899446487427,0.6044963002204895
1757088704752932600,1.4969326171875,0.2763413190841675,1.233892798423767,0.08270792663097382
1757088704762978600,1.506978515625,0.058523230254650116,1.3341529369354248,-0.21323131024837494
1757088704773025500,1.517025634765625,0.4904027283191681,1.0574510097503662,-0.6064443588256836
1757088704783071500,1.527071533203125,0.5693686604499817,0.8317616581916809,-0.797984778881073
1757088704793118700,1.53711865234375,0.6665362119674683,0.5362876653671265,-1.010007619857788
1757088704803164400,1.547164306640625,0.799023449420929,0.23289130628108978,-0.9682499766349792
1757088704813211600,1.557211669921875,0.8363654613494873,-0.10795895755290985,-0.7527792453765869
1757088704823257600,1.567257568359375,0.6016703844070435,-0.3050709664821625,-0.7643448114395142
1757088704833303800,1.5773037109375,0.33404988050460815,-0.10352266579866409,-0.9978012442588806
1757088704843350500,1.5873505859375,0.48830151557922363,0.1707421839237213,-1.028241753578186
1757088704853396700,1.597396728515625,0.7454283833503723,0.1810709834098816,-0.9240639209747314
1757088704863443700,1.607443603515625,0.7685092091560364,0.5994967222213745,-1.1126841306686401
1757088704873489700,1.61748974609375,0.6788203120231628,1.0117295980453491,-1.3741650581359863
1757088704883536600,1.62753662109375,0.6149968504905701,1.2778984308242798,-1.436293125152588
1757088704893582600,1.63758251953125,0.7884762287139893,1.2028230428695679,-1.3343592882156372
1757088704903628500,1.647628662109375,0.9674789905548096,0.8707431554794312,-1.0800244808197021
1757088704913675500,1.657675537109375,0.8778468370437622,0.4172387719154358,-1.013037919998169
1757088704923721500,1.667721435546875,0.7553108334541321,0.0742260292172432,-1.0722647905349731
1757088704933768400,1.6777685546875,0.7649626731872559,-0.07197459042072296,-1.037527322769165
1757088704943814400,1.687814453125,0.8521788120269775,0.0028940571937710047,-0.8302388787269592
1757088704953861600,1.697861572265625,0.930525541305542,0.15195943415164948,-0.5610929131507874
1757088704963907800,1.707907958984375,0.9366729259490967,0.43285608291625977,-0.3585275411605835
1757088704973953500,1.71795361328125,0.9703363180160522,0.6435208916664124,-0.36066657304763794
1757088704984000800,1.728000732421875,0.9377645254135132,0.584886372089386,-0.533417820930481
1757088704994046700,1.738046630859375,0.9060273766517639,0.43730756640434265,-0.6172669529914856
1757088705004093700,1.74809375,0.8817071318626404,0.1786981076002121,-0.3988110423088074
1757088705014139600,1.7581396484375,0.783790647983551,0.10707905143499374,-0.14561311900615692
1757088705024185600,1.768185546875,0.6807660460472107,-0.40361884236335754,-0.29899096488952637
1757088705034232600,1.778232666015625,0.370934396982193,-1.1539362668991089,-0.9296618700027466
1757088705044278500,1.788278564453125,0.1255326271057129,-1.2964774370193481,-0.9694265723228455
1757088705054325500,1.798325439453125,0.39751142263412476,-0.8147614002227783,-0.25435104966163635
1757088705064371700,1.808371826171875,0.7392772436141968,-0.7938997745513916,0.3071189224720001
1757088705074418400,1.81841845703125,1.2628449201583862,-0.681505560874939,0.3750212788581848
1757088705084464600,1.828464599609375,1.5723612308502197,-0.7826955914497375,0.8211880922317505
1757088705094510600,1.838510498046875,1.2548048496246338,-0.4028976559638977,1.2689554691314697
1757088705104557600,1.8485576171875,0.7136054635047913,0.10863327234983444,1.4744319915771484
1757088705114603500,1.858603515625,0.5546544194221497,0.6003007292747498,1.4938246011734009
1757088705124650800,1.868650634765625,0.37836167216300964,0.7738549709320068,1.366511344909668
1757088705134696400,1.878696533203125,0.28015121817588806,0.7009016275405884,1.0832045078277588
1757088705144743700,1.88874365234375,0.05961992219090462,0.7391590476036072,0.7078285217285156
1757088705154789600,1.89878955078125,-0.05330503359436989,0.8021388053894043,0.3717988431453705
1757088705164835600,1.908835693359375,-0.08093772828578949,0.9158698916435242,0.1170046478509903
1757088705174882600,1.918882568359375,-0.11539903283119202,1.097979187965393,-0.10624201595783234
1757088705184928800,1.9289287109375,-0.2421841323375702,1.2067294120788574,-0.44124850630760193
1757088705194975500,1.9389755859375,-0.529827892780304,1.0207933187484741,-0.8402366638183594
1757088705205021700,1.949021728515625,-0.8390619158744812,0.6225708723068237,-1.330936312675476
1757088705215067600,1.959067626953125,-1.071901559829712,0.338695228099823,-1.8407388925552368
1757088705225114600,1.969114501953125,-1.1557884216308594,0.23760536313056946,-2.2478103637695312
1757088705235160600,1.97916064453125,-1.0579620599746704,0.23326148092746735,-2.5062358379364014
1757088705245207600,1.98920751953125,-1.0099539756774902,0.17871594429016113,-2.6945090293884277
1757088705255253500,1.99925341796875,-1.0760505199432373,0.017168067395687103,-2.8078713417053223
1757088705265300500,2.009300537109375,-0.9878865480422974,-0.07392828911542892,-2.698214292526245
1757088705275346400,2.019346435546875,-0.9343966841697693,0.007748733274638653,-2.5477590560913086
1757088705285392600,2.029392578125,-0.8178461194038391,0.07814060896635056,-2.3782880306243896
1757088705295439400,2.039439453125,-0.6847487688064575,0.12420850247144699,-2.189835786819458
1757088705305485600,2.049485595703125,-0.6155814528465271,0.1020166426897049,-1.9448634386062622
1757088705315532800,2.05953271484375,-0.5442180037498474,0.06113019958138466,-1.7657413482666016
1757088705325578800,2.069578857421875,-0.440238893032074,-0.12341221421957016,-1.7144626379013062
1757088705335625700,2.079625732421875,-0.22602194547653198,-0.3242388069629669,-1.692188024520874
1757088705345671700,2.089671630859375,0.013643906451761723,-0.36474546790122986,-1.5449753999710083
1757088705355717600,2.099717529296875,0.15319114923477173,-0.14540566504001617,-1.2109601497650146
1757088705365764600,2.1097646484375,0.25940918922424316,-0.0068331388756632805,-0.8241945505142212
1757088705375810600,2.119810546875,0.30896344780921936,-0.07144142687320709,-0.43157804012298584
1757088705385857500,2.129857421875,0.3724457323551178,-0.4879603385925293,-0.10392746329307556
1757088705395903500,2.139903564453125,0.0909179225564003,-0.8295317888259888,0.11240536719560623
1757088705405949700,2.14994970703125,-0.2177158147096634,-0.8136154413223267,0.366303414106369
1757088705415996700,2.15999658203125,-0.49175509810447693,-0.7124717235565186,0.3233799338340759
1757088705426042600,2.170042724609375,-0.560006320476532,-0.6351657509803772,0.10455543547868729
1757088705436089600,2.180089599609375,-0.5264174342155457,-0.35243767499923706,0.2640018165111542
1757088705446135600,2.190135498046875,-0.5138199329376221,0.12982191145420074,0.6083126068115234
1757088705456181200,2.20018115234375,-0.5188794136047363,0.5273059010505676,0.8773571252822876
1757088705466227200,2.210227294921875,-0.5617663860321045,0.769286036491394,1.001652479171753
1757088705476273400,2.2202734375,-0.6061868667602539,0.9396806955337524,1.1228870153427124
1757088705486320400,2.2303203125,-0.59527587890625,1.0624483823776245,1.3037981986999512
1757088705496366300,2.240366455078125,-0.5941818356513977,1.272748351097107,1.4881539344787598
1757088705506413300,2.250413330078125,-0.7933050990104675,1.7515727281570435,1.5876303911209106
1757088705516459300,2.260459228515625,-0.9027844667434692,2.2479565143585205,1.4991167783737183
1757088705526506500,2.270506591796875,-0.9374316334724426,2.953991651535034,1.011367917060852
1757088705536552200,2.28055224609375,-1.0419132709503174,3.982184886932373,0.2733340561389923
1757088705546598100,2.29059814453125,-0.7775980234146118,3.6658830642700195,-0.5494987964630127
1757088705556645400,2.300645263671875,-0.04903305694460869,2.127166509628296,-1.1336532831192017
1757088705566691300,2.31069140625,0.3773041367530823,0.8627784252166748,-0.983644962310791
1757088705576738300,2.32073828125,0.5094009041786194,0.02719194069504738,-0.4329295754432678
1757088705586784300,2.3307841796875,0.6148295998573303,-0.4805991053581238,0.06388737261295319
1757088705596830500,2.34083056640625,0.970583438873291,-0.8143190145492554,0.2969648241996765
1757088705606877400,2.35087744140625,1.3262542486190796,-0.9338549971580505,0.4195839464664459
1757088705616923400,2.36092333984375,1.6133280992507935,-0.9182102680206299,0.38933709263801575
1757088705626970400,2.370970458984375,1.7357138395309448,-1.1499087810516357,0.13074763119220734
1757088705637016300,2.381016357421875,1.726805329322815,-1.436132550239563,-0.33021944761276245
1757088705647063300,2.391063232421875,1.7872090339660645,-1.1799741983413696,-0.7586576342582703
1757088705657109200,2.401109130859375,2.0862748622894287,-0.4838034212589264,-0.9270697832107544
1757088705667155200,2.4111552734375,2.437387228012085,-0.11120694875717163,-0.8549426198005676
1757088705677202200,2.4212021484375,2.5693328380584717,0.23876091837882996,-0.5760718584060669
1757088705687248100,2.431248046875,2.584867238998413,0.2063230723142624,-0.23891937732696533
1757088705697295400,2.44129541015625,2.5721051692962646,-0.2667081356048584,0.058873169124126434
1757088705707341300,2.45134130859375,2.3143370151519775,-0.47344931960105896,0.3363191485404968
1757088705717388300,2.46138818359375,1.8542416095733643,-0.6249288320541382,0.4115856885910034
1757088705727434500,2.4714345703125,1.4353266954421997,-0.7296813726425171,0.2374058961868286
1757088705737480400,2.48148046875,1.1742433309555054,-0.6210321187973022,-0.043473176658153534
1757088705747527400,2.49152734375,1.1061577796936035,-0.520179271697998,-0.253705769777298
1757088705757573400,2.501573486328125,1.1995558738708496,-0.45834121108055115,-0.3663092851638794
1757088705767620400,2.511620361328125,1.2688477039337158,-0.4750983417034149,-0.45489615201950073
1757088705777666300,2.521666259765625,1.2642009258270264,-0.4551216959953308,-0.5020034909248352
1757088705787713300,2.53171337890625,1.1916698217391968,-0.4754070043563843,-0.5362655520439148
1757088705797759200,2.54175927734375,1.1230462789535522,-0.4396980106830597,-0.5105551481246948
1757088705807805200,2.55180517578125,1.0523622035980225,-0.3529961407184601,-0.45598164200782776
1757088705817852200,2.56185205078125,1.0581856966018677,-0.3071162700653076,-0.42294299602508545
1757088705827898400,2.5718984375,1.1517372131347656,-0.4223690927028656,-0.4469945430755615
1757088705837945300,2.5819453125,1.2832484245300293,-0.8437051177024841,-0.48333391547203064
1757088705847991300,2.5919912109375,1.637585163116455,-1.040220022201538,-0.43541696667671204
1757088705858037200,2.602037353515625,1.9694530963897705,-0.2605130672454834,-0.3666645586490631
1757088705868084200,2.612084228515625,1.8206037282943726,0.33314627408981323,-0.22484056651592255
1757088705878130200,2.622130126953125,1.4058635234832764,0.4643860459327698,0.04694034531712532
1757088705888177400,2.632177490234375,1.0462223291397095,0.08919166028499603,0.26111656427383423
1757088705898223400,2.642223388671875,0.7820875644683838,-0.3679924011230469,0.32919707894325256
1757088705908270300,2.652270263671875,0.6188251376152039,-0.563824474811554,0.22980976104736328
1757088705918316300,2.66231640625,0.4835056662559509,-0.47644537687301636,0.053884271532297134
1757088705928362500,2.672362548828125,0.3095639646053314,-0.5632508397102356,-0.12761734426021576
1757088705938409200,2.6824091796875,0.12406042963266373,-0.9578807353973389,-0.30044957995414734
1757088705948455400,2.692455322265625,-0.01942642778158188,-1.3242384195327759,-0.4321309030056
1757088705958502400,2.70250244140625,-0.1493290364742279,-1.4683935642242432,-0.502331018447876
1757088705968548400,2.71254833984375,-0.1577608734369278,-1.3063292503356934,-0.5039222836494446
1757088705978595300,2.72259521484375,-0.10882741212844849,-0.778549313545227,-0.4170563519001007
1757088705988641300,2.732641357421875,-0.12071815878152847,0.08652077615261078,-0.23262418806552887
1757088705998687200,2.742687255859375,-0.03899373859167099,0.182908833026886,-0.16189995408058167
1757088706008734200,2.752734130859375,0.2304619699716568,-0.6152408123016357,-0.2776060402393341
1757088706018780200,2.7627802734375,0.5777727961540222,-1.0985782146453857,-0.31797584891319275
1757088706028827100,2.7728271484375,0.8711016178131104,-1.009417176246643,-0.26907941699028015
1757088706038873000,2.782873046875,1.0043963193893433,-0.6351463198661804,-0.1772565394639969
1757088706048920300,2.79292041015625,1.0690312385559082,-0.34058207273483276,-0.15125450491905212
1757088706058966300,2.80296630859375,1.1886327266693115,0.015678828582167625,-0.20612066984176636
1757088706069012500,2.813012451171875,1.2494419813156128,0.2126169204711914,-0.3176823556423187
1757088706079059500,2.8230595703125,1.245155930519104,0.4775649607181549,-0.4287470877170563
1757088706089105400,2.83310546875,1.1729106903076172,0.8438686728477478,-0.4611537754535675
1757088706099152400,2.84315234375,0.981337308883667,1.1944568157196045,-0.3184797167778015
1757088706109198300,2.8531982421875,0.6264625787734985,1.5566767454147339,-0.09895960241556168
1757088706119245300,2.863245361328125,0.17132487893104553,1.7537733316421509,0.16444407403469086
1757088706129291300,2.873291259765625,-0.42284393310546875,1.9657896757125854,0.4547584652900696
1757088706139337200,2.883337158203125,-1.0715411901474,2.100273370742798,0.674475371837616
1757088706149384200,2.89338427734375,-1.6739869117736816,1.849256157875061,0.8087303638458252
1757088706159430100,2.90343017578125,-2.1300084590911865,1.5512300729751587,0.9259352684020996
1757088706169477000,2.91347705078125,-2.345181703567505,1.4405282735824585,1.0150893926620483
1757088706179523300,2.9235234375,-2.17342472076416,1.5597844123840332,1.0395976305007935
1757088706189570300,2.9335703125,-2.1410605907440186,1.7881451845169067,1.1062512397766113
1757088706199616300,2.9436162109375,-2.2044315338134766,2.001553773880005,1.1417365074157715
1757088706209663500,2.95366357421875,-2.190594434738159,2.3263185024261475,1.1221983432769775
1757088706219709400,2.96370947265625,-2.1316752433776855,2.7129693031311035,1.1195793151855469
1757088706229755400,2.97375537109375,-2.0958166122436523,2.926900625228882,1.116877794265747
1757088706239802400,2.98380224609375,-2.1703152656555176,2.908306837081909,1.0145783424377441
1757088706249848300,2.993848388671875,-2.298048496246338,2.595691204071045,0.8462135791778564
1757088706259895300,3.003895263671875,-2.4668972492218018,2.4635674953460693,0.6876596212387085
1757088706269941200,3.013941162109375,-2.408789873123169,2.4559762477874756,0.8127488493919373
1757088706279988200,3.02398828125,-1.6580688953399658,2.2945737838745117,1.1389360427856445
1757088706290034200,3.0340341796875,-0.2996269166469574,1.9087378978729248,1.377259373664856
1757088706300080400,3.044080322265625,-0.18991267681121826,1.0753852128982544,1.3073889017105103
1757088706310127400,3.05412744140625,-0.492872029542923,0.8502370715141296,1.193458914756775
1757088706320173300,3.06417333984375,-0.5611003637313843,0.3550848662853241,0.7861286401748657
1757088706330220300,3.07422021484375,-0.5035081505775452,0.03783978894352913,0.2686711549758911
1757088706340266200,3.084266357421875,-0.3870784640312195,0.056184444576501846,-0.037685327231884
1757088706350313500,3.0943134765625,-0.3307185173034668,0.05854213982820511,-0.1618962287902832
1757088706360359200,3.104359130859375,-0.1956975907087326,0.25090837478637695,-0.1551530957221985
1757088706370406400,3.114406494140625,-0.012386628426611423,0.4469796419143677,-0.07033488154411316
1757088706380452400,3.124452392578125,0.08814343810081482,0.5094166398048401,0.009160208515822887
1757088706390498300,3.134498291015625,0.06133472919464111,0.4279593229293823,0.04929298162460327
1757088706400545300,3.144545166015625,-0.08368397504091263,0.21475784480571747,-0.01733691245317459
1757088706410591500,3.154591552734375,-0.1858854442834854,0.12754623591899872,-0.1300293654203415
1757088706420638200,3.16463818359375,-0.25438806414604187,0.18679757416248322,-0.16627871990203857
1757088706430684400,3.174684326171875,-0.31754574179649353,0.27884602546691895,-0.08559506386518478
1757088706440731400,3.1847314453125,-0.35694026947021484,0.32219481468200684,0.07656294852495193
1757088706450777300,3.19477734375,-0.4322318434715271,0.31177279353141785,0.24603107571601868
1757088706460823800,3.20482373046875,-1.4537221193313599,-0.4443737268447876,-0.472736656665802
1757088706470870800,3.214870849609375,-1.0484423637390137,-0.26979365944862366,-0.3980475068092346
1757088706480916700,3.224916748046875,-0.9408274292945862,-0.0911240503191948,-0.0023390543647110462
1757088706490963700,3.234963623046875,-1.0064176321029663,0.06564132869243622,0.5755658149719238
1757088706501009700,3.245009765625,-0.9407352805137634,-0.2380453199148178,0.7236740589141846
1757088706511057000,3.255056884765625,-0.8836203217506409,-0.6494083404541016,0.2356514036655426
1757088706521102800,3.265102783203125,-0.8048166036605835,-0.6562673449516296,0.05433168262243271
1757088706531149800,3.27514990234375,-0.8728345036506653,-0.9926828742027283,-0.012572783045470715
1757088706541195800,3.28519580078125,-1.138481616973877,-1.5611982345581055,-0.07722554355859756
1757088706551242000,3.295241943359375,-1.378751516342163,-2.184152364730835,-0.08819963037967682
1757088706561289000,3.3052890625,-1.3271050453186035,-2.8251702785491943,-0.161575049161911
1757088706571335000,3.3153349609375,-1.2080333232879639,-3.1988167762756348,-0.39765337109565735
1757088706581382000,3.3253818359375,-1.2559717893600464,-3.0376198291778564,-0.7876876592636108
1757088706591427800,3.335427734375,-1.312488317489624,-2.992535352706909,-1.0638878345489502
1757088706601474800,3.345474853515625,-0.87382972240448,-2.284782886505127,-1.0897705554962158
1757088706611520800,3.355520751953125,-0.32279297709465027,-0.7938326597213745,-0.9281044602394104
1757088706621567700,3.365567626953125,-0.08305627107620239,-0.24449017643928528,-0.2744174301624298
1757088706631613700,3.37561376953125,0.12104200571775436,-0.1552998423576355,0.06695400178432465
1757088706641659600,3.38565966796875,0.30229488015174866,-0.2854410707950592,0.04924291372299194
1757088706651706600,3.39570654296875,0.27277347445487976,-0.30748724937438965,0.11989551037549973
1757088706661752600,3.405752685546875,0.12187663465738297,-0.5201544761657715,0.13647475838661194
1757088706671799800,3.4157998046875,0.14696334302425385,-0.8577154874801636,0.07933476567268372
1757088706681846000,3.425845947265625,-0.01145931612700224,-0.8812993764877319,0.23994575440883636
1757088706691892700,3.435892822265625,-0.2768225371837616,-0.7324345707893372,0.40888711810112
1757088706701939000,3.44593896484375,-0.6854254603385925,0.07612752169370651,0.677915096282959
1757088706711986000,3.45598583984375,-1.285378098487854,1.167076826095581,0.9323910474777222
1757088706722031900,3.466031982421875,-1.599247932434082,1.7918211221694946,1.0636662244796753
1757088706732077800,3.476077880859375,-1.220827341079712,1.6025768518447876,1.0582445859909058
1757088706742124800,3.486124755859375,-0.5703452229499817,0.7758781313896179,0.870917558670044
1757088706752170800,3.496170654296875,-0.3293595314025879,-0.028927521780133247,0.6275107860565186
1757088706762217700,3.5062177734375,-0.36007508635520935,-0.6067492961883545,0.35828810930252075
1757088706772263700,3.516263671875,-0.3629124164581299,-0.7851864099502563,0.1280679553747177
1757088706782310700,3.526310546875,-0.2543635666370392,-0.6528704762458801,-0.10312984883785248
1757088706792356600,3.536356689453125,-0.030885744839906693,-0.4285809099674225,-0.19943881034851074
1757088706802403800,3.54640380859375,0.1143830344080925,-0.18271788954734802,-0.21364091336727142
1757088706812449800,3.55644970703125,0.18174876272678375,-0.05344138666987419,-0.21651685237884521
1757088706822495700,3.566495849609375,0.05461956933140755,0.059895023703575134,-0.16134388744831085
1757088706832543000,3.57654296875,-0.06174032762646675,0.1857522875070572,-0.1316581666469574
1757088706842589000,3.5865888671875,-0.21872089803218842,0.4253006875514984,-0.08151509612798691
1757088706852636000,3.596635986328125,-0.5403274297714233,0.6132642030715942,0.017245300114154816
1757088706862681900,3.606681884765625,-0.8872502446174622,0.5636236667633057,0.21781355142593384
1757088706872728800,3.616728759765625,-0.9496837854385376,0.22978127002716064,0.4389645755290985
1757088706882774800,3.62677490234375,-0.4552050530910492,-0.4462509751319885,0.54976487159729
1757088706892821800,3.63682177734375,-0.18151280283927917,-0.7921929359436035,0.7043107748031616
1757088706902867700,3.64686767578125,-0.22475561499595642,-0.521902322769165,0.6043838858604431
1757088706912914000,3.656913818359375,-0.3889964818954468,0.013607155531644821,0.5159504413604736
1757088706922960600,3.666960693359375,-0.5850032567977905,0.5854083299636841,0.42727115750312805
1757088706933006800,3.6770068359375,-0.8693583011627197,1.0250051021575928,0.3245445191860199
1757088706943053800,3.6870537109375,-1.0870498418807983,1.2343772649765015,0.2975797653198242
1757088706953099800,3.697099853515625,-1.1893682479858398,1.2275265455245972,0.3623094856739044
1757088706963147000,3.70714697265625,-1.0345944166183472,1.050590991973877,0.45069020986557007
1757088706973192700,3.717192626953125,-0.7775301337242126,0.9210100769996643,0.6050904393196106
1757088706983240000,3.727239990234375,-0.5667888522148132,0.9868100881576538,0.7499852776527405
1757088706993286000,3.737285888671875,-0.39409297704696655,0.8598667979240417,0.765177845954895
1757088707003331800,3.747331787109375,-0.3184637427330017,0.49059155583381653,0.6056054830551147
1757088707013378800,3.75737890625,-0.23665595054626465,0.05788886547088623,0.3318663537502289
1757088707023424800,3.7674248046875,0.007190801203250885,0.13036519289016724,-0.08894292265176773
1757088707033471700,3.7774716796875,0.12132589519023895,0.2885569632053375,-0.34726235270500183
1757088707043518000,3.78751806640625,0.142449289560318,0.38982394337654114,-0.49444329738616943
1757088707053564700,3.797564697265625,0.1708148866891861,0.5767032504081726,-0.5225598812103271
1757088707063611000,3.80761083984375,0.2291780561208725,0.683208167552948,-0.4349178969860077
1757088707073657900,3.817657958984375,0.24610911309719086,0.9618136882781982,-0.3230976164340973
1757088707083703800,3.827703857421875,0.23305828869342804,1.298740267753601,-0.15905223786830902
1757088707093749800,3.837749755859375,0.12481889873743057,1.271155834197998,0.03247831389307976
1757088707103796700,3.847796630859375,0.03425624221563339,0.9392806887626648,0.11196142435073853
1757088707113842700,3.8578427734375,-0.020805412903428078,0.42263805866241455,0.14435158669948578
1757088707123890000,3.867889892578125,-0.04250591620802879,0.08726459741592407,0.16303898394107819
1757088707133935900,3.877935791015625,0.033068470656871796,0.08520996570587158,0.18217219412326813
1757088707143982800,3.88798291015625,0.041728537529706955,0.2128361016511917,0.2526428997516632
1757088707154028800,3.89802880859375,-0.022486666217446327,0.3345995545387268,0.40632274746894836
1757088707164075800,3.90807568359375,-0.18259404599666595,-0.03383732587099075,0.774289608001709
1757088707174122000,3.9181220703125,-0.5166170001029968,-0.6415823698043823,0.8911629319190979
1757088707184168700,3.928168701171875,-0.6336895823478699,-0.43652912974357605,0.6974411606788635
1757088707194215000,3.93821484375,-0.6032906770706177,-0.2099846601486206,0.47279658913612366
1757088707204260900,3.9482607421875,-0.4431838095188141,0.06250252574682236,0.29057776927948
1757088707214307800,3.958307861328125,-0.30930912494659424,0.2849918007850647,0.29784339666366577
1757088707224353800,3.968353759765625,-0.3109821081161499,0.2524527609348297,0.34091684222221375
1757088707234400800,3.97840087890625,-0.3461475670337677,0.17513106763362885,0.3985777497291565
1757088707244446700,3.98844677734375,-0.3484261631965637,0.10593894869089127,0.49871525168418884
1757088707254493700,3.99849365234375,-0.26194319128990173,0.11785579472780228,0.6602386236190796
1757088707264539600,4.00853955078125,-0.3022972643375397,-0.08735141903162003,0.4148073196411133
1757088707274587000,4.0185869140625,-0.7610757946968079,0.0910705178976059,0.14512816071510315
1757088707284632800,4.0286328125,-0.9098479151725769,-0.022550849243998528,-0.039684295654296875
1757088707294679000,4.038678955078125,-0.91110759973526,-0.19044025242328644,-0.48624926805496216
1757088707304725800,4.048725830078125,-0.8570776581764221,-0.20643971860408783,-0.8624894618988037
1757088707314772000,4.05877197265625,-0.7699241042137146,0.007477889768779278,-1.0321354866027832
1757088707324819000,4.06881884765625,-0.7031440138816833,0.26266756653785706,-1.0462974309921265
1757088707334865000,4.078864990234375,-0.6615196466445923,0.25519660115242004,-1.0208426713943481
1757088707344912000,4.088911865234375,-0.7668521404266357,0.06514465063810349,-0.9542686939239502
1757088707354957800,4.098957763671875,-0.9947077035903931,-0.3079681992530823,-0.9682771563529968
1757088707365004800,4.1090048828125,-1.1518036127090454,-0.6019255518913269,-1.037603735923767
1757088707375050800,4.11905078125,-1.3166290521621704,-0.3320639729499817,-1.1165497303009033
1757088707385096700,4.1290966796875,-1.686523675918579,-1.4346848726272583,-1.5914528369903564
1757088707395143700,4.139143798828125,-1.7076950073242188,-1.49703049659729,-1.6663084030151367
1757088707405189600,4.149189697265625,-1.9183907508850098,-1.448943853378296,-1.8259795904159546
1757088707415236600,4.159236572265625,-2.1919057369232178,-1.3964269161224365,-1.8516809940338135
1757088707425282800,4.16928271484375,-2.498089075088501,-0.5467661619186401,-1.5099984407424927
1757088707435329800,4.179329833984375,-2.263570785522461,0.2082248479127884,-1.2206343412399292
1757088707445376000,4.1893759765625,-1.584686517715454,-0.013451093807816505,-1.21364426612854
1757088707455423000,4.199423095703125,-0.929405152797699,-0.14491218328475952,-1.1154741048812866
1757088707465469000,4.209468994140625,-0.5460854172706604,-0.08313829451799393,-0.9140892624855042
1757088707475516000,4.219515869140625,-0.26345905661582947,-0.3133462071418762,-0.666099488735199
1757088707485561900,4.229561767578125,-0.07824340462684631,-0.4151412844657898,-0.3517463207244873
1757088707495607800,4.23960791015625,-0.02226455882191658,-0.26936063170433044,-0.08166157454252243
1757088707505655000,4.249655029296875,-0.01206784788519144,-0.30985507369041443,0.07298286259174347
1757088707515700700,4.25970068359375,-0.04350326955318451,-0.30173349380493164,0.14962197840213776
1757088707525748000,4.269748046875,-0.049378201365470886,-0.2826599180698395,0.17628422379493713
1757088707535794000,4.2797939453125,-0.03326448053121567,-0.3031468391418457,0.2033344805240631
1757088707545841000,4.2898408203125,-0.021752433851361275,-0.29708734154701233,0.21592403948307037
1757088707555887000,4.29988720703125,-0.039020102471113205,-0.27712002396583557,0.2070906013250351
1757088707565933800,4.309933837890625,-0.04745619744062424,-0.17924059927463531,0.1729201078414917
1757088707575980000,4.31997998046875,-0.04356478899717331,-0.065395787358284,0.11156380921602249
1757088707586026000,4.33002587890625,-0.06755880266427994,0.04688068851828575,0.04241350293159485
1757088707596073000,4.340072998046875,-0.11088337749242783,0.10550086200237274,0.0032863407395780087
1757088707606119000,4.350118896484375,-0.1438485085964203,0.08032626658678055,0.02364887110888958
1757088707616166000,4.360165771484375,-0.1576189249753952,0.10291440039873123,0.04207474738359451
1757088707626211800,4.3702119140625,-0.011979697272181511,0.017825601622462273,-0.014086790382862091
1757088707636258800,4.3802587890625,0.11937139928340912,-0.1335223764181137,0.02534104324877262
1757088707646304800,4.3903046875,0.17915724217891693,-0.22318115830421448,0.08608908206224442
1757088707656352000,4.40035205078125,0.2235577255487442,-0.28595879673957825,0.14771994948387146
1757088707666398000,4.41039794921875,0.23261140286922455,-0.24903911352157593,0.1968318372964859
1757088707676445000,4.42044482421875,0.25865498185157776,-0.235940620303154,0.21664442121982574
1757088707686491100,4.4304912109375,0.29693153500556946,-0.3222281038761139,0.2253609448671341
1757088707696537000,4.440537109375,0.3239727318286896,-0.39358219504356384,0.23469959199428558
1757088707706584000,4.450583984375,0.3256228268146515,-0.36038854718208313,0.2584403455257416
1757088707716630000,4.460630126953125,0.2668985426425934,-0.30350127816200256,0.28739288449287415
1757088707726677000,4.470677001953125,0.19073985517024994,-0.21029359102249146,0.18731848895549774
1757088707736723000,4.480722900390625,0.13983753323554993,-0.32963329553604126,0.08008497953414917
1757088707746770000,4.49077001953125,0.11104662716388702,-0.3338906168937683,-0.03517822548747063
1757088707756816000,4.50081591796875,0.08207836002111435,-0.28835856914520264,-0.09172991663217545
1757088707766862800,4.51086279296875,0.09105187654495239,-0.29905965924263,-0.0607277937233448
1757088707776908800,4.52090869140625,0.10712511837482452,-0.3358296751976013,0.005541239399462938
1757088707786955800,4.530955810546875,0.10180892050266266,-0.3686944246292114,0.04182201623916626
1757088707797001700,4.541001708984375,0.10558075457811356,-0.3801063299179077,0.07153943181037903
1757088707807048000,4.5510478515625,0.0858272910118103,-0.3735347092151642,0.08840230107307434
1757088707817095200,4.56109521484375,0.09164576232433319,-0.38078171014785767,0.11179018020629883
1757088707827141000,4.57114111328125,0.09814600646495819,-0.3713005781173706,0.13936668634414673
1757088707837188000,4.58118798828125,0.10232610255479813,-0.38134416937828064,0.15733103454113007
1757088707847234000,4.591234130859375,0.11186821013689041,-0.3693101406097412,0.16720230877399445
1757088707857281000,4.601281005859375,0.1075669378042221,-0.34890952706336975,0.15519091486930847
1757088707867327000,4.611326904296875,0.09665410220623016,-0.35480523109436035,0.16264350712299347
1757088707877374000,4.6213740234375,0.10440044105052948,-0.3571442663669586,0.17070356011390686
1757088707887420000,4.631419921875,0.1267845779657364,-0.3485223054885864,0.19133667647838593
1757088707897465900,4.6414658203125,0.13958106935024261,-0.32259827852249146,0.19469518959522247
1757088707907512800,4.651512939453125,0.152143195271492,-0.2968764007091522,0.20463676750659943
1757088707917558800,4.661558837890625,0.1629076898097992,-0.25693511962890625,0.2037416696548462
1757088707927605800,4.671605712890625,0.18136286735534668,-0.23817528784275055,0.21919307112693787
1757088707937652000,4.68165185546875,0.1814803183078766,-0.18867404758930206,0.20411504805088043
1757088707947699000,4.691698974609375,0.17952342331409454,-0.17001087963581085,0.18786151707172394
1757088707957745000,4.701744873046875,0.16559189558029175,-0.13930276036262512,0.16373620927333832
1757088707967792000,4.711792236328125,0.15925410389900208,-0.11636549234390259,0.15257249772548676
1757088707977838000,4.721838134765625,0.1455145925283432,-0.09862058609724045,0.13591068983078003
1757088707987885000,4.731885009765625,0.12891750037670135,-0.0821787565946579,0.11627920717000961
1757088707997931000,4.741930908203125,0.11517452448606491,-0.07585348188877106,0.10799490660429001
1757088708007977000,4.75197705078125,0.10491469502449036,-0.0662064477801323,0.08621664345264435
1757088708018024000,4.76202392578125,0.09646661579608917,-0.05422302335500717,0.06754761934280396
1757088708028070000,4.77206982421875,0.08891043066978455,-0.028209799900650978,0.046486277133226395
1757088708038116900,4.782116943359375,0.08509199321269989,-0.019277291372418404,0.055570852011442184
1757088708048162800,4.792162841796875,0.09417176991701126,0.008799350820481777,0.06199998781085014
1757088708058209800,4.802209716796875,0.1099587231874466,0.025738919153809547,0.08512554317712784
1757088708068256000,4.812256103515625,0.11371830850839615,0.03867229446768761,0.09646262228488922
1757088708078303000,4.822302978515625,0.1184358298778534,0.047456465661525726,0.08893972635269165
1757088708088349000,4.832348876953125,0.1253262311220169,0.018072742968797684,0.09606155008077621
1757088708098396000,4.84239599609375,0.1709349900484085,0.03771941363811493,-0.020745225250720978
1757088708108441900,4.85244189453125,0.2135213315486908,-0.08305627107620239,0.033541981130838394
1757088708118487800,4.86248779296875,0.20976467430591583,-0.13027091324329376,0.13029782474040985
1757088708128535000,4.87253515625,0.18963997066020966,-0.07178390771150589,0.11449861526489258
1757088708138581000,4.8825810546875,0.15841041505336761,0.02100754715502262,0.05479799956083298
1757088708148628000,4.8926279296875,0.11454655230045319,0.022488264366984367,0.06245139241218567
1757088708158674000,4.902673828125,0.09678193926811218,-0.026811907067894936,0.09322794526815414
1757088708168721000,4.912720947265625,0.10723218321800232,-0.021466409787535667,0.016340624541044235
1757088708178766800,4.922766845703125,0.13192927837371826,-0.06298961490392685,0.028925124555826187
1757088708188813800,4.932813720703125,0.12254668772220612,-0.12494193762540817,0.08807579427957535
1757088708198860000,4.942860107421875,0.08527122437953949,-0.16342514753341675,0.24439962208271027
1757088708208907000,4.952906982421875,0.0868840292096138,-0.14251932501792908,0.2588009238243103
1757088708218953000,4.962952880859375,0.10555944591760635,-0.11463550478219986,0.22246423363685608
1757088708228999000,4.9729990234375,0.12976305186748505,-0.09944482892751694,0.14562325179576874
1757088708239046000,4.9830458984375,0.14003166556358337,-0.10100491344928741,0.08054597675800323
1757088708249091800,4.993091796875,0.15533100068569183,-0.14907070994377136,0.0791986808180809
1757088708259138800,5.003138916015625,0.14707280695438385,-0.12523089349269867,0.07197432219982147
1757088708269184800,5.013184814453125,0.16408774256706238,-0.08498173952102661,0.046176549047231674
1757088708279232000,5.02323193359375,0.19347918033599854,-0.05946439132094383,-0.0007803061744198203
1757088708289278000,5.03327783203125,0.2104499191045761,-0.06539631634950638,-0.020128171890974045
1757088708299325000,5.043324951171875,0.23244576156139374,-0.022177474573254585,-0.01986744813621044
1757088708309371000,5.053370849609375,0.24163180589675903,0.0757855772972107,-0.08236011862754822
1757088708319417900,5.06341796875,0.2266874760389328,0.04478105157613754,-0.061163220554590225
1757088708329464000,5.073464111328125,0.28721100091934204,-0.06564479321241379,0.08850722759962082
1757088708339511000,5.083510986328125,0.38532692193984985,-0.022705312818288803,0.26972174644470215
1757088708349557000,5.093556884765625,0.31054696440696716,0.15469662845134735,0.1851610690355301
1757088708359603000,5.10360302734375,0.1338491439819336,0.15616244077682495,-0.10689689218997955
1757088708369650000,5.11364990234375,-0.005119128152728081,0.05859513580799103,-0.26609212160110474
1757088708379695900,5.12369580078125,-0.05046769976615906,-0.09219331294298172,-0.18737229704856873
1757088708389742800,5.133742919921875,-0.12990233302116394,-0.09269797801971436,0.03984088823199272
1757088708399788800,5.143788818359375,-0.11431539058685303,-0.06774123013019562,0.19789257645606995
1757088708409835800,5.153835693359375,-0.000025300030756625347,0.023014504462480545,0.2577340602874756
1757088708419881700,5.1638818359375,0.12064944952726364,0.10352346301078796,0.037154823541641235
1757088708429929000,5.173928955078125,0.1708660125732422,-0.28067266941070557,0.0817425325512886
1757088708439975000,5.183974853515625,0.10938241332769394,0.00469488650560379,0.5589810013771057
1757088708450022000,5.19402197265625,0.08974187076091766,0.1997024565935135,0.44114622473716736
1757088708460068000,5.204068115234375,0.1772639900445938,0.37164226174354553,-0.31182312965393066
1757088708470115000,5.214114990234375,0.2194703072309494,-0.1657748520374298,-0.49950942397117615
1757088708480161000,5.2241611328125,0.22047485411167145,0.37099751830101013,-0.5881841778755188
1757088708490207000,5.23420703125,0.4043256342411041,0.31181833148002625,-0.9589015245437622
1757088708500254000,5.24425390625,0.4904719889163971,-0.49267733097076416,-0.4721970856189728
1757088708510300000,5.2542998046875,0.40089601278305054,-0.4575901925563812,0.2979360818862915
1757088708520347000,5.264346923828125,0.1314898431301117,0.9470909237861633,-0.08823798596858978
1757088708530392800,5.274392822265625,-0.018603244796395302,0.5238461494445801,-0.697104275226593
1757088708540439800,5.284439697265625,-0.09421677887439728,-0.016355270519852638,-0.4463215470314026
1757088708550485800,5.29448583984375,-0.08706379681825638,0.034158237278461456,0.036926060914993286
1757088708560533000,5.304532958984375,-0.058407384902238846,0.031977105885744095,0.04280152544379234
1757088708570579000,5.314578857421875,-0.047080691903829575,0.0601312480866909,-0.04080628603696823
1757088708580626000,5.3246259765625,-0.031973645091056824,0.07521539181470871,-0.005839779507368803
1757088708590672100,5.334672119140625,-0.008225705474615097,0.05380330979824066,-0.009606820531189442
1757088708600718800,5.34471875,0.0019121496006846428,0.06851301342248917,-0.04131761193275452
1757088708610765000,5.35476513671875,-0.00749014038592577,0.08972349762916565,-0.049321211874485016
1757088708620811000,5.36481103515625,-0.019335880875587463,0.07773314416408539,-0.052015263587236404
1757088708630858000,5.37485791015625,-0.027283819392323494,0.07370937615633011,-0.06397392600774765
1757088708640904000,5.384904052734375,-0.02490375190973282,0.05531039461493492,-0.0770721510052681
1757088708650951000,5.394950927734375,-0.00929256808012724,0.04195304214954376,-0.10193568468093872
1757088708660996900,5.404996826171875,-0.009440639987587929,0.022348182275891304,-0.10312798619270325
1757088708671043800,5.4150439453125,-0.019697537645697594,0.032876189798116684,-0.08539479225873947
1757088708681089800,5.42508984375,-0.03063087910413742,0.031327828764915466,-0.09338853508234024
1757088708691136800,5.43513671875,-0.04261590167880058,0.02135668694972992,-0.09113550186157227
1757088708701182700,5.4451826171875,-0.05218224599957466,0.0329720638692379,-0.07587958127260208
1757088708711230000,5.45522998046875,-0.06568527221679688,0.03616572916507721,-0.05962391570210457
1757088708721276200,5.465276123046875,-0.07749425619840622,0.026155438274145126,-0.05090099573135376
1757088708731323000,5.475322998046875,-0.08468639105558395,0.025615613907575607,-0.07017083466053009
1757088708741369000,5.485369140625,-0.09035173058509827,0.0075697689317166805,-0.07474853843450546
1757088708751415000,5.4954150390625,-0.09421598166227341,0.013156281784176826,-0.06430202722549438
1757088708761462000,5.5054619140625,-0.09362582117319107,0.015783490613102913,-0.04987940937280655
1757088708771508000,5.515508056640625,-0.08348264545202255,0.009008142165839672,-0.035107653588056564
1757088708781555000,5.525554931640625,-0.07390325516462326,0.004733502399176359,-0.022177474573254585
1757088708791601000,5.535600830078125,-0.06706319004297256,0.008246478624641895,-0.011145595461130142
1757088708801647900,5.54564794921875,-0.06279387325048447,0.011892345733940601,-0.004862399306148291
1757088708811693800,5.55569384765625,-0.053463224321603775,0.012387161143124104,-0.0006034722900949419
1757088708821740800,5.56574072265625,-0.0502631701529026,0.010730142705142498,0.0046599991619586945
1757088708831786800,5.575786865234375,-0.043828174471855164,0.004858404863625765,0.009721603244543076
1757088708841833700,5.585833740234375,-0.036368127912282944,0.0065345983020961285,0.008197209797799587
1757088708851880000,5.5958798828125,-0.029588252305984497,0.007696269080042839,0.0022567627020180225
1757088708861926000,5.60592578125,-0.020855480805039406,0.020066386088728905,-0.006484530866146088
1757088708871973000,5.61597314453125,-0.013531255535781384,0.042873963713645935,-0.01666499674320221
1757088708882019000,5.62601904296875,-0.005852829199284315,0.06812845170497894,-0.027397269383072853
1757088708892066000,5.636066162109375,-0.0008082693675532937,0.08152681589126587,-0.036442164331674576
1757088708902112000,5.646112060546875,0.001514806062914431,0.0912976861000061,-0.04455122351646423
1757088708912159000,5.656158935546875,0.0008111988427117467,0.0926271378993988,-0.051716722548007965
1757088708922205000,5.666204833984375,-0.00027856664382852614,0.09456618875265121,-0.0584835484623909
1757088708932252000,5.676251953125,-0.0016253271605819464,0.0959014967083931,-0.061891864985227585
1757088708942297900,5.6862978515625,-0.00541260838508606,0.09042949974536896,-0.059966929256916046
1757088708952344800,5.6963447265625,0.0007683219737373292,0.08000855147838593,-0.056224923580884933
1757088708962390800,5.706390869140625,0.015778429806232452,0.06730873137712479,-0.050569433718919754
1757088708972437800,5.716437744140625,0.03346341848373413,0.06151476129889488,-0.049428537487983704
1757088708982484000,5.72648388671875,0.044310737401247025,0.06496648490428925,-0.05621480196714401
1757088708992530000,5.736530029296875,0.04639359563589096,0.07820665091276169,-0.06423331797122955
1757088709002577000,5.746576904296875,0.05112922936677933,0.07427982240915298,-0.0773073062300682
1757088709012622800,5.756622802734375,0.05270741879940033,0.07794006913900375,-0.09109129756689072
1757088709022670000,5.766670166015625,0.059777580201625824,0.056357283145189285,-0.08826647698879242
1757088709032716000,5.776716064453125,0.0666450709104538,0.049725744873285294,-0.08644673973321915
1757088709042763000,5.786762939453125,0.06347351521253586,0.04892120510339737,-0.08415136486291885
1757088709052809000,5.79680908203125,0.0516301728785038,0.05886731296777725,-0.0703873485326767
1757088709062856000,5.80685595703125,0.03369564563035965,0.06059490516781807,-0.06493319571018219
1757088709072902000,5.81690185546875,0.01830310747027397,0.0350077860057354,-0.04689613729715347
1757088709082948900,5.826948974609375,0.009975402615964413,0.011998073197901249,-0.044872134923934937
1757088709092994800,5.836994873046875,0.0036535905674099922,-0.015975505113601685,-0.043774377554655075
1757088709103041000,5.847041015625,-0.002255164785310626,-0.033057551831007004,-0.03337633237242699
1757088709113088000,5.857087890625,-0.0057710702531039715,-0.049140382558107376,-0.015120629221200943
1757088709123134000,5.867134033203125,-0.005724198184907436,-0.0679074078798294,0.002901514060795307
1757088709133181000,5.877180908203125,-0.0075660403817892075,-0.07794033735990524,0.013813816010951996
1757088709143227000,5.887226806640625,-0.01278796698898077,-0.08194679766893387,0.018564363941550255
1757088709153273900,5.89727392578125,-0.021440044045448303,-0.07758400589227676,0.022913571447134018
1757088709163319800,5.90731982421875,-0.0323781780898571,-0.06288761645555496,0.020116453990340233
1757088709173367000,5.917366943359375,-0.047207459807395935,-0.03979215398430824,0.015004249289631844
1757088709183413000,5.9274130859375,-0.05456790328025818,-0.012396481819450855,0.004397944081574678
1757088709193460000,5.9374599609375,-0.0559503510594368,0.005982525181025267,-0.007567904889583588
1757088709203506000,5.947505859375,-0.04934544488787651,0.01619414985179901,-0.009754626080393791
1757088709213551900,5.9575517578125,-0.0406305156648159,0.015857260674238205,-0.008103200234472752
1757088709223598800,5.967598876953125,-0.03196538984775543,0.012339224107563496,-0.006146309431642294
1757088709233645000,5.97764501953125,-0.031323034316301346,0.01158581580966711,-0.0028719529509544373
1757088709243692000,5.987692138671875,-0.0261240117251873,0.012770390138030052,-0.0006340986583381891
1757088709253738000,5.997738037109375,-0.0255796629935503,0.017180051654577255,0.000922252656891942
1757088709263785000,6.007784912109375,-0.026083266362547874,0.02779754251241684,-0.0015110776294022799
1757088709273831000,6.017830810546875,-0.024285631254315376,0.038356177508831024,-0.0054272557608783245
1757088709283878000,6.0278779296875,-0.019690614193677902,0.04639625921845436,-0.012077169492840767
1757088709293923800,6.037923828125,-0.009917878545820713,0.04597947746515274,-0.015985624864697456
1757088709303971000,6.04797119140625,-0.0030391993932425976,0.04641170799732208,-0.016410132870078087
1757088709314016800,6.058016845703125,0.00412417110055685,0.04366385564208031,-0.016748087480664253
1757088709324064000,6.06806396484375,0.011345332488417625,0.03303118795156479,-0.0121304327622056
1757088709334110000,6.07810986328125,0.020603012293577194,0.020562266930937767,-0.005695968866348267
1757088709344156000,6.088156005859375,0.02196548692882061,0.008801214396953583,0.002950782421976328
1757088709354203000,6.098202880859375,0.025317873805761337,-0.0007765777409076691,0.013258547522127628
1757088709364249000,6.1082490234375,0.023687219247221947,-0.006697583943605423,0.018378740176558495
1757088709374296000,6.118296142578125,0.022489063441753387,-0.009500826708972454,0.020649351179599762
1757088709384342000,6.128342041015625,0.020958011969923973,-0.018938804045319557,0.021013671532273293
1757088709394389000,6.138388916015625,0.027178891003131866,-0.03593003749847412,0.020624319091439247
1757088709404435000,6.14843505859375,0.04392164945602417,-0.0685843899846077,0.012324577197432518
1757088709414482000,6.15848193359375,0.06855535507202148,-0.13137559592723846,0.01158901210874319
1757088709424528000,6.16852783203125,0.0956687331199646,-0.18816111981868744,0.02509656548500061
1757088709434574800,6.178574951171875,0.12299410253763199,-0.22528664767742157,0.03931012004613876
1757088709444620800,6.188620849609375,0.13899223506450653,-0.21809451282024384,0.05403154343366623
1757088709454666800,6.198666748046875,0.13681963086128235,-0.16500626504421234,0.06216776743531227
1757088709464713200,6.208713134765625,0.10615945607423782,-0.12274961918592453,0.06922647356987
1757088709474759400,6.218759521484375,0.07410911470651627,-0.10177429765462875,0.07461724430322647
1757088709484806400,6.228806396484375,0.047813594341278076,-0.0953262522816658,0.06793510913848877
1757088709494852400,6.238852294921875,0.026373017579317093,-0.07953344285488129,0.03994981199502945
1757088709504899300,6.2488994140625,0.00583631731569767,-0.06362798064947128,0.015485482290387154
1757088709514945300,6.2589453125,-0.012116317637264729,-0.03862622007727623,-0.0006945523782633245
1757088709524992500,6.268992431640625,-0.023142337799072266,-0.016992565244436264,-0.007389206904917955
1757088709535038200,6.2790380859375,-0.027836425229907036,0.003887682454660535,-0.012410596944391727
1757088709545085400,6.28908544921875,-0.031126759946346283,0.023904267698526382,-0.015541142784059048
1757088709555131400,6.29913134765625,-0.031006118282675743,0.0390094518661499,-0.021274928003549576
1757088709565177300,6.30917724609375,-0.030975759029388428,0.04906181991100311,-0.029699038714170456
1757088709575224300,6.319224365234375,-0.02851180173456669,0.06199066713452339,-0.0352698415517807
1757088709585270500,6.3292705078125,-0.029648706316947937,0.07026297599077225,-0.03809518739581108
1757088709595317200,6.339317138671875,-0.029345372691750526,0.07869987189769745,-0.03941797837615013
1757088709605363500,6.349363525390625,-0.029157618060708046,0.0864267647266388,-0.0400821715593338
1757088709615410400,6.359410400390625,-0.03347140550613403,0.0817451998591423,-0.030304908752441406
1757088709625456400,6.369456298828125,-0.030105704441666603,0.06507354229688644,-0.01672145538032055
1757088709635503400,6.37950341796875,-0.03057149052619934,0.05072389915585518,-0.02034415304660797
1757088709645549300,6.38954931640625,-0.03135659173130989,0.028271852061152458,-0.017592309042811394
1757088709655596300,6.39959619140625,-0.033795248717069626,0.017678862437605858,-0.01155492290854454
1757088709665642200,6.409642333984375,-0.034920964390039444,0.009895240887999535,-0.008923985995352268
1757088709675688200,6.419688232421875,-0.0352485328912735,0.005161472596228123,0.002525741932913661
1757088709685735400,6.4297353515625,-0.036912210285663605,0.0063002402894198895,0.0070765516720712185
1757088709695781400,6.439781494140625,-0.035947348922491074,0.011129084043204784,0.012761867605149746
1757088709705828400,6.449828369140625,-0.03729517385363579,0.014614628627896309,0.016944095492362976
1757088709715874600,6.45987451171875,-0.037146035581827164,0.018318288028240204,0.019593941047787666
1757088709725921300,6.46992138671875,-0.039321038872003555,0.023031815886497498,0.018497517332434654
1757088709735967500,6.479967529296875,-0.04415201395750046,0.024779383093118668,0.016279371455311775
1757088709746014500,6.490014404296875,-0.041789524257183075,0.026684874668717384,0.01458773110061884
1757088709756060400,6.500060302734375,-0.04327902942895889,0.023270169273018837,0.01727752387523651
1757088709766106400,6.5101064453125,-0.04062625765800476,0.02448217384517193,0.016229303553700447
1757088709776153300,6.5201533203125,-0.03712979331612587,0.02592640556395054,0.009215336292982101
1757088709786199300,6.53019921875,-0.03591405972838402,0.03176724910736084,0.0036874127108603716
1757088709796246300,6.540246337890625,-0.034146253019571304,0.03473614156246185,-0.002034655073657632
1757088709806292200,6.550292236328125,-0.03286021202802658,0.035234421491622925,-0.002968625631183386
1757088709816339200,6.560339111328125,-0.02521321177482605,0.036126844584941864,-0.004342284053564072
1757088709826385200,6.57038525390625,-0.023684557527303696,0.038357242941856384,-0.004758802708238363
1757088709836432400,6.580432373046875,-0.01799098402261734,0.0418049693107605,-0.003096190979704261
1757088709846478300,6.590478271484375,-0.01599734276533127,0.04266703501343727,-0.001767273643054068
1757088709856525300,6.600525390625,-0.01366148330271244,0.03989095613360405,0.0008426241693086922
1757088709866571500,6.610571533203125,-0.011083277873694897,0.03801502659916878,0.0029550434555858374
1757088709876617500,6.620617431640625,-0.007903196848928928,0.03669090196490288,0.0029350698459893465
1757088709886664400,6.63066455078125,-0.0052016861736774445,0.03557876497507095,0.0015100123127922416
1757088709896710400,6.64071044921875,-0.0032325449865311384,0.03648743778467178,-0.0024501082953065634
1757088709906757400,6.65075732421875,-0.0015646071406081319,0.035055190324783325,-0.004057592246681452
1757088709916803300,6.66080322265625,-0.00010199906682828441,0.0321347676217556,-0.006760700605809689
1757088709926850300,6.670850341796875,0.004566522315144539,0.028023112565279007,-0.007999603636562824
1757088709936896300,6.680896240234375,0.007169495802372694,0.02431492693722248,-0.009662481024861336
1757088709946943200,6.690943115234375,0.005586779210716486,0.024933045729994774,-0.004748416133224964
1757088709956989200,6.7009892578125,0.0021979068405926228,0.01882908120751381,0.001487375469878316
1757088709967036200,6.7110361328125,0.002385925967246294,0.006157228257507086,0.01038366463035345
1757088709977082400,6.721082275390625,0.003967577591538429,-0.007412376347929239,0.009839314967393875
1757088709987128300,6.73112841796875,0.009354885667562485,-0.019147861748933792,0.008356733247637749
1757088709997175600,6.741175537109375,0.008266451768577099,-0.03147829696536064,0.016379771754145622
1757088710007221500,6.751221435546875,0.009712282568216324,-0.047442350536584854,0.03435903787612915
1757088710017268500,6.7612685546875,0.014212225563824177,-0.05403846874833107,0.030371220782399178
1757088710027314400,6.771314453125,0.015978699550032616,-0.06065935268998146,0.021511949598789215
1757088710037361400,6.781361328125,0.020004866644740105,-0.055870454758405685,0.01871216855943203
1757088710047407400,6.791407470703125,0.024220651015639305,-0.04999179393053055,0.014667891897261143
1757088710057454300,6.801454345703125,0.026798324659466743,-0.04863837733864784,0.011272894218564034
1757088710067500300,6.811500244140625,0.029385052621364594,-0.046252183616161346,0.011021225713193417
1757088710077547300,6.82154736328125,0.030344324186444283,-0.04272189736366272,0.013454821892082691
1757088710087593200,6.83159326171875,0.027187146246433258,-0.043777309358119965,0.01894785836338997
1757088710097639400,6.841639404296875,0.02191302180290222,-0.03879160434007645,0.024694427847862244
1757088710107686400,6.851686279296875,0.017914552241563797,-0.032636772841215134,0.0284058079123497
1757088710117732400,6.861732421875,0.013597833923995495,-0.02281024120748043,0.027956534177064896
1757088710127779300,6.871779296875,0.012574114836752415,-0.015323296189308167,0.025123195722699165
1757088710137825300,6.8818251953125,0.011188206262886524,-0.011389806866645813,0.021264808252453804
1757088710147872500,6.89187255859375,0.009005479514598846,-0.007991081103682518,0.014230068773031235
1757088710157918500,6.90191845703125,0.00577826052904129,-0.006707703694701195,0.009004147723317146
1757088710167965400,6.91196533203125,0.0051878378726542,-0.009470733813941479,0.004929777234792709
1757088710178011400,6.922011474609375,0.004388090688735247,-0.006387591827660799,0.003304982790723443
1757088710188057300,6.932057373046875,0.005075718741863966,-0.005799565929919481,0.004551608581095934
1757088710198104300,6.942104248046875,0.005016330163925886,-0.005328985396772623,0.0059865196235477924
1757088710208150300,6.952150390625,0.006061621010303497,-0.004926049150526524,0.00839987676590681
1757088710218197200,6.962197265625,0.006997189484536648,-0.0019765980541706085,0.0046360306441783905
1757088710228243500,6.972243408203125,0.005784119479358196,-0.0003323625132907182,0.003233610186725855
1757088710238290400,6.98229052734375,0.004422178957611322,0.00202267081476748,0.00046152580762282014
1757088710248336400,6.99233642578125,0.0013403689954429865,0.0035888757556676865,-0.005196892656385899
1757088710258383400,7.00238330078125,-0.0027861990965902805,0.0075814868323504925,-0.00836711935698986
1757088710268429300,7.01242919921875,-0.004596882499754429,0.011871839873492718,-0.01390143483877182
1757088710278475300,7.022475341796875,-0.0076158419251441956,0.018504176288843155,-0.020783841609954834
1757088710288522200,7.032522216796875,-0.009608685038983822,0.024280305951833725,-0.02720232680439949
1757088710298568200,7.042568115234375,-0.01071150042116642,0.03160160034894943,-0.03235793858766556
1757088710308615400,7.052615478515625,-0.011300858110189438,0.03996392711997032,-0.04014555364847183
1757088710318661400,7.062661376953125,-0.012299010530114174,0.04859576374292374,-0.046191196888685226
1757088710328708400,7.072708251953125,-0.015810389071702957,0.059726715087890625,-0.05551625415682793
1757088710338754300,7.08275439453125,-0.01829671487212181,0.07648146152496338,-0.06715080887079239
1757088710348801300,7.09280126953125,-0.02136760577559471,0.09297974407672882,-0.07990335673093796
1757088710358847500,7.102847412109375,-0.026822559535503387,0.10106004029512405,-0.08766673505306244
1757088710368893400,7.1128935546875,-0.0324852392077446,0.09882644563913345,-0.08549626171588898
1757088710378940400,7.1229404296875,-0.035585690289735794,0.08151563256978989,-0.07309205085039139
1757088710388986400,7.132986328125,-0.03266340494155884,0.05793360620737076,-0.06045348942279816
1757088710399033300,7.143033447265625,-0.027463581413030624,0.042930688709020615,-0.055680837482213974
1757088710409079300,7.153079345703125,-0.019663183018565178,0.02768009714782238,-0.0530104860663414
1757088710419126300,7.163126220703125,-0.015723835676908493,0.017436780035495758,-0.04144171625375748
1757088710429172200,7.173172119140625,-0.014044179581105709,0.012405537068843842,-0.033791784197092056
1757088710439219200,7.18321923828125,-0.010726147331297398,0.007895207032561302,-0.030116623267531395
1757088710449265200,7.19326513671875,-0.010331200435757637,0.007911984808743,-0.0273866169154644
1757088710459311400,7.203311279296875,-0.01041295938193798,0.007439806591719389,-0.027086744084954262
1757088710469358600,7.213358642578125,-0.01278876606374979,0.011514176614582539,-0.026197515428066254
1757088710479404800,7.22340478515625,-0.015533419325947762,0.01206944603472948,-0.02665611170232296
1757088710489451500,7.233451416015625,-0.015958193689584732,0.011578891426324844,-0.024997761473059654
1757088710499497700,7.243497802734375,-0.015445535071194172,0.011393535882234573,-0.02058490365743637
1757088710509544700,7.253544677734375,-0.014908907935023308,0.004850149154663086,-0.018639996647834778
1757088710519590700,7.263590576171875,-0.01245320774614811,0.004197940696030855,-0.015093731693923473
1757088710529637600,7.2736376953125,-0.010814031586050987,0.0041342913173139095,-0.013308880850672722
1757088710539683600,7.28368359375,-0.011385279707610607,0.005617405753582716,-0.012583968229591846
1757088710549729500,7.2937294921875,-0.010441455990076065,0.00836578756570816,-0.009995109401643276
1757088710559776500,7.303776611328125,-0.01107661984860897,0.010755708441138268,-0.006840861868113279
1757088710569822500,7.313822509765625,-0.008097341284155846,0.010927748866379261,-0.00495054991915822
1757088710579869400,7.323869384765625,-0.006645385641604662,0.012500878423452377,-0.002406165935099125
1757088710589915400,7.333915283203125,-0.005622199270874262,0.012623650021851063,-0.0016554208705201745
1757088710599962600,7.343962646484375,-0.004576642066240311,0.012088621035218239,-0.0013225257862359285
1757088710610008800,7.3540087890625,-0.0035888757556676865,0.013264140114188194,0.00230842805467546
1757088710620055600,7.3640556640625,-0.0034847462084144354,0.010972755961120129,0.0037262949626892805
1757088710630101800,7.374101806640625,0.0002897519152611494,0.011984490789473057,0.003081543603911996
1757088710640147700,7.384147705078125,0.00017710021347738802,0.011034808121621609,0.002971288748085499
1757088710650194700,7.394194580078125,0.0016974988393485546,0.011961587704718113,0.0032826124224811792
1757088710660240600,7.40424072265625,0.0008905610884539783,0.012201804667711258,0.0003605920064728707
1757088710670287600,7.41428759765625,0.0019089538836851716,0.01302445586770773,0.0014037522487342358
1757088710680333600,7.42433349609375,0.001130778226070106,0.014031928963959217,0.002459961920976639
1757088710690380500,7.434380615234375,0.0018338527297601104,0.014664696529507637,0.0031886028591543436
1757088710700426500,7.444426513671875,-0.0001102548703784123,0.014958443120121956,0.0010122675448656082
1757088710710473500,7.454473388671875,0.0007158577209338546,0.013803696259856224,0.0025744778104126453
1757088710720519400,7.46451953125,0.00045380264054983854,0.016115853562951088,0.0024045680183917284
1757088710730565600,7.474565673828125,-0.0005464806454256177,0.01564207673072815,0.001820536912418902
1757088710740612600,7.484612548828125,-0.0013856426812708378,0.016224242746829987,0.003418167121708393
1757088710750658600,7.494658447265625,0.0007371630053967237,0.015060176141560078,0.004670385736972094
1757088710760705800,7.504705810546875,-0.0000021305288555595325,0.014360830187797546,0.007504787761718035
1757088710770751700,7.514751708984375,0.002584864152595401,0.014867362566292286,0.006143912672996521
1757088710780798700,7.524798828125,0.002144909929484129,0.014454839751124382,0.006744455546140671
1757088710790844700,7.5348447265625,0.00018322547839488834,0.013795174658298492,0.005508748814463615
1757088710800891600,7.5448916015625,-0.0011984225129708648,0.013499297201633453,0.002907373011112213
1757088710810937600,7.5549375,-0.002240783767774701,0.01329822838306427,0.00031638352083973587
1757088710820983600,7.564983642578125,-0.004069842863827944,0.01392726693302393,0.0003025351034011692
1757088710831030500,7.575030517578125,-0.0013377057621255517,0.009859289042651653,0.00004660531703848392
1757088710841076700,7.58507666015625,-0.002466619713231921,0.010926417075097561,-0.0015366439474746585
1757088710851123500,7.59512353515625,-0.0005834985640831292,0.011303254403173923,-0.00024208133982028812
1757088710861169700,7.605169677734375,0.00006844323797849938,0.010757572948932648,0.00010945591930067167
1757088710871216600,7.615216552734375,0.0008857673965394497,0.008991897106170654,0.0020929782185703516
1757088710881262600,7.6252626953125,0.0018607506062835455,0.00836978293955326,-0.00004900216299574822
1757088710891309600,7.6353095703125,0.001704955706372857,0.008325840346515179,-0.0005065332516096532
1757088710901355500,7.64535546875,0.0037955371662974358,0.008413458243012428,-0.002624278888106346
1757088710911401500,7.6554013671875,0.0014719291357323527,0.007607852108776569,-0.002379800658673048
1757088710921448700,7.66544873046875,0.0006631271098740399,0.0059865196235477924,-0.002064482541754842
1757088710931494700,7.67549462890625,0.0009717874927446246,0.0037081853952258825,-0.0021939121652394533
1757088710941541600,7.685541748046875,0.00138084904756397,0.0010096043115481734,-0.0010926949325948954
1757088710951587600,7.695587646484375,0.0028610338922590017,-0.002865028567612171,-0.00119629199616611
1757088710961634600,7.705634521484375,0.0031292142812162638,-0.006219546310603619,-0.0002681803307496011
1757088710971680800,7.7156806640625,0.005428321193903685,-0.007796403951942921,0.00040533312130719423
1757088710981727500,7.7257275390625,0.004189951345324516,-0.008754342794418335,0.003355849301442504
1757088710991773700,7.735773681640625,0.00009853696246864274,-0.0081527354195714,0.006114085204899311
1757088711001819600,7.745819580078125,-0.007245129905641079,-0.005376389715820551,0.012148807756602764
1757088711011866600,7.75586669921875,-0.010684069246053696,-0.00472551304847002,0.019659455865621567
1757088711021912600,7.76591259765625,-0.018728414550423622,-0.0024554345291107893,0.027963191270828247
1757088711031959600,7.77595947265625,-0.02485714666545391,-0.011061439290642738,0.03247937932610512
1757088711042005500,7.786005615234375,-0.027414314448833466,-0.023624103516340256,0.03196458891034126
1757088711052052500,7.796052490234375,-0.02768062986433506,-0.03013872727751732,0.03235900402069092
1757088711062098400,7.806098388671875,-0.02245390973985195,-0.02798742614686489,0.033188313245773315
1757088711072145700,7.816145751953125,-0.016635170206427574,-0.025052888318896294,0.03590739890933037
1757088711082191600,7.826191650390625,-0.010957842692732811,-0.019657324999570847,0.04350113868713379
1757088711092237800,7.83623779296875,-0.009074721485376358,-0.016355004161596298,0.0485353097319603
1757088711102284500,7.846284423828125,-0.00890720821917057,-0.01967490091919899,0.056468866765499115
1757088711112330800,7.856330810546875,-0.0009182579233311117,-0.012289157137274742,0.06185564398765564
1757088711122377700,7.866377685546875,0.005665342323482037,-0.011443336494266987,0.06400641053915024
1757088711132423700,7.876423583984375,0.008727711625397205,-0.015148326754570007,0.06451081484556198
1757088711142470700,7.886470703125,0.007888549007475376,-0.020363595336675644,0.062064170837402344
1757088711152516600,7.8965166015625,0.0037792918737977743,-0.023033946752548218,0.05640149116516113
1757088711162563600,7.9065634765625,0.005659217480570078,-0.02552187070250511,0.05043467879295349
1757088711172609500,7.916609619140625,0.0089378347620368,-0.02429868094623089,0.040639836341142654
1757088711182655500,7.926655517578125,0.010922688990831375,-0.021642178297042847,0.03768692538142204
1757088711192702500,7.936702392578125,0.012167716398835182,-0.014574681408703327,0.03274436295032501
1757088711202748400,7.94674853515625,0.014188257046043873,-0.006469350773841143,0.022036060690879822
1757088711212795400,7.95679541015625,0.012149873189628124,0.003697799053043127,0.0176977701485157
1757088711222841600,7.966841552734375,0.012341088615357876,0.009349559433758259,0.01212883461266756
1757088711232888600,7.976888671875,0.011174623854458332,0.007705057505518198,0.011994611471891403
1757088711242934800,7.986934814453125,0.01053306832909584,0.003224821761250496,0.014003699645400047
1757088711252981800,7.996981689453125,0.012140286155045033,0.003935352899134159,0.009611082263290882
1757088711263027700,8.00702783203125,0.011152253486216068,0.005163869354873896,0.004022438544780016
1757088711273073700,8.01707373046875,0.010190851986408234,0.009798035956919193,-0.0007720504072494805
1757088711283120600,8.02712060546875,0.008107194676995277,0.014706774614751339,-0.006220345385372639
1757088711293166600,8.03716650390625,0.00561181316152215,0.018704446032643318,-0.008587895892560482
1757088711303213600,8.047213623046876,0.00138084904756397,0.021017666906118393,-0.008482434786856174
1757088711313259500,8.057259521484376,0.0014889733865857124,0.02215110883116722,-0.004464523401111364
1757088711323306500,8.067306396484375,-0.0011110707418993115,0.025980466976761818,-0.006754841655492783
1757088711333352400,8.0773525390625,-0.0046448190696537495,0.022419821470975876,-0.006399576086550951
1757088711343399400,8.0873994140625,-0.0073196981102228165,0.0215993020683527,-0.006869890261441469
1757088711353445600,8.097445556640626,-0.010217750445008278,0.01931803859770298,-0.006791327148675919
1757088711363491600,8.10749169921875,-0.008904811926186085,0.013853231444954872,-0.004395014606416225
1757088711373538600,8.11753857421875,-0.00857378076761961,0.010642257519066334,-0.001517735538072884
1757088711383584500,8.12758447265625,-0.007982026785612106,0.0028192223981022835,0.005767341703176498
1757088711393631700,8.1376318359375,-0.005595034919679165,0.0012351741315796971,0.010357033461332321
1757088711403677700,8.147677734375,-0.004484230652451515,0.0005488775204867125,0.012705675326287746
1757088711413724700,8.157724609375,-0.004601676017045975,0.0014631407102569938,0.012570919468998909
1757088711423770600,8.1677705078125,-0.0012679309584200382,0.007081345189362764,0.01312272623181343
1757088711433817600,8.177817626953125,-0.00036272252327762544,0.009560748003423214,0.011902199126780033
1757088711443863600,8.187863525390625,-0.00011584750609472394,0.012681706808507442,0.011255850084125996
1757088711453909800,8.19790966796875,0.0007033408619463444,0.009929330088198185,0.010565824806690216
1757088711463956500,8.20795654296875,0.002037850907072425,0.008584166876971722,0.009444634430110455
1757088711474002700,8.218002685546875,0.0038922098465263844,0.007189203519374132,0.007958058267831802
1757088711484049700,8.228049560546875,0.007279750891029835,0.004247475415468216,0.007211041171103716
1757088711494095600,8.238095703125,0.008872054517269135,0.0026991136837750673,0.006733004003763199
1757088711504142600,8.248142578125,0.010762366466224194,0.001990979304537177,0.005733519326895475
1757088711514188500,8.2581884765625,0.012442022562026978,0.0031007183715701103,0.0031963258516043425
1757088711524235500,8.268235595703125,0.014911038801074028,0.0054331147111952305,0.004511128645390272
1757088711534281500,8.278281494140625,0.0160032007843256,0.0014881744282320142,0.004068244714289904
1757088711544327400,8.288327392578125,0.014256966300308704,-0.0036938043776899576,0.01047234795987606
1757088711554374400,8.29837451171875,0.016697486862540245,-0.005775863770395517,0.006800914648920298
1757088711564420400,8.30842041015625,0.016755810007452965,-0.007096791639924049,0.005577191710472107
1757088711574467600,8.318467529296875,0.014940599910914898,-0.008382831700146198,0.0005853627808392048
1757088711584513800,8.328513671875,0.01140099298208952,-0.004596882499754429,-0.003013632958754897
1757088711594560500,8.338560546875,0.009007076732814312,-0.0016255935188382864,-0.009973271749913692
1757088711604606700,8.348606689453124,0.006658968050032854,0.0017510283505544066,-0.01356454472988844
1757088711614653700,8.35865380859375,0.003629089565947652,0.0012207929976284504,-0.017828265205025673
1757088711624699600,8.36869970703125,0.0026112294290214777,-0.0009235842735506594,-0.017040235921740532
1757088711634745600,8.37874560546875,0.0037294907961040735,-0.00640863087028265,-0.01702106185257435
1757088711644792600,8.38879248046875,0.006425142288208008,-0.010803645476698875,-0.017782991752028465
1757088711654838500,8.398838623046874,0.006478938274085522,-0.008161257021129131,-0.01836116425693035
1757088711664885500,8.408885498046875,0.0049492185935378075,-0.007089600898325443,-0.02279612608253956
1757088711674931500,8.418931396484375,0.005026450380682945,-0.0033097765408456326,-0.02840927056968212
1757088711684978400,8.428978515625,0.0022181468084454536,0.00004820321555598639,-0.027657460421323776
1757088711695024400,8.4390244140625,0.00276169809512794,-0.001023186487145722,-0.026250777766108513
1757088711705071400,8.4490712890625,0.0020069582387804985,0.0002796319022309035,-0.025525067001581192
1757088711715117600,8.45911767578125,0.0027680895291268826,-0.0015659386990591884,-0.02606062963604927
1757088711725163500,8.46916357421875,0.00205223192460835,-0.002769953804090619,-0.026795394718647003
1757088711735210800,8.479210693359375,0.0005850964807905257,-0.004202734678983688,-0.022219019010663033
1757088711745256700,8.489256591796876,0.0025619608350098133,-0.005697300657629967,-0.028388498350977898
1757088711755303700,8.4993037109375,0.002912432886660099,-0.0030711572617292404,-0.027892883867025375
1757088711765349600,8.509349609375,0.003227751236408949,-0.0008050735923461616,-0.030586937442421913
1757088711775396600,8.519396728515625,0.0034091125708073378,0.004346811678260565,-0.026461701840162277
1757088711785442600,8.529442626953125,0.0027957865968346596,0.008359928615391254,-0.02533651515841484
1757088711795489500,8.539489501953126,0.00155262288171798,0.01185266487300396,-0.025261148810386658
1757088711805535500,8.549535400390624,0.000007989483492565341,0.012749616988003254,-0.023448867723345757
1757088711815581400,8.55958154296875,-0.00024048343766480684,0.011843343265354633,-0.02129197306931019
1757088711825628400,8.56962841796875,-0.0003201119543518871,0.009445167146623135,-0.020612334832549095
1757088711835674600,8.579674560546875,-0.0007363640470430255,0.008371646516025066,-0.01569427363574505
1757088711845721600,8.5897216796875,0.0010468886466696858,0.008821454830467701,-0.01245320774614811
1757088711855767600,8.599767578125,0.0033073797821998596,0.00797377061098814,-0.007598265074193478
1757088711865814500,8.609814453125,0.0036333505995571613,0.00788295641541481,-0.0005336974863894284
1757088711875860500,8.619860595703125,0.003308977698907256,0.005811017472296953,0.002426672261208296
1757088711885906400,8.629906494140625,0.005675995256751776,0.006946855690330267,0.0028277444653213024
1757088711895953700,8.63995361328125,0.00287461606785655,0.0031438616570085287,0.002338521648198366
1757088711905999600,8.64999951171875,0.0015366439474746585,0.001499625970609486,0.001204814063385129
1757088711916046600,8.660046630859375,-0.0015414375811815262,0.003698864486068487,-0.0002492718631401658
1757088711926092500,8.670092529296875,-0.0076027922332286835,0.011210310272872448,-0.005096757784485817
1757088711936139500,8.680139404296876,-0.011826565489172935,0.011899270117282867,-0.012199674732983112
1757088711946185500,8.690185546875,-0.01167529821395874,0.004640291910618544,-0.025233451277017593
1757088711956232400,8.700232421875,-0.0031140341889113188,-0.012791961431503296,-0.0463310144841671
1757088711966278700,8.710278564453125,0.0065649584867060184,-0.03459259867668152,-0.07124008983373642
1757088711976324600,8.72032470703125,0.011537878774106503,-0.04541675001382828,-0.09709752351045609
1757088711986371600,8.73037158203125,0.0012072109384462237,-0.02275058627128601,-0.1202973797917366
1757088711996417500,8.74041748046875,-0.022724753245711327,0.03750156983733177,-0.13867531716823578
1757088712006464500,8.750464599609375,-0.0627475380897522,0.08403098583221436,-0.14518995583057404
1757088712016510500,8.760510498046875,-0.09251128882169724,0.1023697778582573,-0.14203117787837982
1757088712026557400,8.770557373046875,-0.10440949350595474,0.09282847493886948,-0.13469789922237396
1757088712036603400,8.780603271484376,-0.10120811313390732,0.0580475889146328,-0.12498720735311508
1757088712046650600,8.790650634765624,-0.09368281811475754,0.010407899506390095,-0.12005423754453659
1757088712056696600,8.800696533203125,-0.09029927104711533,-0.020902352407574654,-0.11918231844902039
1757088712066742800,8.81074267578125,-0.08735514432191849,-0.03809012845158577,-0.1278490424156189
1757088712076789500,8.82078955078125,-0.08941882848739624,-0.053477607667446136,-0.13181422650814056
1757088712086835700,8.830835693359376,-0.08285254240036011,-0.04469529911875725,-0.13377191126346588
1757088712096882700,8.840882568359374,-0.08121709525585175,-0.015795208513736725,-0.12544260919094086
1757088712106928600,8.8509287109375,-0.0768633559346199,0.020918864756822586,-0.10039078444242477
1757088712116975600,8.8609755859375,-0.07645030319690704,0.053162287920713425,-0.06019196659326553
1757088712127021600,8.871021484375,-0.07824979722499847,0.06591296941041946,-0.01679176278412342
1757088712137068500,8.881068603515626,-0.08361952751874924,0.06841287761926651,0.028253475204110146
1757088712147114500,8.891114501953124,-0.0864398181438446,0.06373023986816406,0.05583343654870987
1757088712157160400,8.901160400390625,-0.08152788132429123,0.05036729946732521,0.07157111912965775
1757088712167207400,8.91120751953125,-0.07716189324855804,0.029747508466243744,0.07322733849287033
1757088712177253400,8.92125341796875,-0.07462869584560394,0.020961474627256393,0.06509751081466675
1757088712187300400,8.93130029296875,-0.08361393958330154,0.028907548636198044,0.05265415459871292
1757088712197346600,8.9413466796875,-0.09209850430488586,0.04603113979101181,0.042143724858760834
1757088712207393500,8.9513935546875,-0.10295195132493973,0.07123156636953354,0.037336185574531555
1757088712217439700,8.961439697265625,-0.11264638602733612,0.08713676780462265,0.03491537272930145
1757088712227486700,8.97148681640625,-0.12211472541093826,0.10209334641695023,0.02454555593430996
1757088712237532700,8.98153271484375,-0.1251983940601349,0.09845706820487976,0.016288425773382187
1757088712247578600,8.99157861328125,-0.10981864482164383,0.10882128775119781,0.010395382530987263
1757088712257625600,9.00162548828125,-0.1316552311182022,0.09258665889501572,0.013459083624184132
1757088712267671600,9.011671630859375,-0.14480432868003845,0.0948474183678627,0.021751102060079575
1757088712277718500,9.021718505859376,-0.13977600634098053,0.09101033210754395,0.039392679929733276
1757088712287764500,9.031764404296876,-0.1305747926235199,0.10702232271432877,0.05144587904214859
1757088712297811500,9.0418115234375,-0.1263587325811386,0.12843440473079681,0.05602944642305374
1757088712307857400,9.051857421875,-0.12645460665225983,0.1488075852394104,0.06245272606611252
1757088712317904400,9.061904296875,-0.1343897581100464,0.1563057154417038,0.06346152722835541
1757088712327950600,9.07195068359375,-0.15149924159049988,0.16089513897895813,0.06871461868286133
1757088712337997600,9.08199755859375,-0.16888675093650818,0.11534150689840317,0.08622249960899353
1757088712348043500,9.09204345703125,-0.20005986094474792,0.14026576280593872,0.10265766829252243
1757088712358089500,9.10208935546875,-0.22704513370990753,0.15333442389965057,0.11569304019212723
1757088712368136700,9.11213671875,-0.23908820748329163,0.15983201563358307,0.12194108217954636
1757088712378182700,9.1221826171875,-0.23815158009529114,0.16663451492786407,0.12705674767494202
1757088712388229600,9.132229736328124,-0.2534559667110443,0.1644856184720993,0.1302453577518463
1757088712398275600,9.142275634765625,-0.2670029401779175,0.14559368789196014,0.14803554117679596
1757088712408322600,9.152322509765625,-0.26449716091156006,0.15221883356571198,0.16097477078437805
1757088712418368500,9.162368408203125,-0.2681315839290619,0.1389610767364502,0.16378174722194672
1757088712428414500,9.17241455078125,-0.2733396589756012,0.13819755613803864,0.15658694505691528
1757088712438461400,9.18246142578125,-0.27400997281074524,0.11823716014623642,0.14576146006584167
1757088712448507600,9.192507568359375,-0.26250457763671875,0.0932692289352417,0.1334747076034546
1757088712458554600,9.2025546875,-0.20331770181655884,0.040644366294145584,0.1072486937046051
1757088712468600600,9.2126005859375,-0.12727539241313934,-0.039688821882009506,0.05297213792800903
1757088712478647600,9.2226474609375,-0.08763211220502853,-0.09374912828207016,-0.020487697795033455
1757088712488693500,9.232693603515624,-0.038657646626234055,-0.1105174571275711,-0.04303668439388275
1757088712498740500,9.242740478515625,0.003984888084232807,-0.018488196656107903,-0.0038748993538320065
1757088712508786400,9.252786376953125,-0.021326860412955284,0.17390947043895721,0.12123135477304459
1757088712518833400,9.26283349609375,-0.11914263665676117,0.29256075620651245,0.2652423083782196
1757088712528879400,9.27287939453125,-0.29845112562179565,0.3513479232788086,0.3339758515357971
1757088712538925300,9.28292529296875,-0.4825293719768524,0.36739426851272583,0.35627317428588867
1757088712548972300,9.29297216796875,-0.6456503868103027,0.2781836986541748,0.4134986400604248
1757088712559018500,9.3030185546875,-0.7621541023254395,0.2881223261356354,0.4942059814929962
1757088712569065200,9.313065185546876,-0.8365830183029175,0.3612135946750641,0.6458818316459656
1757088712579111400,9.323111328125,-0.8862869739532471,0.44751599431037903,0.7858162522315979
1757088712589158700,9.33315869140625,-0.9143190979957581,0.5276233553886414,0.9171649813652039
1757088712599204600,9.34320458984375,-0.9517674446105957,0.6398164629936218,0.9738079905509949
1757088712609250600,9.35325048828125,-1.0119730234146118,0.6845993995666504,0.9875819087028503
1757088712619297500,9.363297607421876,-1.068624496459961,0.656984806060791,1.0303064584732056
1757088712629343500,9.373343505859374,-1.111335277557373,0.564867377281189,1.048153042793274
1757088712639390500,9.383390380859375,-1.1318565607070923,0.42918917536735535,1.03886079788208
1757088712649436400,9.3934365234375,-1.1222765445709229,0.26572009921073914,0.9992182850837708
1757088712659483400,9.4034833984375,-1.1172181367874146,0.12130831927061081,0.9431345462799072
1757088712669529300,9.413529296875,-1.1299786567687988,-0.016320649534463882,0.888312578201294
1757088712679576300,9.423576416015624,-1.1625726222991943,-0.12173868715763092,0.8540653586387634
1757088712689622500,9.43362255859375,-1.2153879404067993,-0.2279873639345169,0.8520498871803284
1757088712699669200,9.443669189453125,-1.2895145416259766,-0.3125874698162079,0.8452708125114441
1757088712709715500,9.453715576171875,-1.3568356037139893,-0.37717577815055847,0.8480710983276367
1757088712719761400,9.463761474609376,-1.4150620698928833,-0.39504000544548035,0.8804791569709778
1757088712729808400,9.473808349609374,-1.4620977640151978,-0.38440120220184326,0.912151038646698
1757088712739854300,9.483854248046875,-1.4926000833511353,-0.36453428864479065,0.9530108571052551
1757088712749901600,9.493901611328125,-1.5015181303024292,-0.3501710593700409,1.0109548568725586
1757088712759947500,9.503947509765625,-1.5193253755569458,-0.2827363610267639,1.021152377128601
1757088712769994500,9.513994384765626,-1.5124099254608154,-0.23901523649692535,1.0284638404846191
1757088712780040400,9.52404052734375,-1.4934213161468506,-0.19205252826213837,1.0616904497146606
1757088712790087400,9.53408740234375,-1.4488986730575562,-0.17885097861289978,1.0535619258880615
1757088712800133400,9.54413330078125,-1.4090590476989746,-0.16530586779117584,1.0694290399551392
1757088712810179600,9.5541796875,-1.364345669746399,-0.16619350016117096,1.0815472602844238
1757088712820226300,9.564226318359376,-1.3309887647628784,-0.1886679232120514,1.079301118850708
1757088712830272500,9.5742724609375,-1.283888339996338,-0.30391114950180054,1.103333830833435
1757088712840319500,9.584319580078125,-1.2222260236740112,-0.41102081537246704,1.1314266920089722
1757088712850365400,9.594365478515625,-1.1433302164077759,-0.5444020628929138,1.1806288957595825
1757088712860412400,9.604412353515626,-1.0900012254714966,-0.6186046600341797,1.234630823135376
1757088712870458400,9.614458251953126,-1.0587801933288574,-0.6856651902198792,1.3049159049987793
1757088712880505300,9.62450537109375,-1.0408117771148682,-0.7717864513397217,1.345751166343689
1757088712890551300,9.63455126953125,-1.0328025817871094,-0.834964394569397,1.362992763519287
1757088712900598500,9.6445986328125,-1.0434843301773071,-0.830116868019104,1.369112253189087
1757088712910644500,9.65464453125,-1.1073384284973145,-0.8198205828666687,1.378907561302185
1757088712920690400,9.6646904296875,-1.1809308528900146,-0.7770209312438965,1.3107285499572754
1757088712930737400,9.6747373046875,-1.229753017425537,-0.6731845140457153,1.2614706754684448
1757088712940783600,9.68478369140625,-1.2400377988815308,-0.5051121711730957,1.2605465650558472
1757088712950830300,9.694830322265625,-1.2123854160308838,-0.35902634263038635,1.286332607269287
1757088712960876500,9.70487646484375,-1.1377660036087036,-0.22466427087783813,1.3120752573013306
1757088712970923500,9.714923583984374,-1.1058629751205444,-0.043709397315979004,1.3202370405197144
1757088712980969500,9.724969482421875,-1.165425419807434,0.19933468103408813,1.2681299448013306
1757088712991016400,9.735016357421875,-1.1856837272644043,0.2886144816875458,1.265934705734253
1757088713001062400,9.7450625,-1.2120813131332397,0.36870771646499634,1.2590816020965576
1757088713011108400,9.7551083984375,-1.1980645656585693,0.4129737317562103,1.2994660139083862
1757088713021155300,9.7651552734375,-1.1938282251358032,0.44572901725769043,1.3478729724884033
1757088713031201300,9.775201171875,-1.1996382474899292,0.4947335720062256,1.3621834516525269
1757088713041248300,9.785248291015625,-1.190990686416626,0.5121522545814514,1.3651107549667358
1757088713051294200,9.795294189453125,-1.1531503200531006,0.4616003930568695,1.3770942687988281
1757088713061341400,9.805341552734374,-1.0857542753219604,0.33852240443229675,1.3681299686431885
1757088713071387600,9.8153876953125,-1.0028151273727417,0.21068640053272247,1.3101879358291626
1757088713081434400,9.825434326171875,-0.8540486097335815,0.1022438108921051,1.2256128787994385
1757088713091480600,9.83548046875,-0.6524654030799866,-0.06710979342460632,1.1246899366378784
1757088713101527600,9.845527587890626,-0.38859328627586365,-0.25448980927467346,1.044626235961914
1757088713111573500,9.855573486328124,-0.139011949300766,-0.3521476686000824,0.9304448366165161
1757088713121619500,9.865619384765624,0.03019625134766102,-0.3669279217720032,0.8019585013389587
1757088713131666400,9.87566650390625,0.16755783557891846,-0.34466177225112915,0.7317711710929871
1757088713141712400,9.88571240234375,0.19010762870311737,-0.2327301800251007,0.6921718120574951
1757088713151759400,9.89575927734375,0.1381019502878189,-0.16203337907791138,0.7130693793296814
1757088713161805300,9.905805419921874,0.05577857792377472,-0.1720529943704605,0.7535081505775452
1757088713171852300,9.915852294921875,-0.13044854998588562,-0.06860729306936264,0.7664183378219604
1757088713181898200,9.925898193359375,-0.3570249676704407,0.09000632166862488,0.7700005769729614
1757088713191945500,9.935945556640625,-0.5421916246414185,0.2838340997695923,0.7825096845626831
1757088713201991400,9.945991455078126,-0.697784423828125,0.3771060109138489,0.8259847164154053
1757088713212038400,9.956038330078124,-0.8049524426460266,0.3027327060699463,0.8770279288291931
1757088713222084600,9.966084716796875,-0.9043972492218018,0.18912944197654724,0.9023271799087524
1757088713232131600,9.976131591796875,-1.0078098773956299,0.1217445433139801,0.9213930368423462
1757088713242177500,9.986177490234375,-1.0675784349441528,0.1110018864274025,0.9337037205696106
1757088713252223500,9.996223388671876,-1.0348566770553589,0.1386132687330246,0.9327431321144104
1757088713262270500,10.0062705078125,-0.9210894107818604,0.12520292401313782,0.8817278742790222
1757088713272316400,10.01631640625,-0.6892271637916565,0.12630067765712738,0.7797232270240784
1757088713282363400,10.02636328125,-0.36921557784080505,0.2313583940267563,0.6608101725578308
1757088713292409300,10.036409423828125,-0.09378694742918015,0.18013249337673187,0.5926153659820557
1757088713302456300,10.046456298828126,0.05023787170648575,0.052074920386075974,0.5615624189376831
1757088713312502300,10.056502197265624,0.07608038932085037,-0.04554564878344536,0.5399841070175171
1757088713322549200,10.06654931640625,0.05193270742893219,-0.11045460402965546,0.5294420123100281
1757088713332595500,10.076595458984375,0.030953122302889824,-0.13924524188041687,0.5026556849479675
1757088713342642400,10.086642333984376,0.028977056965231895,-0.20227693021297455,0.4767463207244873
1757088713352688600,10.096688720703124,0.07107337564229965,-0.2164076715707779,0.42376938462257385
1757088713362734300,10.106734375,0.12257491797208786,-0.2185075730085373,0.37371712923049927
1757088713372781600,10.116781494140625,0.1546574831008911,-0.17341811954975128,0.34048354625701904
1757088713382827500,10.12682763671875,0.14383013546466827,-0.07159748673439026,0.3000144064426422
1757088713392874500,10.13687451171875,0.09896093606948853,0.06314834207296371,0.25505760312080383
1757088713402920400,10.14692041015625,0.057981010526418686,0.1931726485490799,0.20853349566459656
1757088713412967400,10.156967529296875,0.06783603876829147,0.2246810495853424,0.15601091086864471
1757088713423013400,10.167013427734375,0.10569792985916138,0.137853741645813,0.11049188673496246
1757088713433060400,10.177060302734375,0.17996683716773987,-0.03800756856799126,0.08195345848798752
1757088713443106300,10.187106201171876,0.2285144031047821,-0.24656982719898224,0.03295528516173363
1757088713453153300,10.1971533203125,0.27762389183044434,-0.4189264178276062,-0.033963028341531754
1757088713463199700,10.20719970703125,0.2954398989677429,-0.5195505023002625,-0.08653862029314041
1757088713473247000,10.2172470703125,0.28706052899360657,-0.5022940039634705,-0.10934167355298996
1757088713483293000,10.22729296875,0.25470206141471863,-0.3804861009120941,-0.09182818979024887
1757088713493340000,10.23733984375,0.21585479378700256,-0.1991083025932312,-0.05662626028060913
1757088713503386000,10.24738623046875,0.1859128773212433,-0.022351644933223724,-0.014371482655405998
1757088713513432000,10.25743212890625,0.17452147603034973,0.10783032327890396,0.03587251156568527
1757088713523479000,10.26747900390625,0.176445871591568,0.18477970361709595,0.06963127851486206
1757088713533525000,10.27752490234375,0.16920047998428345,0.2005283087491989,0.08464804291725159
1757088713543572000,10.287572021484374,0.17575398087501526,0.1757206916809082,0.09862590581178665
1757088713553618000,10.297617919921874,0.1984608918428421,0.12440157681703568,0.12304177135229111
1757088713563665000,10.307664794921875,0.22970616817474365,0.03479792922735214,0.14353320002555847
1757088713573710800,10.3177109375,0.24553413689136505,-0.019544139504432678,0.14527703821659088
1757088713583757800,10.3277578125,0.2387119084596634,-0.028482507914304733,0.14415903389453888
1757088713593803800,10.3378037109375,0.22786645591259003,-0.03394225239753723,0.15104517340660095
1757088713603850800,10.347850830078125,0.20707781612873077,-0.04049789160490036,0.1478845328092575
1757088713613897000,10.35789697265625,0.18054580688476562,-0.018001370131969452,0.16351568698883057
1757088713623943000,10.36794287109375,0.15308329463005066,0.037819549441337585,0.17876867949962616
1757088713633990100,10.377990234375,0.11755219846963882,0.1112479642033577,0.18000252544879913
1757088713644035800,10.388035888671874,0.092704638838768,0.20112165808677673,0.1747366487979889
1757088713654083000,10.3980830078125,0.07252293825149536,0.2853774130344391,0.17104871571063995
1757088713664129000,10.40812890625,0.057796988636255264,0.3879022002220154,0.1724572628736496
1757088713674176000,10.418176025390625,0.047448474913835526,0.5293306708335876,0.19908806681632996
1757088713684222000,10.428221923828126,0.0665673092007637,0.6259711980819702,0.21003872156143188
1757088713694269000,10.43826904296875,0.12684503197669983,0.6787654757499695,0.2168785184621811
1757088713704315000,10.44831494140625,0.20785439014434814,0.683741569519043,0.21592484414577484
1757088713714361900,10.45836181640625,0.28325754404067993,0.7679080963134766,0.20178531110286713
1757088713724407800,10.46840771484375,0.3709607720375061,0.9098719358444214,0.18770332634449005
1757088713734454800,10.478454833984374,0.522727370262146,1.1370792388916016,0.1250188946723938
1757088713744501000,10.4885009765625,0.7189013957977295,1.3316763639450073,0.048893772065639496
1757088713754547700,10.498547607421875,0.8304591178894043,1.5288219451904297,-0.014159761369228363
1757088713764594000,10.508593994140625,0.8908529281616211,1.7748357057571411,-0.06390734016895294
1757088713774639900,10.518639892578125,0.8159709572792053,1.854776382446289,-0.052077051252126694
1757088713784687000,10.52868701171875,0.7115005254745483,1.7495471239089966,-0.0781235620379448
1757088713794733000,10.538733154296875,0.7511943578720093,1.6018275022506714,-0.09918863326311111
1757088713804780000,10.548780029296875,0.9364619851112366,1.326377511024475,-0.059892360121011734
1757088713814826000,10.558825927734375,1.1709918975830078,0.7853068113327026,0.082965187728405
1757088713824873000,10.568873046875,1.3446526527404785,0.3053798973560333,0.26846981048583984
1757088713834919000,10.5789189453125,1.413057565689087,0.3129086494445801,0.420550137758255
1757088713844966000,10.5889658203125,1.442714810371399,0.5645653605461121,0.5450611710548401
1757088713855011800,10.59901171875,1.316209077835083,0.6973998546600342,0.6127845644950867
1757088713865058800,10.609058837890625,1.0580320358276367,0.6153901815414429,0.5766302943229675
1757088713875105000,10.61910498046875,0.8015060424804688,0.46500444412231445,0.4726490378379822
1757088713885151700,10.62915185546875,0.5738009810447693,0.2944566607475281,0.32320788502693176
1757088713895198000,10.639197998046875,0.36110493540763855,0.17487673461437225,0.18106432259082794
1757088713905244000,10.649243896484375,0.1851986199617386,0.12383405864238739,0.05571572482585907
1757088713915291000,10.659290771484375,0.05549494922161102,0.12576831877231598,-0.02599777840077877
1757088713925336800,10.6693369140625,-0.007772968150675297,0.132904514670372,-0.05355670303106308
1757088713935384000,10.679384033203124,-0.03651566803455353,0.1375751793384552,-0.05872296914458275
1757088713945430000,10.689429931640625,-0.043483562767505646,0.13925163447856903,-0.03988030552864075
1757088713955477000,10.69947705078125,-0.031244738027453423,0.13777464628219604,-0.000713993504177779
1757088713965523000,10.70952294921875,-0.01420636661350727,0.14944034814834595,0.05481318011879921
1757088713975570000,10.71956982421875,-0.003722566645592451,0.1706753373146057,0.10675147920846939
1757088713985616000,10.729615966796874,0.0015081481542438269,0.18278419971466064,0.14823393523693085
1757088713995662800,10.739662841796875,-0.0005137237603776157,0.1850508153438568,0.17363011837005615
1757088714005709000,10.749708984375,-0.0034439999144524336,0.1861182004213333,0.17892420291900635
1757088714015755800,10.759755859375,-0.0011456918437033892,0.17561256885528564,0.16739778220653534
1757088714025802000,10.769802001953124,0.0064895907416939735,0.14955060184001923,0.14367088675498962
1757088714035848000,10.779847900390624,0.009497364982962608,0.11808749288320541,0.1191524863243103
1757088714045895000,10.78989501953125,0.00626029260456562,0.0892486497759819,0.0937856137752533
1757088714055940900,10.79994091796875,-0.00552126532420516,0.06755933910608292,0.07658985257148743
1757088714065987800,10.80998779296875,-0.023937823250889778,0.05846943333745003,0.06979425996541977
1757088714076033800,10.82003369140625,-0.06802885234355927,0.04767883941531181,0.07571233808994293
1757088714086081000,10.8300810546875,-0.07534721493721008,0.08213002234697342,0.1004059687256813
1757088714096127000,10.840126953125,-0.056962352246046066,0.11431965231895447,0.11595430225133896
1757088714106174000,10.850174072265625,-0.036971867084503174,0.10508540272712708,0.10978375375270844
1757088714116220000,10.860219970703126,-0.018985409289598465,0.05753972381353378,0.08356413245201111
1757088714126267000,10.870266845703124,-0.010104565881192684,0.007644071243703365,0.04887593165040016
1757088714136313000,10.88031298828125,-0.00333214714191854,-0.02485208585858345,0.020230703055858612
1757088714146359800,10.89035986328125,-0.0008655273704789579,-0.030461503192782402,0.011066765524446964
1757088714156406000,10.900406005859375,-0.0005446164286695421,-0.028653215616941452,0.011745072901248932
1757088714166453000,10.910452880859374,-0.0037385455798357725,-0.03195234015583992,0.017120130360126495
1757088714176499000,10.9204990234375,-0.006072007119655609,-0.03905525803565979,0.01937183365225792
1757088714186546000,10.9305458984375,-0.004749215207993984,-0.044614072889089584,0.014754445292055607
1757088714196591900,10.940591796875,-0.00353428116068244,-0.0530746690928936,0.00737429317086935
1757088714206637800,10.950637939453125,0.00016218650853261352,-0.06142288073897362,-0.00054142065346241
1757088714216684800,10.960684814453124,0.003323625074699521,-0.06012165918946266,-0.0067849354818463326
1757088714226730800,10.970730712890624,0.0017457021167501807,-0.056055281311273575,-0.009543437510728836
1757088714236778000,10.980778076171875,0.0024924525059759617,-0.05549042299389839,-0.00765978405252099
1757088714246824000,10.990823974609375,0.0019686087034642696,-0.056535713374614716,-0.005001416429877281
1757088714256871000,11.000870849609376,0.0018429075134918094,-0.04903225600719452,0.0002468750171829015
1757088714266916900,11.010916748046874,0.00046605319948866963,-0.037280794233083725,0.0022559636272490025
1757088714276963800,11.0209638671875,-0.000014381069377122913,-0.028231903910636902,-0.001207477180287242
1757088714287010000,11.031010009765625,-0.0016405072528868914,-0.03128654882311821,-0.007677627261728048
1757088714297057000,11.04105712890625,-0.002389121800661087,-0.033605363219976425,-0.010178867727518082
1757088714307103000,11.05110302734375,-0.003478354774415493,-0.027876371517777443,-0.010389257222414017
1757088714317150000,11.06114990234375,-0.006045908201485872,-0.02147839404642582,-0.008247011341154575
1757088714327196000,11.07119580078125,-0.00805925764143467,-0.012680907733738422,-0.002781671704724431
1757088714337243000,11.081242919921875,-0.013591708615422249,0.0010876349406316876,0.002189651131629944
1757088714347288800,11.091288818359375,-0.018670091405510902,0.00959616806358099,0.0029233519453555346
1757088714357334800,11.101334716796876,-0.019576897844672203,0.013105948455631733,0.0030282805673778057
1757088714367382000,11.111382080078124,-0.020604610443115234,0.006095176562666893,-0.001960352761670947
1757088714377427700,11.121427734375,-0.020193418487906456,0.00583631731569767,-0.005246427375823259
1757088714387475000,11.131474853515625,-0.016399480402469635,0.0021944446489214897,-0.004013383761048317
1757088714397521000,11.14152099609375,-0.012026568874716759,0.0004548678989522159,-0.0009837717516347766
1757088714407568000,11.15156787109375,-0.006299707572907209,-0.004373443312942982,0.00236222380772233
1757088714417614000,11.161614013671874,-0.005614742636680603,-0.009068862535059452,0.008101602084934711
1757088714427661000,11.1716611328125,-0.0020479708909988403,-0.013114203698933125,0.009405219927430153
1757088714437707000,11.18170703125,-0.0020996362436562777,-0.01569427363574505,0.005540173966437578
1757088714447754000,11.19175390625,-0.00034168356796726584,-0.02280571311712265,-0.0004886900424025953
1757088714457800000,11.201800048828124,0.00046578687033616006,-0.03157709911465645,-0.0051843756809830666
1757088714467846700,11.2118466796875,0.0023723437916487455,-0.03869945928454399,-0.012300875037908554
1757088714477892600,11.221892578125,0.004096208140254021,-0.048229046165943146,-0.016622120514512062
1757088714487939600,11.231939697265625,0.005696767941117287,-0.05414313077926636,-0.020061058923602104
1757088714497985500,11.241985595703126,0.002417883835732937,-0.05392714589834213,-0.023327426984906197
1757088714508032800,11.25203271484375,-0.0004183826094958931,-0.05344724655151367,-0.02550642564892769
1757088714518078500,11.262078369140625,-0.002683401107788086,-0.056232646107673645,-0.02628673054277897
1757088714528125700,11.272125732421875,-0.004795287735760212,-0.05517643690109253,-0.02473250962793827
1757088714538171600,11.282171630859375,-0.0038834214210510254,-0.04695472493767738,-0.02281024120748043
1757088714548217900,11.2922177734375,-0.0030210898257791996,-0.037041906267404556,-0.024209465831518173
1757088714558264800,11.302264892578124,0.00012729909212794155,-0.03630101680755615,-0.025252092629671097
1757088714568310800,11.312310791015625,0.0013787185307592154,-0.039746880531311035,-0.02419588342308998
1757088714578357800,11.322357666015625,0.002171807922422886,-0.04078151658177376,-0.02275058627128601
1757088714588403700,11.33240380859375,0.0034314829390496016,-0.035897545516490936,-0.020738568156957626
1757088714598450700,11.34245068359375,0.0008066715090535581,-0.029769612476229668,-0.023199595510959625
1757088714608496600,11.35249658203125,-0.0007491472060792148,-0.02207520790398121,-0.025347433984279633
1757088714618543600,11.362543701171875,-0.003978230059146881,-0.013630857691168785,-0.026643594726920128
1757088714628589600,11.372589599609375,-0.007787082809954882,-0.00887977797538042,-0.02347629703581333
1757088714638636500,11.382636474609376,-0.013058011420071125,-0.004555070772767067,-0.01919952780008316
1757088714648682500,11.3926826171875,-0.016175242140889168,-0.005821137689054012,-0.01443965919315815
1757088714658729700,11.402729736328125,-0.015120097436010838,-0.004766525700688362,-0.012137089855968952
1757088714668775700,11.412775634765625,-0.014007960446178913,-0.003960653208196163,-0.011965316720306873
1757088714678822700,11.42282275390625,-0.013760819099843502,-0.010320814326405525,-0.01543434988707304
1757088714688868900,11.432868896484376,-0.010656372644007206,-0.016630908474326134,-0.015337144955992699
1757088714698915800,11.442915771484374,-0.007692274637520313,-0.020672254264354706,-0.01347266510128975
1757088714708961800,11.4529619140625,-0.005680522415786982,-0.017536383122205734,-0.012170646339654922
1757088714719007700,11.4630078125,-0.00018429075134918094,-0.013933125883340836,-0.011493670754134655
1757088714729054700,11.4730546875,0.0023454460315406322,-0.015093198977410793,-0.010529872961342335
1757088714739100700,11.4831005859375,0.0026082999538630247,-0.015231417492032051,-0.009157279506325722
1757088714749147600,11.493147705078124,0.005647499579936266,-0.014810104854404926,-0.01056129764765501
1757088714759193600,11.503193603515625,0.004405933897942305,-0.013342437334358692,-0.0116175077855587
1757088714769240600,11.513240478515625,0.004559864290058613,-0.009546367451548576,-0.012607404962182045
1757088714779286500,11.52328662109375,0.0031398669816553593,-0.007399859372526407,-0.011968512088060379
1757088714789333500,11.53333349609375,0.002213885774835944,-0.006376673001796007,-0.015249260701239109
1757088714799379700,11.543379638671874,0.002636263146996498,-0.010547981597483158,-0.01648576557636261
1757088714809426700,11.5534267578125,0.00253479671664536,-0.011891280300915241,-0.01811295747756958
1757088714819473000,11.563472900390625,0.00634924229234457,-0.011693940497934818,-0.02040327526628971
1757088714829520000,11.573519775390626,0.0073774890042841434,-0.011151987127959728,-0.022577747702598572
1757088714839565800,11.58356591796875,0.009060073643922806,-0.010192982852458954,-0.025585787370800972
1757088714849612800,11.59361279296875,0.012507535517215729,-0.006828611250966787,-0.023356720805168152
1757088714859658800,11.60365869140625,0.013405820354819298,-0.0026114957872778177,-0.020723387598991394
1757088714869705700,11.613705810546875,0.012208462692797184,0.0003355582884978503,-0.015748070552945137
1757088714879751700,11.623751708984376,0.008708003908395767,0.007078948430716991,-0.010567156597971916
1757088714889798700,11.633798583984374,0.008591623976826668,0.012095012702047825,-0.008067247457802296
1757088714899844600,11.6438447265625,0.0049406965263187885,0.013704893179237843,-0.009395365603268147
1757088714909890600,11.653890625,0.006826214492321014,0.012054531835019588,-0.011447598226368427
1757088714919937500,11.6639375,0.007543137297034264,0.007370564620941877,-0.008914931677281857
1757088714929983500,11.6739833984375,0.005555620416998863,0.008430236019194126,-0.009309079498052597
1757088714940030500,11.684030517578124,0.006364156026393175,0.010779410600662231,-0.009984190575778484
1757088714950076700,11.69407666015625,0.006334328558295965,0.012802880257368088,-0.011084076017141342
1757088714960124000,11.7041240234375,0.004550276789814234,0.01389637403190136,-0.012020709924399853
1757088714970169900,11.714169921875,0.007849134504795074,0.012518987990915775,-0.011835088022053242
1757088714980216800,11.724216796875,0.008806274272501469,0.012346414849162102,-0.013145096600055695
1757088714990262800,11.7342626953125,0.008991364389657974,0.011318701319396496,-0.00920601561665535
1757088715000309800,11.744309814453125,0.01038313191384077,0.009581787511706352,-0.008231031708419323
1757088715010355700,11.754355712890625,0.009965282864868641,0.011544270440936089,-0.006771353539079428
1757088715020402700,11.764402587890626,0.009697634726762772,0.010580206289887428,-0.007850999012589455
1757088715030448600,11.77444873046875,0.010487794876098633,0.004864530172199011,-0.011768242344260216
1757088715040495600,11.78449560546875,0.014905712567269802,-0.0034320156555622816,-0.015778163447976112
1757088715050541600,11.79454150390625,0.012427108362317085,-0.00791438203305006,-0.018129736185073853
1757088715060588500,11.804588623046875,0.011835354380309582,-0.013861753046512604,-0.01835077814757824
1757088715070634500,11.814634521484376,0.008087754249572754,-0.017255153506994247,-0.017967015504837036
1757088715080681700,11.824681640625,0.004709800239652395,-0.01501064095646143,-0.016567790880799294
1757088715090727700,11.834727783203125,-0.0014295848086476326,-0.014085192233324051,-0.01661279797554016
1757088715100773600,11.844773681640625,-0.00213638786226511,-0.013621802441775799,-0.013712616637349129
1757088715110820900,11.85482080078125,-0.0029760824982076883,-0.013034575618803501,-0.016477243974804878
1757088715120866800,11.86486669921875,-0.0017595505341887474,-0.01570732332766056,-0.014963769353926182
1757088715130913800,11.874913818359374,0.0004159857635386288,-0.021203821524977684,-0.012945359572768211
1757088715140959700,11.884959716796875,0.003500991500914097,-0.017976870760321617,-0.00700810831040144
1757088715151006700,11.8950068359375,0.003722566645592451,-0.012169314548373222,0.00010492854926269501
1757088715161052700,11.905052734375,0.001100684516131878,-0.004731904715299606,0.0021795309148728848
1757088715171099600,11.915099609375,-0.005363606382161379,-0.0010615360224619508,0.0026905916165560484
1757088715181145600,11.9251455078125,-0.012483567930758,-0.004751611966639757,0.0013552826130762696
1757088715191192600,11.935192626953125,-0.018128404393792152,-0.012437760829925537,-0.0034786208998411894
1757088715201238500,11.945238525390625,-0.018339592963457108,-0.014152836985886097,-0.009089368395507336
1757088715211285500,11.955285400390625,-0.016350211575627327,-0.014149374328553677,-0.014338991604745388
1757088715221331700,11.965331787109376,-0.010933607816696167,-0.014749119058251381,-0.017356885597109795
1757088715231378700,11.975378662109375,-0.005231247283518314,-0.018386997282505035,-0.019698336720466614
1757088715241425000,11.9854248046875,-0.0016346483025699854,-0.019830962643027306,-0.015575763769447803
1757088715251472000,11.995471923828125,-0.001874066423624754,-0.015500130131840706,-0.010993262752890587
1757088715261517800,12.005517822265626,-0.0015864450251683593,-0.014226073399186134,-0.006569485645741224
1757088715271564800,12.015564697265624,-0.002002697205170989,-0.012863334268331528,-0.00780652416869998
1757088715281610800,12.02561083984375,-0.003073820611461997,-0.01841735653579235,-0.01344816479831934
1757088715291656700,12.03565673828125,-0.0032703618053346872,-0.0234089195728302,-0.01985652931034565
1757088715301703700,12.04570361328125,-0.005685050040483475,-0.026687802746891975,-0.022360432893037796
1757088715311749600,12.05574951171875,-0.006203567609190941,-0.027879301458597183,-0.02395753003656864
1757088715321796600,12.065796630859374,-0.005341236013919115,-0.025542911142110825,-0.02455993741750717
1757088715331842600,12.075842529296875,-0.00358834327198565,-0.0199207104742527,-0.021859493106603622
1757088715341889500,12.0858896484375,-0.00010918960470007733,-0.012204734608530998,-0.024640098214149475
1757088715351935700,12.095935791015625,0.005520466715097427,-0.012012721039354801,-0.027241740375757217
1757088715361982500,12.105982421875,0.0065071675926446915,-0.017126522958278656,-0.027581825852394104
1757088715372028700,12.116028564453124,0.007767908275127411,-0.017521735280752182,-0.024650750681757927
1757088715382076000,12.126075927734375,0.008013185113668442,-0.01769803650677204,-0.023390544578433037
1757088715392121900,12.136121826171875,0.0046541402116417885,-0.015792811289429665,-0.020303674042224884
1757088715402168800,12.1461689453125,0.005357481073588133,-0.015614911913871765,-0.02141447737812996
1757088715412214800,12.15621484375,0.0033955303952097893,-0.012325375340878963,-0.022056300193071365
1757088715422261800,12.16626171875,0.003245860803872347,-0.014186126179993153,-0.02684945799410343
1757088715432307700,12.1763076171875,0.004763063509017229,-0.015245265327394009,-0.026204438880085945
1757088715442354700,12.186354736328125,0.005732720717787743,-0.016710802912712097,-0.025591911748051643
1757088715452400600,12.196400634765626,0.008874185383319855,-0.016476444900035858,-0.027773041278123856
1757088715462447600,12.206447509765624,0.014651646837592125,-0.013276124373078346,-0.02923485077917576
1757088715472493600,12.21649365234375,0.0184093676507473,-0.013069462962448597,-0.03182078152894974
1757088715482539800,12.226539794921875,0.02280012145638466,-0.013096626847982407,-0.033302564173936844
1757088715492586500,12.23658642578125,0.024778317660093307,-0.0184682235121727,-0.03298724442720413
1757088715502632700,12.2466328125,0.025173796340823174,-0.020658673718571663,-0.028318457305431366
