time,seconds_elapsed,z,y,x
1757088692213721000,0.01972119140625,0.912743205705285,0.7510610900171101,-0.04134031064808368
1757088692223675100,0.029675048828125,0.9041536565363406,0.6066251465536654,-0.07791063041538
1757088692233630200,0.039630126953125,0.7224474283426999,0.4779791851572692,-0.10255655750259757
1757088692243585000,0.0495849609375,0.5122586175084114,0.4340333681859076,-0.23423706428930163
1757088692253539000,0.0595390625,0.3874807297170162,0.45877135747075076,-0.37198929220512506
1757088692263494000,0.069493896484375,0.310088862478733,0.41864743687510486,-0.4206513240434229
1757088692273448000,0.079447998046875,0.1961106011211872,0.34007907320335506,-0.37523704195469615
1757088692283403300,0.0894033203125,0.004794248539209366,0.30617870329767466,-0.2668222599431872
1757088692293357000,0.099357177734375,-0.11975041501820087,0.2847125752903521,-0.07773205897808075
1757088692303312100,0.10931201171875,-0.14859540123045445,0.314818521349132,0.056414253400266165
1757088692313266000,0.119265869140625,-0.12925766355395316,0.361943552878499,0.13600041581243275
1757088692323221200,0.12922119140625,-0.13676175557374953,0.386712667953968,0.20546981948837637
1757088692333176000,0.139176025390625,-0.24022213004827497,0.3610034955494106,0.22312997934147713
1757088692343130000,0.149130126953125,-0.35789398522675037,0.30125542155131696,0.2147485199652612
1757088692353085000,0.1590849609375,-0.484280477258563,0.2688914674326777,0.20014862446561454
1757088692363039000,0.1690390625,-0.6509463727086782,0.25535160237997767,0.11716814344003795
1757088692372994300,0.178994384765625,-0.734442986562848,0.2221121806010604,-0.015308336029946802
1757088692382948000,0.188947998046875,-0.7069207733869552,0.19434300692677497,-0.11811536116227507
1757088692392903200,0.198903076171875,-0.6369803911983967,0.11103022520691155,-0.17583324450701474
1757088692402857000,0.20885693359375,-0.4892664489775896,0.07503960502371192,-0.1506689926341176
1757088692412812000,0.21881201171875,-0.22915362354516983,0.0940244376093149,-0.09124803169853984
1757088692422767000,0.22876708984375,0.025642975300550458,0.1252802843555808,-0.019478242125734686
1757088692432721200,0.23872119140625,0.1512555603504181,0.15760142224580048,0.1074964250575751
1757088692442676000,0.248676025390625,0.2346446221768856,0.16885200731754302,0.19588892119452356
1757088692452630000,0.258630126953125,0.39835751304030415,0.20282500406801698,0.22118702858015893
1757088692462585000,0.268585205078125,0.5401596008688211,0.20047113441824913,0.22563955100961028
1757088692472539100,0.2785390625,0.5982090542554855,0.18093641286492346,0.19222309216335415
1757088692482494200,0.288494140625,0.6725573160141706,0.11952552022114396,0.11506861387751996
1757088692492449000,0.298448974609375,0.6999918509066104,0.03264014071151614,0.05285319991782307
1757088692502403000,0.308403076171875,0.705408615258336,-0.06541720567569136,0.034767727324739095
1757088692512358100,0.318358154296875,0.638451048272848,-0.07563420991599559,-0.002667538708820939
1757088692522312200,0.328312255859375,0.50539808408916,-0.0806542300350964,-0.004988821263238788
1757088692532267000,0.33826708984375,0.297565480992198,-0.0784041130207479,0.041839492341876026
1757088692542221000,0.348220947265625,0.11923311314582824,0.00858604203760624,0.04878061671666801
1757088692552175900,0.35817578125,0.007384849554300308,0.15460487077832222,0.05069426831826567
1757088692562131200,0.368131103515625,-0.0873936212927103,0.3588986322246492,0.15382665294744075
1757088692572085200,0.378085205078125,-0.11270049650669098,0.5291869559556246,0.282222438975051
1757088692582040000,0.3880400390625,0.015098784932494162,0.6143224230580031,0.37157925009950993
1757088692591994000,0.397994140625,0.1154050792902708,0.6849198078505695,0.7469802504442632
1757088692601949200,0.40794921875,0.32462066117823124,0.7936600224241613,1.353153269316256
1757088692611903200,0.4179033203125,0.5783598599255084,0.4024197940431535,1.4278919916972517
1757088692621858000,0.427858154296875,0.8423913201063871,-0.07188318681940437,1.2061392189931124
1757088692631812000,0.43781201171875,0.9508347436904907,-0.411898693267256,0.8835825776726007
1757088692641767000,0.447766845703125,0.5601747994154691,-0.681897537419945,0.39725452023446556
1757088692651722200,0.45772216796875,-0.19377192904055118,-0.8297212236255407,-0.3863093478500843
1757088692661676300,0.46767626953125,-0.8714730376839637,-0.6714287503756582,-1.1010407949879766
1757088692671631000,0.477631103515625,-1.1438660834968088,-0.31851620682328935,-1.4223913484543562
1757088692681585200,0.487585205078125,-1.1676286518782377,-0.12435169826857745,-1.4983483605839312
1757088692691540000,0.4975400390625,-1.6756886486530302,-0.6808700940683484,-0.8134978185772895
1757088692701494300,0.507494384765625,-1.6372282773554323,-1.0260530662819742,0.033342151501029725
1757088692711449000,0.517448974609375,-0.40788989601731296,-0.2540677000492811,-0.3481913602493703
1757088692721404200,0.527404052734375,0.67695993488729,0.48623365715295075,-0.9181570474475622
1757088692731358000,0.53735791015625,1.5895365518540143,0.8071294525891543,-0.6456409597769379
1757088692741313300,0.547313232421875,2.234998355671763,0.9334193523786961,0.2821981082513928
1757088692751267000,0.55726708984375,2.34338040445745,1.0738073356255888,0.26688743413388727
1757088692761222100,0.56722216796875,2.1706062552601098,1.2173971836537123,-0.11989128479361534
1757088692771176200,0.57717626953125,1.7974580022782087,1.1142822616159915,-0.11061989084035158
1757088692781131000,0.587131103515625,1.2176485280662774,0.61277563200742,0.3154658793419599
1757088692791086000,0.597086181640625,0.9153560185521841,0.20440905838906764,0.7100117251396179
1757088692801040100,0.6070400390625,0.5851216091454029,0.11941153845265506,0.7901838707461952
1757088692810995200,0.6169951171875,0.14761048184633255,0.1961835202269256,0.46304450474530456
1757088692820949000,0.626948974609375,-0.14316577739715575,0.15151801067888737,0.3372556863456964
1757088692830904000,0.636904052734375,-0.3146884652286768,0.06929974619746208,0.39593379302471876
1757088692840858000,0.646858154296875,-0.5699743088960647,0.009648264441639184,0.1580152637436986
1757088692850813200,0.656813232421875,-0.8427735974222421,-0.0771167035587132,-0.008866612544655799
1757088692860768000,0.66676806640625,-1.0067997920185328,-0.15504413897842168,-0.16283464672416448
1757088692870722000,0.67672216796875,-1.0972200676560402,-0.13430588685423134,-0.3492731641367078
1757088692880677000,0.686677001953125,-0.9363830244898795,-0.010835136138647793,-0.3081114249259233
1757088692890631200,0.696631103515625,-0.6681225484371185,0.1680931517742574,-0.06772387518286704
1757088692900586200,0.706586181640625,-0.3705570674449205,0.3067022887803614,0.1936269676119089
1757088692910540000,0.7165400390625,-0.06911211467087268,0.2357199963234365,0.3342299087837338
1757088692920495000,0.7264951171875,0.3265875773370266,-0.0227916775226593,0.4175444440692663
1757088692930450200,0.7364501953125,0.7154512858450413,-0.32648791635483504,0.37141397653520103
1757088692940404200,0.746404296875,1.0098907437711953,-0.587139378708601,0.2633057762548327
1757088692950359000,0.756359130859375,1.219495617237687,-0.7846205375306308,0.08021686153113841
1757088692960313000,0.76631298828125,1.0127233368486166,-0.6198514156125485,-0.1721279602482915
1757088692970268000,0.776267822265625,0.5502104547619819,-0.07603738388940691,-0.33821517902761694
1757088692980222000,0.786221923828125,0.16350947724580764,0.8896322331003844,-0.529053684964776
1757088692990177000,0.796177001953125,-0.02011164465844631,2.054267548381537,-1.1427885173931718
1757088693000131800,0.8061318359375,0.2078039615243673,2.2244307844281197,-1.4667138897836207
1757088693010086000,0.8160859375,0.5643716665834189,1.969523857075721,-1.658264343382418
1757088693020041000,0.826041015625,0.5378554155796766,1.3214552317604422,-1.611954427628219
1757088693029995000,0.8359951171875,-0.010018705189228058,0.5144447293758392,-1.6184104718998074
1757088693039949800,0.84594970703125,-0.6796756235867738,-0.07671601380333304,-0.9029267450898886
1757088693049903900,0.85590380859375,-0.9170558082073926,-0.5669472161598503,-0.08606807177737355
1757088693059858700,0.865858642578125,-1.0052303507447242,-0.7570791812628507,0.5595685040853917
1757088693069814000,0.87581396484375,-0.9550982463538646,-0.7645477635778486,1.327435913605243
1757088693079768000,0.88576806640625,-1.0462596957474946,-0.7598636974148452,1.8962744964696465
1757088693089723000,0.895722900390625,-0.6320400121867656,-0.6982151966229081,2.1848962080277503
1757088693099677000,0.905677001953125,-0.13860066143870353,-0.7027094393022358,2.721790231229365
1757088693109632000,0.915632080078125,0.20484511171877384,-0.7031057451434433,3.047305503159761
1757088693119586000,0.9255859375,0.6233849965661764,-0.614607231348753,2.62672125300318
1757088693129540900,0.935540771484375,1.2646855890512465,-0.35964711250439285,2.107814575782418
1757088693139496000,0.945495849609375,1.6707050150215625,0.3541623974829912,0.6410355118080974
1757088693149449700,0.95544970703125,1.4294921203702688,0.5340104305893183,-0.7018181895509362
1757088693159405000,0.965405029296875,1.001700423052907,0.2235733391948044,-1.072678623856604
1757088693169358800,0.97535888671875,0.6729863550812005,-0.2697928001865744,-0.9385162371262907
1757088693179314000,0.98531396484375,0.35182957062125203,-0.20914207826033232,-0.3345516880840063
1757088693189268000,0.99526806640625,-0.0753729286313057,0.23098208108134566,0.4618849594466388
1757088693199222800,1.005222900390625,-0.42221711205542084,-0.02651924667842686,-0.0635433746278286
1757088693209177900,1.015177734375,-0.6389052217811345,-0.32902364537753165,-0.8573062729045748
1757088693219132000,1.0251318359375,-0.4649427395820617,-0.4279316172447055,-0.9254454508900641
1757088693229087000,1.0350869140625,-0.16731237666010856,-0.13789923517107963,-0.5692915873289108
1757088693239040800,1.045040771484375,-0.06917348946928978,0.13347272396571933,-0.24314561627954243
1757088693248995800,1.054995849609375,-0.32288053951263423,0.05392440934590995,0.06664280194789171
1757088693258950000,1.064949951171875,-0.5305015456855297,-0.13785101211518047,0.3588274666845798
1757088693268905000,1.074905029296875,-0.5030822083622217,0.034900085000135,0.5351271596595645
1757088693278859800,1.08485986328125,-0.6311842721402645,0.5537423186825589,0.32539106102883814
1757088693288813800,1.094813720703125,-0.5273971499294042,0.7312643565267324,-0.22901158472597596
1757088693298769000,1.104768798828125,-0.3850567174404859,0.7818530455786734,-0.6304276085540652
1757088693308723000,1.114722900390625,-0.5953524957805871,0.7945462306741624,-0.6703039841294288
1757088693318678000,1.124677978515625,-0.8566881410062313,0.610247720964998,-0.49522301929444074
1757088693328631800,1.1346318359375,-0.9278583572506904,0.46373416750989854,-0.39847558646202086
1757088693338587000,1.1445869140625,-0.898608297368884,0.31917894504833966,-0.5157251245751977
1757088693348542000,1.1545419921875,-0.8080857304006814,0.15206573508898727,-0.6316805312246084
1757088693358496000,1.16449609375,-0.6776619456768036,0.09077363738613202,-0.6365908073589205
1757088693368450800,1.174450927734375,-0.6111643974184989,-0.020315387069620192,-0.5325061635062098
1757088693378404900,1.18440478515625,-0.8018991507202387,-0.20067582667749373,-0.37793811760693785
1757088693388359700,1.194359619140625,-1.0659428858608007,-0.13104593521021304,-0.23485066614300013
1757088693398314000,1.20431396484375,-1.118578497505188,0.19043810844272374,0.04262596654444933
1757088693408269000,1.21426904296875,-1.0871662911534308,0.347823184524104,0.2580097156733274
1757088693418223900,1.224223876953125,-1.1813351056694983,0.36309330743551255,0.20510463943779467
1757088693428178000,1.234177978515625,-1.2653162881702185,0.34964506618902086,0.06300824483782053
1757088693438133000,1.244133056640625,-0.9973048184424638,0.20953173516504464,-0.212254511192441
1757088693448087000,1.254087158203125,-0.45663259187638755,0.021635639355331658,-0.5332964371010661
1757088693458041900,1.264041748046875,-0.020768647262454032,-0.05290880256257951,-0.5439771133303642
1757088693467996000,1.273995849609375,0.39652211430668827,-0.037627719865739345,-0.17380583033263683
1757088693477950700,1.28395068359375,0.7397562905400991,-0.08992270137891173,0.12357377269864081
1757088693487906000,1.293906005859375,1.0032143347471951,-0.2852907405044883,0.15605653089135885
1757088693497859800,1.30385986328125,0.9951976170301436,-0.48553033118918537,0.22062603369653225
1757088693507815000,1.31381494140625,0.5898644197583198,-0.6113298901785165,0.3055433280035853
1757088693517769000,1.32376904296875,0.16918518479466438,-0.6770715055029839,0.38127807568460703
1757088693527723800,1.333723876953125,-0.18247370543479918,-0.6939344505637883,0.2082292011991143
1757088693537678000,1.343677978515625,-0.3985708635300398,-0.5556422705523669,0.01621434495896101
1757088693547633000,1.3536328125,-0.6472369967967272,-0.33851430810466404,0.026618834595382213
1757088693557588000,1.363587890625,-0.6589478928565978,-0.006978752971440553,0.2265969247996807
1757088693567541800,1.373541748046875,-0.48997898116111754,0.2836032988741994,0.35062340970188377
1757088693577497000,1.3834970703125,-0.2524088269263506,0.4237199178338051,0.24240561156719923
1757088693587451000,1.393450927734375,-0.13397592424750326,0.49855888571888207,0.23581688082665203
1757088693597406000,1.403406005859375,-0.20764204896092414,0.6781793936796486,0.30387539479136466
1757088693607360000,1.413360107421875,-0.3854150293588638,0.9180978646062314,0.24531682283878326
1757088693617314800,1.423314697265625,-0.7851403236210346,1.0596873325973748,-0.050802843259274956
1757088693627270000,1.433269775390625,-1.0552852982461451,1.205431436049938,-0.26646862419992684
1757088693637224000,1.443223876953125,-1.0127420415490864,1.2402600267164408,-0.2286249234959483
1757088693647179000,1.453178955078125,-0.8208341528147458,1.1605351864859461,0.19848814390748737
1757088693657132800,1.4631328125,-0.39152562119364737,1.0537895067304373,0.8857458931863308
1757088693667088000,1.473087890625,0.11786533192396163,1.115170734888315,1.2936039327606559
1757088693677042000,1.4830419921875,0.4755711011022329,1.2256507788665592,1.211653379304707
1757088693686997000,1.4929970703125,0.45618075645565986,1.2653827775351703,0.9911620779037476
1757088693696951800,1.502951904296875,0.414708343860507,1.4182264838598668,0.877259512130916
1757088693706905900,1.51290576171875,0.4921282681494951,1.6362189541824161,0.9851038007780909
1757088693716861000,1.52286083984375,0.3978460563868284,1.6666893496394157,1.3863792470917105
1757088693726815000,1.53281494140625,0.19905483787953854,1.926553607138246,2.101758929005265
1757088693736769800,1.542769775390625,-0.31534312974512574,3.8996070996448395,3.492516537311673
1757088693746723800,1.552723876953125,-1.0770347732394934,3.460387999384105,2.7979478804975746
1757088693756679000,1.562678955078125,-0.8221925816863774,1.751500699353963,0.8948884000629186
1757088693766632700,1.5726328125,0.28178105188310143,1.3668661528483033,0.24555589229166505
1757088693776588000,1.582588134765625,0.5998433774590491,1.084213578827679,-0.3826829740464687
1757088693786542800,1.59254296875,0.5132873760342598,0.8492463005676865,-0.7962684513568877
1757088693796497000,1.602496826171875,0.43350130713582036,0.7887703506864607,-0.6076981826126575
1757088693806451700,1.61245166015625,0.7073971587270498,0.6780487530373036,-0.24269991833865642
1757088693816406000,1.622406005859375,1.1359849748581647,0.47778775423839687,-0.27500176700651646
1757088693826360800,1.63236083984375,1.6783049686312674,0.20970672640576957,-0.610371785736084
1757088693836315000,1.64231494140625,2.0145079310536382,-0.056384588914364576,-0.9441074812620878
1757088693846270000,1.65227001953125,2.0589882932931185,-0.2204400096051395,-1.152493626588583
1757088693856225000,1.66222509765625,1.827123657223582,-0.19034078554809092,-1.202548574090004
1757088693866179000,1.672178955078125,1.4966227058351038,-0.03716244044154882,-1.0858832656055688
1757088693876134000,1.6821337890625,1.1520815386563539,-0.03841653215587139,-0.784007520198822
1757088693886088000,1.692087890625,0.9089262777656316,0.025145254911482333,-0.3568891920983791
1757088693896042800,1.702042724609375,0.8716133229374885,0.16350158620029687,-0.06993687505722046
1757088693905996800,1.711996826171875,1.0130325489282608,0.19136895955204963,-0.035620763957500454
1757088693915951900,1.721951904296875,1.1324679066479206,-0.0948182183355093,-0.38810558361709113
1757088693925907000,1.731906982421875,1.0805763913691042,-0.599755991436541,-1.191360240599513
1757088693935861000,1.741861083984375,0.8992401655316352,-1.2273740955278276,-1.8950316568017005
1757088693945815800,1.75181591796875,0.8041653420865535,-1.701054852838814,-2.1093547909617425
1757088693955770000,1.76177001953125,0.6661258216619491,-1.903445849403739,-2.0364210721760987
1757088693965725000,1.771724853515625,0.3985468981325626,-1.8503560642510652,-1.890731913781166
1757088693975679000,1.781678955078125,0.07339782916605472,-1.825201164728403,-1.7860615789949892
1757088693985633500,1.791633544921875,-0.20813070926070212,-1.9121558100819587,-2.0129729765713216
1757088693995588600,1.801588623046875,-0.30883330945968623,-2.0130022026658057,-2.429343700686097
1757088694005542400,1.81154248046875,-0.23200082966983318,-1.9981138456135987,-2.7100615072518583
1757088694015497700,1.821497802734375,0.03415799792855978,-1.8568644232317804,-2.715793328902125
1757088694025451800,1.83145166015625,0.1564081208080053,-1.6971879482775925,-2.585128136637807
1757088694035406600,1.841406494140625,0.12072598205208777,-1.505363938434422,-2.192086850184202
1757088694045360600,1.851360595703125,0.11240882008373737,-1.3745453091740607,-1.6604425642043352
1757088694055315500,1.8613154296875,0.24993162315785883,-1.2557213613510132,-1.1635405057817696
1757088694065270800,1.871270751953125,0.5289733132049441,-1.148513617041707,-0.597518149381876
1757088694075224600,1.881224609375,0.7914201345428824,-0.9802741886645555,-0.09290566271245479
1757088694085179600,1.8911796875,0.7352434892907739,-0.7902507985025644,0.061553077593445776
1757088694095133400,1.901133544921875,0.5265314730107784,-0.7015875956654548,-0.06576689589619636
1757088694105088800,1.9110888671875,0.7922206372708082,-0.5545429310083388,-0.26890695726275443
1757088694115042600,1.92104248046875,0.9603466684013604,-0.5131681335687637,-0.22219839757978915
1757088694124997600,1.93099755859375,0.9131453567653894,-0.48026656544208524,-0.025053192713856694
1757088694134952400,1.940952392578125,0.9716346628740429,-0.48618251148760316,-0.02351765370965004
1757088694144906500,1.950906494140625,0.8067740632802247,-0.6224842483341694,-0.15632102704644202
1757088694154861600,1.960861572265625,0.6291062968224287,-0.6345084481269121,0.14762334132790564
1757088694164815600,1.970815673828125,0.4025003119334578,-0.42637890790998934,0.8234913893252611
1757088694174770700,1.980770751953125,0.16437807677388191,-0.12464753940999507,1.488084594592452
1757088694184724500,1.990724365234375,-0.48027007257342336,0.1655102956742048,1.821062749749422
1757088694194679600,2.000679443359375,-1.3568202673912046,0.33275545231699943,1.6302981858313084
1757088694204633600,2.010633544921875,-1.9348183082669972,0.3510118244975805,1.2175889068335295
1757088694214588700,2.020588623046875,-2.0246528929710386,0.09297463629543781,0.8051216198980807
1757088694224543500,2.03054345703125,-1.4121540320783852,-0.36356209399104117,0.620890257140994
1757088694234497500,2.04049755859375,-0.5480421708121895,-0.7897831809908151,0.42136721722781656
1757088694244452600,2.05045263671875,0.21413988654762506,-1.1328180352598427,-0.00934767405986786
1757088694254406700,2.06040673828125,0.6036988838434219,-1.1666682824134826,-0.29575112504661083
1757088694264361700,2.07036181640625,0.42267829982638355,-0.7015209601700305,-0.3159241445034742
1757088694274315500,2.0803154296875,0.9208595844045281,-0.09910743996202945,-0.19816870269477366
1757088694284270600,2.0902705078125,1.6690861816480755,0.2971510549724102,0.06595920359790325
1757088694294225700,2.1002255859375,1.7488798493310809,0.3076818013370037,0.6104664782822131
1757088694304179700,2.1101796875,1.6384657101958988,0.29962299804389475,0.8078063289374112
1757088694314134500,2.120134521484375,1.4197820427387953,0.6205886438459157,0.5815180316954851
1757088694324088600,2.130088623046875,0.9348024773001671,1.025382327413559,0.034114451047778126
1757088694334043400,2.14004345703125,0.19582476991713046,5.519553110548854,-3.4532752447694537
1757088694343997700,2.149997802734375,-1.5225900907844303,1.6379653594583272,-1.7697779681921004
1757088694353952800,2.159952880859375,-0.7311005442671478,-0.4630196625649929,-2.490422146505117
1757088694363907600,2.169907470703125,0.6763669374302029,1.844645285388827,-3.7206338035464284
1757088694373861600,2.179861572265625,1.2290047654695808,1.8556465718746185,-2.49002525614202
1757088694383816700,2.189816650390625,1.0535238415315746,1.162584812492132,-1.2848673763364553
1757088694393770800,2.199770751953125,1.2488479684501885,0.583237695094943,-0.5876069962203503
1757088694403725600,2.2097255859375,1.45700819606632,0.4117179298728704,-0.19182547114789486
1757088694413679600,2.2196796875,0.96482352155447,0.37182314185798165,0.17313363015949726
1757088694423634400,2.229634521484375,0.46326063171401616,0.639905923256278,0.9436468780130147
1757088694433589800,2.23958984375,-0.19816578008532523,1.1029594880908726,1.545010012385249
1757088694443543600,2.24954345703125,-0.8958429243087768,1.1248737982571124,1.8369979855060576
1757088694453498600,2.25949853515625,-1.2652625121563672,1.0280606067121028,2.241968194684386
1757088694463452700,2.26945263671875,-1.3656664216697216,0.6488929473102092,2.3445722445905206
1757088694473407500,2.279407470703125,-1.6837655721247196,-0.08986439532041549,2.021332224115729
1757088694483361800,2.28936181640625,-2.9161022584959864,-1.5588877310901879,2.184856898930669
1757088694493316600,2.299316650390625,-2.3654319311372936,-5.561575558242201,-0.060868017938733095
1757088694503271700,2.309271728515625,2.0427549513727423,-3.5995325584411617,-5.638167799535394
1757088694513225500,2.3192255859375,1.5464686867609618,-0.6704933692216872,-3.8392017307817934
1757088694523180800,2.329180908203125,-0.1080628998339176,-0.9521206918478011,-0.8530746266841888
1757088694533134600,2.339134521484375,-0.01723798891827464,-0.039732875451445576,-1.0856488723278046
1757088694543089700,2.349089599609375,0.6076046591103077,0.3038496758282184,-0.4057476232916116
1757088694553043700,2.359043701171875,1.2036778703808784,-0.3559095334112644,-0.05618658212423324
1757088694562998500,2.36899853515625,2.1894584013767537,-0.8859306021034717,1.1121014104455709
1757088694572952600,2.37895263671875,2.9062741074427962,-0.269295664319396,1.6874305243730543
1757088694582907600,2.38890771484375,1.380459647784382,0.018514146333932877,0.4427285696864128
1757088694592862700,2.39886279296875,0.40639848841577764,-0.30970541611909863,0.2932949640661478
1757088694602816500,2.40881640625,-0.19572773928344248,-0.08943126460015774,-0.4250269087791443
1757088694612771600,2.418771484375,-0.5028085059873759,0.11605565215349196,-0.7658610381335019
1757088694622725600,2.4287255859375,-0.5993031331025064,0.23467560183703898,-0.6996516591668128
1757088694632680700,2.4386806640625,-0.38641792279109355,0.3480874614834785,-0.7174830839335918
1757088694642634800,2.448634765625,-0.19343129890933633,0.21927929526269435,-0.8110252909839153
1757088694652589600,2.458589599609375,-0.08294467905983328,-0.033002105891704554,-0.8156219711244106
1757088694662544400,2.46854443359375,0.17713731284290551,-0.2363905890613794,-0.5926677867412566
1757088694672498700,2.478498779296875,0.572377862906456,-0.5652729993373156,-0.3769230953454971
1757088694682453800,2.488453857421875,0.6168474114909768,-0.9372633144557475,-0.27336861284673214
1757088694692407600,2.498407470703125,0.47194092790633435,-1.379915896296501,-0.07360182730555534
1757088694702362600,2.508362548828125,0.3667418930709362,-1.8821786049693823,0.31002281150519845
1757088694712316400,2.51831640625,0.13201076165437697,-1.9129408229798077,0.5296715246021747
1757088694722271700,2.528271728515625,-0.20010697728097437,-2.0823001952975986,0.5120061040520668
1757088694732226600,2.5382265625,-0.7715436138145625,-2.182078666388988,0.40262861448824405
1757088694742180600,2.5481806640625,-2.1070785165928303,-1.3223738079100846,0.9589479075193404
1757088694752135400,2.558135498046875,-0.9041412354461849,-1.3058335919976234,1.139027995815873
1757088694762089500,2.56808935546875,0.46683907472267744,-1.6304484079569577,1.0238239920556544
1757088694772044500,2.57804443359375,1.2037586805321276,-1.9919711050748823,0.6506359915852546
1757088694781998600,2.58799853515625,1.062694259328395,-1.9715286210268734,-0.02169511445760727
1757088694791953700,2.59795361328125,0.3713153384663164,-0.7640186251372099,0.531390603479743
1757088694801908500,2.607908447265625,0.5763635715417563,0.2226660150915384,1.1033534558445215
1757088694811862800,2.61786279296875,0.8238666523784398,0.833631675067544,1.4705489379018544
1757088694821817600,2.627817626953125,1.2629898910492658,0.6306266382575034,0.5877496195614338
1757088694831771600,2.637771728515625,0.5179704923491925,0.9228530963093042,-0.5473085958406328
1757088694841726500,2.6477265625,0.7936953129332512,1.7489157974272966,-1.0961802032142878
1757088694851680500,2.657680419921875,0.18886252968907355,2.2895769180774685,-1.057090886363387
1757088694861635600,2.667635498046875,-0.07873276045322418,2.5715602145344016,-0.4897290980532765
1757088694871590700,2.677590576171875,0.27833587986528874,3.0896243034511803,-0.3103168260157108
1757088694881544700,2.687544677734375,-0.4140244532495737,2.959557077080011,-0.525101732468605
1757088694891499500,2.69749951171875,-0.9860837517261505,2.9044208807915446,-0.6544231089085341
1757088694901453600,2.70745361328125,-0.6275141322601586,3.1175264558553692,-0.27819647139459847
1757088694911408600,2.71740869140625,-0.8363707446426153,3.4880005211919545,-0.015030395871400832
1757088694921362700,2.72736279296875,-0.4977309835273772,2.782859032437205,-1.3986109521552919
1757088694931317500,2.7373173828125,-0.15786767196655271,0.1422702898621559,-0.5647630039885639
1757088694941271600,2.747271484375,-0.21537753858380018,0.516912580794096,-0.43095717561095953
1757088694951226600,2.7572265625,-0.0833241798967123,0.5908247892230749,-0.24301672920286654
1757088694961181700,2.767181640625,-0.06893040142841637,0.49097968263626096,0.04190086714029312
1757088694971135700,2.7771357421875,0.021395766184851527,0.6864630917698145,0.00516132828593254
1757088694981090600,2.787090576171875,0.10982114167809486,0.8082838833212852,0.06026917526274919
1757088694991044600,2.797044677734375,-0.3948210825424641,0.12305763987004756,1.0379793586581945
1757088695000999400,2.80699951171875,-0.15477613569200038,0.17952888415455817,1.0010217931389809
1757088695010953500,2.816953369140625,0.2714654826391488,-0.15798340730071067,0.6380673096522689
1757088695020908500,2.826908447265625,0.32966508508622644,-0.2663818226993084,0.6976359354302286
1757088695030863600,2.836863525390625,0.2115945859789848,0.23528116651475428,0.9222329185843468
1757088695040817400,2.8468173828125,-0.08225684292614459,1.1061235050797462,1.3648901766002177
1757088695050772500,2.8567724609375,0.10016776266992092,1.801138736617565,2.3588515298336743
1757088695060726500,2.8667265625,0.4743167171269655,1.8813643659770487,3.4028497103899715
1757088695070681600,2.876681640625,1.5210060364633797,1.0978139418959616,4.053809234841168
1757088695080635600,2.8866357421875,0.7278425653845071,-0.05702127938270569,3.4714632278889415
1757088695090590500,2.896590576171875,0.8284230005085468,-1.8169097217231989,-0.7913786334887146
1757088695100545300,2.906545166015625,-1.7947686170637607,-3.5230794333577156,-3.6740538386791943
1757088695110499600,2.91649951171875,-2.394212181550264,-4.50714190838933,-5.1115468946754925
1757088695120454700,2.92645458984375,-0.5101303002428264,-4.048782638850808,-5.746558616149425
1757088695130408400,2.936408447265625,0.01913140144944191,-1.6363894884437322,-1.4149196973994373
1757088695140363500,2.946363525390625,0.6224339794516563,-0.9909154096662998,-0.2991971738472581
1757088695150317300,2.9563173828125,-0.19398060335516928,-2.073997061854601,-0.7743389436215162
1757088695160272600,2.966272705078125,-0.5833598601698875,-3.5270839928239583,-0.5465821812622249
1757088695170226700,2.976226806640625,-0.0336930107653141,-3.224226250642538,-0.5236255224362015
1757088695180181500,2.986181396484375,0.17242394752018153,-0.1770657089114189,0.015421879407018422
1757088695190136300,2.99613623046875,1.2039000617641955,1.572809873458743,-1.2896490576550363
1757088695200090400,3.00609033203125,2.1185510738521813,-0.041352585607767105,-3.3262703285783526
1757088695210045700,3.016045654296875,-0.8251637064516544,-3.9665065067023035,-5.463454206708073
1757088695219999500,3.02599951171875,-2.3257804503589865,-1.7550334035247563,-4.349377112275362
1757088695229954600,3.03595458984375,-3.2418928402364253,1.3280232119739055,-1.1211544854730366
1757088695239908400,3.045908447265625,-1.6871633978694676,3.331652021616697,0.24664573335498569
1757088695249863700,3.05586376953125,0.9473271739609539,5.876866665539145,0.9471323820412159
1757088695259818500,3.065818603515625,2.32168938165307,6.582334317508339,4.954717333585023
1757088695269772500,3.0757724609375,2.1490140166550873,0.22981530232429503,4.6592771741837264
1757088695279727400,3.085727294921875,-1.3797884705245493,-2.497901688605547,-0.3328957375705242
1757088695289681400,3.095681396484375,-2.9658003553837538,-3.358589712902903,-0.983132208444178
1757088695299636500,3.105636474609375,-0.5976444061100482,-0.4238520197808742,0.9318795755907893
1757088695309590500,3.115590576171875,-0.5621352493008598,-0.5601262840986252,-1.326174076975882
1757088695319545600,3.125545654296875,1.5282348186731338,-1.683007447233796,-2.171027695542574
1757088695329500400,3.13550048828125,0.5902829739639536,-0.45777416312694547,0.3250666513800621
1757088695339454500,3.145454345703125,-0.4669347536494955,0.5290870027124881,0.9554282089605927
1757088695349409500,3.155409423828125,-0.3126215592941269,0.9671464115440845,0.9785445883929729
1757088695359363600,3.165363525390625,-0.4170908185502514,0.9377963984191418,0.535497162015736
1757088695369318400,3.175318359375,-0.24369652816057205,0.7255705287992954,0.56456543558985
1757088695379272400,3.1852724609375,0.09393153516147285,0.46408641501367087,0.45370705981850623
1757088695389227500,3.1952275390625,0.10606441949307918,0.1734147851884365,0.27598873221725223
1757088695399181600,3.205181640625,-0.5763648867160082,0.3046101388067007,0.44126755722314115
1757088695409136600,3.21513671875,-0.5987848083168268,0.3743284026771784,0.05680675984919071
1757088695419091500,3.225091552734375,-0.06533259613215923,0.40237960816323753,0.16058438357934354
1757088695429045500,3.23504541015625,-0.03307106120837852,0.343034269747138,0.6126457220174372
1757088695439000600,3.24500048828125,0.01661035853922367,-0.004489128112792969,0.7679672166325151
1757088695448954600,3.25495458984375,0.04583585023535415,-0.36137948925495145,0.7227753451228142
1757088695458909400,3.264909423828125,0.1757517219697125,-0.6814584153503179,0.6731026749372482
1757088695468863500,3.274863525390625,0.21666414432823658,-0.8197609706252813,0.6061627897389232
1757088695478818300,3.284818359375,0.20320611234009264,-1.0008464365720748,0.6217129717007279
1757088695488773600,3.294773681640625,0.01300268943607807,-1.26438105314672,0.6747047033064068
1757088695498727700,3.304727783203125,-0.005576932482654229,-0.8838795147925614,0.7732596239522099
1757088695508682500,3.3146826171875,0.12258533705002628,-0.10879238315224647,0.4488166574284434
1757088695518636500,3.324636474609375,0.32487142106890676,0.49858314337730403,0.35047172627151013
1757088695528591600,3.334591552734375,0.3913151933133602,-1.8691776690989732,0.5155243413060904
1757088695538545700,3.344545654296875,1.4957313099533318,-10.059410124582051,1.0655262678839266
1757088695548500500,3.35450048828125,-0.012329315652581862,-9.649709964272379,1.085606056099385
1757088695558455600,3.36445556640625,-1.2463041291862726,-3.9726819804668425,0.31133652445226906
1757088695568409300,3.374409423828125,0.6093634854763746,-2.5256939508944747,-0.3447511566676199
1757088695578364700,3.38436474609375,-0.6270528714239597,-1.5243465790629387,-0.32686756332218647
1757088695588318500,3.394318359375,1.1199053621947765,-0.1616729094684124,0.1073500023242086
1757088695598273500,3.4042734375,1.9806769731223581,-0.9364560897260904,-0.11713628699705005
1757088695608227600,3.4142275390625,1.0018518142223358,-1.3394634743988514,0.21128785811737177
1757088695618182400,3.424182373046875,0.2886883470535278,-1.145533139926195,0.7848368106298148
1757088695628137500,3.434137451171875,1.7569862911581993,-0.08607727799713612,1.3392410638198256
1757088695638091500,3.444091552734375,0.4323006991744041,-0.2295341472953558,1.7045011939004062
1757088695648046600,3.454046630859375,-2.4254502003788945,-1.0520336029738186,1.8819228766426443
1757088695658000400,3.46400048828125,-1.3342378487050532,-1.2396347344249485,1.4010153829485177
1757088695667955700,3.473955810546875,-0.0032277298748493192,-1.0285738169312477,0.5948373858653009
1757088695677909500,3.483909423828125,-0.3130933780569583,-0.7686047838836908,-0.3104874333422631
1757088695687864600,3.493864501953125,0.788828656744957,8.737686305013298,0.37496070923134683
1757088695697818600,3.503818603515625,1.081060448559001,18.161625858438015,3.2116733508005737
1757088695707773400,3.5137734375,1.8971183999478816,10.040659831404685,0.05218072575004771
1757088695717728500,3.523728515625,1.8533119914472103,1.6436732157111167,-5.8542351470142595
1757088695727682600,3.5336826171875,0.3430815429549664,5.365535099747777,-6.050113692945241
1757088695737637600,3.5436376953125,-0.3008111849151551,5.758238532549142,-6.004339199241995
1757088695747591400,3.55359130859375,-0.9300491452932357,4.433389858958125,-4.830155718892812
1757088695757546500,3.56354638671875,-0.9370528865754604,3.727600719949603,-1.8638146807610987
1757088695767500500,3.57350048828125,-0.11371522650718688,2.3216706769526003,0.2235914593733847
1757088695777455600,3.58345556640625,0.2143312444012612,-0.4380319363027811,2.6047373847320676
1757088695787410400,3.593410400390625,0.6673707071565091,-3.039052054077387,5.635038853859901
1757088695797364500,3.603364501953125,1.2546446720302105,-1.5159019913226366,5.279855296635628
1757088695807319600,3.613319580078125,0.26158523607254025,1.3450520881861447,2.6847669069975613
1757088695817273600,3.623273681640625,-0.9644856679022311,1.1932377249091863,0.7374678873419761
1757088695827228700,3.633228759765625,-1.222031857717037,-0.8927572332531213,-0.7170226268149912
1757088695837182500,3.643182373046875,-1.4333189851820467,-3.416878820264339,-1.2257130304478108
1757088695847137500,3.653137451171875,-1.0785153671860694,-2.692574365878105,-1.217545798344165
1757088695857092600,3.663092529296875,-0.8976093494594096,-1.2525824788033961,-1.4388396482996642
1757088695867046700,3.673046630859375,-0.5574619602601975,-0.8171212697714567,-1.5473466386392711
1757088695877001500,3.68300146484375,0.8861690870344638,0.13364859198927878,0.319717983828485
1757088695886955500,3.69295556640625,1.3669827649652957,0.6022884325236082,1.3160450432799755
1757088695896910300,3.702910400390625,0.8229740143876523,0.26479776837825775,0.5745208662845194
1757088695906864400,3.712864501953125,0.7803248861633241,-0.4478565802246332,-0.3250127292357385
1757088695916819500,3.7228193359375,0.6447906996231526,-0.6336386795550585,-0.3695068277396261
1757088695926774500,3.7327744140625,0.06010170974135399,1.2156938868671654,-0.3992927480638027
1757088695936728600,3.742728515625,-0.10173965162914246,1.2560399257808923,-0.7853918141640722
1757088695946683400,3.752683349609375,-0.22171035833451896,0.5569762956351042,-0.6977972634717822
1757088695956637700,3.7626376953125,-0.2357727494239807,0.16922142515182495,-0.2209443058654666
1757088695966592500,3.772592529296875,-0.32119477838277816,0.0008779518783092498,0.17173808414787053
1757088695976546600,3.782546630859375,-0.32054120984487233,-0.2435848844796419,0.13692235296294092
1757088695986501400,3.79250146484375,-0.2200431923072785,-0.18903204103708265,0.15796031868606805
1757088695996456400,3.80245654296875,0.0845744722187519,-0.01044248355925083,0.06560644463747739
1757088696006410500,3.812410400390625,0.40744463646784423,0.10539105027616023,0.02447729252204299
1757088696016365600,3.822365478515625,0.5342155977725982,0.05137596697211265,0.06749211225360631
1757088696026319600,3.832319580078125,0.45491230742242184,0.014562778359651564,0.08776376977935432
1757088696036274400,3.8422744140625,0.32584413855858146,0.025413258197903632,0.030839521030336617
1757088696046228500,3.852228515625,0.17709256038572638,-0.034166473495960234,-0.053840165128558874
1757088696056183600,3.86218359375,0.20796119791269302,-0.10172902063727378,-0.10754793604910373
1757088696066138600,3.872138671875,0.23459552233815192,-0.1963806502342224,-0.04629880983829498
1757088696076092400,3.882092529296875,-0.007006079369783401,-0.0792722741574049,-0.2542182144358754
1757088696086047500,3.892047607421875,0.08234152553491293,-0.20216975502967832,-0.13954261846393345
1757088696096001300,3.902001220703125,0.42100547124333676,-0.01623568000793457,0.1384220900014043
1757088696105956600,3.91195654296875,0.3825391085963696,0.18810031314492223,0.059920800216495984
1757088696115910700,3.92191064453125,0.0522234871795401,0.1504746391057968,-0.1704334312900901
1757088696125865500,3.931865478515625,-0.15067692021224646,0.46874154734313483,-0.36027839614525436
1757088696135820300,3.9418203125,-0.13216039925813675,0.4395698133945465,-0.5358408608868718
1757088696145774300,3.9517744140625,0.06665533263590187,0.3096224140107631,-0.3435447034873068
1757088696155729400,3.9617294921875,0.20962949645109474,-0.054660979992151255,-0.34546339659020303
1757088696165683500,3.971683349609375,0.31743272243551907,-0.2590916656911373,-0.398367157651484
1757088696175638500,3.981638427734375,0.41117717405967413,-0.2676005508393049,-0.30643282418921586
1757088696185592300,3.99159228515625,0.3248562234997749,-0.22328210116326808,-0.4079670529067516
1757088696195547600,4.001547607421875,0.18262926132269203,-0.1745990265369415,-0.40455943642035125
1757088696205502500,4.01150244140625,0.09158405871987342,0.06794248636960983,-0.3287532309383154
1757088696215456500,4.02145654296875,0.13284304776005446,0.2994645926117897,-0.3971026906736195
1757088696225411300,4.031411376953125,-0.08369060205630957,0.1976747816979885,-0.513438913334161
1757088696235365400,4.041365478515625,0.16559972752332686,-0.14554244340062142,-0.5798709951408207
1757088696245320400,4.051320556640625,0.3929693537285551,-0.3327309023976326,-0.28208807200565933
1757088696255274500,4.0612744140625,-0.310605579829216,-0.05465630381703376,-0.0105320615388453
1757088696265229600,4.0712294921875,-0.6081295597672463,-0.11400924101769923,-0.3582534661889076
1757088696275184400,4.081184326171875,-0.49754620154500007,-0.08401625381410122,-0.2389091477535665
1757088696285138400,4.091138427734375,-0.23544892429709433,0.169340667617321,0.1270240592829883
1757088696295093500,4.101093505859375,-0.23491825148649512,0.3042781303733587,0.07953253252878785
1757088696305047600,4.111047607421875,-0.2179531246928498,0.3601145838856697,-0.1418807060226798
1757088696315002400,4.12100244140625,-0.2088029094338417,0.27787703018188475,-0.22321897279918193
1757088696324956400,4.130956298828125,-0.1234919396340847,0.01866203037202358,-0.07030863097906112
1757088696334911500,4.140911376953125,-0.0875333220243454,-0.023063480201363562,0.2689379369229078
1757088696344866600,4.150866455078125,-0.023449849170446395,-0.10349193865656853,0.39269700306057925
1757088696354820600,4.160820556640625,-0.07315517951659858,-0.173880064612627,0.3161877638757229
1757088696364775400,4.170775390625,-0.1077543453413993,-0.1608838049173355,0.2514664315097034
1757088696374729500,4.1807294921875,-0.15313772083520888,-0.026640754166245458,0.319781404453516
1757088696384684500,4.1906845703125,-0.19073526475839317,-0.0032516952723264693,0.42256928649395703
1757088696394638600,4.200638671875,-0.1580208167016506,-0.16093056666851044,0.4236025750644505
1757088696404593400,4.210593505859375,-0.11240008878801018,-0.23801263730525968,0.45221002619378264
1757088696414548500,4.220548583984375,-0.3469582017252221,-0.24267770650684833,0.5554897834043949
1757088696424502300,4.230502197265625,-0.2877250549793243,0.10799567981660366,0.6339149392131715
1757088696434457600,4.24045751953125,-0.18065470984671264,0.25025895541608334,0.6910726313918829
1757088696444411400,4.250411376953125,-0.10010061571784316,0.07935527626574039,0.6952974825453013
1757088696454366500,4.260366455078125,-0.1515688640832901,0.02200257297158241,0.8629823457796126
1757088696464321300,4.2703212890625,-0.2320212879359722,-0.047889878422021866,0.8132988619390875
1757088696474275600,4.280275634765625,-0.3253144886612892,-0.10683072769045829,0.7943236739646643
1757088696484230400,4.29023046875,-0.34051081568412483,-0.20154022495448587,0.7174639408417046
1757088696494184400,4.300184326171875,-0.28588275158088655,-0.031236849784851074,0.5486546036221087
1757088696504139500,4.310139404296875,-0.495353075414896,-0.08176701358258724,0.5096991422839462
1757088696514093300,4.32009326171875,-0.5810709089824929,-0.018730419433116912,0.42445305441394443
1757088696524048600,4.330048583984375,-0.4540134588865563,0.1312643272012472,0.6016264614835382
1757088696534003500,4.34000341796875,-0.4763292990583926,0.058140638801455494,0.5113316388566047
1757088696543957500,4.34995751953125,-0.5592120918631553,0.03068447659909725,0.36223683673664925
1757088696553912300,4.359912353515625,-0.5555284349143504,0.017933716097474097,0.29274295620657503
1757088696563866400,4.369866455078125,-0.6538357374746352,-0.0914063640654087,-0.009395239528641105
1757088696573821400,4.379821533203125,-0.798471002902463,-0.1292085637152195,-0.06641279258430004
1757088696583775500,4.389775390625,-0.7609949664670974,-0.14868658664524553,-0.12625745882466435
1757088696593730600,4.39973046875,-0.6939806277930736,-0.1880067896425724,-0.43340274213217195
1757088696603685400,4.409685302734375,-0.6278139189243316,-0.14056757759749888,-0.5642803350381553
1757088696613639700,4.4196396484375,-0.5133819955151527,0.04916179805397987,-0.6958592080812901
1757088696623594500,4.429594482421875,-0.30965748532414433,0.25813012718260286,-0.9140709471777081
1757088696633548500,4.439548583984375,-0.08017536047697067,0.3998252475053072,-1.0586631771814077
1757088696643503400,4.44950341796875,0.16133973199129104,0.4445405875444412,-1.1003885416243224
1757088696653457400,4.45945751953125,0.3625801702816039,0.47055473424494265,-1.063800101678446
1757088696663412500,4.46941259765625,0.49807585144229233,0.3979343191921711,-1.0195016718771308
1757088696673367600,4.479367431640625,0.5146129986148328,0.2632435246735811,-1.0340641579758376
1757088696683321600,4.489321533203125,0.4030113301955163,0.16622633498907088,-0.9463600824944675
1757088696693276400,4.4992763671875,0.3078197485029697,0.13527648545205592,-0.7676441952232271
1757088696703230500,4.50923046875,0.2654536019384861,0.030853403425216672,-0.5231785093210637
1757088696713185500,4.519185546875,0.3087945848844945,-0.10547405238449573,-0.3660793375089764
1757088696723139600,4.5291396484375,0.5282265864908695,-0.11342997982501983,-0.4368999365981668
1757088696733094400,4.539094482421875,0.6866435629032552,-0.060570496296882624,-0.5156884458266199
1757088696743049500,4.549049560546875,0.7141220830678939,-0.11027823779582976,-0.6686986678246408
1757088696753003500,4.55900341796875,0.8033270646315067,-0.22558804001808166,-0.9232190800774842
1757088696762958600,4.56895849609375,0.9602748452741652,-0.06562661064267158,-1.0783929829154162
1757088696772912400,4.578912353515625,0.979306731871888,-0.06958382383584975,-1.2647265055835246
1757088696782867500,4.588867431640625,0.8624819219768047,0.18441724071800708,-0.9975453492000699
1757088696792821500,4.598821533203125,0.8269372189301997,0.07794190233647823,-0.9407333286538719
1757088696802776600,4.608776611328125,0.8516928900022059,-0.04920446815192699,-0.8409165713787078
1757088696812731400,4.6187314453125,0.8521697867989539,-0.08722586351037025,-0.6842189661048352
1757088696822685400,4.628685546875,0.7801064941722899,0.015029811349511146,-0.6605735212970525
1757088696832640500,4.638640625,0.5834568908035754,0.12579554040133953,-0.732696946613118
1757088696842594300,4.64859423828125,0.3582441869039088,0.21608839026689527,-0.8222441657431423
1757088696852549600,4.658549560546875,0.0646796121161431,0.08890344133377075,-0.8036395646467804
1757088696862503400,4.66850341796875,-0.2976361350756138,0.22082944731414317,-0.9338974912844598
1757088696872458500,4.67845849609375,-0.19090484917163847,0.22335750448703764,-0.8954127161979675
1757088696882413300,4.688413330078125,-0.016919570618867872,-0.0017073884397745133,-0.5359978050142526
1757088696892367400,4.698367431640625,-0.20719445132389663,-0.026450784552097317,-0.46068493600711224
1757088696902322400,4.708322509765625,-0.39437107375264163,0.10332418087422847,-0.6243856980413198
1757088696912276500,4.7182763671875,-0.36937925583720205,0.1636380720615387,-0.8296861523121595
1757088696922231600,4.7282314453125,-0.10719904954619705,0.2440337972909212,-0.6459180231526493
1757088696932185300,4.738185302734375,-0.05696757643409073,0.13423895909786224,0.14098536461815236
1757088696942140700,4.748140625,-0.054273953435942525,-0.03776888190209866,1.0188437194250524
1757088696952095500,4.758095458984375,0.15237791544385254,-0.3070850044876337,1.1109478564962745
1757088696962049500,4.768049560546875,0.11990648236274719,-0.4521399566322565,0.8717446942321956
1757088696972004400,4.77800439453125,-0.22234745066165923,-0.40430502326786516,0.8398413433626294
1757088696981958400,4.78795849609375,-0.2614578833658248,-0.2785141590416431,0.5244986520089209
1757088696991913200,4.797913330078125,-0.16936989371180533,0.001295300507545471,0.25323314892128107
1757088697001867300,4.8078671875,-0.4446939514752477,0.4024690400123596,0.058444005662202834
1757088697011822300,4.817822265625,-0.3413899366062134,0.2424520810574293,-0.5395085896141827
1757088697021777200,4.827777099609375,-0.4727005871672183,-0.18650223029851912,-0.3333941886119544
1757088697031731200,4.837731201171875,-0.666313964645192,-0.27353753967285155,0.10063917957395314
1757088697041686300,4.847686279296875,-0.5819686250071973,0.3494716093182564,-0.20715075831264257
1757088697051640300,4.857640380859375,-0.6543008707683533,0.604563976240158,-0.39664632520824666
1757088697061595100,4.86759521484375,-0.8674387406665831,0.4623012851625681,-0.035522272019088266
1757088697071549200,4.877549072265625,-0.7126900044381618,0.38097266299724575,0.327554668803513
1757088697081504300,4.887504150390625,-0.6036193888664245,0.287216520935297,0.5907639989465475
1757088697091459300,4.897459228515625,-0.7036216587763279,0.09762100079655647,0.6375010540716349
1757088697101413400,4.907413330078125,-0.7100047108769416,0.06894435688853263,0.6929223509117961
1757088697111368200,4.9173681640625,-0.5490834965586662,-0.07112579258084296,0.6130573715582489
1757088697121322200,4.927322265625,-0.5116179815173149,-0.3027192104935646,0.47387277275174855
1757088697131277300,4.93727734375,-0.40906829214692114,-0.29525661952793597,0.4580770915962755
1757088697141231400,4.9472314453125,-0.2953319497864693,-0.2016173818439245,0.3733104578062892
1757088697151186200,4.957186279296875,-0.15509586916565893,-0.31863223441839217,0.2497599198527634
1757088697161141200,4.967141357421875,0.2396937222599983,-0.3626496553212404,-0.03296864201352
1757088697171095000,4.977094970703125,0.34549211122803386,-0.03594342004060745,-0.2591800746269524
1757088697181050400,4.98705029296875,0.30562296911105513,0.028795886373519895,-0.30422245466336606
1757088697191004200,4.997004150390625,0.38616796661801633,0.05175181454718113,-0.24120091195255516
1757088697200959200,5.006959228515625,0.6164157420754433,0.13704115703701972,-0.24236177242547272
1757088697210913300,5.016913330078125,0.4869079031527042,0.07386135502457618,-0.23964783729165792
1757088697220868400,5.026868408203125,0.3312251009445637,0.05967325519621372,-0.24049203303083777
1757088697230823200,5.0368232421875,0.2316823383051902,0.009273439779877662,-0.20609028947427868
1757088697240777200,5.046777099609375,0.4258300418555736,-0.23862580076754092,-0.43395285029560327
1757088697250732300,5.056732177734375,0.6692835550405085,-0.21395254728198052,-0.7687903695836663
1757088697260686000,5.06668603515625,0.4310906657975167,-0.07114449728131293,-0.5613026344016194
1757088697270641400,5.076641357421875,0.07310487410146743,-0.029776129582524298,-0.000009790741652250289
1757088697280595200,5.08659521484375,0.13603935958333313,-0.053909869363903996,0.4923956869140267
1757088697290550300,5.09655029296875,0.36221535555720324,-0.014751578930020331,0.837714998858422
1757088697300505000,5.106505126953125,0.37438042512536046,-0.11122867038846015,0.9874575242973863
1757088697310459100,5.116459228515625,0.42048868082761764,-0.1855570584028959,0.703448421101272
1757088697320414200,5.126414306640625,0.36221769364476203,-0.048588382080197334,0.26216815052703024
1757088697330368300,5.1363681640625,0.1706185055334121,0.05256079284250736,-0.07234510524272918
1757088697340323300,5.1463232421875,0.224701977898553,0.10873919166028499,-0.24427564322277903
1757088697350277000,5.156277099609375,0.18421667664460836,0.1472387259244919,-0.2059283769108355
1757088697360232200,5.166232177734375,0.05899338317327201,0.1055272438764572,-0.19147768062353132
1757088697370187300,5.176187255859375,-0.08360423894710839,0.0632207185447216,-0.15138430129662156
1757088697380141300,5.186141357421875,-0.053963133921101684,0.07090075165331364,-0.17657836378589273
1757088697390096100,5.19609619140625,-0.110232572023198,0.049100423255562776,-0.06874445040225982
1757088697400050200,5.20605029296875,-0.1349636931758374,-0.005081248787045478,-0.013722235882282257
1757088697410005200,5.216005126953125,-0.24544315263219177,-0.0881166748702526,0.09675020931139587
1757088697419959300,5.225959228515625,-0.47636188615374264,-0.3788835817635059,0.9632589025862515
1757088697429914000,5.2359140625,-0.4332592420082539,-0.5645253958404064,0.9766052908934653
1757088697439869200,5.245869140625,-0.8175614878196269,-0.153835055449605,1.0116868334077298
1757088697449823200,5.2558232421875,-1.0101637885589152,0.3240811474740505,0.4206726590923965
1757088697459778300,5.2657783203125,-0.47238136515021323,0.7791530659049749,-0.17032792508900166
1757088697469732400,5.275732421875,0.5006453366041184,0.6937550023436546,-2.095634308645129
1757088697479687200,5.285687255859375,0.9439748678583652,0.34495383963286874,-2.410455898734182
1757088697489641200,5.29564111328125,0.3620751433689147,-0.29020635040104387,-0.48829015129134057
1757088697499596000,5.305595947265625,-0.1009223804295063,-0.7447861014008521,0.5648968595013022
1757088697509551400,5.31555126953125,-0.40524544592313466,-0.5402876111626624,1.0478193462796508
1757088697519505200,5.325505126953125,-0.8286638235270977,-0.278119022244215,1.2019567456766962
1757088697529460200,5.335460205078125,-0.8373883972525596,0.050635962259769435,0.8623807996898889
1757088697539414300,5.345414306640625,-0.7451133605938405,0.20967326252758503,0.46859176360890265
1757088697549369300,5.355369384765625,-0.07194989538006484,0.16001520538926123,0.11501651836410164
1757088697559323400,5.365323486328125,-0.615848682777211,0.19279694652855395,0.6340270943507552
1757088697569278200,5.3752783203125,-0.37309447696805,0.13553425960540771,0.3811581025667488
1757088697579233300,5.3852333984375,0.09599719898700713,0.10156126285493373,0.08718407019525766
1757088697589187000,5.39518701171875,0.33281854414846745,-0.02216682362258434,-0.5086864581100642
1757088697599142400,5.405142333984375,0.7855845602571964,-0.0460363595098257,-1.3617109620422123
1757088697609096200,5.41509619140625,0.3173334267795086,0.16895605221390722,-0.9612522389389574
1757088697619051300,5.42505126953125,-1.2534978400826453,0.10872574765682219,0.3344856371104717
1757088697629005300,5.43500537109375,-0.4224935178440064,0.09533668925166129,-0.4398623666003346
1757088697638960000,5.444960205078125,1.4088006299972533,-0.18525895223915576,-2.048043413169682
1757088697648914400,5.45491455078125,1.4573615395486355,-0.8507885615736246,-0.8502791507467627
1757088697658869200,5.464869140625,-2.57596458697319,-0.2835913161754608,1.38122829406932
1757088697668824300,5.47482421875,-2.022996357935667,0.5073936418205499,0.2897130139261484
1757088697678778000,5.484778076171875,-0.37597375873140987,0.506084312787652,0.45289632795751095
1757088697688733400,5.4947333984375,-0.8279027760267257,0.12749182292521,0.581166587909311
1757088697698687200,5.504687255859375,-0.4909727414388209,-0.03171674225628376,0.2935791878350079
1757088697708642300,5.514642333984375,-0.12631408438272773,-0.039163551130890845,-0.05634717951342463
1757088697718596000,5.52459619140625,0.0722398913025856,0.0050362406015396115,-0.16065233424901962
1757088697728551200,5.53455126953125,0.19737791764326393,0.005714870515465736,-0.1196703355193138
1757088697738506200,5.54450634765625,0.21961535881664604,-0.06089256785809993,-0.04958002346605062
1757088697748460300,5.554460205078125,0.09593871026542038,-0.11112696357965468,-0.0782894005998969
1757088697758415000,5.5644150390625,-0.08310505725331604,-0.07448913153409957,-0.16509075508788226
1757088697768369200,5.574369140625,-0.13544073610305785,0.009996493357419967,-0.21090426562726497
1757088697778324200,5.58432421875,-0.13622048830389977,0.08156067735552787,-0.15463760400414467
1757088697788278300,5.5942783203125,-0.07413374222517014,0.1811877572774887,-0.01978738114014268
1757088697798233300,5.6042333984375,-0.013873042529821395,0.2553741064727306,0.09440992979556322
1757088697808188200,5.614188232421875,0.04144267504401505,0.2243015073388815,0.12081819038018583
1757088697818142200,5.62414208984375,0.005356485531851649,0.17465747872591017,0.11320654633268713
1757088697828097300,5.63409716796875,-0.04882167937941849,0.1161760636627674,0.14419117492213845
1757088697838051300,5.64405126953125,-0.09825228443741797,0.03390577673316002,0.12939195745810866
1757088697848006100,5.654006103515625,-0.13750636339597402,0.010498597660660743,0.12533464489132165
1757088697857960200,5.663960205078125,-0.14008183990716933,-0.022640286353230475,0.09935703080892562
1757088697867915300,5.673915283203125,-0.11829678214378654,-0.028682489126920698,0.021426818910241126
1757088697877870300,5.683870361328125,-0.12043145608492195,-0.08385960194766522,-0.0918923940166831
1757088697887824400,5.693824462890625,-0.11260923802666366,-0.12240414439737796,-0.17295213611274957
1757088697897779200,5.703779296875,-0.0812368522286415,-0.09658581252992153,-0.22710545884370803
1757088697907733200,5.713733154296875,-0.044071708373352884,-0.03987549879252911,-0.2661050515845418
1757088697917688000,5.72368798828125,0.0014986410599201916,0.030006431207060813,-0.28083412642180916
1757088697927642400,5.733642333984375,0.04556815747618675,0.06814122381210327,-0.2575160869374871
1757088697937597200,5.74359716796875,0.08290273961424827,0.052496495434641834,-0.18698022307381032
1757088697947552300,5.75355224609375,0.11131751771569251,-0.002441547933220863,-0.0935606194898486
1757088697957506300,5.76350634765625,0.14321495030112563,-0.06871288622021675,-0.030214228738844395
1757088697967461400,5.77346142578125,0.16003734415583312,-0.10424480285048485,0.039468233165889974
1757088697977415400,5.78341552734375,0.16354345258064568,-0.05019640179872512,0.07619885806143284
1757088697987371500,5.79337158203125,0.12026070262789726,0.0058031333208084105,0.1632965651474893
1757088697997325300,5.8033251953125,0.09537760578393936,0.03909691563546657,0.2303638761177659
1757088698007280400,5.8132802734375,0.07740348461084068,0.015058452922105788,0.28228870914429427
1757088698017235200,5.823235107421875,0.10452413124851882,-0.044780221968889235,0.2927567655362189
1757088698027189200,5.833189208984375,0.1292774642329663,-0.08477847035825252,0.32137086560204625
1757088698037144300,5.843144287109375,0.11902611933164298,-0.09040741615593433,0.31730215485841035
1757088698047098400,5.853098388671875,0.11054477977752684,-0.0875982039541006,0.29769159158989783
1757088698057053400,5.863053466796875,0.0887573108613491,-0.06395721612572669,0.2740764688551426
1757088698067007200,5.87300732421875,0.11975567571520805,-0.03071194912791252,0.21232728416770696
1757088698076962600,5.882962646484375,0.11164952614903449,-0.013149404430389403,0.08833557831794023
1757088698086917400,5.89291748046875,0.1033094947617501,0.01829261253774166,-0.03652852645218372
1757088698096871400,5.902871337890625,0.0690379534561187,0.0396580566495657,-0.16532149510383606
1757088698106826200,5.912826171875,0.05967025952152907,0.02354454171657562,-0.27618074765801426
1757088698116780300,5.9227802734375,0.07310381465554237,0.020605565655231476,-0.35535949831306934
1757088698126735400,5.9327353515625,0.11661211699247359,0.03302431772351265,-0.4004208753108978
1757088698136689400,5.942689453125,0.1349367321036756,0.054772039151191707,-0.40938656431585546
1757088698146644500,5.95264453125,0.16489472105912864,0.051801498907804486,-0.42288405153155323
1757088698156598300,5.962598388671875,0.20089074806980786,0.07521627676486968,-0.4108125054657459
1757088698166553300,5.97255322265625,0.19778226066045462,0.07476093421280383,-0.39246041782572866
1757088698176508400,5.98250830078125,0.19368125508241354,0.0538660302221775,-0.4094726351641118
1757088698186462500,5.99246240234375,0.15853161576800048,0.057277884492278094,-0.40375191942974925
1757088698196417300,6.002417236328125,0.12284078224897384,0.05456804101169109,-0.37714214492365716
1757088698206371300,6.012371337890625,0.12046879242062568,0.0297106631308794,-0.3201115131907165
1757088698216326400,6.022326416015625,0.12984569257497786,-0.00999766240119934,-0.28857524206787344
1757088698226280400,6.032280517578125,0.12529811227321624,-0.05464344433546066,-0.2660926304943859
1757088698236235300,6.0422353515625,0.10782200375013053,-0.05318973839581012,-0.26223610119670626
1757088698246190300,6.0521904296875,0.11553425862789153,-0.030153730723261832,-0.2556144910998642
1757088698256144400,6.062144287109375,0.11954290974736213,0.004434767577052116,-0.26190789215564725
1757088698266099500,6.072099365234375,0.11877718607187271,0.024104513686895368,-0.25684125641584393
1757088698276053500,6.082053466796875,0.11130005512423813,0.03035071460008621,-0.2267847024567425
1757088698286008300,6.09200830078125,0.11658522898554802,0.039812370428442954,-0.18918226316273212
1757088698295962400,6.10196240234375,0.12223865163736045,0.0065688569962978356,-0.18163710848018527
1757088698305917200,6.111917236328125,0.09287000687718391,-0.014930442628264427,-0.17637129690647124
1757088698315872500,6.12187255859375,0.05993687456846237,-0.03436637998223305,-0.17969459611028432
1757088698325826300,6.131826416015625,0.02783836645297706,-0.03787818749547005,-0.19203078446164726
1757088698335781400,6.141781494140625,-0.02656074773259461,-0.042996261161565776,-0.16102043690904974
1757088698345735400,6.1517353515625,-0.0379379548586905,-0.04104454257190227,-0.1324646429017186
1757088698355690200,6.161690185546875,-0.05787818847298622,-0.02195288861095905,-0.06813377115800977
1757088698365644500,6.17164453125,-0.03868943081311881,0.002376666003465652,-0.04080766507610679
1757088698375599400,6.181599365234375,-0.01349887545518577,0.010550035586953162,-0.04562675579562783
1757088698385554400,6.191554443359375,0.014634016964957117,0.01187163957953453,-0.04833513797149062
1757088698395508200,6.20150830078125,-0.021316417338326572,0.0022872341543436047,-0.08587313372716307
1757088698405463600,6.211463623046875,-0.034547581768035886,-0.014307926815748214,-0.11802724448740481
1757088698415417300,6.221417236328125,-0.0718516957025975,0.015514379996061324,-0.11156418595314026
1757088698425372400,6.231372314453125,-0.09692198568172752,0.041458968591690064,-0.11700228535383939
1757088698435326500,6.241326416015625,-0.1102514228541404,0.06395663160383701,-0.10042919008508323
1757088698445281300,6.25128125,-0.10250658088102936,0.05829378353655338,-0.07860752663835882
1757088698455236400,6.261236328125,-0.12307232598252593,0.06409516329169274,-0.04546937327682972
1757088698465190400,6.2711904296875,-0.12492526037283241,0.0762567257285118,-0.022160832273215053
1757088698475145200,6.281145263671875,-0.10577267000488937,0.056904375004768366,-0.015250906754285096
1757088698485099300,6.291099365234375,-0.07791567191667854,0.006974515187740326,0.0035679216146469114
1757088698495054300,6.301054443359375,-0.05967508182711899,-0.027450316983461377,-0.024062428110837936
1757088698505008400,6.31100830078125,-0.031506971963122486,-0.041427404409646984,-0.009486059617251158
1757088698514963500,6.32096337890625,-0.022647885137796402,-0.05259586415588855,-0.01393646315485239
1757088698524917200,6.330917236328125,-0.04922032330818474,-0.049585576424002645,-0.03943082376495004
1757088698534872300,6.340872314453125,-0.0888403129696846,-0.05335983426570892,-0.05732961467951536
1757088698544827400,6.350827392578125,-0.10720138763375579,-0.050958033820986744,-0.05004457223787904
1757088698554781400,6.360781494140625,-0.09545359362959861,-0.041301147681474686,-0.051734132760018106
1757088698564736300,6.370736328125,-0.12538579055666924,-0.001336217039823532,-0.013619798421114682
1757088698574690300,6.380690185546875,-0.1034276777813211,0.008687748846411705,0.02074628930017352
1757088698584645400,6.390645263671875,-0.06819967600107192,0.023410101681947706,0.07512041517496108
1757088698594599200,6.40059912109375,-0.057269043598696584,0.03042611792385578,0.13710333555303514
1757088698604554500,6.410554443359375,-0.05688917743563652,0.022978724527359006,0.16917429807446896
1757088698614509300,6.42050927734375,-0.07777304857559501,0.02507131289243698,0.19880035166181623
1757088698624463400,6.43046337890625,-0.08989369448013604,0.004539396995306015,0.248147881546244
1757088698634418200,6.440418212890625,-0.09874335588999092,0.0024228432327508924,0.26413703944720324
1757088698644372500,6.45037255859375,-0.0967314315456897,0.022902736681699752,0.22290523067489265
1757088698654327300,6.460327392578125,-0.13239998016767204,0.020786767441034314,0.21061514648757873
1757088698664281300,6.47028125,-0.13312486037611962,-0.0292401230096817,0.20253193940557537
1757088698674236400,6.480236328125,-0.09068038787841796,-0.08047054403126239,0.22207301763445136
1757088698684191500,6.49019140625,-0.07290748836584389,-0.09361234967708587,0.19308518888540566
1757088698694145500,6.5001455078125,-0.10064414801001548,-0.06827800193428993,0.12753449302315711
1757088698704100400,6.510100341796875,-0.13860066143870353,-0.035308044746518136,0.09661416184157133
1757088698714054400,6.520054443359375,-0.1546446182668209,-0.018945523488521576,0.0937225320532918
1757088698724009200,6.53000927734375,-0.16428331116251646,0.014724690923094749,0.08969473784193396
1757088698733963300,6.53996337890625,-0.14454291096925734,0.025732991671562195,0.03567629353702068
1757088698743918300,6.54991845703125,-0.16674999353699385,0.014970190116763114,-0.006721271079033613
1757088698753873400,6.559873291015625,-0.1666658954501152,-0.006319266149401664,-0.017732494436949492
1757088698763827200,6.5698271484375,-0.12867080357670782,-0.014178747478127479,-0.02443842181637883
1757088698773782300,6.5797822265625,-0.08189962698630988,0.04346972389221191,-0.03788885501995683
1757088698783736600,6.589736572265625,-0.06360175375156105,0.1043599536627531,-0.07105725738927722
1757088698793691400,6.59969140625,-0.06552022765874863,0.1182195521891117,-0.09945508435592054
1757088698803645400,6.6096455078125,-0.08603577694296836,0.11051613820493221,-0.11651683992445468
1757088698813600300,6.619600341796875,-0.1211608663380146,0.04136486056745052,-0.13485139190778136
1757088698823554300,6.62955419921875,-0.12400401734206824,0.017285481321811676,-0.17541954913958907
1757088698833509400,6.63950927734375,-0.10678049534056334,0.008956044393777847,-0.19370251706615088
1757088698843464400,6.64946435546875,-0.09424487542696297,0.027265023544430732,-0.208841487878561
1757088698853418200,6.659418212890625,-0.09411737658977508,0.033007951110601425,-0.19177154900357127
1757088698863373300,6.669373291015625,-0.038839214547351,0.02922492544054985,-0.15644377664327622
1757088698873327400,6.679327392578125,-0.04020231959410012,-0.005482815325260162,-0.17510478410199284
1757088698883282400,6.689282470703125,0.018714052820205686,-0.024900632500648497,-0.20967092444002627
1757088698893236500,6.699236572265625,0.23972755146436392,-0.015517887127399444,-0.21119170426651834
1757088698903191300,6.70919140625,0.3832417769730091,-0.044134909802675246,-0.1774937250651419
1757088698913146400,6.719146484375,0.315555311191082,-0.014608371067047118,-0.13772986995354294
1757088698923100400,6.729100341796875,0.371096508083865,0.153503047016263,-0.04434285346493125
1757088698933055500,6.739055419921875,0.4519721257846802,0.26843641714155675,0.033086569304764266
1757088698943009300,6.74900927734375,0.19892558547668157,0.2901905683100223,0.04383841107413172
1757088698952964400,6.75896435546875,-0.3841174638289958,0.22390637054145335,-0.09230199773088096
1757088698962918400,6.76891845703125,-0.5601157627046108,0.22048984009623526,-0.08079612272381782
1757088698972873500,6.77887353515625,-0.20564188811965287,0.3366244027048349,0.09595175241008401
1757088698982828300,6.788828369140625,0.21286299847960471,0.4915665426135063,0.2693943023882806
1757088698992781600,6.798781494140625,-0.09432079020738601,0.5875900450855494,0.41118879143223164
1757088699002736600,6.808736572265625,-0.9408919532816856,0.6330851373255253,0.48570174223333595
1757088699012690400,6.8186904296875,-1.094707719508931,0.5542980163365602,0.31629823851287364
1757088699022645500,6.8286455078125,-0.6250492765165865,0.33297990872263905,-0.45110549901798364
1757088699032599600,6.838599609375,-0.36183906959071754,0.039379824230074884,-1.2180804897427557
1757088699042554600,6.8485546875,-0.4958721308529377,-0.3770014212787151,-1.5213598183371126
1757088699052509400,6.858509521484375,-0.8783493531942367,-0.8292945226460695,-1.560701648644358
1757088699062463500,6.86846337890625,-0.796062699651718,-1.1167723248660564,-0.9673664840355515
1757088699072418600,6.87841845703125,0.5695241539757698,-1.230803193193674,0.546415154132247
1757088699082372400,6.888372314453125,1.6932956170141695,-1.106871693098545,1.7409654229447245
1757088699092327700,6.89832763671875,1.4878724131464958,-0.7937783881068229,2.3053012875624
1757088699102281500,6.908281494140625,0.5695440277200192,-0.6453074900388718,2.272666699808836
1757088699112236500,6.918236572265625,-0.027951836764812468,-0.5351163460046052,1.7792920848600566
1757088699122190600,6.928190673828125,-0.5546143157441169,-0.4612321946263313,0.965730845657736
1757088699132145400,6.9381455078125,-1.235674598622322,-0.3082002722531557,0.30308292923942204
1757088699142100500,6.9481005859375,-1.2403262238204478,-0.32659576064348217,-0.08748100731521845
1757088699152054500,6.958054443359375,-0.7045278869010507,-0.3506201948314905,-0.15815744869336484
1757088699162009600,6.968009521484375,-0.15021755907218903,-0.2934878562897444,-0.11303791176751256
1757088699171963400,6.97796337890625,0.42063605340905486,-0.05293196424245834,-0.1394739371418953
1757088699181918700,6.987918701171875,1.0684709430336952,0.2855488799840212,-0.12777516991123555
1757088699191872500,6.99787255859375,1.64230543448925,0.5223077178359031,-0.190046917168051
1757088699201827600,7.00782763671875,1.7461678138934076,0.6075602354466915,-0.24808687207400798
1757088699211782400,7.017782470703125,1.4404583355426788,0.5297638790607452,-0.38592385566383597
1757088699221736400,7.027736328125,1.105879174929857,0.25227321784794327,-0.836950151965767
1757088699231691500,7.03769140625,0.541273115068674,0.4442255302459001,-1.0252873426064848
1757088699241645600,7.0476455078125,0.09579024170543998,0.7277969726771116,-0.9484260751135647
1757088699251600400,7.057600341796875,-0.03599021832440048,0.561971035182476,-0.8278498767957091
1757088699261554400,7.067554443359375,-0.17565237151477484,0.2672697114497423,-0.6090063426017761
1757088699271509500,7.077509521484375,-0.2306325369913131,-0.0011807342171669005,-0.355550344710052
1757088699281464600,7.087464599609375,-0.2457213850516826,-0.29451719933748244,-0.13904767455384134
1757088699291418600,7.097418701171875,-0.20260120524950323,-0.4066857809245586,-0.07921922879591584
1757088699301373400,7.10737353515625,-0.1171441049773246,-0.2452531099528074,-0.14499635382518172
1757088699311327500,7.117327392578125,0.07407302501387894,0.04306581926643848,-0.2543763276070356
1757088699321282600,7.127282470703125,0.3100946711650118,0.23151333841383456,-0.3456663718163967
1757088699331236600,7.137236572265625,0.4326022394042462,0.2232809321194887,-0.37780440822467204
1757088699341191400,7.14719140625,0.3964308923592791,0.11054594882130622,-0.45017654760479925
1757088699351146500,7.157146484375,0.30546186026521027,0.06140402451157569,-0.5516752666175365
1757088699361100500,7.1671005859375,0.27573183484673497,0.09935586176514626,-0.5772647581651806
1757088699371055600,7.1770556640625,0.2759715618867427,0.15115619162917135,-0.5390544161058962
1757088699381009700,7.187009765625,0.19967267751693724,0.15601415305435656,-0.4662796872742474
1757088699390964500,7.196964599609375,0.12997194930315017,0.12566869915127754,-0.37142420566827056
1757088699400918500,7.20691845703125,0.02060797680802643,0.0789496180742979,-0.3985691099643707
1757088699410873300,7.216873291015625,-0.11970423778891563,-0.0048965398699045174,-0.4776975917369127
1757088699420828700,7.22682861328125,-0.233127130286023,0.028268647629022595,-0.5346661180190742
1757088699430782500,7.236782470703125,-0.2749672802150249,0.14520926592350006,-0.5383261018313468
1757088699440737500,7.246737548828125,-0.23815752566866574,0.24850422070324418,-0.5145817997589707
1757088699450691600,7.256691650390625,-0.19875147101879118,0.28438568142354487,-0.4494682532049715
1757088699460646700,7.266646728515625,-0.1060814071604982,0.2766664853483438,-0.32194150509685276
1757088699470600700,7.2766005859375,-0.05467044194024056,0.26204759288728235,-0.1839966772183776
1757088699480555500,7.286555419921875,-0.0279459915459156,0.21579671384394167,-0.07044920849353074
1757088699490509600,7.296509521484375,-0.04994275583121925,0.09533435116410255,0.009041530720144509
1757088699500464400,7.30646435546875,-0.16143910071253775,-0.0029021511822938917,0.026174451828747985
1757088699510419700,7.316419677734375,-0.31540567358732224,-0.07357669286429881,0.06597410890609026
1757088699520373500,7.32637353515625,-0.4508792159814387,-0.06639934858083725,0.10920973178148269
1757088699530328600,7.33632861328125,-0.4543009340584278,-0.05453647682964802,0.18888079599812627
1757088699540282400,7.346282470703125,-0.3906254940161481,-0.02024842278063297,0.3367832465283572
1757088699550237400,7.356237548828125,-0.26660503699593247,0.009732289463281632,0.44582492826655507
1757088699560191700,7.366191650390625,-0.158774740341492,0.027772973066568372,0.46534927455633873
1757088699570146600,7.376146484375,-0.13373860836029053,-0.009985971963405608,0.3772239779882133
1757088699580101400,7.386101318359375,-0.1981411571007222,-0.09474982927441597,0.22747823767885564
1757088699590055400,7.396055419921875,-0.32235213172435756,-0.17087854470908642,0.14201076214313507
1757088699600010800,7.4060107421875,-0.4194015066454187,-0.1797106704622507,0.10074585481882095
1757088699609964500,7.415964599609375,-0.45754619958996773,-0.12568448124229908,0.08036693752631545
1757088699619919600,7.425919677734375,-0.4520412454981357,-0.03131459119617939,0.07083806168064474
1757088699629873400,7.435873291015625,-0.4170786166558042,0.059172904458642005,0.08013239811807871
1757088699639828500,7.445828369140625,-0.33817513927817344,0.15691840841770172,0.029489275465160607
1757088699649783600,7.455783447265625,-0.23451493138261137,0.21466098781228063,-0.046990883755683895
1757088699659737600,7.465737548828125,-0.21528876432180402,0.2306400627106428,-0.14086305341273545
1757088699669692400,7.4756923828125,-0.2428700142085552,0.22621581652760506,-0.22805486852303147
1757088699679646500,7.485646484375,-0.2582640557605773,0.14036884015500545,-0.2643028244681656
1757088699689601500,7.4956015625,-0.23420966482572256,0.10199322453141212,-0.240056125831604
1757088699699555600,7.5055556640625,-0.181966267369315,0.04860942486822605,-0.18413871603757143
1757088699709510700,7.5155107421875,-0.053343467652797696,0.010374679020047187,-0.10086188241392373
1757088699719464400,7.52546435546875,0.06242693781852722,-0.042727965614199635,-0.046130759795010086
1757088699729419500,7.53541943359375,0.15904836965110153,-0.08176993619203567,-0.04930179104655981
1757088699739374600,7.54537451171875,0.21089188106972723,-0.13039806576073168,-0.0401414562523365
1757088699749328600,7.55532861328125,0.21108247173838315,-0.1562532225072384,-0.07042378179132938
1757088699759283500,7.565283447265625,0.19595161116719245,-0.16507658043205736,-0.08653612768054007
1757088699769237500,7.575237548828125,0.1753765137154609,-0.17229308768212795,-0.10271160193383692
1757088699779192300,7.5851923828125,0.18361827236004172,-0.16967618318200112,-0.165123926705122
1757088699789146400,7.595146484375,0.2199743648547679,-0.13178046002984045,-0.22718743803873656
1757088699799101700,7.605101806640625,0.23501747407726942,-0.115635965436697,-0.29560543296560643
1757088699809056500,7.615056396484375,0.21783727976083755,-0.11516133366227149,-0.4192398498103022
1757088699819010600,7.625010498046875,0.18682251176144926,-0.10963993989229201,-0.5003264799132943
1757088699828965400,7.63496533203125,0.10296930302195251,-0.12974281672239302,-0.5566070239312947
1757088699838919700,7.644919677734375,0.09196629950311035,-0.14172960711419583,-0.5765040029257535
1757088699848874500,7.65487451171875,0.11818791494183242,-0.124733464127779,-0.5342421935185789
1757088699858828500,7.66482861328125,0.17470657856464386,-0.024560440760850906,-0.4562457845158875
1757088699868783400,7.674783447265625,0.19111524051930753,0.09921616103351115,-0.40536651501953597
1757088699878738700,7.68473876953125,0.18285360813047735,0.19844635059237478,-0.32414588327333327
1757088699888692700,7.694692626953125,0.15878529826812446,0.21879589565992355,-0.20906579815372822
1757088699898647600,7.7046474609375,0.12386015189196914,0.20289222408533095,-0.1318786597073078
1757088699908601600,7.7146015625,0.06785246999859809,0.18002163610756397,-0.07910320120081304
1757088699918556400,7.724556396484375,0.00646715018749237,0.1719067187130451,-0.08105579657331109
1757088699928510500,7.734510498046875,-0.030796120280027386,0.17194412811398505,-0.13110460659489034
1757088699938465500,7.744465576171875,-0.06658760116193443,0.21483225272595882,-0.17440408848673103
1757088699948420600,7.754420654296875,-0.07577044004891068,0.2224310372918844,-0.2139586847618222
1757088699958374400,7.76437451171875,-0.04671389344520867,0.1979500915080309,-0.2562145028196275
1757088699968329500,7.77432958984375,-0.053773675763607025,0.13237667235732078,-0.29832082940414545
1757088699978283500,7.784283447265625,-0.051346740877628326,0.06218494575619697,-0.3217313694775104
1757088699988238800,7.79423876953125,-0.05341477932333946,0.03320785759687424,-0.32983196608573195
1757088699998193000,7.80419287109375,-0.10694883764479308,0.0014390928924083708,-0.31595351672843097
1757088700008148000,7.81414794921875,-0.12228314836621283,-0.05602466956079006,-0.28289705030098555
1757088700018102800,7.824102783203125,-0.12404372829794882,-0.09288695801198482,-0.1811560469649732
1757088700028056800,7.834056884765625,-0.10316219524554908,-0.06879588832855224,-0.06545344603285193
1757088700038012000,7.844011962890625,-0.0721088853340596,0.049501989793777464,0.005270341618359088
1757088700047966000,7.853966064453125,-0.027051782652549445,0.18270049992799758,0.028370062176883218
1757088700057921000,7.863921142578125,0.05970533083491027,0.2562806999236345,-0.008347557106614112
1757088700067874800,7.873874755859375,0.16716858427524567,0.23695874433815478,-0.09745806531980633
1757088700077830000,7.883829833984375,0.2185937241513282,0.1868774933516979,-0.21847660057768226
1757088700087784000,7.893783935546875,0.20452654728889463,0.13299743460416794,-0.39980215889066456
1757088700097739000,7.903739013671875,0.17813531090430915,0.09765198045670985,-0.5169961674243212
1757088700107693800,7.91369384765625,0.16192198885865508,0.03767711196541786,-0.5795607601478695
1757088700117648000,7.92364794921875,0.21356917398758232,-0.0184258835285902,-0.6089098964899778
1757088700127602700,7.933602783203125,0.28060207123160363,-0.05736790086328983,-0.5751484966635704
1757088700137556700,7.943556640625,0.39831308937668797,-0.05083937587738037,-0.5174915497258306
1757088700147512000,7.953511962890625,0.5615899269104003,-0.03071194912791252,-0.4742616259388625
1757088700157465900,7.9634658203125,0.7460404853761196,0.058867784032225604,-0.46670244273096323
1757088700167421000,7.9734208984375,0.9535177722293883,0.1927642133027315,-0.4957682320870459
1757088700177375700,7.983375732421875,1.1037128637414424,0.2932645689278841,-0.5501072866484522
1757088700187330000,7.993330078125,1.1729868909757584,0.3876157542735338,-0.6614763884209096
1757088700197284900,8.003284912109375,1.1917372572183609,0.49795244425833224,-0.7978395000658929
1757088700207239000,8.013239013671875,1.1678628990255295,0.6258721372067928,-0.9721354520030319
1757088700217193700,8.02319384765625,1.1000946732442825,0.7446580911070108,-1.1309620321296154
1757088700227147800,8.033147705078125,0.9481050264656543,0.7501216172099113,-1.3324815065570175
1757088700237103000,8.04310302734375,0.811115307354927,0.8607727799713611,-1.3509177653491495
1757088700247058000,8.053057861328124,0.9294750717323272,1.1784417223155499,-1.2744216779068112
1757088700257012000,8.063011962890625,1.3358265792012214,1.3789333149999379,-1.2594023879513143
1757088700266966800,8.072966796875,1.5421766886554658,1.3449363528519869,-1.1128520826824009
1757088700276920800,8.0829208984375,1.4130208780407905,1.1521499277174472,-0.8609750245451927
1757088700286876000,8.0928759765625,1.3742295212231577,0.9817799170523881,-0.31571320516653356
1757088700296830000,8.102829833984375,0.9605585575863719,0.555199349090457,0.5440572658944874
1757088700306784800,8.11278466796875,-1.3244435999214648,-0.23008768952488898,1.3776625644117593
1757088700316739800,8.12273974609375,-1.684018085581064,-0.7565104414641857,1.4441516371026635
1757088700326694000,8.13269384765625,0.40222032594829793,-0.7754501197338104,1.160031913138926
1757088700336649000,8.14264892578125,0.8832035152271389,-0.7327250767290592,1.3393246504500507
1757088700346603000,8.15260302734375,0.36210341961532827,-1.1670172419816256,0.8223653079047799
1757088700356557800,8.162557861328125,0.9396586851596832,-1.2719114486515521,-0.03883753404691815
1757088700366511900,8.172511962890624,2.316690258191526,-0.4725076218783855,-0.943964419529587
1757088700376467000,8.182467041015625,2.5048244736060497,0.5521031366407871,-1.2483204374447465
1757088700386422000,8.192422119140625,1.905875414638221,1.211660685828328,-1.5095511609911918
1757088700396375800,8.202375732421874,0.8564625155568122,1.5938900708884,-1.2420607925280929
1757088700406331000,8.212330810546876,0.32714725704640146,1.2270084770858287,-0.8350738366998731
1757088700416284700,8.22228466796875,-0.09411182363182306,0.468217231208086,-0.8338851383719593
1757088700426240000,8.232239990234374,-0.18340514106601474,-0.07859305972158909,-0.4432859113082289
1757088700436194000,8.242194091796875,-0.07731091095656156,-0.36195115166306496,-0.2862391272705048
1757088700446148900,8.25214892578125,0.22386136235594747,-0.6158575236707925,-0.05586721397675574
1757088700456103700,8.262103759765624,-0.09226941063553094,-1.9611498503535985,-0.128400535267964
1757088700466058000,8.27205810546875,-0.08760141882449388,-2.1070880150735376,-0.4353492000248283
1757088700476013000,8.282012939453125,-0.14441811554580927,-1.6389777513712644,-0.0497074492380023
1757088700485966800,8.291966796875,-0.032177053244411946,-1.563663859450817,-0.020255656239017844
1757088700495922000,8.301921875,0.10043927308768033,-1.6575877592951058,0.0035807080309838055
1757088700505875700,8.311875732421875,-0.11288052924871445,-1.5992396152228117,0.2442349458862096
1757088700515831000,8.3218310546875,-0.2775499901846051,-1.5687673200696706,0.5323661705136299
1757088700525785000,8.33178515625,-0.19735358691960572,-1.6618647059619425,0.47491629045531153
1757088700535740000,8.341739990234375,-0.10951748255640267,-1.8116601306319235,0.7476884717788547
1757088700545694700,8.35169482421875,-0.12611556613594294,-1.752693562400341,0.8549156514409929
1757088700555648800,8.361648681640625,-0.05438420887738466,-1.8502485122233627,0.8947261221732944
1757088700565604000,8.37160400390625,0.10282383013665676,-1.8278572321951387,0.9707656980197876
1757088700575558000,8.381557861328124,0.2594908941417932,-1.629644105836749,0.8847892500486224
1757088700585513000,8.391512939453126,0.4936059394866228,-1.6415034704566,0.6465938765875995
1757088700595466800,8.401466796875,0.6033206981807947,-1.7019599849849938,0.47459641085118054
1757088700605421800,8.411421875,0.5416764351725578,-1.483615924745798,0.621166809060052
1757088700615377000,8.421376953125,0.8046165929853916,-1.5632880118757486,0.11566672590114176
1757088700625331000,8.4313310546875,1.050902553117275,-1.4505916070222853,-0.08740998790562152
1757088700635285800,8.44128564453125,1.1974281623363494,-1.4924556492835281,-0.21336736780516802
1757088700645239800,8.45123974609375,1.3267682434767485,-1.5893471667617558,-0.4832590252563357
1757088700655195000,8.46119482421875,1.4662728680178523,-1.2199912918001412,-0.8337838699545711
1757088700665149000,8.47114892578125,1.6585829078122973,-0.9125187492996454,-1.4061284881785512
1757088700675104000,8.48110400390625,1.749360326324403,-0.27690964645445343,-1.4767358098432422
1757088700685058800,8.491058837890625,2.0476570442005992,-0.04744447274208068,-1.9268448451697826
1757088700695012900,8.501012939453124,2.34548760586977,0.17256898201406,-1.9987674872167407
1757088700704968000,8.510968017578126,2.419409166648984,0.26792086883485317,-2.034831464897096
1757088700714922000,8.520921875,2.4822560834452507,0.31739363253414626,-2.0390337388925253
1757088700724876800,8.530876708984374,2.4577263300836085,0.35277065086364745,-1.924895172406733
1757088700734830800,8.540830810546876,2.3212357926666733,0.16385843681395054,-1.7982981063641608
1757088700744785700,8.55078564453125,2.262399572816491,0.0184258835285902,-1.6819184829533098
1757088700754741000,8.560740966796875,2.3353315380364656,-0.07535188584327697,-1.4708192792758346
1757088700764695000,8.570695068359376,2.413830489733815,-0.1648188062787056,-1.405190622806549
1757088700774649900,8.58064990234375,2.3578882377594708,-0.32724984063804147,-1.311480804104358
1757088700784604000,8.59060400390625,2.2830337800443172,-0.5066320097982883,-1.2821174931064248
1757088700794559000,8.60055908203125,2.132277985909581,-0.6475836182773113,-1.1451494013056158
1757088700804513000,8.610512939453125,1.9164046996980904,-0.4662508995711803,-0.7378292680002748
1757088700814467800,8.6204677734375,1.622884986965358,0.03790916715562343,-0.20366985739432275
1757088700824422000,8.630421875,1.512562617766857,0.7247872694671154,0.25068901739642024
1757088700834376700,8.640376708984375,1.5784554781302809,1.1429641662210226,0.4885520170979202
1757088700844332000,8.65033203125,1.7178446595981716,1.1461071404218672,0.8047235604912042
1757088700854286000,8.6602861328125,1.563829571406543,0.9011024522721767,1.0864227793097496
1757088700864241000,8.670240966796875,1.0898185592278837,0.6360188526898622,1.536677360586822
1757088700874195000,8.68019482421875,0.6512205134749413,0.7174953588932752,1.919564917294681
1757088700884149800,8.690149658203126,0.5814078493192791,1.1925514962106942,2.091691708499193
1757088700894104800,8.700104736328125,0.8535641637668013,1.7954758885502815,2.1286872679412365
1757088700904059000,8.710058837890625,1.256225219219923,2.2993904560834166,2.0926123304754496
1757088700914014000,8.720013916015626,1.4894912465199828,2.4475445432871576,1.8097656951874495
1757088700923967700,8.7299677734375,1.3996844266057014,2.158503729534149,1.5753860075570643
1757088700933923000,8.739923095703125,1.023822823011875,1.423371007141471,1.4282935582354663
1757088700943876900,8.749876953125,0.4020926079154014,0.25034955630898476,1.5197921306289732
1757088700953832000,8.75983203125,-0.2555047471150756,-1.02002752238214,1.7783078961282968
1757088700963786000,8.769785888671874,-0.9047747110441327,-2.12261876168251,1.8846233677729962
1757088700973740800,8.77974072265625,-1.5019514996424317,-2.9402906510740516,1.6562556339085102
1757088700983696000,8.78969580078125,-2.0170257590934635,-3.388372856748104,0.9248943198133259
1757088700993649700,8.799649658203125,-2.393565408079326,-3.3384862515509126,-0.00465790880843997
1757088701003604700,8.809604736328126,-2.5108055938422678,-2.741985170257091,-0.82549352292791
1757088701013558500,8.81955859375,-2.7521494213968514,-1.8478753533512353,-1.2819764772005378
1757088701023513600,8.829513671875,-2.604551799032092,-0.7402490424931049,-1.3833778733186424
1757088701033467600,8.839467529296876,-2.0260256426289676,0.30318332087397576,-1.1572982503913343
1757088701043422700,8.849422607421875,-1.1676198840498924,1.2346212901771068,-0.7338279964696616
1757088701053377500,8.85937744140625,-0.32357728960514065,1.747434034436941,-0.3695767511706799
1757088701063331600,8.86933154296875,0.11655395706444978,1.6908394560337066,0.10568700101543217
1757088701073286700,8.87928662109375,0.22240692576393484,1.000437855771184,0.6913955066706985
1757088701083240400,8.889240478515624,0.0023301965132355687,-0.06920096199810505,1.1127737567491829
1757088701093195800,8.89919580078125,-0.5169768782019615,-1.0768185001403092,1.3510818698696792
1757088701103149600,8.909149658203125,-0.9917185427427291,-1.5917413684219122,1.4177084513351321
1757088701113104600,8.919104736328125,-1.2808112328134476,-1.6102391481429337,1.2008203620579092
1757088701123059500,8.9290595703125,-1.3429307121179996,-1.1007038181185722,1.1165792134467512
1757088701133013800,8.939013671875,-0.980967870017141,-0.3676087390333414,0.8190765685576945
1757088701142968600,8.948968505859375,-0.7575510365583003,0.2590168468892574,0.2841308298796415
1757088701152922600,8.958922607421876,-0.6986511038221418,0.5391565613061189,-0.3040765433866531
1757088701162877400,8.96887744140625,-0.3853926713965833,0.635816023594141,-0.7240995063986628
1757088701172831500,8.97883154296875,-0.09570946808680891,0.537533928540349,-1.028179191590473
1757088701182786800,8.988786865234376,-0.2784837639033794,0.2821615756332874,-1.322085930879414
1757088701192741600,8.99874169921875,-0.40450909447260197,-0.04488485138714313,-1.5777511292532085
1757088701202695700,9.00869580078125,-0.22010632067136465,-0.7007394544035196,-1.328781336864829
1757088701212650500,9.018650390625,-0.12077975806593894,-1.112449785491824,-1.3889993664622307
1757088701222604500,9.0286044921875,-0.0013267916243523358,-1.084969073370099,-1.1675257760256528
1757088701232559600,9.0385595703125,-0.048628641025349494,-0.9050070584952831,-1.1089772870756684
1757088701242513700,9.048513671875,-0.0006475771885365247,-0.6696347065657376,-1.1846573088947683
1757088701252468500,9.058468505859375,0.0342202495098114,-0.4523714273005724,-1.0912261610034852
1757088701262423600,9.068423583984375,0.05374675122406333,-0.34104046558141704,-1.0723945462182163
1757088701272377600,9.078377685546876,-0.044962629331089556,-0.4430202461093664,-1.1186357806503773
1757088701282332700,9.088332763671875,-0.06794833158850669,-0.5113508550137281,-1.0465784063078463
1757088701292286700,9.09828662109375,0.07110478632543235,-0.674798372939229,-0.9870243935771286
1757088701302241500,9.108241455078126,0.22448563173413275,-0.821855897077918,-0.8287936604518443
1757088701312195600,9.118195556640625,0.32391748134493825,-0.9003349750310182,-0.6471941075030714
1757088701322150700,9.128150634765625,0.45894905212521553,-0.9145183986842632,-0.6323848801016807
1757088701332105700,9.138105712890624,0.6368780998677015,-0.863947318354249,-0.823096617854014
1757088701342059500,9.1480595703125,0.6452665735065937,-0.6833855840206146,-1.1451363956935703
1757088701352014600,9.1580146484375,0.5374316372096538,-0.5048492180347443,-1.4862513878159225
1757088701361968600,9.16796875,0.5070709857374429,-0.29559622674584385,-1.593151235219836
1757088701371923700,9.177923828125,0.8009878810942173,-0.2968149548858404,-1.278982117690146
1757088701381877800,9.187877685546875,0.8482809626668691,-0.19465572613775728,-0.9375371629610657
1757088701391832600,9.19783251953125,0.8630359756629914,-0.04149053277373314,-0.6956282488696277
1757088701401787400,9.207787353515625,0.9209744429558515,0.2767711147665977,-0.49986967605650423
1757088701411741400,9.217741455078125,0.8482727793604135,0.6865694747537374,-0.3991650300309062
1757088701421696800,9.22769677734375,0.668031947544217,0.9278706322103738,-0.46289399035871026
1757088701431650600,9.237650634765625,0.48596455788798626,1.0494085151672363,-0.6901935104697943
1757088701441605600,9.247605712890625,0.4037562302786857,1.058785999843478,-1.0866983813807367
1757088701451559400,9.257559326171876,0.4494360314358026,1.0870540629506111,-1.6399781605854629
1757088701461514800,9.2675146484375,0.604563976240158,1.1463456253528594,-2.073266994014382
1757088701471469600,9.277469482421875,0.9346428297590463,1.4893851557970046,-2.2912524500742553
1757088701481423600,9.287423583984374,1.4198609531939028,1.9579881714522838,-2.1983796667180955
1757088701491378400,9.29737841796875,1.5951467929512262,1.9513158540815114,-2.074856601293385
1757088701501332500,9.30733251953125,1.4574164846062658,1.980098880973458,-1.91524909992218
1757088701511287800,9.317287841796874,1.6268775637328623,2.4176065011411905,-1.6774625264577567
1757088701521241600,9.32724169921875,2.103365195158124,3.05381649248898,-1.4847291466847061
1757088701531196700,9.33719677734375,2.3254320753127335,3.3467472994178533,-1.6073039714738726
1757088701541150500,9.347150390625,2.1051918260633946,3.202267516812682,-1.857928545331955
1757088701551105500,9.35710546875,1.9828988869555293,3.0882331413537263,-1.9186966100275515
1757088701561060600,9.367060546875,1.776447947475314,3.1154987494200466,-2.0419651161693033
1757088701571014700,9.3770146484375,1.3623106815010309,3.0316034916371106,-2.0569978501282633
1757088701580969500,9.386969482421875,1.1588234141319989,2.4278935018777847,-1.7568480517312883
1757088701590923500,9.396923583984375,1.0163923807501791,1.579419646987319,-1.4930997924059628
1757088701600878600,9.406878662109374,0.8668664206713438,0.8759837931066751,-1.0072082266889513
1757088701610832600,9.41683251953125,0.7418208218544721,0.5230471380263567,-0.39770927826464175
1757088701620787700,9.42678759765625,0.7177882043600082,0.5469114132165909,0.1887454791806638
1757088701630742500,9.436742431640624,0.9246633606016635,1.174185233914852,0.8932019082807003
1757088701640696600,9.446696533203125,1.2756313459575175,1.5882044264674187,1.7412148676611483
1757088701650651600,9.456651611328125,1.6263444797694682,1.6441829187989234,2.683275207135081
1757088701660605700,9.466605712890624,0.9697744219601154,1.8135002055406568,3.711124801445007
1757088701670560500,9.476560546875,-0.2755528250180185,1.972943163999915,4.936729256951809
1757088701680514600,9.4865146484375,-0.6169023565486074,2.0108926631659267,5.469995591175556
1757088701690469400,9.496469482421874,-0.5608567903302609,1.8652695557445287,5.074062090411782
1757088701700424700,9.5064248046875,-1.2604185792565346,1.5104039784282446,4.559983271738886
1757088701710378800,9.516378662109375,-1.4170996717870235,0.9083616296201944,3.763184659028053
1757088701720333600,9.52633349609375,-1.4493956752359867,0.6347001713067293,1.5552797697260974
1757088701730287600,9.53628759765625,-2.2309566790655255,1.0961176593720912,-1.1556059133902192
1757088701740242700,9.54624267578125,-1.214833178384602,1.6557693116962908,-2.829085361561179
1757088701750196700,9.55619677734375,0.1048649805754423,2.1727572958141566,-3.039330871018767
1757088701760151600,9.566151611328126,0.039785774682462215,2.916677135774493,-3.5337785220265387
1757088701770106600,9.576106689453125,0.314818521349132,2.853397380518913,-2.9669202993243933
1757088701780060400,9.586060302734374,-0.10938011991232632,2.1137258456528185,-1.9417416777893899
1757088701790015700,9.596015625,-1.036946800740063,0.9254209009706974,-1.3981504950366914
1757088701799969800,9.6059697265625,-1.1984338322475552,-0.22090017446279525,-0.3950801718700677
1757088701809924600,9.615924560546874,-1.749131193743646,-1.2541314618110655,0.48823484090752894
1757088701819878700,9.625878662109375,-2.788988328972459,-2.251804529044032,0.20897665856555103
1757088701829833500,9.63583349609375,-3.288861804421246,-2.592723998594284,0.7050747801940888
1757088701839788800,9.645788818359375,-3.4093069237053393,-2.527448101085424,0.9843109698999672
1757088701849742600,9.65574267578125,-3.314374723601341,-2.7276193757742644,1.374274675539136
1757088701859697700,9.66569775390625,-3.352394949916005,-2.9124428592056035,1.7593734785556792
1757088701869651500,9.6756513671875,-3.190797736032307,-3.180426271882653,1.7936026420243083
1757088701879606800,9.685606689453126,-3.038878158815205,-3.195765879833698,1.7456750619404018
1757088701889560600,9.695560546875,-2.7135212923169134,-3.113996528163552,1.6209591334693132
1757088701899515600,9.705515625,-2.6021432765856383,-3.006841390824318,1.1683275208625943
1757088701909470500,9.715470458984376,-2.4261855289161205,-2.8063386922240254,1.0942774383328855
1757088701919424500,9.725424560546875,-2.233072648306191,-2.897012650361657,0.9782727857142687
1757088701929379600,9.735379638671875,-2.034100520274043,-3.0073399879962204,0.9399860174179077
1757088701939333600,9.745333740234376,-1.8182436006754636,-3.141502374726534,1.0102605999968945
1757088701949288700,9.755288818359375,-1.6648270628988742,-3.253236072027683,1.1006998725958168
1757088701959242500,9.765242431640624,-1.5822265211015938,-3.1615982372939584,1.1653165755435824
1757088701969197600,9.775197509765626,-1.6373177092045545,-3.239396347245574,1.08098102664724
1757088701979152600,9.785152587890625,-1.7178434905543922,-3.193485075420141,1.0402265530630945
1757088701989106700,9.795106689453124,-1.640582263958454,-3.050704497948289,1.0217588031541556
1757088701999061800,9.805061767578126,-1.3467048238292336,-2.8410066855013367,1.0067081682123242
1757088702009015800,9.815015869140625,-0.8516969085901975,-2.5177578971982,0.8325827505365013
1757088702018970600,9.824970703125,-0.09539104978740215,-2.1021604955434796,0.8028039175402373
1757088702028924700,9.834924560546876,0.7466250072658062,-1.7061188582301139,0.8300888878941536
1757088702038879700,9.844879638671875,1.4411094929277897,-1.154388062033057,0.6214813549019396
1757088702048834800,9.854834716796875,2.271122392976284,-0.3683750472307205,0.25846768857389685
1757088702058788900,9.864788818359376,3.2143428622707724,0.5887368770331144,0.09268332519866526
1757088702068743700,9.87474365234375,4.264575553302467,1.703651006811857,-0.2192952234841883
1757088702078697700,9.88469775390625,5.055756618392468,2.8921505972832438,-0.49691696373075245
1757088702088652800,9.89465283203125,5.2834617966949935,3.985829046809673,-0.9553029020804912
1757088702098606800,9.90460693359375,4.821233869029581,4.768399227681756,-1.6880881114989519
1757088702108561700,9.914561767578125,3.960935136310756,4.72512414957881,-1.8594331046760082
1757088702118515700,9.924515625,3.276298675446212,3.602714695608616,-1.5981097344100474
1757088702128470800,9.934470703125,3.0658713796809316,2.2192811465799807,-1.1493863082230091
1757088702138425900,9.94442578125,3.228857417574525,0.7575210798114538,-0.8229192154604941
1757088702148380000,9.9543798828125,3.5208076890334485,-0.3593669803887605,-0.7593418654978275
1757088702158334700,9.964334716796875,3.681159871292114,-1.2477519899070262,-0.6221782511249184
1757088702168288800,9.974288818359375,2.81154298286885,-1.1231968049556016,0.029020050518214702
1757088702178243800,9.984243896484376,0.8983674743503332,-0.2283873153477907,0.5822323174446821
1757088702188198000,9.994197998046875,0.5913549505770206,0.10108253942728042,0.47081484648585314
1757088702198152700,10.004152587890625,1.4142150562614202,0.468901706340909,1.4538497320353985
1757088702208107800,10.014107666015626,0.9561021626994013,1.1116998439073562,2.04473589605689
1757088702218061600,10.0240615234375,-1.113664129717648,1.3104571601450443,1.9645241490922867
1757088702228017000,10.034016845703125,-2.9206004466980695,1.0504337665617465,2.589593883875012
1757088702237971000,10.043970947265626,-3.5644185749620196,0.5608318020194769,3.84334774454534
1757088702247925800,10.05392578125,-3.187401371592283,0.42613516228199,4.754616786044836
1757088702257879800,10.0638798828125,-2.34497410338968,1.5798510241419077,5.382130845239758
1757088702267834600,10.073834716796876,-1.5418822357535362,3.582613572344184,5.214577645561099
1757088702277790000,10.0837900390625,-0.48016865802556274,5.054522692683339,4.104142414762079
1757088702287743700,10.09374365234375,0.5621522369682789,4.555048737946152,2.482244100746512
1757088702297698800,10.10369873046875,0.17484131086021662,2.0886749910265205,0.8516723586708307
1757088702307652600,10.113652587890625,-1.7296648612514136,0.0012678279787302017,-0.35562819571923465
1757088702317608000,10.12360791015625,-3.8585000132307408,-1.2791717950433492,-1.0676681022182106
1757088702327561700,10.133561767578126,-5.414393530941009,-1.9797265405297277,-0.8011881529066711
1757088702337516800,10.143516845703125,-6.0611716780543325,-2.661934897464514,-0.4281891722023487
1757088702347471600,10.1534716796875,-6.501313153856993,-2.975558948332071,-0.5100636647474021
1757088702357425700,10.16342578125,-6.562102261340618,-2.3832716853410005,-0.13458251183852551
1757088702367380700,10.173380615234375,-5.84565495019555,-1.421994458091259,0.032258082591369745
1757088702377334800,10.183334716796875,-4.422615074704587,-0.31556174093186856,-0.3875692482506856
1757088702387289900,10.193289794921874,-1.9878058020889757,0.7126081713736057,-1.163026711040735
1757088702397243600,10.20324365234375,1.6426501562736928,1.774823561143875,-1.1726627005226908
1757088702407198700,10.21319873046875,4.077011538991332,2.148389747276902,-0.18903956675641237
1757088702417153800,10.22315380859375,3.678082948064804,1.4313140751004219,0.6581018704865127
1757088702427107800,10.23310791015625,1.3532757266521453,0.35549686095714567,0.7848585840702056
1757088702437062700,10.243062744140625,-0.9170058315858244,-0.577426378467679,0.5610315623752773
1757088702447016700,10.2530166015625,-2.582383806365728,-1.101774662220478,0.5659506063379347
1757088702456971800,10.2629716796875,-3.2076597312450406,-1.4431366148412226,0.38090237424001094
1757088702466925800,10.27292578125,-3.0694203043341637,-1.4971195494413374,0.15434044768847524
1757088702476881000,10.282880859375,-2.405364713075012,-1.253580257669091,-0.014868775568902492
1757088702486835700,10.292835693359375,-1.7826738362528383,-0.968844447633624,-0.3335152577083558
1757088702496789800,10.302789794921875,-0.9613549686610698,-0.8405074060559272,-0.7549778250694275
1757088702506744800,10.312744873046874,0.22465514308214185,-0.8432499827623366,-0.6504938066355884
1757088702516699000,10.322698974609375,0.5425847821891308,-1.0623013144880533,-0.9080539519105106
1757088702526653700,10.33265380859375,0.37362756093144417,-1.1422259150743483,-0.9874533595789223
1757088702536607700,10.342607666015626,0.21036234077028929,-0.9806599731117487,-0.8838151443194597
1757088702546562600,10.3525625,0.03547821368165314,-0.8061702521681785,-0.598252893397212
1757088702556518000,10.362517822265625,-0.2582558724541217,-0.6832610808581113,-0.40145898618698117
1757088702566472000,10.372471923828124,-0.41729255166742946,-0.6983534360498189,-0.2889342846386134
1757088702576426800,10.3824267578125,-0.48339843372702596,-0.7831348290175199,-0.306081088142097
1757088702586380800,10.392380859375,-0.3324211057960987,-0.8715256446540355,-0.21341493327394126
1757088702596335900,10.4023359375,0.9104723381638526,-1.1202689348101615,0.6707622492909431
1757088702606290000,10.4122900390625,1.5456512328982352,-1.3138771977216004,0.8329705077450722
1757088702616244700,10.42224462890625,1.509824717235565,-1.3307073364913462,0.5950491289198399
1757088702626199800,10.43219970703125,1.3200620238363743,-1.2202747849166393,0.03492386773452163
1757088702636153600,10.442153564453125,1.0148124180823563,-0.9456786761015653,-0.784371092814207
1757088702646109000,10.45210888671875,0.8494926765441894,-0.6337462315827608,-1.4694890535853802
1757088702656062700,10.462062744140624,1.0450994197964667,-0.19267361240983008,-1.8934850118815898
1757088702666017800,10.472017822265625,1.3140724280327558,0.2468786653280258,-1.8912384019985793
1757088702675971800,10.481971923828125,1.4282839136242866,0.4703185874015093,-1.5861745280750095
1757088702685926700,10.4919267578125,1.31594815877676,0.581566547012329,-1.3125405422903598
1757088702695881700,10.5018818359375,1.2620043871432542,0.8035469179272651,-0.9594866905711591
1757088702705835800,10.511835693359375,1.152442700118944,1.0790239012300968,-0.9049526979595423
1757088702715790800,10.521790771484374,1.1330413956869394,1.4636989258766173,-1.0590991574458777
1757088702725744600,10.53174462890625,0.905592749428749,1.6231442224234343,-1.4353737257547676
1757088702735700000,10.541699951171875,0.49324463189356027,1.4833938064277172,-2.0377615269996223
1757088702745653800,10.55165380859375,0.0525705105189234,1.1594038443684578,-2.725107685214281
1757088702755608800,10.56160888671875,-0.03366378467082977,0.9550906475692987,-3.4083868862509727
1757088702765563600,10.571563720703125,0.28368958891816437,1.1313228282660246,-3.728403853026032
1757088702775517700,10.581517578125,0.8280780595283955,1.486501124793291,-3.393065398478508
1757088702785472800,10.59147265625,1.5851011997550726,1.9628549007058143,-2.714491890914738
1757088702795426800,10.6014267578125,1.9475906960785387,2.376937221622467,-1.9958239811107514
1757088702805382000,10.6113818359375,2.1468764201045034,3.0023510936677456,-1.3171471593029795
1757088702815336700,10.621336669921876,2.6673475701630114,3.8105683414936062,-0.836341518548131
1757088702825290800,10.631290771484375,2.721310046496987,4.044603307339549,-1.147268439286202
1757088702835245800,10.641245849609374,2.264939320427179,3.503889579719305,-1.9162278818264602
1757088702845200000,10.651199951171876,2.3056202903836964,3.1965836259573694,-2.400552344357222
1757088702855154700,10.66115478515625,2.5083874267846342,3.299757000184059,-2.5231717389404773
1757088702865108700,10.671108642578124,2.504392804190516,3.0931238360047337,-1.951694185874611
1757088702875063600,10.6810634765625,2.6805589339137077,2.2901181853473185,-1.5271853096202015
1757088702885019000,10.691018798828125,2.402390811830759,1.0807120004475117,-1.249845162793994
1757088702894973000,10.700972900390624,1.597597693234682,0.3070323975175619,-1.2083267191000282
1757088702904927700,10.710927734375,0.7955763774394988,-0.09513912085294723,-1.2944339538440108
1757088702914881800,10.7208818359375,0.5881470944464207,-0.012344517788290977,-0.6059845105625689
1757088702924836900,10.7308369140625,1.0409446382045746,0.8756815952897071,0.11959288636893033
1757088702934791000,10.740791015625,1.6984090145051478,1.7517542357236147,1.071770569100976
1757088702944745700,10.750745849609375,1.2005179450452328,2.8099866933375597,1.9784299248479305
1757088702954700800,10.76070068359375,-0.6926571241043508,3.6410932338416573,2.8555729709923265
1757088702964654600,10.770654541015626,-2.2740764204762876,3.473836386761069,3.2370173431545495
1757088702974610000,10.78060986328125,-2.2306327078081667,2.7667876030802727,3.4042560700565576
1757088702984563700,10.790563720703124,-1.7881673191025853,2.3636580533325673,3.7749879095464944
1757088702994518000,10.80051806640625,-1.4862614708185196,2.3270728282570836,3.4239822225287555
1757088703004472000,10.81047216796875,-1.1701599239215255,2.4666058021098376,3.0961925759255884
1757088703014427000,10.820427001953124,-1.2650574911035597,2.764725409853458,1.8451596646517514
1757088703024382000,10.8303818359375,-1.7788836501896381,2.7880355582922696,0.057514761988073586
1757088703034336000,10.8403359375,-1.3620552454352377,2.7248534181922675,-0.5962517096426337
1757088703044291000,10.850291015625,-0.12652005528360605,2.4155367091298103,-0.6488504964079708
1757088703054245000,10.8602451171875,0.5247621252506971,1.5327350527018309,-0.21251199308484792
1757088703064200000,10.870199951171875,0.18235417070835827,0.4993295778304338,-0.19307634799182413
1757088703074155000,10.880155029296875,-1.520811682935059,-0.08899754935801028,-0.8230578932788223
1757088703084109000,10.890109130859376,-2.513931616908312,-0.3471072182744741,-0.3456467903330922
1757088703094063900,10.90006396484375,-3.3732387082412836,-0.7027899571925401,-0.25119546908121554
1757088703104018000,10.910017822265624,-3.6381671172618866,-1.4123516004770993,0.44279863924793894
1757088703113973000,10.919972900390626,-3.127827485117316,-1.9373013572543858,0.8512353554930537
1757088703123926800,10.9299267578125,-3.1218007721737027,-1.8669892191439865,1.0662789128821342
1757088703133882000,10.939882080078124,-3.812105634063482,-1.8869044644474982,1.257740446088463
1757088703143837000,10.9498369140625,-4.16400797766,-2.4759978998333216,1.5694868665158748
1757088703153791000,10.959791015625,-4.183532470080256,-3.0571909373581407,1.9037585686147211
1757088703163745800,10.969745849609374,-4.047783106419444,-3.7692858985126017,2.2825243692174553
1757088703173700000,10.9797001953125,-3.669951079535484,-4.0933746447712185,2.5322373811885712
1757088703183655000,10.989655029296875,-3.292712342369556,-4.181020194998383,2.417649755761027
1757088703193609000,10.99960888671875,-3.0438217526972293,-4.260768269973993,2.0923457884937524
1757088703203564000,11.00956396484375,-2.881756336779892,-4.29016621389389,1.6190665977209806
1757088703213519000,11.01951904296875,-2.8819126963853834,-4.310544400534034,1.3046345914714037
1757088703223473200,11.02947314453125,-2.7759973299741745,-4.2311388553857805,1.1375086772941052
1757088703233428000,11.039427978515626,-2.710154446232319,-4.32172162810862,1.0838661536294967
1757088703243382000,11.049382080078125,-2.5163065293461084,-4.4516719501018525,0.7416993874318897
1757088703253336800,11.0593369140625,-2.114330533547699,-4.2392327299922705,0.6821862912334501
1757088703263291000,11.069290771484376,-1.5640391225039958,-3.866723943957686,0.6724835201255976
1757088703273246000,11.079245849609375,-1.0453095554158092,-3.8271605798542496,0.5252664215110242
1757088703283201000,11.089200927734375,-0.4462020910158753,-3.657961366534233,0.3491214807063341
1757088703293155000,11.099155029296876,0.18661855015456674,-3.280670606920123,0.31159101066999134
1757088703303110000,11.10910986328125,0.9320698374658822,-2.6197429384231565,0.3977618121694773
1757088703313064200,11.119064208984375,1.9069357373461127,-1.596972839334607,0.36354645803049207
1757088703323019000,11.12901904296875,2.813482718759775,-0.23048457988798618,-0.08390563304647802
1757088703332973000,11.13897314453125,3.5595512611865994,1.411617440983653,-0.3262915900651365
1757088703342928000,11.148927978515625,4.54544913495183,3.334483445650339,-0.4174864302717149
1757088703352883200,11.15888330078125,5.8593047053635114,5.3009103596240275,-0.8993636457808315
1757088703362837000,11.1688369140625,6.943671721187234,6.543370088341832,-1.7778195280894635
1757088703372792000,11.1787919921875,7.573376568424702,6.572326718235016,-2.3912185526922345
1757088703382745900,11.188745849609376,7.045437566703558,5.425305970099568,-2.4893606547534466
1757088703392701000,11.198700927734375,5.310689995360375,3.4022119970083233,-1.878266107700765
1757088703402656000,11.208656005859375,3.848630068862438,1.1628531080394982,-0.8510615332961082
1757088703412610000,11.218610107421876,3.011939298485219,-0.6896510741561651,-0.21642646311484276
1757088703422564900,11.22856494140625,2.8333479874417185,-2.3212024749189615,0.10149937659986316
1757088703432519000,11.238518798828125,2.816043509158492,-2.534135031503439,0.6566814822945743
1757088703442474000,11.248473876953126,1.2564949760720132,-1.0836311027646064,0.8404868016593158
1757088703452427800,11.258427734375,-0.5650923820734024,0.57753626858294,0.24780118700042367
1757088703462383000,11.268383056640625,0.0011900865674018858,1.8096230718463657,0.8520087510183453
1757088703472338000,11.278337890625,0.4491729235202074,2.986256283435225,1.8674650199621914
1757088703482292000,11.2882919921875,-0.49398470967113967,3.7364714241474863,1.9293623809486626
1757088703492246800,11.298246826171875,-2.593426886166632,3.8454549459576604,2.1954195017382503
1757088703502201000,11.308201171875,-4.530176747018099,3.359627239257097,3.1415599501326676
1757088703512156000,11.318156005859375,-4.373769795253873,2.7076152831435203,4.70134404554069
1757088703522110000,11.32810986328125,-2.6216210072547197,2.7698399763882158,5.8195712453901765
1757088703532065000,11.33806494140625,-0.8728454950809478,3.5203649137020108,5.412689065110683
1757088703542020000,11.34802001953125,-0.1455322142675519,3.3285400270760057,3.731097622154653
1757088703551974100,11.35797412109375,-0.23971155017763374,1.4358575637489557,1.5587006840854882
1757088703561929000,11.367928955078124,-0.3068646397352218,-0.6318395211786031,0.5068761207524687
1757088703571883000,11.377883056640625,-1.268696578258276,-1.7186890014678238,-0.1924374655663967
1757088703581837800,11.387837890625,-3.1798554862573742,-2.0963252135187385,-1.1321630054172127
1757088703591791900,11.3977919921875,-5.409592268139123,-2.5059680906832216,-1.4128756243512033
1757088703601747000,11.407746826171875,-6.89194211847186,-3.017997575610876,-1.4188294181890786
1757088703611702000,11.417701904296875,-7.321760937702655,-2.8023294565826653,-1.142572317359224
1757088703621656000,11.427656005859374,-7.169941898250579,-1.7343313917577265,-0.5530906133081763
1757088703631611000,11.43761083984375,-6.478585773742198,-0.42433074320852754,-0.2691841667689383
1757088703641565200,11.447565185546875,-5.249878091523051,1.1030734698593616,-0.7084931372702121
1757088703651520000,11.45752001953125,-2.935135168007016,2.477531100749969,-1.5202265765234828
1757088703661474800,11.467474853515625,0.8901862137213349,3.710568921127915,-2.1371543597742915
1757088703671428900,11.477428955078125,3.913591785855591,4.093229098820686,-1.2268389657378196
1757088703681384200,11.48738427734375,3.8096436278641224,2.976728576633334,0.4561052070014178
1757088703691338000,11.497337890625,1.0025929879784583,1.2379542339920997,1.1980072773985564
1757088703701293000,11.50729296875,-0.9104784756436943,0.14223346498310566,1.5252766995199023
1757088703711246800,11.517246826171874,-1.8628046269357204,-0.4969336226046085,1.4826128851830958
1757088703721202000,11.527201904296875,-2.4954051956146954,-1.2194500245302915,1.391790166224539
1757088703731157000,11.537156982421875,-2.8877579152822492,-1.9650562101423739,1.2097599667735397
1757088703741111000,11.547111083984374,-2.980952624069154,-2.4103975926756855,0.9648470485605299
1757088703751065900,11.55706591796875,-2.6689327935278415,-2.219737073653936,1.0444663095247
1757088703761020000,11.56702001953125,-1.9169057810880243,-1.9368752407968044,0.8120084568023681
1757088703770975000,11.57697509765625,-1.4322506252981722,-1.6436504193574188,0.1459122996263206
1757088703780929000,11.586928955078125,-0.9847428585112095,-1.298221363428235,-0.4099110265813768
1757088703790884000,11.596884033203125,-0.5102326646387577,-0.8749147025704384,-0.727204486676678
1757088703800839000,11.6068388671875,-0.3971500369466841,-0.6538397560626268,-1.0096356730315834
1757088703810793000,11.61679296875,-0.49698520666137336,-0.45577918991744515,-1.2907231166273354
1757088703820748000,11.626748046875,-0.5123837782580405,-0.22750059564113614,-1.4549895497202872
1757088703830702000,11.6367021484375,-0.4247043257612735,-0.07148118188977241,-1.4591194891318677
1757088703840657000,11.646656982421876,-0.2805914037071168,-0.11892682367563247,-1.3440375043161212
1757088703850611000,11.65661083984375,-0.17172551692724228,-0.3113847475081682,-1.2259437704637646
1757088703860566000,11.66656591796875,-0.003146846658363938,-0.46261809602677817,-0.9545124823551624
1757088703870521000,11.67652099609375,0.08435242696590721,-0.7428285375922918,-0.7634102839805186
1757088703880475100,11.68647509765625,0.24139585000276564,-0.8694166896760464,-0.7027234678275883
1757088703890430000,11.696429931640624,0.36940972404070194,-0.9810060100704431,-0.5938846151851117
1757088703900384000,11.706384033203125,0.4021860948851332,-1.0939835699528455,-0.5777950656495988
1757088703910338800,11.7163388671875,0.41206451482083645,-1.1402975773602724,-0.6629492374524474
1757088703920293000,11.726293212890624,0.45554479663968084,-1.0796037469446658,-0.7298188338935375
1757088703930248000,11.736248046875,0.744801298969984,-0.8262725444763899,-0.5973183890260756
1757088703940203000,11.746203125,1.2545792055785656,-0.5989496434897184,-0.32602190627828237
1757088703950156800,11.75615673828125,1.4139245488822458,-0.4182423632055521,-0.19426658068969846
1757088703960112000,11.766112060546876,1.0504431189119816,-0.14782324781417847,-0.13522650883048773
1757088703970066200,11.776066162109375,0.42753333864212034,0.057435120880603784,-0.2661160113699734
1757088703980021000,11.78602099609375,-0.14587503635585308,0.27495442073345183,-0.48032750184908507
1757088703989975000,11.79597509765625,-0.3366039444386959,0.5816945573061705,-0.7159969370290636
1757088703999930000,11.80593017578125,-0.26279638369427993,0.7442582781344652,-1.0495298034593463
1757088704009885200,11.81588525390625,-0.21928689404726026,0.7768997340202332,-1.2558192687675356
1757088704019839000,11.8258388671875,-0.18506956714689732,0.697180300617218,-1.491662599209696
1757088704029794300,11.835794189453125,-0.1468371593862772,0.8336918808221817,-1.7954967852078376
1757088704039748000,11.845748046875,-0.130652899038326,0.9604723406076431,-1.9503953782357275
1757088704049703200,11.855703125,0.031972160055767744,1.1494511901527642,-2.0378606034599245
1757088704059658000,11.865657958984375,0.5090075067579746,1.393873694500327,-1.8539831687070427
1757088704069612000,11.875612060546874,1.1656664118945599,1.5020616820186377,-1.465059108313918
1757088704079567000,11.885567138671876,1.5645651922047137,1.5569810206860304,-1.05565369316712
1757088704089521200,11.895521240234375,1.8701006291627882,1.8513497514635324,-0.7103501633137465
1757088704099476200,11.905476318359375,2.1572709728688,2.402311901375651,-0.6480540122680366
1757088704109430000,11.915429931640626,2.0283049857378006,2.615935947355628,-1.0323856303043664
1757088704119385000,11.925385009765625,1.6757827566772698,2.4778292069137096,-1.4987465661212802
1757088704129340200,11.935340087890625,1.6098013412475585,2.368030277067423,-1.8800617589458821
1757088704139294200,11.945294189453126,1.6002806487083434,2.379407995650172,-2.118192908064276
1757088704149249000,11.9552490234375,1.4793793100893498,2.473326634797454,-2.251932393207401
1757088704159203000,11.965203125,1.1785884373098612,2.5259347739130256,-2.1989706183485684
1757088704169158100,11.975158203125,0.7784592384219169,2.376736146092415,-1.9675722846165298
1757088704179112200,11.9851123046875,0.4176362140059471,1.9039508763164281,-1.7414388856753706
1757088704189067000,11.99506689453125,0.045010505327116694,1.341782272735238,-1.467305572066456
1757088704199022000,12.00502197265625,-0.13926705292556435,1.1877286060988903,-1.0444915170311928
1757088704208976100,12.01497607421875,-0.16798928954098372,0.8418383623987435,-0.2797859325431287
1757088704218931200,12.02493115234375,0.04394545164518058,0.5141852016568184,0.8177952235102653
1757088704228885200,12.03488525390625,0.8616353881500661,0.5602613086551428,1.8966086968600748
1757088704238840000,12.044840087890625,1.5868705475151539,0.646800943467021,2.9172604886204003
1757088704248795100,12.054795166015625,1.4378652503095566,1.0574351697564124,3.6947698789715764
1757088704258749000,12.0647490234375,0.6346935954354703,1.5462755022764205,4.8101703309625385
1757088704268704300,12.074704345703125,-0.41912221478000283,1.68063136575222,5.287065958666801
1757088704278658000,12.084657958984375,-1.0698621051311492,1.7291262243300676,4.762871988692879
1757088704288613000,12.094613037109376,-1.7719675871908664,1.8117220899522304,3.96693291542083
1757088704298567200,12.104567138671875,-1.8181382406048476,1.7935761924088,2.5401123523473736
1757088704308522200,12.114522216796875,-1.4601824421882628,1.7900076862722634,0.6870739171445369
1757088704318477000,12.12447705078125,-1.3634957996323704,1.751979276651144,-1.4552037769928574
1757088704328431000,12.13443115234375,-1.2633593088835477,1.8051432960838079,-3.589419745227694
1757088704338386200,12.14438623046875,-1.236058921764791,2.035512725159526,-5.081616451314091
1757088704348340000,12.154340087890626,-0.8406322014793753,2.4789035581469534,-5.049546657836437
1757088704358295300,12.16429541015625,-0.005886135429143905,2.6214310376405714,-3.74506214236021
1757088704368249000,12.1742490234375,0.04466214854717254,1.871374886882305,-2.8227602501928803
1757088704378204200,12.1842041015625,-0.891070010818541,0.9656576342910528,-2.0089891676321625
1757088704388159000,12.194158935546875,-1.9275149995163081,-0.0452174443423748,-1.2752617819927632
1757088704398113000,12.204113037109375,-2.893682336895168,-0.9248048148989677,-0.8290983424868434
1757088704408068000,12.214068115234374,-3.3937598104834557,-1.5857780761033295,-0.3095632311694324
1757088704418022100,12.224022216796875,-3.496835569554567,-1.986276108303666,0.08624240543097257
1757088704427977000,12.23397705078125,-3.4194594844073056,-2.0547189454108477,0.37320202899575233
1757088704437931000,12.243930908203126,-3.4449914005488154,-1.874713091394305,0.5833655592583119
1757088704447886000,12.253885986328125,-3.3263787573888894,-1.7355939590394496,0.7799151363186537
1757088704457841200,12.263841064453125,-3.4026299301594496,-1.7132383348464966,0.849766305853799
1757088704467795200,12.273795166015624,-3.4825548230066894,-1.808050707963109,0.7903942255612463
1757088704477750000,12.28375,-3.340414297004044,-2.0537369486361743,0.6360811773363501
1757088704487704000,12.2937041015625,-3.167435857406258,-2.3665923532187936,0.482482122599706
1757088704497659100,12.3036591796875,-3.1180797058239578,-2.63788299074769,0.3497224422741681
1757088704507613200,12.31361328125,-3.0975112573087213,-2.8542677336126565,0.27288703987486657
1757088704517568000,12.323568115234375,-3.0315912166774273,-2.838971964803338,0.24275303676538168
1757088704527523000,12.333523193359374,-2.862569698011875,-2.6036370222747323,0.16361220696792006
1757088704537477000,12.34347705078125,-2.704656433337927,-2.419481647363305,0.14049699657931922
1757088704547432200,12.35343212890625,-2.548970197063684,-2.3068016091227532,0.12694259154461324
1757088704557386200,12.36338623046875,-2.357211361411214,-2.1218203047811985,-0.1484486862361431
1757088704567341000,12.373341064453125,-1.9128177811220286,-1.941482442331314,-0.4392786484282464
1757088704577295000,12.383295166015625,-1.3120920678704977,-1.7903735969752073,-0.5502453068796544
