time,seconds_elapsed,z,y,x
1757088692208744000,0.014743896484375,-0.18817630410194397,0.4358076751232147,0.14903607964515686
1757088692218698000,0.024697998046875,-0.15117087960243225,0.34367507696151733,0.10616185516119003
1757088692228653300,0.0346533203125,-0.1289111077785492,0.27123790979385376,0.06828025728464127
1757088692238607000,0.044607177734375,-0.1243768110871315,0.25509142875671387,0.04772065207362175
1757088692248562200,0.054562255859375,-0.11767549812793732,0.26300498843193054,0.032405342906713486
1757088692258516000,0.064515869140625,-0.11735112965106964,0.265022337436676,0.026155438274145126
1757088692268471000,0.074470947265625,-0.12579627335071564,0.27297481894493103,0.022009428590536118
1757088692278425300,0.08442529296875,-0.13982953131198883,0.2635466754436493,0.023931698873639107
1757088692288380200,0.094380126953125,-0.14745576679706573,0.24639539420604706,0.04692623019218445
1757088692298335000,0.1043349609375,-0.15200231969356537,0.22405892610549927,0.08525444567203522
1757088692308289000,0.1142890625,-0.15384629368782043,0.20673507452011108,0.11055020987987518
1757088692318244000,0.124244140625,-0.14842462539672852,0.19049803912639618,0.11485254764556885
1757088692328198100,0.1341982421875,-0.12732918560504913,0.19396361708641052,0.10705667734146118
1757088692338153200,0.1441533203125,-0.0955294519662857,0.21082648634910583,0.0909687876701355
1757088692348107000,0.15410693359375,-0.06082340329885483,0.24776798486709595,0.08331512659788132
1757088692358062000,0.16406201171875,-0.022879749536514282,0.27821245789527893,0.09683706611394882
1757088692368017200,0.17401708984375,0.0029313412960618734,0.30397799611091614,0.132976695895195
1757088692377971200,0.18397119140625,0.011475561186671257,0.36408233642578125,0.18964742124080658
1757088692387926000,0.193926025390625,0.009194031357765198,0.4326925575733185,0.24939864873886108
1757088692397880000,0.203880126953125,-0.0026282735634595156,0.4837285876274109,0.3163459897041321
1757088692407835000,0.2138349609375,-0.01255014631897211,0.5057036876678467,0.3693745732307434
1757088692417789200,0.2237890625,-0.015220764093101025,0.4859517812728882,0.4054524302482605
1757088692427744300,0.233744140625,-0.01558162271976471,0.4201570749282837,0.4293745458126068
1757088692437698000,0.243697998046875,-0.013028183951973915,0.33302775025367737,0.4430253803730011
1757088692447653000,0.253653076171875,-0.010921623557806015,0.2331528216600418,0.43096232414245605
1757088692457608200,0.263608154296875,-0.0005163869354873896,0.14371216297149658,0.38575515151023865
1757088692467562200,0.273562255859375,0.023600134998559952,0.11480807512998581,0.324795126914978
1757088692477517000,0.28351708984375,0.04776805639266968,0.11798495799303055,0.24905136227607727
1757088692487471000,0.29347119140625,0.06487274169921875,0.12054985016584396,0.1640792191028595
1757088692497426000,0.303426025390625,0.07260283082723618,0.11630157381296158,0.08261711895465851
1757088692507380000,0.3133798828125,0.06542801111936569,0.10727425664663315,0.010323477908968925
1757088692517335300,0.323335205078125,0.05137184262275696,0.07945194840431213,-0.04145769402384758
1757088692527290000,0.3332900390625,0.039386287331581116,0.02929850108921528,-0.057496581226587296
1757088692537244200,0.343244140625,0.03179095312952995,-0.02395007386803627,-0.047320377081632614
1757088692547199000,0.353198974609375,0.02677915059030056,-0.047202400863170624,-0.014301441609859467
1757088692557153300,0.3631533203125,0.04415547847747803,-0.03947816789150238,0.009663812816143036
1757088692567108000,0.373108154296875,0.10659968107938766,-0.02767370641231537,0.007656854577362537
1757088692577062100,0.383062255859375,0.21468566358089447,0.026805780827999115,-0.028419123962521553
1757088692587017000,0.393016845703125,0.3664195239543915,0.031126759946346283,-0.10973901301622391
1757088692596971000,0.402970947265625,0.6845051050186157,-0.08445922285318375,-0.2524149417877197
1757088692606926000,0.412926025390625,1.093185305595398,-0.22642488777637482,-0.554638683795929
1757088692616881200,0.422881103515625,1.3401806354522705,-0.46799436211586,-0.8682363033294678
1757088692626835200,0.432835205078125,1.4508041143417358,-0.7874956727027893,-1.12029230594635
1757088692636790000,0.4427900390625,1.4590178728103638,-1.0496807098388672,-1.291640043258667
1757088692646744000,0.452744140625,1.3456292152404785,-1.1544331312179565,-1.3556816577911377
1757088692656699100,0.46269921875,1.083023190498352,-1.131230115890503,-1.2800235748291016
1757088692666653200,0.472653076171875,0.7078858017921448,-1.0466140508651733,-1.0441780090332031
1757088692676608000,0.48260791015625,0.31489670276641846,-0.9710420370101929,-0.6683338284492493
1757088692686563000,0.49256298828125,0.028787706047296524,-0.932539165019989,-0.1716841459274292
1757088692696516900,0.502516845703125,0.05548323318362236,-1.0808124542236328,0.4291103482246399
1757088692706472200,0.51247216796875,0.18146567046642303,-1.221328854560852,0.9765201807022095
1757088692716426200,0.52242626953125,0.24646596610546112,-1.2797091007232666,1.3766207695007324
1757088692726381000,0.532381103515625,0.3118811845779419,-1.2312294244766235,1.623395562171936
1757088692736335000,0.542335205078125,0.40481993556022644,-1.0642579793930054,1.742493987083435
1757088692746290200,0.552290283203125,0.4843142032623291,-0.8499166965484619,1.727484941482544
1757088692756245200,0.562245361328125,0.46942609548568726,-0.6823234558105469,1.5457264184951782
1757088692766199000,0.572198974609375,0.382289320230484,-0.5294723510742188,1.2142539024353027
1757088692776154000,0.582154052734375,0.3347359001636505,-0.3606356978416443,0.7997028231620789
1757088692786108000,0.59210791015625,0.373772531747818,-0.22890987992286682,0.36509913206100464
1757088692796063200,0.602063232421875,0.45993855595588684,-0.07807429879903793,-0.023331422358751297
1757088692806017300,0.612017333984375,0.5352985858917236,0.04800161346793175,-0.3252185583114624
1757088692815972000,0.62197216796875,0.5721514225006104,0.12645088136196136,-0.5327669978141785
1757088692825927000,0.631927001953125,0.5943664312362671,0.1811777800321579,-0.6488861441612244
1757088692835881000,0.641880859375,0.5970886945724487,0.13243260979652405,-0.6654680371284485
1757088692845836300,0.651836181640625,0.5642333030700684,-0.0010436928132548928,-0.5890627503395081
1757088692855790000,0.6617900390625,0.49450454115867615,-0.12509186565876007,-0.4390418231487274
1757088692865745200,0.6717451171875,0.3829130232334137,-0.1652829647064209,-0.2645837068557739
1757088692875699000,0.681698974609375,0.25906485319137573,-0.13421505689620972,-0.11895248293876648
1757088692885654300,0.691654296875,0.170728862285614,-0.0641811192035675,-0.028319256380200386
1757088692895609000,0.701609130859375,0.1497972160577774,0.05091724172234535,0.005631786771118641
1757088692905563100,0.711563232421875,0.17751912772655487,0.14563070237636566,-0.0052056810818612576
1757088692915518000,0.72151806640625,0.2252887785434723,0.20091606676578522,-0.04315199702978134
1757088692925472000,0.731471923828125,0.24671204388141632,0.17798277735710144,-0.10109678655862808
1757088692935427000,0.741427001953125,0.2229265570640564,0.0967760756611824,-0.1710311323404312
1757088692945381000,0.751381103515625,0.14234329760074615,0.001056476030498743,-0.2575843930244446
1757088692955336200,0.761336181640625,0.015213574282824993,-0.045340050011873245,-0.34669002890586853
1757088692965291000,0.771291015625,-0.12403539568185806,0.04054742678999901,-0.38449788093566895
1757088692975245000,0.7812451171875,-0.25562989711761475,0.17379416525363922,-0.3743472397327423
1757088692985199900,0.791199951171875,-0.42360877990722656,0.29210641980171204,-0.3287150263786316
1757088692995154000,0.80115380859375,-0.6429139971733093,0.37690865993499756,-0.30747100710868835
1757088693005108700,0.811108642578125,-0.9335460662841797,0.34030139446258545,-0.35582229495048523
1757088693015062800,0.821062744140625,-1.2932184934616089,0.31770554184913635,-0.43311813473701477
1757088693025017900,0.831017822265625,-1.684887409210205,0.3959212303161621,-0.4361698627471924
1757088693034973000,0.840972900390625,-2.044025182723999,0.48042067885398865,-0.30067142844200134
1757088693044927000,0.850927001953125,-2.339240550994873,0.44655218720436096,-0.09782962501049042
1757088693054881800,0.8608818359375,-2.542043924331665,0.3856648802757263,0.10884232819080353
1757088693064835800,0.8708359375,-2.4386799335479736,0.47929975390434265,0.17945630848407745
1757088693074791000,0.880791015625,-2.1931943893432617,0.44332924485206604,0.27307015657424927
1757088693084745000,0.890744873046875,-1.754384994506836,0.3125363290309906,0.35078945755958557
1757088693094699800,0.90069970703125,-1.1616415977478027,0.051964398473501205,0.37657231092453003
1757088693104654800,0.91065478515625,-0.46981170773506165,-0.2277362197637558,0.3182852864265442
1757088693114609000,0.92060888671875,0.18941199779510498,-0.2741132974624634,0.12478268146514893
1757088693124564000,0.93056396484375,0.7476486563682556,-0.17218028008937836,-0.18308806419372559
1757088693134518000,0.94051806640625,1.1169183254241943,-0.03523814678192139,-0.5400701761245728
1757088693144472800,0.950472900390625,1.2389909029006958,0.0583176352083683,-0.8803273439407349
1757088693154427000,0.960427001953125,1.2231736183166504,-0.01601145789027214,-1.1667330265045166
1757088693164382000,0.9703818359375,1.1790539026260376,-0.16884787380695343,-1.3688753843307495
1757088693174337000,0.9803369140625,1.1482218503952026,-0.3243069648742676,-1.4706753492355347
1757088693184290800,0.990290771484375,1.3976162672042847,-0.6518174409866333,-1.4085088968276978
1757088693194246000,1.000245849609375,1.5637325048446655,-0.8125690817832947,-1.2573329210281372
1757088693204199700,1.01019970703125,1.528214454650879,-0.7316765785217285,-1.0540703535079956
1757088693214155000,1.020155029296875,1.300532341003418,-0.5840368270874023,-0.8690762519836426
1757088693224109000,1.030109130859375,0.9896032214164734,-0.49439799785614014,-0.7198801636695862
1757088693234064000,1.04006396484375,0.7367813587188721,-0.47597959637641907,-0.5772151350975037
1757088693244018700,1.050018798828125,0.624263346195221,-0.5211949944496155,-0.4226476550102234
1757088693253973000,1.059972900390625,0.6282921433448792,-0.6507958769798279,-0.24143259227275848
1757088693263928000,1.069927978515625,0.6923813819885254,-0.8217750787734985,-0.07617785781621933
1757088693273881900,1.0798818359375,0.7878336310386658,-0.7634875178337097,-0.004299673717468977
1757088693283837000,1.0898369140625,0.8710118532180786,-0.5855766534805298,-0.09796438366174698
1757088693293790700,1.099790771484375,0.9165140986442566,-0.5003054141998291,-0.2903370261192322
1757088693303746000,1.10974609375,0.9389445781707764,-0.37788230180740356,-0.46617355942726135
1757088693313700900,1.119700927734375,0.9898388981819153,-0.1850856989622116,-0.6179007887840271
1757088693323655000,1.129655029296875,1.0415114164352417,-0.02796904928982258,-0.7445273995399475
1757088693333609700,1.139609619140625,1.0700002908706665,0.025241972878575325,-0.8435810208320618
1757088693343563800,1.149563720703125,1.0534600019454956,0.04930336773395538,-0.9101483225822449
1757088693353518800,1.159518798828125,1.0110456943511963,0.05158516392111778,-0.9390169978141785
1757088693363473000,1.169472900390625,0.9599300026893616,0.0020479708909988403,-0.931289553642273
1757088693373428000,1.179427978515625,0.9213829040527344,-0.0837942361831665,-0.8703300952911377
1757088693383382800,1.1893828125,0.9036960601806641,-0.15292483568191528,-0.732078492641449
1757088693393337000,1.199337158203125,0.9336504936218262,-0.22253134846687317,-0.5530224442481995
1757088693403292000,1.2092919921875,1.0114954710006714,-0.2682924270629883,-0.38227465748786926
1757088693413246000,1.219245849609375,1.0842623710632324,-0.2521315813064575,-0.23480159044265747
1757088693423200800,1.22920068359375,1.1278399229049683,-0.19000349938869476,-0.09863656014204025
1757088693433154800,1.23915478515625,1.1410411596298218,-0.12488867342472076,0.015807459130883217
1757088693443110000,1.24910986328125,1.0944081544876099,-0.0884728729724884,0.07886871695518494
1757088693453065000,1.25906494140625,1.0074541568756104,-0.05017795041203499,0.08611597865819931
1757088693463019000,1.26901904296875,0.9318669438362122,-0.012953349389135838,0.041067276149988174
1757088693472973800,1.278973876953125,0.9064148664474487,-0.007355384528636932,-0.05080645531415939
1757088693482927900,1.288927978515625,0.8940037488937378,-0.06201916188001633,-0.18119321763515472
1757088693492883000,1.298883056640625,0.8888654112815857,-0.16957971453666687,-0.32440125942230225
1757088693502837000,1.3088369140625,0.9166550040245056,-0.2793802320957184,-0.4380822777748108
1757088693512791800,1.318791748046875,0.9807934761047363,-0.39284369349479675,-0.4925127625465393
1757088693522747000,1.328746826171875,1.0501688718795776,-0.4858740270137787,-0.4946206510066986
1757088693532701000,1.338700927734375,1.1035380363464355,-0.570770263671875,-0.4550439417362213
1757088693542656000,1.348656005859375,1.182990550994873,-0.6558851599693298,-0.37275147438049316
1757088693552610000,1.358610107421875,1.2798746824264526,-0.6815106272697449,-0.2955874502658844
1757088693562564900,1.36856494140625,1.393477201461792,-0.6575208902359009,-0.252766489982605
1757088693572519000,1.378518798828125,1.4974877834320068,-0.6271206140518188,-0.2411726713180542
1757088693582474000,1.388473876953125,1.5810643434524536,-0.6332587003707886,-0.24453145265579224
1757088693592428800,1.3984287109375,1.6354703903198242,-0.6135483980178833,-0.2194948047399521
1757088693602382800,1.4083828125,1.6612823009490967,-0.6136194467544556,-0.12087821960449219
1757088693612338000,1.418337890625,1.6256561279296875,-0.6509527564048767,0.06124498322606087
1757088693622291700,1.428291748046875,1.4830763339996338,-0.7485815286636353,0.32722926139831543
1757088693632247000,1.4382470703125,1.2717797756195068,-0.9269425272941589,0.630915105342865
1757088693642200800,1.448200927734375,1.1061210632324219,-1.1734976768493652,0.9025213122367859
1757088693652156000,1.458156005859375,1.0919804573059082,-1.4323441982269287,1.072563886642456
1757088693662110700,1.46811083984375,1.219307780265808,-1.679506778717041,1.141608715057373
1757088693672064800,1.478064697265625,1.405421495437622,-1.8995376825332642,1.1492919921875
1757088693682019800,1.488019775390625,1.5519195795059204,-2.033635139465332,1.1106945276260376
1757088693691974000,1.497973876953125,1.6295619010925293,-2.014373779296875,1.0400184392929077
1757088693701929000,1.507928955078125,1.6525590419769287,-1.9801793098449707,0.9925199151039124
1757088693711882800,1.5178828125,1.6836574077606201,-2.043511152267456,0.9916040301322937
1757088693721838000,1.527838134765625,1.788508653640747,-2.1770288944244385,1.0286874771118164
1757088693731792000,1.5377919921875,2.10036301612854,-2.280294895172119,1.0580384731292725
1757088693741747000,1.547746826171875,2.6616735458374023,-2.373418092727661,1.0821655988693237
1757088693751701800,1.55770166015625,2.9973790645599365,-2.4029650688171387,1.1692429780960083
1757088693761655800,1.56765576171875,3.076916217803955,-2.374922513961792,1.2929998636245728
1757088693771611000,1.57761083984375,2.949469804763794,-2.2977802753448486,1.3348677158355713
1757088693781565000,1.58756494140625,2.8360254764556885,-2.268812656402588,1.3056278228759766
1757088693791520000,1.59752001953125,2.8351187705993652,-2.2921345233917236,1.3059289455413818
1757088693801473800,1.607473876953125,2.87335205078125,-2.376328229904175,1.3402043581008911
1757088693811428900,1.617428955078125,2.9093875885009766,-2.5570671558380127,1.3758039474487305
1757088693821384000,1.627384033203125,2.9327452182769775,-2.7799601554870605,1.3846865892410278
1757088693831338000,1.637337890625,2.922032356262207,-2.949981689453125,1.3457131385803223
1757088693841292800,1.647292724609375,2.860097885131836,-3.002826452255249,1.2578977346420288
1757088693851246800,1.657246826171875,2.7890775203704834,-2.917527914047241,1.155442476272583
1757088693861202000,1.667201904296875,2.7124838829040527,-2.74786376953125,1.0568538904190063
1757088693871156000,1.677156005859375,2.643941879272461,-2.606518030166626,0.9672057628631592
1757088693881110800,1.68711083984375,2.612360715866089,-2.495971441268921,0.8947941660881042
1757088693891065900,1.69706591796875,2.632183790206909,-2.3816475868225098,0.8266749978065491
1757088693901020000,1.70702001953125,2.7086925506591797,-2.285853385925293,0.745973527431488
1757088693910975000,1.71697509765625,2.813474416732788,-2.2307491302490234,0.6604911088943481
1757088693920929000,1.726928955078125,2.8839235305786133,-2.2217514514923096,0.5869372487068176
1757088693930883800,1.7368837890625,2.8545753955841064,-2.2124476432800293,0.5448926091194153
1757088693940838000,1.746837890625,2.691227436065674,-2.1065878868103027,0.5081217885017395
1757088693950792700,1.756792724609375,2.4623448848724365,-1.9584226608276367,0.44731730222702026
1757088693960748000,1.766748046875,2.25276517868042,-1.8610862493515015,0.3879525363445282
1757088693970701800,1.776701904296875,2.0918352603912354,-1.7613470554351807,0.3410302996635437
1757088693980657000,1.786656982421875,1.9572257995605469,-1.648413062095642,0.28364238142967224
1757088693990610700,1.796610595703125,1.8014332056045532,-1.4435038566589355,0.20216907560825348
1757088694000565500,1.8065654296875,1.6094417572021484,-1.1374973058700562,0.11377130448818207
1757088694010519600,1.81651953125,1.3980629444122314,-0.8237247467041016,0.023515446111559868
1757088694020474600,1.826474609375,1.1748076677322388,-0.6079826354980469,-0.060807425528764725
1757088694030429700,1.8364296875,0.9446647763252258,-0.48138898611068726,-0.11390739679336548
1757088694040383500,1.846383544921875,0.7369890809059143,-0.43165260553359985,-0.11108284443616867
1757088694050338600,1.856338623046875,0.5798399448394775,-0.46374157071113586,-0.0789608582854271
1757088694060292600,1.866292724609375,0.47385624051094055,-0.5652399659156799,-0.03371641784906387
1757088694070247700,1.87624755859375,0.4184845983982086,-0.6952546834945679,-0.004792091902345419
1757088694080201700,1.88620166015625,0.39835217595100403,-0.8621960282325745,-0.002005093963816762
1757088694090156500,1.896156494140625,0.3765491247177124,-0.9646422266960144,-0.006648581475019455
1757088694100111600,1.906111572265625,0.342426061630249,-0.9493064284324646,-0.03690049424767494
1757088694110065700,1.916065673828125,0.31451159715652466,-0.8414739370346069,-0.12366495281457901
1757088694120020700,1.926020751953125,0.3184584081172943,-0.6404164433479309,-0.20591667294502258
1757088694129974500,1.935974609375,0.34021297097206116,-0.4569763243198395,-0.2999795377254486
1757088694139929600,1.9459296875,0.3257402777671814,-0.38470345735549927,-0.38624411821365356
1757088694149883400,1.95588330078125,0.2600131928920746,-0.42154884338378906,-0.42074695229530334
1757088694159838700,1.965838623046875,0.21244008839130402,-0.5326463580131531,-0.4077850878238678
1757088694169793500,1.97579345703125,0.2403593361377716,-0.7085356116294861,-0.38713040947914124
1757088694179747600,1.98574755859375,0.336150586605072,-0.921786367893219,-0.3804887533187866
1757088694189702400,1.995702392578125,0.4638073444366455,-1.1316962242126465,-0.33352258801460266
1757088694199656700,2.00565673828125,0.5758209824562073,-1.2537590265274048,-0.20863524079322815
1757088694209611800,2.01561181640625,0.6774370670318604,-1.2774009704589844,-0.027473703026771545
1757088694219565600,2.025565673828125,0.758159339427948,-1.2802337408065796,0.1462874412536621
1757088694229520600,2.035520751953125,0.7928137183189392,-1.318314790725708,0.26563432812690735
1757088694239474400,2.045474365234375,0.8141016960144043,-1.4147957563400269,0.35268160700798035
1757088694249429800,2.0554296875,0.8024583458900452,-1.528123140335083,0.3625614047050476
1757088694259384600,2.065384521484375,0.7937636971473694,-1.4676721096038818,0.2972780168056488
1757088694269338600,2.075338623046875,0.8152684569358826,-1.3485480546951294,0.19092229008674622
1757088694279293400,2.08529345703125,0.868593692779541,-1.3638439178466797,0.018973957747220993
1757088694289247500,2.09524755859375,0.982163667678833,-1.3528077602386475,-0.13125015795230865
1757088694299202600,2.10520263671875,1.1230547428131104,-1.3154000043869019,-0.23553289473056793
1757088694309156600,2.115156494140625,1.249362587928772,-1.323225975036621,-0.28693804144859314
1757088694319111700,2.125111572265625,1.3147532939910889,-1.3685121536254883,-0.3045138120651245
1757088694329066500,2.13506640625,1.1004234552383423,-1.2286008596420288,-0.26815900206565857
1757088694339020500,2.1450205078125,0.8096007108688354,-0.9421515464782715,-0.21167762577533722
1757088694348975600,2.1549755859375,0.9730532765388489,-0.7677968144416809,-0.13302382826805115
1757088694358929700,2.1649296875,0.8465890884399414,-0.4601561427116394,-0.12672118842601776
1757088694368884500,2.174884521484375,0.6150016784667969,-0.040406011044979095,-0.2587668299674988
1757088694378838500,2.184838623046875,0.4789053499698639,0.3960250914096832,-0.3672823905944824
1757088694388793600,2.194793701171875,0.45234376192092896,0.754643440246582,-0.38851845264434814
1757088694398748700,2.204748779296875,0.45932552218437195,0.8873122930526733,-0.3781723380088806
1757088694408702700,2.21470263671875,0.4800851047039032,0.8016977906227112,-0.3245091140270233
1757088694418657500,2.224657470703125,0.5119173526763916,0.6039042472839355,-0.2365555465221405
1757088694428611600,2.234611572265625,0.6104995608329773,0.38000431656837463,-0.14074407517910004
1757088694438566700,2.244566650390625,0.7169234752655029,0.11787470430135727,-0.03177417442202568
1757088694448520700,2.254520751953125,0.8707578182220459,-0.18350298702716827,0.07905327528715134
1757088694458475500,2.2644755859375,1.0575122833251953,-0.43826258182525635,0.15812093019485474
1757088694468430600,2.2744306640625,1.212874412536621,-0.6420775055885315,0.2439173310995102
1757088694478384400,2.28438427734375,1.3374613523483276,-0.8554595112800598,0.4323793649673462
1757088694488339700,2.294339599609375,1.5202887058258057,-1.2318923473358154,0.910200834274292
1757088694498293800,2.304293701171875,1.0543683767318726,-1.1321345567703247,0.8274521231651306
1757088694508248600,2.31424853515625,0.15494590997695923,-0.6842723488807678,0.2918158769607544
1757088694518202600,2.32420263671875,0.11273480206727982,-0.24810753762722015,-0.1961628496646881
1757088694528157700,2.33415771484375,0.31144043803215027,0.26805755496025085,-0.4284150004386902
1757088694538111700,2.34411181640625,0.3409852981567383,0.5708496570587158,-0.4794534146785736
1757088694548066600,2.354066650390625,0.2698724865913391,0.4673064649105072,-0.44504696130752563
1757088694558021600,2.364021728515625,0.1864606887102127,0.25693804025650024,-0.3494400084018707
1757088694567975400,2.373975341796875,0.2274419516324997,0.03689277172088623,-0.38998743891716003
1757088694577930800,2.3839306640625,0.13802099227905273,-0.004735899157822132,-0.3417690396308899
1757088694587884500,2.393884521484375,0.1269283890724182,-0.09939929097890854,-0.23921285569667816
1757088694597839600,2.403839599609375,0.15023770928382874,-0.19947662949562073,-0.16560441255569458
1757088694607793700,2.413793701171875,0.10594587028026581,-0.22568611800670624,-0.16566327214241028
1757088694617748500,2.42374853515625,0.09058795869350433,-0.14922596514225006,-0.20924296975135803
1757088694627703600,2.43370361328125,0.11705684661865234,-0.05216280370950699,-0.2717428207397461
1757088694637657600,2.44365771484375,0.14973516762256622,0.015107047744095325,-0.31743016839027405
1757088694647612700,2.45361279296875,0.1834726184606552,0.007926632650196552,-0.32574373483657837
1757088694657566500,2.46356640625,0.24712829291820526,-0.036015257239341736,-0.29608839750289917
1757088694667521800,2.473521728515625,0.3170362710952759,-0.06347138434648514,-0.2723742723464966
1757088694677475600,2.4834755859375,0.40315890312194824,-0.08816394954919815,-0.2795110046863556
1757088694687430700,2.4934306640625,0.485175222158432,-0.11559104174375534,-0.29645296931266785
1757088694697385500,2.503385498046875,0.5566443204879761,-0.19195719063282013,-0.32114899158477783
1757088694707339500,2.513339599609375,0.6411898732185364,-0.24613040685653687,-0.38064029812812805
1757088694717294600,2.523294677734375,0.7294861674308777,-0.28749144077301025,-0.4934091866016388
1757088694727248600,2.53324853515625,0.7882826328277588,-0.3271227180957794,-0.6318368315696716
1757088694737203700,2.54320361328125,0.8783994913101196,-0.45450225472450256,-0.6604146957397461
1757088694747157500,2.553157470703125,1.017503261566162,-0.7365411520004272,-0.6166802644729614
1757088694757112600,2.563112548828125,1.178889513015747,-0.6289166808128357,-0.8260307908058167
1757088694767067600,2.573067626953125,1.284000277519226,-0.23042601346969604,-1.1020094156265259
1757088694777021700,2.583021728515625,1.2719318866729736,0.08400356024503708,-1.3615407943725586
1757088694786976500,2.5929765625,1.2425785064697266,0.1390383094549179,-1.4173390865325928
1757088694796930600,2.6029306640625,1.2508987188339233,0.00037923414492979646,-1.4207525253295898
1757088694806885600,2.6128857421875,1.350154995918274,-0.14600354433059692,-1.352177381515503
1757088694816839700,2.622839599609375,1.475069284439087,0.069758839905262,-1.3323358297348022
1757088694826794800,2.632794677734375,1.4690481424331665,0.13844363391399384,-1.16207754611969
1757088694836749600,2.64274951171875,1.3505456447601318,0.14292412996292114,-0.9257909655570984
1757088694846703600,2.65270361328125,1.2588586807250977,0.24777251482009888,-0.6902514100074768
1757088694856658700,2.66265869140625,1.1365822553634644,0.28756093978881836,-0.41630053520202637
1757088694866612700,2.67261279296875,1.039453387260437,0.2930350601673126,-0.24150928854942322
1757088694876567600,2.682567626953125,0.8311299681663513,0.23487882316112518,-0.1379927545785904
1757088694886521600,2.692521484375,0.5603589415550232,0.03261573240160942,0.030245786532759666
1757088694896476400,2.702476318359375,0.3153134882450104,-0.10590672492980957,0.15462499856948853
1757088694906430700,2.7124306640625,0.2121916264295578,-0.08904465287923813,0.21117375791072845
1757088694916385500,2.722385498046875,0.19444404542446136,-0.032814137637615204,0.2069190889596939
1757088694926340600,2.732340576171875,0.053096506744623184,-0.0663318857550621,0.16479215025901794
1757088694936294700,2.742294677734375,-0.06665066629648209,-0.05102963000535965,0.1778072863817215
1757088694946249700,2.752249755859375,-0.2098219394683838,-0.06109371408820152,0.17644986510276794
1757088694956203800,2.762203857421875,-0.32680848240852356,-0.0868012085556984,0.1801689714193344
1757088694966158600,2.77215869140625,-0.4088817834854126,-0.0970706194639206,0.20166414976119995
1757088694976112600,2.782112548828125,-0.49864548444747925,-0.08016647398471832,0.18675284087657928
1757088694986067500,2.7920673828125,-0.47094300389289856,-0.11686909198760986,0.18250510096549988
1757088694996022500,2.8020224609375,-0.3525460660457611,0.05216466635465622,0.1649269014596939
1757088695005976300,2.811976318359375,-0.2391212433576584,0.02076227031648159,0.12833240628242493
1757088695015931600,2.821931640625,-0.07105393707752228,-0.04835927486419678,0.10055270791053772
1757088695025885700,2.8318857421875,0.15982988476753235,-0.10499485582113266,0.04903358966112137
1757088695035840500,2.841840576171875,0.5085276961326599,-0.04432645067572594,-0.019778763875365257
1757088695045794600,2.851794677734375,0.980739951133728,0.15612168610095978,-0.14415930211544037
1757088695055749400,2.861749267578125,1.5469921827316284,0.34474754333496094,-0.26409584283828735
1757088695065704700,2.87170458984375,2.046379566192627,0.6273406147956848,-0.48431500792503357
1757088695075658500,2.881658447265625,2.421154022216797,0.8091706037521362,-0.6792868971824646
1757088695085613600,2.891613525390625,2.5792579650878906,0.8639182448387146,-0.8091295957565308
1757088695095567400,2.9015673828125,2.3643016815185547,0.6000573039054871,-0.6227458715438843
1757088695105522700,2.911522705078125,1.9740060567855835,0.06154032424092293,-0.05332181230187416
1757088695115476700,2.921476806640625,1.5062249898910522,-0.3012714385986328,0.31455501914024353
1757088695125431600,2.931431640625,1.2927534580230713,-0.01804664544761181,0.29967379570007324
1757088695135385600,2.941385498046875,1.38862943649292,0.38061603903770447,-0.007245928514748812
1757088695145340400,2.95134033203125,1.2669799327850342,0.47874101996421814,-0.19547788798809052
1757088695155295500,2.96129541015625,1.0625109672546387,0.27212685346603394,-0.15973320603370667
1757088695165249500,2.97124951171875,0.7873113751411438,-0.0004673847579397261,-0.03919161111116409
1757088695175204600,2.98120458984375,0.4411558210849762,-0.35209226608276367,0.049787797033786774
1757088695185158400,2.991158447265625,0.20740139484405518,-0.48689189553260803,0.05907397344708443
1757088695195113500,3.001113525390625,-0.0824141800403595,-0.3889538645744324,-0.1220201775431633
1757088695205067500,3.011067626953125,-0.8184202909469604,-0.08286665380001068,-0.3317851424217224
1757088695215022600,3.021022705078125,-1.8236913681030273,-0.13661643862724304,-0.19177928566932678
1757088695224977400,3.030977294921875,-2.5507688522338867,-0.2656668424606323,0.179733008146286
1757088695234931500,3.040931396484375,-2.6949715614318848,-0.2953062057495117,0.6176568269729614
1757088695244886500,3.050886474609375,-2.6089160442352295,-0.07661488652229309,0.6001800894737244
1757088695254840600,3.060840576171875,-2.0893611907958984,0.708389401435852,-0.035180624574422836
1757088695264795600,3.070795654296875,-0.9315242171287537,0.1906098872423172,-0.5456004738807678
1757088695274749400,3.08074951171875,-0.08255106955766678,-0.8030970096588135,-0.9289391040802002
1757088695284704500,3.09070458984375,0.2378983199596405,-1.0769381523132324,-0.6535059213638306
1757088695294659600,3.10065966796875,0.47319552302360535,-0.9003226161003113,-0.36575746536254883
1757088695304613600,3.110613525390625,0.786919891834259,-0.5247263312339783,-0.20569616556167603
1757088695314568400,3.120568359375,0.8065599203109741,0.06033577769994736,-0.18653419613838196
1757088695324522500,3.1305224609375,0.862907886505127,-0.393909215927124,0.012925120070576668
1757088695334477300,3.140477294921875,1.0421926975250244,-0.451668918132782,0.23679417371749878
1757088695344431600,3.150431640625,1.2943322658538818,-0.41060909628868103,0.31989651918411255
1757088695354386700,3.16038671875,1.5224772691726685,-0.3577378988265991,0.2622137665748596
1757088695364340500,3.170340576171875,1.6669318675994873,-0.4361725151538849,0.11810959875583649
1757088695374295600,3.180295654296875,1.70468008518219,-0.5244531035423279,-0.05535726621747017
1757088695384250600,3.190250732421875,1.6030131578445435,-0.587422251701355,-0.12733983993530273
1757088695394204700,3.20020458984375,1.421421766281128,-0.686505138874054,-0.11634179204702377
1757088695404159500,3.210159423828125,1.1170133352279663,-1.0600653886795044,-0.29733046889305115
1757088695414113500,3.220113525390625,0.8622559309005737,-0.9033806920051575,-0.3003619611263275
1757088695424068400,3.230068359375,0.6161097884178162,-0.7110461592674255,-0.22258992493152618
1757088695434023700,3.240023681640625,0.42808130383491516,-0.48325347900390625,-0.11299659311771393
1757088695443977500,3.2499775390625,0.33104076981544495,-0.27097663283348083,-0.04156448692083359
1757088695453932500,3.2599326171875,0.30291780829429626,-0.13956056535243988,-0.0192573182284832
1757088695463886600,3.269886474609375,0.31183484196662903,-0.10350988060235977,-0.02400813065469265
1757088695473841400,3.27984130859375,0.31602826714515686,-0.13037531077861786,-0.042399123311042786
1757088695483795500,3.28979541015625,0.29440873861312866,-0.17718783020973206,-0.07699012011289597
1757088695493750500,3.29975048828125,0.25493907928466797,-0.11210150271654129,-0.06936975568532944
1757088695503704600,3.30970458984375,0.24463984370231628,0.07160334289073944,-0.03411722555756569
1757088695513659400,3.319659423828125,0.2809312641620636,0.21106643974781036,-0.009680590592324734
1757088695523614500,3.329614501953125,0.40348726511001587,0.2566208839416504,0.055211856961250305
1757088695533568500,3.339568603515625,1.0112941265106201,0.12856143712997437,-0.33798497915267944
1757088695543523600,3.349523681640625,1.4825048446655273,-0.144540935754776,-0.6452791094779968
1757088695553477600,3.3594775390625,1.490932583808899,-0.05604010075330734,-0.0323568731546402
1757088695563432400,3.369432373046875,1.1920127868652344,0.1475234031677246,0.26864585280418396
1757088695573386500,3.379386474609375,0.5308803915977478,-0.49800658226013184,-0.07329365611076355
1757088695583341600,3.389341552734375,0.2919711470603943,-0.32372960448265076,0.056717339903116226
1757088695593296600,3.399296630859375,0.24953393638134003,-0.04313575103878975,-0.1512662172317505
1757088695603250400,3.40925048828125,0.2952367067337036,0.23599016666412354,-0.2964324653148651
1757088695613205500,3.41920556640625,0.28767573833465576,0.101532481610775,-0.3898566961288452
1757088695623159300,3.4291591796875,0.29641303420066833,-0.5018226504325867,-0.6435518264770508
1757088695633114600,3.439114501953125,0.31684932112693787,-1.2628926038742065,-0.9881097078323364
1757088695643068700,3.449068603515625,0.4667474627494812,-1.934963583946228,-1.0977733135223389
1757088695653023500,3.4590234375,0.6705560088157654,-2.410365343093872,-1.0044071674346924
1757088695662978300,3.468978271484375,0.8410627245903015,-2.8879499435424805,-0.969244658946991
1757088695672932600,3.4789326171875,0.7584831714630127,-3.0982539653778076,-0.7598451375961304
1757088695682887700,3.4888876953125,0.6192384958267212,-3.058656930923462,-0.36919668316841125
1757088695692841500,3.498841552734375,1.3894851207733154,-2.6137607097625732,-0.15749216079711914
1757088695702796500,3.508796630859375,2.660893678665161,-1.383030891418457,-0.5747924447059631
1757088695712750300,3.518750244140625,3.1185336112976074,-1.3580528497695923,-0.8900603652000427
1757088695722705700,3.52870556640625,2.9538867473602295,-2.5166609287261963,-0.6562185883522034
1757088695732659500,3.538659423828125,2.7027525901794434,-2.668353319168091,-0.13624146580696106
1757088695742614500,3.548614501953125,2.284233570098877,-1.37838613986969,0.16484834253787994
1757088695752569300,3.5585693359375,2.0296757221221924,0.10693524032831192,0.4704034626483917
1757088695762523400,3.5685234375,1.9169883728027344,0.8041015267372131,0.8187622427940369
1757088695772478500,3.578478515625,1.3572174310684204,0.8733240365982056,1.0843489170074463
1757088695782432500,3.5884326171875,0.384011834859848,0.8706720471382141,1.2594759464263916
1757088695792387600,3.5983876953125,0.016531305387616158,0.42593398690223694,1.085654377937317
1757088695802341400,3.60834130859375,0.005306880921125412,-0.5703827738761902,0.7284877300262451
1757088695812296700,3.618296630859375,-0.09546340256929398,-1.254665732383728,0.4868040084838867
1757088695822251500,3.62825146484375,-0.3417051434516907,-1.2548521757125854,0.3063088059425354
1757088695832205600,3.63820556640625,-0.3938799202442169,-0.6295715570449829,-0.06186256930232048
1757088695842160400,3.648160400390625,-0.27810192108154297,0.09379653632640839,-0.36279258131980896
1757088695852114400,3.658114501953125,0.02563026174902916,0.613065779209137,-0.6485614776611328
1757088695862069500,3.668069580078125,0.26515018939971924,0.8330391645431519,-0.808215856552124
1757088695872023600,3.6780234375,0.1623803824186325,0.5101386308670044,-0.7213568687438965
1757088695881978600,3.687978515625,0.011891280300915241,-0.133835569024086,-0.4691890478134155
1757088695891933400,3.697933349609375,-0.03211319446563721,-0.3137046694755554,-0.23434938490390778
1757088695901887500,3.707887451171875,0.016102004796266556,-0.317889541387558,-0.010060090571641922
1757088695911842600,3.717842529296875,0.10586278140544891,-0.230092853307724,0.08945531398057938
1757088695921796600,3.727796630859375,0.19789843261241913,-0.10654988139867783,0.220585897564888
1757088695931751400,3.73775146484375,0.19478866457939148,0.1458035409450531,0.3070491552352905
1757088695941705500,3.74770556640625,0.10944420099258423,0.2876075506210327,0.32362014055252075
1757088695951660500,3.75766064453125,0.029341110959649086,0.2314675748348236,0.26204678416252136
1757088695961615600,3.76761572265625,0.0006186523241922259,0.11660996824502945,0.14570847153663635
1757088695971569700,3.777569580078125,-0.021469339728355408,-0.0026554379146546125,0.012337359599769115
1757088695981524500,3.7875244140625,-0.05475379154086113,-0.04102972522377968,-0.07425852119922638
1757088695991478500,3.797478515625,-0.054184675216674805,-0.025848641991615295,-0.10527635365724564
1757088696001433300,3.807433349609375,-0.05428134649991989,-0.0011238539591431618,-0.09242207556962967
1757088696011387600,3.8173876953125,-0.0635715201497078,0.019163841381669044,-0.051716189831495285
1757088696021342500,3.827342529296875,-0.06632868945598602,0.04150057211518288,-0.0017393104499205947
1757088696031297500,3.837297607421875,-0.06166229769587517,0.0963374525308609,0.011983426287770271
1757088696041251300,3.847251220703125,-0.06563520431518555,0.13135802745819092,-0.02298094891011715
1757088696051206700,3.85720654296875,-0.05293911322951317,0.042281944304704666,-0.0413394495844841
1757088696061160400,3.867160400390625,-0.049139849841594696,-0.09490014612674713,-0.006060555577278137
1757088696071115500,3.877115478515625,-0.02281130664050579,0.04036819562315941,-0.05813654139637947
1757088696081069600,3.887069580078125,-0.026031600311398506,-0.03500618785619736,-0.053957242518663406
1757088696091024400,3.8970244140625,-0.04068484529852867,-0.07874354720115662,0.001335575245320797
1757088696100979500,3.9069794921875,-0.06545810401439667,-0.006391586735844612,0.05871178209781647
1757088696110933500,3.91693359375,-0.06173820048570633,0.08400195837020874,0.07405558228492737
1757088696120888600,3.926888671875,-0.01062308344990015,0.22955116629600525,-0.022847792133688927
1757088696130842400,3.93684228515625,0.018570488318800926,0.20827677845954895,-0.18169842660427094
1757088696140797400,3.94679736328125,-0.0028940571937710047,-0.03259602561593056,-0.2695217430591583
1757088696150751500,3.95675146484375,-0.026085397228598595,-0.23577150702476501,-0.26578399538993835
1757088696160706600,3.96670654296875,-0.058287009596824646,-0.29462602734565735,-0.17909517884254456
1757088696170661400,3.976661376953125,-0.08296944946050644,-0.3008604943752289,-0.03542616590857506
1757088696180615400,3.986615478515625,-0.09441358596086502,-0.14475984871387482,0.02345872111618519
1757088696190570500,3.996570556640625,-0.09221062064170837,-0.10395649075508118,0.02473064698278904
1757088696200524500,4.006524658203125,-0.08311193436384201,-0.18796111643314362,0.0167976226657629
1757088696210479600,4.016479736328125,-0.07023501396179199,-0.2995512783527374,0.029521673917770386
1757088696220433400,4.026433349609375,-0.08182056248188019,-0.27215802669525146,0.03215127810835838
1757088696230388500,4.036388427734375,-0.09158185124397278,-0.30854371190071106,0.053337257355451584
1757088696240343600,4.046343505859375,-0.09988424926996231,-0.5005560517311096,0.08498226851224899
1757088696250297600,4.056297607421875,-0.07876352220773697,-0.441768616437912,0.10133408010005951
1757088696260252400,4.06625244140625,-0.05513542518019676,-0.2583375573158264,0.1211882084608078
1757088696270206500,4.07620654296875,-0.09375232458114624,-0.1130000576376915,0.08124292641878128
1757088696280161300,4.086161376953125,-0.08822386711835861,-0.15011732280254364,0.011649997904896736
1757088696290115600,4.096115478515625,-0.06011127308011055,-0.2585796117782593,-0.057313624769449234
1757088696300070400,4.1060703125,-0.03291241079568863,-0.3325273394584656,-0.08700547367334366
1757088696310025500,4.116025390625,-0.03226286545395851,-0.2541483938694,-0.11451725661754608
1757088696319979500,4.1259794921875,-0.06511721760034561,-0.22885900735855103,-0.1414274275302887
1757088696329934600,4.1359345703125,-0.09471265971660614,-0.258707731962204,-0.11057072132825851
1757088696339888600,4.145888671875,-0.10594001412391663,-0.27906811237335205,-0.05549521744251251
1757088696349843500,4.155843505859375,-0.08347997814416885,-0.22011984884738922,-0.016206134110689163
1757088696359797500,4.165797607421875,-0.07059667259454727,-0.17027346789836884,0.006208094768226147
1757088696369752300,4.17575244140625,-0.06698329746723175,-0.14166738092899323,0.005817675497382879
1757088696379707600,4.185707763671875,-0.07228964567184448,-0.1327625811100006,-0.009209477342665195
1757088696389661400,4.195661376953125,-0.08534951508045197,-0.12257225811481476,-0.028376780450344086
1757088696399616500,4.205616455078125,-0.09559203684329987,-0.11392763257026672,-0.09082764387130737
1757088696409570600,4.215570556640625,-0.06525037437677383,-0.06369056552648544,-0.1288517266511917
1757088696419525400,4.225525390625,-0.06440562009811401,-0.0928601622581482,-0.1068902313709259
1757088696429480400,4.23548046875,-0.09374593198299408,-0.10120464861392975,-0.03363945335149765
1757088696439434500,4.2454345703125,-0.11349966377019882,-0.04950416833162308,0.019350262358784676
1757088696449389600,4.2553896484375,-0.11574684083461761,0.011153052560985088,0.043410591781139374
1757088696459343400,4.26534326171875,-0.11487358808517456,0.04055887833237648,0.04475069418549538
1757088696469298400,4.27529833984375,-0.1174485981464386,0.08630719035863876,0.02316417545080185
1757088696479252500,4.28525244140625,-0.10399111360311508,0.10230133682489395,-0.018037589266896248
1757088696489207600,4.29520751953125,-0.08176650106906891,0.04689560458064079,-0.05650295689702034
1757088696499161600,4.30516162109375,-0.07135940343141556,0.04692969098687172,-0.08798418194055557
1757088696509116400,4.315116455078125,-0.0656176283955574,0.08897248655557632,-0.09585542231798172
1757088696519071500,4.325071533203125,-0.07093089818954468,0.09419387578964233,-0.097394198179245
1757088696529025500,4.335025634765625,-0.048889510333538055,0.07756509631872177,-0.10234528034925461
1757088696538980600,4.344980712890625,-0.03705975040793419,0.12239249050617218,-0.10837254673242569
1757088696548934400,4.354934326171875,-0.00833596009761095,0.16832590103149414,-0.11229138821363449
1757088696558889500,4.364889404296875,0.03741448372602463,0.18879495561122894,-0.11661529541015625
1757088696568844500,4.374844482421875,0.03061889484524727,0.23725488781929016,-0.10461189597845078
1757088696578798600,4.384798583984375,0.039852339774370193,0.2615796625614166,-0.08111828565597534
1757088696588753400,4.39475341796875,0.06318961828947067,0.23499466478824615,-0.055989764630794525
1757088696598707500,4.40470751953125,0.0675382986664772,0.21567955613136292,-0.03988669440150261
1757088696608662300,4.414662353515625,0.05945507064461708,0.20028676092624664,-0.03110518865287304
1757088696618616600,4.424616455078125,0.039809729903936386,0.20290224254131317,-0.03398539870977402
1757088696628571400,4.4345712890625,0.018863169476389885,0.20831511914730072,-0.03502882272005081
1757088696638526500,4.4445263671875,-0.0011504855938255787,0.2108246237039566,-0.027033481746912003
1757088696648480500,4.45448046875,-0.03050651028752327,0.20757050812244415,-0.008346347138285637
1757088696658435600,4.464435546875,-0.04344760999083519,0.18462470173835754,0.017195764929056168
1757088696668389600,4.4743896484375,-0.038777224719524384,0.1662592887878418,0.03911677747964859
1757088696678344400,4.484344482421875,-0.03485731780529022,0.16287973523139954,0.051111120730638504
1757088696688298500,4.494298583984375,-0.027785291895270348,0.18449021875858307,0.04933585599064827
1757088696698253300,4.50425341796875,-0.024329841136932373,0.2012963593006134,0.03471217304468155
1757088696708208600,4.514208740234375,-0.013825268484652042,0.22445520758628845,0.014271347783505917
1757088696718162400,4.524162353515625,0.011538145132362843,0.20123989880084991,-0.00803315918892622
1757088696728117500,4.534117431640625,0.04167900234460831,0.17383597791194916,-0.03423520177602768
1757088696738071600,4.544071533203125,0.06492067873477936,0.18853501975536346,-0.054539941251277924
1757088696748026400,4.5540263671875,0.07034873217344284,0.22460168600082397,-0.05091244727373123
1757088696757980700,4.563980712890625,0.1146506816148758,0.2117157131433487,-0.025617478415369987
1757088696767935500,4.573935546875,0.12377733737230301,0.21403798460960388,0.007522364612668753
1757088696777890600,4.583890625,0.13210530579090118,0.2281751185655594,0.04388516768813133
1757088696787844400,4.59384423828125,0.12674649059772491,0.21317805349826813,0.06431960314512253
1757088696797799700,4.603799560546875,0.1344616711139679,0.11317342519760132,0.08276518434286118
1757088696807753500,4.61375341796875,0.1369679719209671,0.049318280071020126,0.07660822570323944
1757088696817708500,4.62370849609375,0.13760420680046082,0.005537244491279125,0.06203540787100792
1757088696827662600,4.63366259765625,0.127971813082695,-0.021804364398121834,0.0636061429977417
1757088696837617400,4.643617431640625,0.1075589507818222,-0.030851123854517937,0.08565551787614822
1757088696847572500,4.653572509765625,0.0801643431186676,-0.21579541265964508,0.1107422262430191
1757088696857526500,4.663526611328125,0.08214253932237625,-0.4240535497665405,0.031445007771253586
1757088696867481300,4.6734814453125,0.06171795725822449,-0.3866068422794342,-0.05169515311717987
1757088696877435400,4.683435302734375,0.042625490576028824,-0.419691801071167,-0.06130357086658478
1757088696887390500,4.693390380859375,0.01714729517698288,-0.5853185653686523,-0.06522613763809204
1757088696897344500,4.703344482421875,0.019212311133742332,-0.6569626927375793,-0.12352939695119858
1757088696907299600,4.713299560546875,0.04867219924926758,-0.5812745690345764,-0.16375111043453217
1757088696917254400,4.72325439453125,0.022603578865528107,-0.6266705393791199,-0.21394211053848267
1757088696927208400,4.73320849609375,-0.01549507025629282,-0.6261155605316162,-0.20692841708660126
1757088696937163500,4.74316357421875,-0.03241866081953049,-0.38064560294151306,-0.13193565607070923
1757088696947117600,4.75311767578125,-0.013561881147325039,-0.0808972492814064,-0.04499996453523636
1757088696957072400,4.763072265625,0.027755465358495712,-0.10026748478412628,-0.04794222488999367
1757088696967026400,4.7730263671875,0.04862532764673233,-0.1258934885263443,-0.11723820865154266
1757088696976981500,4.7829814453125,0.060089968144893646,-0.11182799935340881,-0.18627320230007172
1757088696986936300,4.792936279296875,0.00379021093249321,-0.13159877061843872,-0.22936154901981354
1757088696996890400,4.802890380859375,0.014830078929662704,-0.050337739288806915,-0.14972904324531555
1757088697006845200,4.81284521484375,0.05318625643849373,-0.06053818017244339,-0.05891365185379982
1757088697016799200,4.82279931640625,0.034985415637493134,-0.10058173537254333,-0.05976825952529907
1757088697026754000,4.832754150390625,0.008452873677015305,-0.16598817706108093,-0.1101992055773735
1757088697036708000,4.8427080078125,0.01942669413983822,-0.2536791265010834,-0.07722900807857513
1757088697046663200,4.8526630859375,0.010272877290844917,-0.276003897190094,0.01245134323835373
1757088697056618200,4.8626181640625,-0.02816426008939743,-0.12471690028905869,0.12450943887233734
1757088697066572300,4.872572265625,-0.036314599215984344,0.04531528428196907,0.20662641525268555
1757088697076527000,4.882527099609375,-0.03586478903889656,0.09987786412239075,0.22905129194259644
1757088697086481400,4.8924814453125,-0.05025544762611389,0.08184532821178436,0.21631765365600586
1757088697096436200,4.902436279296875,-0.06265299767255783,0.043583162128925323,0.18888816237449646
1757088697106390300,4.912390380859375,-0.0647270679473877,0.021215006709098816,0.16347761452198029
1757088697116345000,4.922344970703125,-0.04404868558049202,-0.020178504288196564,0.14056909084320068
1757088697126300400,4.932300537109375,-0.033068206161260605,-0.03917323425412178,0.10901090502738953
1757088697136254200,4.942254150390625,-0.01513074990361929,-0.011387410573661327,0.059784770011901855
1757088697146209300,4.952209228515625,-0.001163002452813089,-0.003625893732532859,-0.00737296137958765
1757088697156163300,4.962163330078125,-0.003203782718628645,-0.17342372238636017,-0.06883472204208374
1757088697166118100,4.9721181640625,-0.000511593243572861,-0.3784852623939514,-0.10886656492948532
1757088697176072200,4.982072265625,-0.02274499274790287,-0.4337005615234375,-0.07937285304069519
1757088697186027300,4.99202734375,-0.0436667874455452,-0.3348267376422882,-0.01519067119807005
1757088697195982300,5.001982421875,-0.04068324714899063,-0.2908869683742523,0.017795242369174957
1757088697205936000,5.01193603515625,-0.02105548419058323,-0.2564062178134918,0.033130254596471786
1757088697215891200,5.02189111328125,-0.012400210835039616,-0.21212664246559143,0.04385880008339882
1757088697225845200,5.03184521484375,-0.01414431445300579,-0.13564731180667877,0.045043639838695526
1757088697235800300,5.04180029296875,0.002129463478922844,-0.05751948431134224,0.025292040780186653
1757088697245754400,5.05175439453125,0.0268369410187006,-0.13059289753437042,0.0003784351865760982
1757088697255709200,5.061709228515625,0.0016855146968737245,-0.22753222286701202,-0.011025220155715942
1757088697265664300,5.071664306640625,-0.03867415711283684,-0.14430338144302368,0.0038304245099425316
1757088697275618300,5.081618408203125,-0.0719146728515625,0.03557610511779785,0.03219468891620636
1757088697285573000,5.091572998046875,-0.08025462180376053,0.11054861545562744,0.038899727165699005
1757088697295527200,5.101527099609375,-0.06837346404790878,0.09538324177265167,0.027518976479768753
1757088697305482200,5.111482177734375,-0.0308694988489151,0.07194476574659348,0.0012130698887631297
1757088697315436000,5.12143603515625,0.0014205301413312554,0.03569621220231056,-0.03626532852649689
1757088697325391400,5.131391357421875,0.013047092594206333,0.047084689140319824,-0.049490053206682205
1757088697335346200,5.14134619140625,0.012400743551552296,0.07670196890830994,-0.06466474384069443
1757088697345300200,5.15130029296875,-0.0023156185634434223,0.07452642917633057,-0.08304348587989807
1757088697355255000,5.161255126953125,-0.012301141396164894,0.047255128622055054,-0.09674917906522751
1757088697365209300,5.171209228515625,-0.01703491061925888,0.005973470397293568,-0.09918224066495895
1757088697375164200,5.1811640625,-0.024568459019064903,0.003713245503604412,-0.1143963485956192
1757088697385118200,5.1911181640625,-0.02491653524339199,-0.03110172599554062,-0.09539416432380676
1757088697395073300,5.2010732421875,-0.03355849161744118,-0.026202043518424034,-0.056286975741386414
1757088697405028400,5.2110283203125,-0.0401972196996212,-0.03359950706362724,-0.032350484281778336
1757088697414982400,5.220982421875,-0.0032866070978343487,-0.12089792639017105,0.020557472482323647
1757088697424937200,5.230937255859375,0.02062804624438286,-0.2634739875793457,-0.0030655646696686745
1757088697434891300,5.240891357421875,0.0574696846306324,-0.2917780578136444,-0.15940803289413452
1757088697444846000,5.25084619140625,0.023244336247444153,-0.33517640829086304,-0.15351685881614685
1757088697454800100,5.260800048828125,0.03129613772034645,-0.2131626009941101,-0.029315544292330742
1757088697464755200,5.270755126953125,0.008304269053041935,0.11025886237621307,0.11975249648094177
1757088697474710300,5.280710205078125,-0.09066944569349289,0.34453022480010986,0.171213299036026
1757088697484664300,5.290664306640625,-0.139139786362648,0.30504006147384644,0.15117193758487701
1757088697494619100,5.300619140625,-0.0724896490573883,0.3480091094970703,0.11021572351455688
1757088697504573400,5.310573486328125,-0.03856683149933815,0.24139291048049927,0.05227305740118027
1757088697514528300,5.3205283203125,0.010573281906545162,0.08475616574287415,0.038012631237506866
1757088697524482300,5.330482421875,0.05239822715520859,0.07257140427827835,0.04670891538262367
1757088697534437000,5.34043701171875,0.09347375482320786,0.21431948244571686,0.13707955181598663
1757088697544391200,5.35039111328125,0.0894947275519371,0.2153884768486023,0.18138763308525085
1757088697554346200,5.36034619140625,0.09835825860500336,0.3494381606578827,0.20352622866630554
1757088697564301300,5.37030126953125,0.10505877435207367,0.49283793568611145,0.22365626692771912
1757088697574255000,5.380255126953125,0.10891450196504593,0.400481641292572,0.19672344624996185
1757088697584210200,5.390210205078125,0.09418109059333801,0.1757156401872635,0.10724815726280212
1757088697594164200,5.400164306640625,0.037334587424993515,-0.045104093849658966,-0.005013667047023773
1757088697604119300,5.410119384765625,-0.024469390511512756,-0.2702093720436096,-0.12418480217456818
1757088697614074000,5.42007421875,0.03130599111318588,0.003972903825342655,-0.05812189355492592
1757088697624028200,5.430028076171875,-0.008682171814143658,0.11928032338619232,0.03081676922738552
1757088697633983200,5.439983154296875,-0.07652300596237183,-0.28561896085739136,-0.0963054969906807
1757088697643937300,5.449937255859375,-0.24969477951526642,-1.0399036407470703,-0.4563685953617096
1757088697653892400,5.459892333984375,0.017082579433918,-0.4470174312591553,-0.4219230115413666
1757088697663846100,5.46984619140625,-0.02004028670489788,0.2125982791185379,-0.04255438596010208
1757088697673801200,5.47980126953125,-0.05041630193591118,0.05489547178149223,0.10545238852500916
1757088697683755300,5.48975537109375,-0.017372865229845047,-0.07478635758161545,0.054493602365255356
1757088697693710300,5.49971044921875,-0.009905095212161541,-0.12099885940551758,-0.005465338937938213
1757088697703665200,5.5096650390625,-0.006342584267258644,-0.1090569794178009,0.0015731292078271508
1757088697713619200,5.519619140625,-0.011395932175219059,-0.04032611846923828,0.04193519800901413
1757088697723574300,5.52957421875,-0.012922456488013268,0.0250246599316597,0.05886038765311241
1757088697733528000,5.539528076171875,-0.007906125858426094,0.02406352385878563,0.03620647266507149
1757088697743483400,5.5494833984375,0.002975017298012972,-0.016577377915382385,-0.0026343988720327616
1757088697753437200,5.559437255859375,0.008958874270319939,-0.04704047739505768,-0.0320652574300766
1757088697763392300,5.569392333984375,0.001261539408005774,-0.05966838821768761,-0.04026273265480995
1757088697773347000,5.57934716796875,-0.010863833129405975,-0.05958876013755798,-0.029892651364207268
1757088697783301000,5.589301025390625,-0.021135112270712852,-0.05687606707215309,-0.015243401750922203
1757088697793256200,5.599256103515625,-0.031018368899822235,-0.05703079700469971,-0.008893626742064953
1757088697803210200,5.609210205078125,-0.03768026828765869,-0.057853978127241135,-0.012531237676739693
1757088697813165300,5.619165283203125,-0.04392937570810318,-0.06251184642314911,-0.021691447123885155
1757088697823119000,5.629119140625,-0.04910629242658615,-0.05488934740424156,-0.030727285891771317
1757088697833074400,5.639074462890625,-0.048237305134534836,-0.05064799636602402,-0.03791116178035736
1757088697843029200,5.649029296875,-0.03948375955224037,-0.043893422931432724,-0.040591899305582047
1757088697852983300,5.6589833984375,-0.032098013907670975,-0.0252827201038599,-0.04547693580389023
1757088697862938000,5.668938232421875,-0.024413198232650757,-0.012614062055945396,-0.045648712664842606
1757088697872892200,5.67889208984375,-0.01854146085679531,-0.004351072479039431,-0.041000429540872574
1757088697882847200,5.68884716796875,-0.016216253861784935,-0.0033310819417238235,-0.0340019091963768
1757088697892801300,5.69880126953125,-0.013707024045288563,-0.009610549546778202,-0.03275661543011665
1757088697902756000,5.708756103515625,-0.00911679957062006,-0.024048345163464546,-0.03532842919230461
1757088697912711200,5.718711181640625,-0.00854421965777874,-0.03816336393356323,-0.036725256592035294
1757088697922665200,5.728665283203125,-0.009731190279126167,-0.047923050820827484,-0.03668557479977608
1757088697932620300,5.738620361328125,-0.012029232457280159,-0.05637965351343155,-0.03316913917660713
1757088697942574300,5.74857421875,-0.013798636384308338,-0.06494650989770889,-0.027714718133211136
1757088697952529200,5.758529052734375,-0.016990700736641884,-0.06848984211683273,-0.022537266835570335
1757088697962483200,5.768483154296875,-0.0200959462672472,-0.07050878554582596,-0.01907063089311123
1757088697972438300,5.778438232421875,-0.022185996174812317,-0.07028587907552719,-0.01744130812585354
1757088697982393300,5.788393310546875,-0.020554278045892715,-0.056954361498355865,-0.020195016637444496
1757088697992348400,5.798348388671875,-0.023573236539959908,-0.04283188655972481,-0.027460386976599693
1757088698002303500,5.808303466796875,-0.014398912899196148,-0.03863900527358055,-0.028993034735322
1757088698012257300,5.81825732421875,-0.008356466889381409,-0.03441150486469269,-0.030248183757066727
1757088698022212400,5.82821240234375,-0.005351622123271227,-0.024569790810346603,-0.028148014098405838
1757088698032166100,5.838166259765625,0.0032631712965667248,-0.006392385344952345,-0.02508964017033577
1757088698042121500,5.84812158203125,0.004671184346079826,0.01817580871284008,-0.025431590154767036
1757088698052075300,5.8580751953125,0.00817803479731083,0.03930958732962608,-0.022122612223029137
1757088698062030300,5.8680302734375,0.009807889349758625,0.05218730494379997,-0.017120929434895515
1757088698071985200,5.877985107421875,0.015337411314249039,0.06683868169784546,-0.012228703126311302
1757088698081939500,5.887939453125,0.013393836095929146,0.07745830714702606,-0.00569969741627574
1757088698091894300,5.897894287109375,0.010072873905301094,0.07900986075401306,-0.0017334514996036887
1757088698101848300,5.907848388671875,0.0054184673354029655,0.08706086874008179,0.002369148191064596
1757088698111803400,5.917803466796875,-0.0014503574930131435,0.09896785765886307,0.008406001143157482
1757088698121758500,5.927758544921875,-0.011288873851299286,0.10533494502305984,0.01708284579217434
1757088698131712500,5.93771240234375,-0.01474778726696968,0.10646199434995651,0.01841495931148529
1757088698141667300,5.947667236328125,-0.018738800659775734,0.09908477216959,0.013639379292726517
1757088698151621400,5.957621337890625,-0.01641998626291752,0.0801859125494957,0.006223008502274752
1757088698161576200,5.967576171875,-0.011700065806508064,0.05636980012059212,0.0015723302494734526
1757088698171530200,5.9775302734375,-0.006878145970404148,0.03814525529742241,-0.003567836945876479
1757088698181485300,5.9874853515625,-0.001874332781881094,0.030760042369365692,-0.008730107918381691
1757088698191439400,5.997439453125,-0.00022450447431765497,0.02792377583682537,-0.008402273058891296
1757088698201394400,6.00739453125,0.001979261403903365,0.02009754441678524,-0.009095760062336922
1757088698211349200,6.017349365234375,0.0031755531672388315,0.017065802589058876,-0.006938067264854908
1757088698221303600,6.027303466796875,0.0049249837175011635,0.013789848424494267,-0.0054570832289755344
1757088698231258400,6.03725830078125,0.005647765472531319,0.00836845114827156,-0.002936401404440403
1757088698241212400,6.04721240234375,0.00890747457742691,0.0027390611357986927,-0.0018956380663439631
1757088698251167200,6.057167236328125,0.011689678765833378,-0.00657694274559617,-0.0009329052991233766
1757088698261121300,6.067121337890625,0.017718808725476265,-0.013158146291971207,0.002222940558567643
1757088698271076400,6.077076416015625,0.02280704490840435,-0.01865863986313343,0.005082909017801285
1757088698281031400,6.087031494140625,0.027824174612760544,-0.02725878544151783,0.006370547693222761
1757088698290985500,6.0969853515625,0.03158535808324814,-0.036685310304164886,0.0029529130551964045
1757088698300940300,6.106940185546875,0.0367811843752861,-0.03984328731894493,0.0012090750969946384
1757088698310894300,6.116894287109375,0.033474069088697433,-0.03322533145546913,0.001704689348116517
1757088698320849400,6.126849365234375,0.027668645605444908,-0.02395087294280529,0.00640703272074461
1757088698330803500,6.136803466796875,0.02118358202278614,-0.015914784744381905,0.009671003557741642
1757088698340758300,6.14675830078125,0.014751515351235867,-0.008694421499967575,0.01438346691429615
1757088698350713300,6.15671337890625,0.010933874174952507,-0.007514641620218754,0.01835796795785427
1757088698360667400,6.16666748046875,0.012571452185511589,-0.010359164327383041,0.022288260981440544
1757088698370622500,6.17662255859375,0.012381834909319878,-0.012693158350884914,0.02443636767566204
1757088698380576300,6.186576171875,0.014461496844887733,-0.012955745682120323,0.02359534054994583
1757088698390531300,6.19653125,0.015569904819130898,-0.014062555506825447,0.02220490388572216
1757088698400485400,6.2064853515625,0.016682308167219162,-0.01381301786750555,0.018082864582538605
1757088698410440400,6.2164404296875,0.015848470851778984,-0.015328888781368732,0.012367986142635345
1757088698420395300,6.226395263671875,0.01287238858640194,-0.015603993088006973,0.004792091902345419
1757088698430349300,6.236349365234375,0.008740494959056377,-0.01853879727423191,0.0016048208344727755
1757088698440304400,6.246304443359375,0.004323375876992941,-0.020672254264354706,0.00018482338055036962
1757088698450258200,6.256258056640625,-0.000574177538510412,-0.02369733899831772,-0.0020985708106309175
1757088698460213500,6.266213623046875,-0.006175870541483164,-0.028547754511237144,0.00025779398856684566
1757088698470167300,6.276167236328125,-0.011099789291620255,-0.0341329351067543,0.002463690238073468
1757088698480122400,6.286122314453125,-0.012659070082008839,-0.040774062275886536,0.004533232655376196
1757088698490076400,6.296076416015625,-0.017498565837740898,-0.04894517362117767,0.006347644608467817
1757088698500031500,6.306031494140625,-0.019155850633978844,-0.05806862935423851,0.010116816498339176
1757088698509986300,6.315986328125,-0.021094366908073425,-0.06687703728675842,0.011183678172528744
1757088698519940400,6.3259404296875,-0.024439828470349312,-0.07562285661697388,0.011966381222009659
1757088698529895400,6.3358955078125,-0.02815334126353264,-0.08042853325605392,0.013500096276402473
1757088698539849200,6.34584912109375,-0.03694949671626091,-0.07381563633680344,0.016111858189105988
1757088698549804500,6.355804443359375,-0.039855536073446274,-0.07201826572418213,0.0212408397346735
1757088698559758300,6.36575830078125,-0.0471360869705677,-0.06955617666244507,0.02485261857509613
1757088698569713400,6.37571337890625,-0.047314517199993134,-0.060438577085733414,0.025735456496477127
1757088698579668200,6.385668212890625,-0.04364361613988876,-0.052752427756786346,0.026023611426353455
1757088698589622300,6.395622314453125,-0.03718598559498787,-0.04110376164317131,0.025606559589505196
1757088698599577300,6.405577392578125,-0.03388819098472595,-0.02491839975118637,0.024699486792087555
1757088698609531400,6.415531494140625,-0.024777252227067947,-0.0036908749025315046,0.020322049036622047
1757088698619486200,6.425486328125,-0.016388559713959694,0.010539193637669086,0.01877661794424057
1757088698629440300,6.435440185546875,-0.0064714811742305756,0.026803119108080864,0.012489693239331245
1757088698639395600,6.4453955078125,0.0036248285323381424,0.04135782644152641,0.008343417197465897
1757088698649350400,6.455350341796875,0.014148576185107231,0.06142953783273697,0.0035742283798754215
1757088698659304400,6.465304443359375,0.018626946955919266,0.08087380975484848,-0.0014325142838060856
1757088698669259300,6.47525927734375,0.026258235797286034,0.0805497020483017,-0.007969509810209274
1757088698679213300,6.48521337890625,0.030158167704939842,0.07784312963485718,-0.011994611471891403
1757088698689168400,6.49516845703125,0.03165007010102272,0.08350394666194916,-0.010120544582605362
1757088698699122400,6.505122314453125,0.03134220838546753,0.09141886234283447,-0.007905859500169754
1757088698709077200,6.5150771484375,0.03305089473724365,0.09290251135826111,-0.007309312000870705
1757088698719032300,6.5250322265625,0.033069536089897156,0.08121948689222336,-0.0004849616379942745
1757088698728986400,6.534986328125,0.0309310182929039,0.0733272135257721,0.006007025949656963
1757088698738941400,6.54494140625,0.026315759867429733,0.07233012467622757,0.010352506302297115
1757088698748895500,6.5548955078125,0.021640047430992126,0.07129814475774765,0.012060125358402729
1757088698758850300,6.564850341796875,0.01824371889233589,0.06854337453842163,0.009139169938862324
1757088698768804400,6.574804443359375,0.016760870814323425,0.06320799887180328,0.006879211403429508
1757088698778759200,6.58475927734375,0.013707823120057583,0.05967797711491585,0.0065649584867060184
1757088698788714500,6.594714599609375,0.009552226401865482,0.062248993664979935,0.004999818746000528
1757088698798668300,6.604668212890625,0.004662129562348127,0.05903961881995201,-0.0023363912478089333
1757088698808623400,6.614623291015625,0.005228051450103521,0.03963768854737282,-0.01561171654611826
1757088698818577400,6.624577392578125,0.006383330561220646,0.013399428687989712,-0.02142486535012722
1757088698828532500,6.634532470703125,0.00708747049793601,-0.0065742796286940575,-0.027269437909126282
1757088698838486500,6.644486572265625,0.0041555967181921005,-0.009543437510728836,-0.03130599111318588
1757088698848441300,6.65444140625,0.001936650718562305,-0.011096592992544174,-0.03344237804412842
1757088698858395400,6.6643955078125,0.0029265477787703276,-0.01913880743086338,-0.04418370500206947
1757088698868350200,6.67435009765625,0.006780407857149839,-0.03623896464705467,-0.047861531376838684
1757088698878305500,6.684305419921875,0.006432865746319294,-0.04302683100104332,-0.05317666754126549
1757088698888259300,6.69425927734375,0.007607585750520229,-0.047676440328359604,-0.061284128576517105
1757088698898214400,6.70421435546875,0.015176822431385517,-0.05085758864879608,-0.07678798586130142
1757088698908168200,6.714168212890625,0.018207499757409096,-0.03404691815376282,-0.08155371248722076
1757088698918123300,6.724123291015625,0.023626765236258507,-0.04778936132788658,-0.09769672900438309
1757088698928077600,6.73407763671875,0.03187644109129906,-0.10518208146095276,-0.13877838850021362
1757088698938032400,6.744032470703125,0.0432252362370491,-0.15650731325149536,-0.1880846917629242
1757088698947987200,6.7539873046875,0.052630454301834106,-0.15816140174865723,-0.20663653314113617
1757088698957941200,6.763941162109375,0.033003222197294235,-0.17829038202762604,-0.20765359699726105
1757088698967896600,6.773896484375,0.03189641237258911,-0.2972505986690521,-0.23781628906726837
1757088698977850400,6.783850341796875,0.07043581455945969,-0.41755223274230957,-0.32335329055786133
1757088698987804400,6.793804443359375,0.08677057921886444,-0.3968338966369629,-0.41068872809410095
1757088698997758700,6.8037587890625,0.09125933796167374,-0.29232507944107056,-0.3726811707019806
1757088699007713500,6.813713623046875,0.07316848635673523,-0.15984559059143066,-0.22200509905815125
1757088699017668600,6.823668701171875,0.01932522840797901,-0.07509901374578476,-0.0830211192369461
1757088699027622400,6.833622314453125,-0.08511435985565186,-0.18260470032691956,0.0220914538949728
1757088699037577700,6.84357763671875,-0.20856492221355438,-0.24611283838748932,0.07774938642978668
1757088699047531500,6.853531494140625,-0.2949509620666504,-0.2894027829170227,0.15246596932411194
1757088699057486600,6.863486572265625,-0.33380088210105896,-0.24989399313926697,0.23481197655200958
1757088699067440400,6.8734404296875,-0.21159213781356812,-0.21190772950649261,0.1862225979566574
1757088699077395500,6.8833955078125,0.019233616068959236,-0.35949718952178955,-0.02130688726902008
1757088699087350500,6.8933505859375,0.21982823312282562,-0.6468879580497742,-0.20900115370750427
1757088699097304600,6.9033046875,0.3106018006801605,-0.7490838170051575,-0.20985069870948792
1757088699107259400,6.91325927734375,0.35008981823921204,-0.5939597487449646,-0.024640897288918495
1757088699117213400,6.92321337890625,0.338426798582077,-0.30838367342948914,0.22709093987941742
1757088699127168500,6.93316845703125,0.26393231749534607,-0.029101692140102386,0.4781987965106964
1757088699137122600,6.94312255859375,0.15919019281864166,0.14726375043392181,0.6430335640907288
1757088699147077600,6.95307763671875,0.051958005875349045,0.23429372906684875,0.6315550804138184
1757088699157031400,6.963031494140625,-0.009162073023617268,0.2407795935869217,0.44985663890838623
1757088699166986500,6.972986572265625,-0.04874277114868164,0.19946198165416718,0.22612661123275757
1757088699176941600,6.982941650390625,-0.07656455039978027,0.17818331718444824,0.050522562116384506
1757088699186895600,6.9928955078125,-0.106892891228199,0.14242398738861084,-0.06818757951259613
1757088699196850400,7.002850341796875,-0.13932619988918304,0.10697758197784424,-0.12954653799533844
1757088699206804500,7.012804443359375,-0.13679273426532745,0.15743009746074677,-0.12717126309871674
1757088699216759600,7.022759521484375,-0.11428822576999664,0.26195091009140015,-0.08350075036287308
1757088699226713300,7.03271337890625,-0.10210400074720383,0.38310423493385315,-0.025165541097521782
1757088699236668700,7.042668701171875,-0.08614686876535416,0.43098175525665283,0.03670874610543251
1757088699246623500,7.05262353515625,-0.06776013970375061,0.32383081316947937,0.06455662101507187
1757088699256577500,7.06257763671875,-0.035106588155031204,0.17580671608448029,0.03768053278326988
1757088699266532400,7.072532470703125,-0.0023001721128821373,0.04278634488582611,-0.03156724572181702
1757088699276486700,7.082486572265625,0.03371508792042732,-0.06910184025764465,-0.10367020219564438
1757088699286441500,7.09244140625,0.06495476514101028,-0.10395941883325577,-0.13003762066364288
1757088699296395500,7.1023955078125,0.07310324162244797,-0.062133677303791046,-0.09350651502609253
1757088699306350600,7.1123505859375,0.049975816160440445,-0.007134608458727598,-0.014282799325883389
1757088699316305700,7.1223056640625,0.013080914504826069,0.03201732039451599,0.06831301003694534
1757088699326259700,7.132259765625,-0.024337563663721085,0.056048888713121414,0.12605620920658112
1757088699336214500,7.142214599609375,-0.04524444416165352,0.049921754747629166,0.14223383367061615
1757088699346168600,7.15216845703125,-0.05399132892489433,0.03967151418328285,0.12444445490837097
1757088699356123400,7.162123291015625,-0.059474777430295944,0.04049922153353691,0.0834227204322815
1757088699366077400,7.172077392578125,-0.05716155841946602,0.040953557938337326,0.04687083512544632
1757088699376032500,7.182032470703125,-0.04833877086639404,0.03455637767910957,0.030843133106827736
1757088699385987600,7.191987548828125,-0.03857509046792984,0.019536683335900307,0.031267374753952026
1757088699395941400,7.20194140625,-0.02732030488550663,-0.0006519418093375862,0.0400795079767704
1757088699405896400,7.211896484375,-0.017303623259067535,-0.015150723047554493,0.04445508122444153
1757088699415850800,7.221850830078125,-0.007448595017194748,-0.04366598650813103,0.03845791146159172
1757088699425805600,7.2318056640625,-0.0023489079903811216,-0.08478572964668274,0.020833643153309822
1757088699435759600,7.241759521484375,-0.004858404863625765,-0.12346627563238144,-0.010451842099428177
1757088699445714400,7.25171435546875,-0.009720271453261375,-0.14300402998924255,-0.03886883705854416
1757088699455668500,7.26166845703125,-0.020017916336655617,-0.14588476717472076,-0.05287706479430199
1757088699465623600,7.27162353515625,-0.035282623022794724,-0.14320535957813263,-0.054493069648742676
1757088699475578600,7.28157861328125,-0.04888365417718887,-0.1299436241388321,-0.04734541103243828
1757088699485532400,7.291532470703125,-0.05327121168375015,-0.11390046775341034,-0.04247129335999489
1757088699495487500,7.301487548828125,-0.04875102639198303,-0.09168650954961777,-0.034165158867836
1757088699505441500,7.311441650390625,-0.04402871057391167,-0.054128214716911316,-0.025137044489383698
1757088699515396600,7.321396728515625,-0.03862142935395241,-0.019101789221167564,-0.014066018164157867
1757088699525350700,7.3313505859375,-0.036492232233285904,0.010420150123536587,-0.0075724320486187935
1757088699535305500,7.341305419921875,-0.03178349509835243,0.03121970407664776,-0.008188687264919281
1757088699545260500,7.351260498046875,-0.022041652351617813,0.034681547433137894,-0.013543505221605301
1757088699555214300,7.36121435546875,-0.00965848658233881,0.03894979506731033,-0.011870508082211018
1757088699565169700,7.371169677734375,0.003035471076145768,0.06276164948940277,-0.009936786256730556
1757088699575123500,7.38112353515625,0.016051670536398888,0.0988360345363617,-0.006062420085072517
1757088699585078500,7.39107861328125,0.027210848405957222,0.13317136466503143,-0.0006074670236557722
1757088699595032600,7.401032470703125,0.037397440522909164,0.15136101841926575,0.0007869640830904245
1757088699604987600,7.410987548828125,0.04778323322534561,0.1521221548318863,-0.0014921691035851836
1757088699614942500,7.4209423828125,0.0582481250166893,0.14322108030319214,-0.011566374450922012
1757088699624896500,7.430896484375,0.062241002917289734,0.13352903723716736,-0.018696188926696777
1757088699634851300,7.440851318359375,0.06639499962329865,0.1248047798871994,-0.01992630399763584
1757088699644805400,7.450805419921875,0.06646531075239182,0.11545123159885406,-0.015350726433098316
1757088699654760700,7.4607607421875,0.06336299329996109,0.11480008810758591,-0.003611246356740594
1757088699664714500,7.470714599609375,0.055756472051143646,0.1284378618001938,0.01375096570700407
1757088699674669600,7.480669677734375,0.04968339949846268,0.1482113003730774,0.02461852692067623
1757088699684623400,7.490623291015625,0.045228730887174606,0.15911561250686646,0.0324263833463192
1757088699694578400,7.500578369140625,0.04198180511593819,0.1605270951986313,0.034626953303813934
1757088699704533500,7.510533447265625,0.04457332566380501,0.1449100524187088,0.03483681008219719
1757088699714487600,7.520487548828125,0.05044346675276756,0.12235280871391296,0.03104979544878006
1757088699724442400,7.5304423828125,0.060257479548454285,0.10347525775432587,0.023971378803253174
1757088699734396400,7.540396484375,0.0700904056429863,0.09589137881994247,0.016106531023979187
1757088699744351700,7.550351806640625,0.07958164066076279,0.09894309192895889,0.004000067710876465
1757088699754305500,7.560305419921875,0.08639614284038544,0.0990149974822998,-0.0005659217131324112
1757088699764260600,7.570260498046875,0.09334859251976013,0.09900114685297012,-0.001977929612621665
1757088699774215400,7.58021533203125,0.10055217146873474,0.09822217375040054,-0.00037950044497847557
1757088699784169500,7.59016943359375,0.10735681653022766,0.09106599539518356,0.003916178364306688
1757088699794124500,7.60012451171875,0.11497345566749573,0.0744398757815361,0.015727298334240913
1757088699804078600,7.61007861328125,0.122787706553936,0.05938822403550148,0.03178456053137779
1757088699814033400,7.620033447265625,0.12330169230699539,0.04880934953689575,0.04996489733457565
1757088699823987500,7.629987548828125,0.12590919435024261,0.045998916029930115,0.06499524414539337
1757088699833942500,7.639942626953125,0.13030128180980682,0.05681374669075012,0.07467290759086609
1757088699843897600,7.649897705078125,0.13687875866889954,0.058947473764419556,0.07369499653577805
1757088699853851600,7.6598515625,0.14269989728927612,0.040043555200099945,0.06239653378725052
1757088699863806500,7.669806396484375,0.14714151620864868,0.021023793146014214,0.053458165377378464
1757088699873760500,7.679760498046875,0.14305782318115234,0.014519820921123028,0.04210857301950455
1757088699883715600,7.689715576171875,0.12866637110710144,0.013345366343855858,0.02719806507229805
1757088699893669600,7.699669677734375,0.11289432644844055,-0.001151284552179277,0.009090966545045376
1757088699903624400,7.70962451171875,0.0938069224357605,-0.012561864219605923,-0.0076187714003026485
1757088699913579500,7.71957958984375,0.07697600871324539,-0.014100639149546623,-0.018604043871164322
1757088699923533300,7.729533203125,0.05829206854104996,-0.0006676545017398894,-0.025471804663538933
1757088699933488600,7.739488525390625,0.039439283311367035,0.022846460342407227,-0.024511734023690224
1757088699943442700,7.749442626953125,0.02057132124900818,0.04602181911468506,-0.017788585275411606
1757088699953397500,7.7593974609375,0.007454720325767994,0.06407006084918976,-0.010946124792098999
1757088699963351600,7.7693515625,-0.0005803027888759971,0.08374043554067612,-0.007951666601002216
1757088699973306400,7.779306396484375,-0.003114566905423999,0.10181770473718643,-0.015989884734153748
1757088699983261700,7.78926171875,-0.0034474621061235666,0.10634774714708328,-0.026692597195506096
1757088699993215700,7.7992158203125,-0.003479952458292246,0.09915082156658173,-0.039139680564403534
1757088700003171000,7.809171142578125,-0.0028660940006375313,0.08327970653772354,-0.050102848559617996
1757088700013124900,7.819124755859375,-0.0004293015517760068,0.059127502143383026,-0.06564638763666153
1757088700023080000,7.829079833984375,0.009428922086954117,0.0208288487046957,-0.07959948480129242
1757088700033033700,7.83903369140625,0.021575599908828735,-0.019691413268446922,-0.08893387019634247
1757088700042989000,7.848989013671875,0.034213095903396606,-0.057379670441150665,-0.09757209569215775
1757088700052943000,7.858943115234375,0.04785593971610069,-0.08104052394628525,-0.10373305529356003
1757088700062898000,7.86889794921875,0.05438121780753136,-0.08429677039384842,-0.1183314397931099
1757088700072852700,7.878852783203125,0.0546877458691597,-0.07737361639738083,-0.1273592859506607
1757088700082806800,7.888806884765625,0.04862932115793228,-0.06301997601985931,-0.1299007385969162
1757088700092762000,7.89876220703125,0.03681048005819321,-0.0453680157661438,-0.12309529632329941
1757088700102716000,7.9087158203125,0.020916733890771866,-0.02520602010190487,-0.10962370038032532
1757088700112671000,7.9186708984375,0.01122442539781332,-0.01629827916622162,-0.10198415815830231
1757088700122624800,7.928624755859375,0.007231813855469227,-0.019225358963012695,-0.1019095852971077
1757088700132579800,7.938579833984375,0.008929579518735409,-0.027228424325585365,-0.11608585715293884
1757088700142535000,7.948534912109375,0.016745956614613533,-0.03741501644253731,-0.14242585003376007
1757088700152489000,7.958489013671875,0.02316870167851448,-0.05308745428919792,-0.1749638170003891
1757088700162443800,7.96844384765625,0.027122696861624718,-0.07227259874343872,-0.21229122579097748
1757088700172397800,7.978397705078125,0.021817414090037346,-0.0709141194820404,-0.2586294114589691
1757088700182353000,7.988352783203125,0.005477855913341045,-0.06756599247455597,-0.30591118335723877
1757088700192307000,7.998306884765625,-0.02768382616341114,-0.07091731578111649,-0.35885509848594666
1757088700202262000,8.008261962890625,-0.08029457181692123,-0.07365690916776657,-0.43833500146865845
1757088700212216800,8.018216796875,-0.15523113310337067,-0.08351512998342514,-0.5510562062263489
1757088700222171000,8.0281708984375,-0.24813923239707947,-0.12040923535823822,-0.6869171261787415
1757088700232126000,8.0381259765625,-0.36597931385040283,-0.16390638053417206,-0.8405298590660095
1757088700242080000,8.048080078125,-0.4741537272930145,-0.1672571748495102,-1.0177727937698364
1757088700252034800,8.058034912109376,-0.5833180546760559,-0.18988445401191711,-1.238444447517395
1757088700261988900,8.06798876953125,-0.7021024823188782,-0.23350782692432404,-1.4802751541137695
1757088700271943700,8.077943603515624,-0.8092869520187378,-0.26804661750793457,-1.6731079816818237
1757088700281899000,8.08789892578125,-0.8658378720283508,-0.27555885910987854,-1.8152576684951782
1757088700291853000,8.09785302734375,-0.8674834370613098,-0.268722802400589,-1.941988468170166
1757088700301807900,8.107807861328125,-0.7984684109687805,-0.4494481086730957,-1.8500665426254272
1757088700311762000,8.117761962890626,-0.7174217700958252,-0.9276890158653259,-1.5292744636535645
1757088700321716700,8.127716796875,-0.6818177103996277,-1.2886029481887817,-1.4361556768417358
1757088700331671000,8.137671142578125,-0.5859013199806213,-1.549264669418335,-1.5012571811676025
1757088700341625900,8.1476259765625,-0.4062362015247345,-1.5756051540374756,-1.4567458629608154
1757088700351581000,8.157580810546875,-0.2617138922214508,-1.4591872692108154,-1.2083688974380493
1757088700361534700,8.16753466796875,-0.1989426612854004,-1.0669374465942383,-1.0869725942611694
1757088700371490000,8.177489990234376,-0.1310562938451767,-0.5098235607147217,-1.0705249309539795
1757088700381444000,8.187444091796875,-0.054478954523801804,-0.28598886728286743,-1.0423345565795898
1757088700391399000,8.19739892578125,-0.07209470123052597,-0.3412169814109802,-0.9881171584129333
1757088700401353000,8.20735302734375,-0.06227535754442215,-0.38889262080192566,-0.9498515725135803
1757088700411307800,8.217307861328125,-0.10775043070316315,-0.5471464395523071,-0.9168821573257446
1757088700421263000,8.22726318359375,-0.15191230177879333,-0.7171032428741455,-0.8878973722457886
1757088700431217000,8.237216796875,-0.2207840383052826,-0.7724919319152832,-0.8195601105690002
1757088700441172000,8.247171875,-0.3290625810623169,-0.6743088960647583,-0.6506672501564026
1757088700451125800,8.257125732421875,-0.3164450526237488,-0.7809341549873352,-0.5798245072364807
1757088700461080800,8.267080810546876,-0.3099602460861206,-0.7694921493530273,-0.5796633958816528
1757088700471035000,8.277034912109375,-0.30756980180740356,-0.7061147689819336,-0.557396411895752
1757088700480990000,8.286989990234375,-0.31891727447509766,-0.5967954993247986,-0.49050500988960266
1757088700490944000,8.296944091796876,-0.3476261496543884,-0.5130190849304199,-0.42152246832847595
1757088700500898800,8.30689892578125,-0.3796927332878113,-0.47084662318229675,-0.38390639424324036
1757088700510854000,8.31685400390625,-0.3454016149044037,-0.34853455424308777,-0.33036646246910095
1757088700520808000,8.326807861328126,-0.33167725801467896,-0.26142147183418274,-0.28739848732948303
1757088700530763000,8.336762939453125,-0.30437853932380676,-0.17209692299365997,-0.24705559015274048
1757088700540716800,8.346716796875,-0.2519480884075165,-0.0914878398180008,-0.20977160334587097
1757088700550672000,8.356671875,-0.22255557775497437,0.03242531791329384,-0.16371436417102814
1757088700560625700,8.366625732421875,-0.16998663544654846,0.09226042032241821,-0.14282213151454926
1757088700570581000,8.3765810546875,-0.11576707661151886,0.15803250670433044,-0.12877342104911804
1757088700580535800,8.386535888671874,-0.07266408205032349,0.21229495108127594,-0.13476793467998505
1757088700590489900,8.39648974609375,-0.05555007606744766,0.19186504185199738,-0.1631724089384079
1757088700600444700,8.406444580078125,0.02280491404235363,0.2412712126970291,-0.17580804228782654
1757088700610399000,8.41639892578125,0.0730113610625267,0.23118261992931366,-0.17487940192222595
1757088700620354000,8.42635400390625,0.09773427993059158,0.23998649418354034,-0.1687067300081253
1757088700630307800,8.436307861328125,0.12248250842094421,0.18642553687095642,-0.1608477383852005
1757088700640263000,8.446262939453124,0.1644374132156372,0.06680300086736679,-0.15721945464611053
1757088700650218000,8.456218017578125,0.1681426614522934,-0.02580389939248562,-0.11408688873052597
1757088700660172000,8.466172119140625,0.12692545354366302,-0.10089891403913498,-0.05934401601552963
1757088700670126800,8.476126953125,0.11043782532215118,-0.13970810174942017,-0.03280641511082649
1757088700680081000,8.486080810546875,0.0703926756978035,-0.12289662659168243,-0.03338858112692833
1757088700690035700,8.49603564453125,0.023971112444996834,-0.12519706785678864,-0.03947257623076439
1757088700699989800,8.50598974609375,-0.022849654778838158,-0.14809225499629974,-0.027455326169729233
1757088700709945000,8.515945068359375,-0.08497641235589981,-0.12752386927604675,0.004914863966405392
1757088700719900000,8.52589990234375,-0.1387280523777008,-0.16962552070617676,0.051603008061647415
1757088700729854000,8.53585400390625,-0.19056488573551178,-0.21877868473529816,0.08268236368894577
1757088700739808800,8.545808837890625,-0.2315317541360855,-0.30692237615585327,0.09944163262844086
1757088700749763000,8.55576318359375,-0.25383201241493225,-0.4074766933917999,0.1145060732960701
1757088700759718000,8.5657177734375,-0.2792092561721802,-0.47048601508140564,0.12777367234230042
1757088700769672000,8.575671875,-0.2889319360256195,-0.5561633706092834,0.1410074532032013
1757088700779626800,8.585626708984375,-0.29502230882644653,-0.6251773238182068,0.15794196724891663
1757088700789582000,8.59558203125,-0.3000495731830597,-0.6754727363586426,0.18101373314857483
1757088700799535900,8.605535888671875,-0.3023931384086609,-0.6979868412017822,0.22446106374263763
1757088700809491000,8.615490966796875,-0.2958500385284424,-0.708912193775177,0.28396275639533997
1757088700819445000,8.625445068359374,-0.27051350474357605,-0.6891789436340332,0.35064271092414856
1757088700829399800,8.63539990234375,-0.23717740178108215,-0.6992230415344238,0.4024782180786133
1757088700839353900,8.645353759765625,-0.21737679839134216,-0.6673330068588257,0.42026573419570923
1757088700849309000,8.655308837890624,-0.20331503450870514,-0.5486530065536499,0.4238644540309906
1757088700859264000,8.665263916015626,-0.18260283768177032,-0.3208131790161133,0.4402924180030823
1757088700869217800,8.6752177734375,-0.12736408412456512,-0.10948947817087173,0.47258034348487854
1757088700879172900,8.6851728515625,-0.04742610454559326,0.07156792283058167,0.5109442472457886
1757088700889127000,8.695126953125,0.0335310623049736,0.26401033997535706,0.5418355464935303
1757088700899082000,8.70508203125,0.09344606101512909,0.4174174666404724,0.5254339575767517
1757088700909036000,8.7150361328125,0.11740598827600479,0.6042233109474182,0.4521386921405792
1757088700918990800,8.724990966796875,0.11663953214883804,0.8295549750328064,0.3889176547527313
1757088700928945000,8.73494482421875,0.09670443832874298,1.0509980916976929,0.3567051291465759
1757088700938900000,8.74489990234375,0.07071971148252487,1.2442717552185059,0.3802490532398224
1757088700948855000,8.75485498046875,0.05734291672706604,1.3897762298583984,0.45526525378227234
1757088700958808800,8.764808837890625,0.05886678025126457,1.4529902935028076,0.5815232992172241
1757088700968764000,8.774763916015624,0.08087913691997528,1.4545786380767822,0.7367478013038635
1757088700978717700,8.7847177734375,0.11979644000530243,1.4285914897918701,0.8846539258956909
1757088700988672500,8.794672607421875,0.17444877326488495,1.3713377714157104,0.9858441948890686
1757088700998627600,8.804627685546874,0.2276906818151474,1.2153007984161377,1.04140043258667
1757088701008581600,8.81458154296875,0.2696988582611084,1.0345948934555054,1.0830692052841187
1757088701018536400,8.824536376953125,0.3167861998081207,0.9236324429512024,1.138688087463379
1757088701028490500,8.834490478515624,0.3550766110420227,0.831594705581665,1.1553378105163574
1757088701038445800,8.84444580078125,0.3895221948623657,0.7427998185157776,1.104844570159912
1757088701048399600,8.854399658203125,0.4133859872817993,0.6490320563316345,0.9894793629646301
1757088701058354700,8.864354736328124,0.415205180644989,0.5686248540878296,0.8632623553276062
1757088701068308500,8.87430859375,0.41584914922714233,0.5413221120834351,0.7679009437561035
1757088701078263600,8.884263671875,0.4241637885570526,0.607598602771759,0.7398295998573303
1757088701088218600,8.894218505859374,0.43815523386001587,0.7328502535820007,0.7874868512153625
1757088701098172700,8.904172607421875,0.4611814618110657,0.9103835225105286,0.9091635346412659
1757088701108127500,8.91412744140625,0.4650137424468994,1.084298014640808,1.0624805688858032
1757088701118081500,8.92408154296875,0.4411614239215851,1.2390143871307373,1.2236130237579346
1757088701128036600,8.93403662109375,0.39557021856307983,1.385841965675354,1.315093755722046
1757088701137990700,8.94399072265625,0.3140900135040283,1.4373176097869873,1.3546067476272583
1757088701147945700,8.95394580078125,0.21585959196090698,1.42402184009552,1.3685699701309204
1757088701157900500,8.963900634765626,0.12378239631652832,1.3331278562545776,1.346540093421936
1757088701167854600,8.9738544921875,0.06094084680080414,1.0901505947113037,1.1659494638442993
1757088701177809700,8.9838095703125,0.03259655833244324,0.6914991140365601,0.9057019352912903
1757088701187763700,8.993763671875,-0.027876371517777443,0.2504956126213074,0.7481930255889893
1757088701197718500,9.003718505859375,-0.023678697645664215,0.06150783598423004,0.6662121415138245
1757088701207672600,9.013672607421874,-0.0062485747039318085,-0.08018378168344498,0.7019224166870117
1757088701217627600,9.023627685546876,0.041182588785886765,-0.06684241443872452,0.736343502998352
1757088701227582700,9.033582763671875,0.13336019217967987,0.045944321900606155,0.7615231871604919
1757088701237536800,9.043536865234374,0.22064635157585144,0.11117525398731232,0.7667733430862427
1757088701247491600,9.05349169921875,0.29309260845184326,0.10475756973028183,0.7388506531715393
1757088701257445600,9.063445556640625,0.34865331649780273,0.050518300384283066,0.7060490250587463
1757088701267400400,9.073400390625,0.3625030815601349,-0.049545980989933014,0.6922224164009094
1757088701277354800,9.083354736328126,0.3789781928062439,-0.1220494732260704,0.7028185725212097
1757088701287309600,9.0933095703125,0.400488018989563,-0.15903306007385254,0.7241928577423096
1757088701297264600,9.1032646484375,0.433322936296463,-0.19881722331047058,0.7399787306785583
1757088701307218400,9.113218505859376,0.48207396268844604,-0.24457725882530212,0.7496590614318848
1757088701317173800,9.123173828125,0.5410614013671875,-0.3031068742275238,0.752635657787323
1757088701327127800,9.1331279296875,0.592216432094574,-0.3758915960788727,0.7349187135696411
1757088701337082600,9.14308251953125,0.628457248210907,-0.37038978934288025,0.7239049673080444
1757088701347036700,9.15303662109375,0.6323620080947876,-0.31762775778770447,0.7276935577392578
1757088701356991500,9.162991455078124,0.607895016670227,-0.2720371186733246,0.7226296067237854
1757088701366946800,9.17294677734375,0.5905477404594421,-0.08035742491483688,0.7383270263671875
1757088701376900600,9.182900634765625,0.5699177980422974,0.09514862298965454,0.7414488196372986
1757088701386855700,9.192855712890625,0.5520836710929871,0.154309943318367,0.6866564154624939
1757088701396809500,9.2028095703125,0.5201600790023804,0.14041756093502045,0.587804913520813
1757088701406764500,9.2127646484375,0.4873334467411041,0.1273757964372635,0.4919883906841278
1757088701416718800,9.22271875,0.4670151174068451,0.16841751337051392,0.40120255947113037
1757088701426673700,9.232673583984376,0.45138421654701233,0.23544101417064667,0.3311230540275574
1757088701436628500,9.24262841796875,0.45118796825408936,0.2749151885509491,0.27530214190483093
1757088701446582500,9.25258251953125,0.46934112906455994,0.27185067534446716,0.2189137041568756
1757088701456537600,9.26253759765625,0.48554727435112,0.2552456259727478,0.1675138920545578
1757088701466491600,9.27249169921875,0.47663232684135437,0.28010836243629456,0.14367221295833588
1757088701476446700,9.28244677734375,0.4334254562854767,0.386289119720459,0.12133149057626724
1757088701486400500,9.292400390625,0.3724958002567291,0.5120459794998169,0.11404268443584442
1757088701496355600,9.30235546875,0.30275028944015503,0.6341338157653809,0.10158894211053848
1757088701506309600,9.3123095703125,0.21807295083999634,0.6529977917671204,0.1096535250544548
1757088701516264700,9.3222646484375,0.15293948352336884,0.5824745893478394,0.0979851558804512
1757088701526219500,9.332219482421875,0.12521198391914368,0.6050843000411987,0.004308462142944336
1757088701536173600,9.342173583984374,0.08381873369216919,0.6768048405647278,-0.12612225115299225
1757088701546128400,9.35212841796875,0.04343242943286896,0.6458432078361511,-0.27129700779914856
1757088701556082700,9.362082763671875,0.006561496295034885,0.5253143906593323,-0.4580671787261963
1757088701566037800,9.372037841796875,-0.08859644085168839,0.4203408360481262,-0.6787531971931458
1757088701575991600,9.381991455078126,-0.2161935567855835,0.351508229970932,-0.9009018540382385
1757088701585946600,9.391946533203125,-0.3272228538990021,0.25327062606811523,-1.1042944192886353
1757088701595901400,9.4019013671875,-0.42213261127471924,0.07816191017627716,-1.3163509368896484
1757088701605855700,9.411855712890626,-0.49945828318595886,-0.12134294211864471,-1.5538183450698853
1757088701615810600,9.421810546875,-0.5672591924667358,-0.3410337567329407,-1.8037000894546509
1757088701625764600,9.4317646484375,-0.614101767539978,-0.4402913749217987,-2.0505905151367188
1757088701635719400,9.441719482421876,-0.615818202495575,-0.40450355410575867,-2.2767016887664795
1757088701645673500,9.451673583984375,-0.5645395517349243,-0.40885913372039795,-2.4829139709472656
1757088701655628800,9.46162890625,-0.5360346436500549,-0.4983125925064087,-2.5844781398773193
1757088701665583600,9.47158349609375,-0.503372073173523,-0.4210715889930725,-2.485269546508789
1757088701675537700,9.48153759765625,-0.4712594151496887,-0.04192934185266495,-2.2802746295928955
1757088701685492500,9.491492431640625,-0.4408527612686157,0.42267560958862305,-2.096186399459839
1757088701695446500,9.501446533203126,-0.38310742378234863,0.9913257360458374,-1.878476858139038
1757088701705401600,9.511401611328125,-0.24758397042751312,1.5598124265670776,-1.6016905307769775
1757088701715355600,9.521355712890625,-0.12888021767139435,2.042375087738037,-1.4105634689331055
1757088701725310500,9.531310546875,-0.1975034922361374,2.193047523498535,-1.1811805963516235
1757088701735265500,9.541265625,-0.43943408131599426,2.1714706420898438,-1.0935416221618652
1757088701745219600,9.551219482421875,-0.6191572546958923,1.9321156740188599,-1.3004097938537598
1757088701755174700,9.561174560546876,-0.7832545638084412,1.1737682819366455,-1.5703043937683105
1757088701765128700,9.571128662109375,-0.9202659726142883,0.274770587682724,-1.7776334285736084
1757088701775083500,9.58108349609375,-0.9811878800392151,-0.5359888672828674,-1.93012273311615
1757088701785037600,9.59103759765625,-1.014876127243042,-1.1649789810180664,-1.9227495193481445
1757088701794992600,9.60099267578125,-1.0364437103271484,-1.6949340105056763,-1.8641307353973389
1757088701804947700,9.61094775390625,-0.9598637223243713,-1.7839075326919556,-1.805849313735962
1757088701814901500,9.620901611328126,-0.9640179872512817,-1.8894459009170532,-1.672613263130188
1757088701824856600,9.630856689453125,-0.9977881908416748,-1.9757094383239746,-1.5294110774993896
1757088701834810400,9.640810302734375,-1.025801658630371,-1.8690983057022095,-1.425464153289795
1757088701844765700,9.650765625,-1.0285735130310059,-1.6953822374343872,-1.312119960784912
1757088701854719700,9.6607197265625,-0.9914141893386841,-1.609931468963623,-1.1337566375732422
1757088701864674600,9.670674560546875,-0.9560835957527161,-1.4925081729888916,-0.9616738557815552
1757088701874629400,9.68062939453125,-0.9076950550079346,-1.3572757244110107,-0.7718048691749573
1757088701884583700,9.690583740234375,-0.815166711807251,-1.2753643989562988,-0.566135585308075
1757088701894538800,9.700538818359375,-0.7450369000434875,-1.157975673675537,-0.36651673913002014
1757088701904492500,9.710492431640626,-0.6660534143447876,-1.0581114292144775,-0.1880045235157013
1757088701914447600,9.720447509765625,-0.5862075686454773,-0.9464088678359985,-0.06563280522823334
1757088701924401400,9.7304013671875,-0.5087327361106873,-0.8481051921844482,-0.0034402713645249605
1757088701934356700,9.740356689453124,-0.41015395522117615,-0.7414637207984924,0.032579515129327774
1757088701944311600,9.7503115234375,-0.323080837726593,-0.6255615949630737,0.08697883784770966
1757088701954265600,9.760265625,-0.2639879584312439,-0.5342865586280823,0.19670774042606354
1757088701964220400,9.770220458984374,-0.22077685594558716,-0.5007909536361694,0.3334977924823761
1757088701974174500,9.780174560546875,-0.1978347897529602,-0.4683339297771454,0.4589441418647766
1757088701984129800,9.7901298828125,-0.17740221321582794,-0.48353737592697144,0.5780606865882874
1757088701994083800,9.800083740234374,-0.16832110285758972,-0.5107551217079163,0.676110565662384
1757088702004039000,9.810038818359375,-0.15238021314144135,-0.5651427507400513,0.7617602348327637
1757088702013992700,9.81999267578125,-0.12334749847650528,-0.5784924030303955,0.8568971157073975
1757088702023947800,9.82994775390625,-0.07652033865451813,-0.5642090439796448,0.985069990158081
1757088702033902800,9.83990283203125,-0.03802860900759697,-0.45044785737991333,1.131083607673645
1757088702043857000,9.84985693359375,-0.0290532223880291,-0.3974858522415161,1.2070186138153076
1757088702053811700,9.859811767578124,-0.008259261026978493,-0.3838919997215271,1.1491918563842773
1757088702063765800,9.869765869140625,0.06370361149311066,-0.4482169449329376,0.9519583582878113
1757088702073720600,9.879720458984375,0.12748338282108307,-0.5723974704742432,0.6540073752403259
1757088702083676000,9.889676025390624,0.1518092304468155,-0.6939857006072998,0.27383819222450256
1757088702093630000,9.8996298828125,0.1139310970902443,-0.8372469544410706,-0.1357754021883011
1757088702103584800,9.909584716796875,0.03882249817252159,-0.92686527967453,-0.46718263626098633
1757088702113538800,9.919538818359374,-0.07965967804193497,-0.9886192083358765,-0.6385370492935181
1757088702123493600,9.92949365234375,-0.18578077852725983,-1.0323346853256226,-0.6716929078102112
1757088702133448000,9.939447998046875,-0.2910430133342743,-0.983954906463623,-0.6525327563285828
1757088702143402800,9.94940283203125,-0.3573245704174042,-0.8927816152572632,-0.6253376603126526
1757088702153356800,9.959356689453125,-0.4067475199699402,-0.8109272122383118,-0.6069605350494385
1757088702163311600,9.9693115234375,-0.40226516127586365,-0.640108048915863,-0.5685017704963684
1757088702173267000,9.979266845703124,-0.32042914628982544,-0.4204888939857483,-0.3821617364883423
1757088702183220700,9.989220703125,-0.24870754778385162,-0.3132535219192505,-0.16819007694721222
1757088702193175800,9.99917578125,-0.19043172895908356,-0.35758769512176514,-0.11481686681509018
1757088702203129900,10.0091298828125,-0.15062253177165985,-0.22298727929592133,-0.16489814221858978
1757088702213084700,10.019084716796876,-0.1296623945236206,0.19829444587230682,-0.079498291015625
1757088702223038700,10.029038818359375,-0.12170113623142242,0.8296375274658203,0.22620676457881927
1757088702232993800,10.038993896484374,-0.02430320903658867,1.372188687324524,0.616349458694458
1757088702242948900,10.048948974609376,0.13445740938186646,1.6331361532211304,0.932471752166748
1757088702252902700,10.058902587890625,0.26596590876579285,1.6890182495117188,1.0477330684661865
1757088702262857700,10.068857666015624,0.35966309905052185,1.6302522420883179,0.9661583304405212
1757088702272811800,10.078811767578125,0.36660516262054443,1.3922926187515259,0.7306909561157227
1757088702282766800,10.088766845703125,0.3370957374572754,0.9856913089752197,0.4027349352836609
1757088702292721000,10.098720947265624,0.37712064385414124,0.6813870668411255,0.1106487512588501
1757088702302675700,10.10867578125,0.4151327610015869,0.7549955248832703,0.03465438261628151
1757088702312630800,10.118630859375,0.3944128155708313,0.9065576195716858,0.2122001349925995
1757088702322584800,10.128584716796874,0.31358829140663147,1.0505568981170654,0.5497089624404907
1757088702332540000,10.138539794921876,0.2904488742351532,1.0753061771392822,0.9002770781517029
1757088702342493700,10.14849365234375,0.25031983852386475,0.9745398759841919,1.2442091703414917
1757088702352448800,10.15844873046875,0.2516005337238312,0.9734402298927307,1.5883641242980957
1757088702362402600,10.168402587890625,0.3178749084472656,1.1077243089675903,1.8927279710769653
1757088702372358000,10.17835791015625,0.377246618270874,1.2859078645706177,2.0905988216400146
1757088702382312700,10.188312744140624,0.37472113966941833,1.4698153734207153,2.13893461227417
1757088702392266800,10.198266845703126,0.3340163230895996,1.6274536848068237,1.8915083408355713
1757088702402221600,10.2082216796875,0.33333322405815125,1.5668073892593384,1.3830277919769287
1757088702412175600,10.218175537109374,0.3856334388256073,1.063963532447815,0.9065043330192566
1757088702422131000,10.228130859375,0.38419055938720703,0.5805613994598389,0.6991444826126099
1757088702432084700,10.238084716796875,0.3574707806110382,0.4870207905769348,0.7530860304832458
1757088702442039800,10.248039794921874,0.2723020911216736,0.7971085906028748,0.9350441098213196
1757088702451994600,10.25799462890625,0.2477291077375412,1.165825366973877,1.1906652450561523
1757088702461949000,10.267948974609375,0.22308820486068726,1.2826426029205322,1.3897088766098022
1757088702471903700,10.27790380859375,0.21951930224895477,1.093050241470337,1.479404091835022
1757088702481857800,10.28785791015625,0.2423071712255478,0.696900486946106,1.4050004482269287
1757088702491812600,10.2978125,0.2501872181892395,0.2202351689338684,1.2415574789047241
1757088702501766700,10.3077666015625,0.31692948937416077,0.02907319739460945,1.0034098625183105
1757088702511721700,10.3177216796875,0.3595203459262848,-0.12360316514968872,0.9012539386749268
1757088702521676800,10.3276767578125,0.3831431269645691,-0.23916225135326385,0.9710532426834106
1757088702531630800,10.337630859375,0.381058931350708,-0.13631869852542877,1.0758198499679565
1757088702541585700,10.347585693359376,0.3940224051475525,0.11044235527515411,1.110615611076355
1757088702551539700,10.357539794921875,0.42152461409568787,0.2926643490791321,1.0838980674743652
1757088702561494800,10.367494873046875,0.443595826625824,0.2722501754760742,1.0549638271331787
1757088702571448800,10.37744873046875,0.4292041063308716,0.12966665625572205,1.050907015800476
1757088702581403600,10.387403564453125,0.36330658197402954,-0.08957888185977936,1.116041898727417
1757088702591358700,10.397358642578125,0.39854392409324646,-0.18857364356517792,1.095507264137268
1757088702601312800,10.407312744140626,0.5047667622566223,-0.06938280165195465,1.0463855266571045
1757088702611267800,10.417267822265625,0.5926724076271057,0.028812473639845848,1.000908374786377
1757088702621222000,10.427221923828125,0.6521865725517273,0.032765936106443405,0.9524388313293457
1757088702631176700,10.4371767578125,0.7014231085777283,-0.012458800338208675,0.8896305561065674
1757088702641130800,10.447130859375,0.7296403646469116,0.007727161981165409,0.8647667765617371
1757088702651085800,10.4570859375,0.7366652488708496,0.10732059925794601,0.87800133228302
1757088702661041000,10.467041015625,0.7203163504600525,0.2321818321943283,0.8705929517745972
1757088702670994700,10.47699462890625,0.7180675864219666,0.29042571783065796,0.8374776244163513
1757088702680949800,10.48694970703125,0.7291154265403748,0.2961597442626953,0.7676447033882141
1757088702690903600,10.496903564453126,0.7546961903572083,0.28182849287986755,0.6611433029174805
1757088702700859000,10.50685888671875,0.7442994713783264,0.278850793838501,0.5588765740394592
1757088702710813700,10.516813720703125,0.693230390548706,0.2762363851070404,0.4644552767276764
1757088702720767700,10.526767822265626,0.6200145483016968,0.35061901807785034,0.3595896065235138
1757088702730722600,10.53672265625,0.5280116200447083,0.46404197812080383,0.26228994131088257
1757088702740676900,10.5466767578125,0.4390479326248169,0.5412390232086182,0.19316387176513672
1757088702750632000,10.5566318359375,0.36630022525787354,0.5276046991348267,0.1467689424753189
1757088702760585700,10.566585693359375,0.2996112108230591,0.45127344131469727,0.11074408888816833
1757088702770540800,10.576540771484375,0.24583613872528076,0.3897213935852051,0.1092817485332489
1757088702780496000,10.586495849609374,0.1952536553144455,0.4136253893375397,0.12344098091125488
1757088702790450000,10.596449951171875,0.14747734367847443,0.5040000081062317,0.09626448154449463
1757088702800404700,10.60640478515625,0.09038902074098587,0.6329902410507202,0.05216946080327034
1757088702810358800,10.61635888671875,0.07097377628087997,0.7129213213920593,0.007548197638243437
1757088702820313600,10.626313720703125,0.0933360755443573,0.8081812262535095,-0.10364063829183578
1757088702830267600,10.636267578125,0.08518759906291962,0.9378734230995178,-0.2708040773868561
1757088702840222700,10.64622265625,0.014991465955972672,0.8656988739967346,-0.435189813375473
1757088702850177800,10.656177734375,-0.09385405480861664,0.6090971827507019,-0.6128495335578918
1757088702860131800,10.6661318359375,-0.1977309137582779,0.3879445493221283,-0.8033787608146667
1757088702870086700,10.676086669921874,-0.2893524467945099,0.3434465825557709,-1.0357451438903809
1757088702880041000,10.686041015625,-0.3844808340072632,0.32617491483688354,-1.306197166442871
1757088702889995800,10.695995849609375,-0.4624355435371399,0.3075929582118988,-1.5684415102005005
1757088702899949800,10.70594970703125,-0.5781469941139221,0.3085106909275055,-1.8093444108963013
1757088702909904600,10.715904541015625,-0.6916272044181824,0.25863927602767944,-2.021013021469116
1757088702919860000,10.72585986328125,-0.7842423319816589,0.13265125453472137,-2.2055721282958984
1757088702929813800,10.735813720703124,-0.8115165829658508,-0.10936111211776733,-2.419076919555664
1757088702939768800,10.745768798828125,-0.786554217338562,-0.4858234226703644,-2.598658323287964
1757088702949723000,10.755722900390625,-0.7098323106765747,-0.768398642539978,-2.5895137786865234
1757088702959677700,10.765677734375,-0.6339079737663269,-0.6476312279701233,-2.344627618789673
1757088702969631700,10.7756318359375,-0.6335511207580566,-0.2295013666152954,-2.057142734527588
1757088702979586800,10.7855869140625,-0.6895642876625061,0.19951683282852173,-1.8609932661056519
1757088702989542000,10.7955419921875,-0.7473759651184082,0.6502184867858887,-1.7503857612609863
1757088702999495000,10.805494873046875,-0.818981945514679,0.9693970084190369,-1.6412817239761353
1757088703009450000,10.815449951171875,-0.8079420924186707,1.1312285661697388,-1.5647757053375244
1757088703019404000,10.825404052734376,-0.8714110851287842,1.1738688945770264,-1.4656155109405518
1757088703029358800,10.83535888671875,-0.9630565643310547,1.092972755432129,-1.3772166967391968
1757088703039313200,10.845313232421875,-1.0238943099975586,0.7726892828941345,-1.4096037149429321
1757088703049268000,10.85526806640625,-0.9957034587860107,0.18759359419345856,-1.6031742095947266
1757088703059223000,10.86522314453125,-0.8843300342559814,-0.3076092302799225,-1.8301008939743042
1757088703069176800,10.8751767578125,-0.8978461623191833,-0.8526650667190552,-1.8996336460113525
1757088703079132200,10.885132080078124,-0.8842637538909912,-1.3647022247314453,-1.8355941772460938
1757088703089086000,10.8950859375,-0.8927821516990662,-1.5995970964431763,-1.7566468715667725
1757088703099041000,10.905041015625,-0.8950327634811401,-1.532989501953125,-1.6639600992202759
1757088703108995800,10.914995849609374,-0.8606308698654175,-1.6230539083480835,-1.6510101556777954
1757088703118950000,10.924949951171875,-0.8142436742782593,-1.8081105947494507,-1.6969441175460815
1757088703128905000,10.934905029296875,-0.7713920474052429,-1.9600564241409302,-1.7143667936325073
1757088703138859000,10.94485888671875,-0.75651615858078,-2.037475347518921,-1.628244161605835
1757088703148814000,10.95481396484375,-0.7500303387641907,-1.9442942142486572,-1.5058258771896362
1757088703158767900,10.964767822265625,-0.7000046968460083,-1.7415118217468262,-1.3323867321014404
1757088703168723000,10.974722900390624,-0.6125749945640564,-1.49405038356781,-1.0831518173217773
1757088703178678000,10.984677978515625,-0.519138514995575,-1.2491767406463623,-0.7699861526489258
1757088703188632000,10.994632080078125,-0.42490655183792114,-0.9740466475486755,-0.4277398884296417
1757088703198587000,11.0045869140625,-0.3504123389720917,-0.751197338104248,-0.12323937565088272
1757088703208541000,11.014541015625,-0.29804155230522156,-0.5593626499176025,0.12832361459732056
1757088703218496000,11.02449609375,-0.24150130152702332,-0.4213232696056366,0.32857415080070496
1757088703228450000,11.034449951171876,-0.1776919662952423,-0.37638989090919495,0.4956635534763336
1757088703238404900,11.04440478515625,-0.10055270791053772,-0.28849971294403076,0.6363692879676819
1757088703248360000,11.05435986328125,-0.03635374829173088,-0.18937711417675018,0.7808305621147156
1757088703258314000,11.06431396484375,-0.012183429673314095,-0.2026287466287613,0.9341458082199097
1757088703268269000,11.07426904296875,0.0056983656249940395,-0.2051968276500702,1.0204375982284546
1757088703278223000,11.08422314453125,0.02726144902408123,-0.2759847044944763,1.0650979280471802
1757088703288178000,11.094177978515624,0.0695606991648674,-0.3853074610233307,1.1110990047454834
1757088703298132000,11.104132080078125,0.08937408775091171,-0.4795317053794861,1.1950650215148926
1757088703308086800,11.114086669921875,0.07366064190864563,-0.5613618493080139,1.2751986980438232
1757088703318042000,11.1240419921875,0.029158150777220726,-0.6617031097412109,1.2874282598495483
1757088703327996000,11.133995849609375,-0.007211573887616396,-0.6994965672492981,1.2238942384719849
1757088703337951000,11.143950927734375,0.03393160179257393,-0.6441038846969604,1.0780577659606934
1757088703347905000,11.153905029296874,0.14621180295944214,-0.5476527214050293,0.7971740961074829
1757088703357860000,11.163860107421876,0.19796395301818848,-0.4562447667121887,0.38167810440063477
1757088703367814100,11.173814208984375,0.13937945663928986,-0.4217240810394287,-0.12481383979320526
1757088703377769000,11.18376904296875,-0.015929697081446648,-0.6177489757537842,-0.6063612699508667
1757088703387724000,11.19372412109375,-0.18381990492343903,-0.7684926986694336,-0.9234513640403748
1757088703397677800,11.203677734375,-0.29632672667503357,-0.7893974184989929,-1.0295653343200684
1757088703407633200,11.213633056640624,-0.3429802656173706,-0.866726815700531,-0.972147524356842
1757088703417587000,11.2235869140625,-0.3434090316295624,-0.9850612282752991,-0.8131363391876221
1757088703427542000,11.2335419921875,-0.31133419275283813,-1.0331480503082275,-0.6533953547477722
1757088703437496800,11.243496826171874,-0.2553151249885559,-0.9549315571784973,-0.46087199449539185
1757088703447451000,11.253450927734375,-0.1843717098236084,-0.7268552184104919,-0.23817262053489685
1757088703457406000,11.263406005859375,-0.16203977167606354,-0.5539659857749939,-0.10639381408691406
1757088703467360000,11.273360107421874,-0.13750059902668,-0.3400140404701233,-0.12696753442287445
1757088703477315000,11.283315185546876,-0.12145346403121948,0.07590222358703613,-0.1714484542608261
1757088703487268900,11.293268798828125,-0.15202894806861877,0.7343062162399292,-0.030850324779748917
1757088703497224200,11.30322412109375,-0.14939188957214355,1.4572335481643677,0.33805128931999207
1757088703507179000,11.313178955078126,-0.06765574216842651,1.9362483024597168,0.7446815967559814
1757088703517133000,11.323133056640625,0.045827411115169525,1.935323715209961,0.9016238451004028
1757088703527087900,11.333087890625,0.06943366676568985,1.618664264678955,0.7729889154434204
1757088703537042000,11.3430419921875,0.07425639033317566,1.0801341533660889,0.4577134847640991
1757088703546997000,11.3529970703125,0.1498773843050003,0.6422207355499268,0.129408061504364
1757088703556951000,11.362950927734374,0.26309555768966675,0.4222548305988312,-0.08677563816308975
1757088703566905900,11.37290576171875,0.40985941886901855,0.4528135359287262,-0.15782850980758667
1757088703576861000,11.38286083984375,0.43331974744796753,0.6213793754577637,-0.04531661421060562
1757088703586815000,11.39281494140625,0.39982515573501587,0.8838634490966797,0.27553436160087585
1757088703596770000,11.40277001953125,0.3538496792316437,1.1363215446472168,0.7509182095527649
1757088703606724000,11.41272412109375,0.3131091892719269,1.1673049926757812,1.2478915452957153
1757088703616679000,11.422678955078124,0.3298839032649994,1.144540548324585,1.683009386062622
1757088703626633000,11.432633056640626,0.40912118554115295,1.2264330387115479,2.0219316482543945
1757088703636588000,11.442588134765625,0.44650399684906006,1.3306572437286377,2.2428717613220215
1757088703646543000,11.452543212890625,0.38976988196372986,1.4556689262390137,2.309584856033325
1757088703656497000,11.462496826171876,0.24847692251205444,1.608300805091858,2.0623998641967773
1757088703666452000,11.472451904296875,0.14033207297325134,1.4689018726348877,1.5260943174362183
1757088703676406000,11.482406005859374,0.19281312823295593,0.7781069278717041,0.9311106204986572
1757088703686361000,11.492361083984376,0.221388041973114,0.32323557138442993,0.6377700567245483
1757088703696316000,11.50231591796875,0.17890290915966034,0.3968152701854706,0.6045535206794739
1757088703706270000,11.51227001953125,0.1350904405117035,0.6245943903923035,0.6896572709083557
1757088703716225000,11.52222509765625,0.13175083696842194,0.7739766836166382,0.8072925209999084
1757088703726178800,11.5321787109375,0.16423074901103973,0.8555668592453003,0.9070457816123962
1757088703736134100,11.542134033203125,0.20867837965488434,0.8284510970115662,1.018240213394165
1757088703746088000,11.552087890625,0.21099746227264404,0.7525011897087097,1.0678104162216187
1757088703756043000,11.56204296875,0.2891457974910736,0.621417224407196,1.0572706460952759
1757088703765997800,11.571997802734375,0.3389658033847809,0.4299532473087311,0.9645713567733765
1757088703775952100,11.5819521484375,0.3755856156349182,0.15286198258399963,0.94509357213974
1757088703785907000,11.591906982421875,0.39414411783218384,0.0032059133518487215,0.9265957474708557
1757088703795861000,11.601861083984375,0.42292702198028564,0.042807918041944504,0.8954436779022217
1757088703805815800,11.61181591796875,0.4397808313369751,0.1730724424123764,0.882943868637085
1757088703815769900,11.621769775390625,0.42661869525909424,0.21495464444160461,0.8901218771934509
1757088703825725200,11.63172509765625,0.3954210877418518,0.16849367320537567,0.8934196829795837
1757088703835680000,11.641679931640626,0.36230868101119995,0.05122324079275131,0.8741384148597717
1757088703845634000,11.651634033203125,0.3350592255592346,-0.07656561583280563,0.8433759808540344
1757088703855588900,11.6615888671875,0.3239152133464813,-0.15849536657333374,0.8088899254798889
1757088703865543000,11.67154296875,0.352701336145401,-0.22787390649318695,0.8099541068077087
1757088703875498000,11.681498046875,0.3880763649940491,-0.24908864498138428,0.8174711465835571
1757088703885452000,11.6914521484375,0.4319940209388733,-0.26048165559768677,0.8094601035118103
1757088703895406800,11.70140673828125,0.49143311381340027,-0.2967062294483185,0.7946680784225464
1757088703905362000,11.71136181640625,0.5430685877799988,-0.33738973736763,0.7827908992767334
1757088703915316000,11.72131591796875,0.5756521224975586,-0.36718493700027466,0.7864402532577515
1757088703925271000,11.73127099609375,0.5964151620864868,-0.36486291885375977,0.7931759357452393
1757088703935225000,11.74122509765625,0.61739182472229,-0.3041258156299591,0.7623040080070496
1757088703945180000,11.751179931640625,0.6537530422210693,-0.2369297295808792,0.6751704812049866
1757088703955135000,11.761135009765624,0.6863458752632141,-0.13489896059036255,0.5958532691001892
1757088703965089000,11.771089111328125,0.7085832953453064,-0.026276344433426857,0.5377827882766724
1757088703975044000,11.781044189453125,0.6915414333343506,0.051062118262052536,0.4944494068622589
1757088703984998000,11.790997802734376,0.6225610375404358,0.10159080475568771,0.44529038667678833
1757088703994953200,11.800953125,0.5039244294166565,0.07829267531633377,0.3948482573032379
1757088704004907000,11.810906982421875,0.3849535286426544,0.09501226246356964,0.3338589370250702
1757088704014862000,11.820862060546874,0.3057476580142975,0.18273040652275085,0.26913294196128845
1757088704024817000,11.83081689453125,0.26017406582832336,0.2687358558177948,0.21136683225631714
1757088704034771200,11.840771240234375,0.2180042415857315,0.2968292832374573,0.16750164330005646
1757088704044726000,11.85072607421875,0.18175701797008514,0.3087884783744812,0.17145884037017822
1757088704054680000,11.86068017578125,0.13278627395629883,0.31200531125068665,0.19862042367458344
1757088704064635100,11.87063525390625,0.09327002614736557,0.34139034152030945,0.22176861763000488
1757088704074589000,11.8805888671875,0.07269471138715744,0.41284775733947754,0.2356484830379486
1757088704084544300,11.890544189453125,0.08834531158208847,0.5008540153503418,0.23980087041854858
1757088704094499000,11.9004990234375,0.1314866542816162,0.6118479371070862,0.1806720495223999
1757088704104453000,11.910453125,0.18162599205970764,0.7314531803131104,0.08408664911985397
1757088704114408000,11.920407958984375,0.20390918850898743,0.8300774693489075,-0.0162948165088892
1757088704124362000,11.930362060546875,0.19871096312999725,0.8156617879867554,-0.12879632413387299
1757088704134317000,11.940317138671874,0.17744135856628418,0.7281716465950012,-0.2597748637199402
1757088704144271000,11.95027099609375,0.1374547928571701,0.6442748308181763,-0.41960179805755615
1757088704154226200,11.96022607421875,0.06852393597364426,0.6019982099533081,-0.6032272577285767
1757088704164181000,11.970180908203124,-0.03437288850545883,0.5709231495857239,-0.7892096638679504
1757088704174135300,11.98013525390625,-0.13104777038097382,0.5136973857879639,-0.9687557220458984
1757088704184090000,11.990090087890625,-0.22620756924152374,0.41960659623146057,-1.1568846702575684
1757088704194044200,12.000044189453124,-0.3294503390789032,0.3373982608318329,-1.3417495489120483
1757088704203999000,12.0099990234375,-0.4735502600669861,0.24313488602638245,-1.511473298072815
1757088704213953000,12.019953125,-0.5916563868522644,0.1717858761548996,-1.6618626117706299
1757088704223908000,12.029908203125,-0.6193082332611084,0.20969490706920624,-1.8401402235031128
1757088704233863200,12.03986328125,-0.5825480818748474,0.30232229828834534,-2.0622341632843018
1757088704243817200,12.049817138671875,-0.5735993385314941,0.33493486046791077,-2.2088677883148193
1757088704253772000,12.05977197265625,-0.5905168056488037,0.37200552225112915,-2.1832704544067383
1757088704263726000,12.06972607421875,-0.559706449508667,0.4809146821498871,-2.010094404220581
1757088704273681200,12.07968115234375,-0.46352824568748474,0.6163311004638672,-1.8154569864273071
1757088704283635200,12.08963525390625,-0.352660596370697,0.7274722456932068,-1.66179358959198
1757088704293590000,12.099590087890626,-0.2514210343360901,0.8711479306221008,-1.5418405532836914
1757088704303545000,12.109545166015625,-0.21455304324626923,0.9921737313270569,-1.4752857685089111
1757088704313499100,12.1194990234375,-0.25134700536727905,0.9556806683540344,-1.4217413663864136
1757088704323454200,12.1294541015625,-0.37815210223197937,0.8160703182220459,-1.4024109840393066
1757088704333408000,12.139407958984375,-0.6310919523239136,0.49446380138397217,-1.4163691997528076
1757088704343363000,12.149363037109374,-0.8995732069015503,0.12100924551486969,-1.4058600664138794
1757088704353318100,12.159318115234376,-1.0276520252227783,-0.29204490780830383,-1.4194350242614746
1757088704363272200,12.169272216796875,-1.038347840309143,-0.9358497262001038,-1.4820970296859741
1757088704373227000,12.17922705078125,-1.0123440027236938,-1.7222497463226318,-1.5254034996032715
1757088704383181000,12.18918115234375,-0.9705933332443237,-2.3215510845184326,-1.544020652770996
1757088704393136000,12.19913623046875,-0.9420633912086487,-2.5692334175109863,-1.5412077903747559
1757088704403090000,12.20908984375,-0.9373916983604431,-2.5712578296661377,-1.5216820240020752
1757088704413045200,12.219045166015626,-0.9503428936004639,-2.4683961868286133,-1.490384578704834
1757088704423000000,12.229,-0.9712492227554321,-2.39459490776062,-1.462138056755066
