time,seconds_elapsed,z,y,x
1757088692213721000,0.01972119140625,-0.16485360264778137,0.3932988941669464,0.13561438024044037
1757088692223675100,0.029675048828125,-0.13597571849822998,0.3045105040073395,0.09042475372552872
1757088692233630200,0.039630126953125,-0.1231672540307045,0.25627854466438293,0.06146128475666046
1757088692243585000,0.0495849609375,-0.11993664503097534,0.2599336504936218,0.042817696928977966
1757088692253539000,0.0595390625,-0.11483535915613174,0.266043484210968,0.03407081216573715
1757088692263494000,0.069493896484375,-0.11979153752326965,0.2717733085155487,0.02853301912546158
1757088692273448000,0.079447998046875,-0.13059864938259125,0.271187424659729,0.02601926214993
1757088692283403300,0.0894033203125,-0.1419367790222168,0.2558916211128235,0.039829984307289124
1757088692293357000,0.099357177734375,-0.1474258154630661,0.2355394959449768,0.07139803469181061
1757088692303312100,0.10931201171875,-0.1498156636953354,0.21595360338687897,0.10454519838094711
1757088692313266000,0.119265869140625,-0.15151183307170868,0.19636045396327972,0.12011083960533142
1757088692323221200,0.12922119140625,-0.1376037299633026,0.19227808713912964,0.11717923730611801
1757088692333176000,0.139176025390625,-0.11123497784137726,0.19822412729263306,0.10343199968338013
1757088692343130000,0.149130126953125,-0.07544958591461182,0.23080259561538696,0.09098383784294128
1757088692353085000,0.1590849609375,-0.038484640419483185,0.2658601999282837,0.09044481068849564
1757088692363039000,0.1690390625,-0.004256457090377808,0.2901856303215027,0.11631292849779129
1757088692372994300,0.178994384765625,0.010658043436706066,0.3313405215740204,0.16715507209300995
1757088692382948000,0.188947998046875,0.014579919166862965,0.40126335620880127,0.2253912389278412
1757088692392903200,0.198903076171875,0.0042047761380672455,0.46034958958625793,0.289963036775589
1757088692402857000,0.20885693359375,-0.006605178117752075,0.4992986023426056,0.35118818283081055
1757088692412812000,0.21881201171875,-0.013940056785941124,0.5037851929664612,0.3953489661216736
1757088692422767000,0.22876708984375,-0.011932116001844406,0.4581040143966675,0.42283427715301514
1757088692432721200,0.23872119140625,-0.011871129274368286,0.37861478328704834,0.4437033534049988
1757088692442676000,0.248676025390625,-0.011736742220818996,0.2865597605705261,0.44846826791763306
1757088692452630000,0.258630126953125,-0.004279358312487602,0.18243150413036346,0.4191412627696991
1757088692462585000,0.268585205078125,0.011702083982527256,0.12416501343250275,0.3633665144443512
1757088692472539100,0.2785390625,0.0370793454349041,0.11539735645055771,0.2943775951862335
1757088692482494200,0.288494140625,0.06092136353254318,0.12248717993497849,0.21107980608940125
1757088692492449000,0.298448974609375,0.07282809168100357,0.12094840407371521,0.12942223250865936
1757088692502403000,0.308403076171875,0.07191707193851471,0.11251824349164963,0.05043165758252144
1757088692512358100,0.318358154296875,0.05951526388525963,0.09697123616933823,-0.01319658663123846
1757088692522312200,0.328312255859375,0.04835731163620949,0.05769446864724159,-0.04906221851706505
1757088692532267000,0.33826708984375,0.03648041561245918,0.0006604769150726497,-0.05179089307785034
1757088692542221000,0.348220947265625,0.029464036226272583,-0.04192781820893288,-0.026820136234164238
1757088692552175900,0.35817578125,0.03195595741271973,-0.040654294192790985,0.003622459713369608
1757088692562131200,0.368131103515625,0.07135496288537979,-0.03684673085808754,0.01806049421429634
1757088692572085200,0.378085205078125,0.15776094794273376,-0.001458912855014205,0.0006253118626773357
1757088692582040000,0.3880400390625,0.2845219075679779,0.04520193487405777,-0.059109464287757874
1757088692591994000,0.397994140625,0.49186044931411743,-0.012823019176721573,-0.16188111901283264
1757088692601949200,0.40794921875,0.9091657400131226,-0.15529592335224152,-0.3883599638938904
1757088692611903200,0.4179033203125,1.2379239797592163,-0.3300810754299164,-0.7109175324440002
1757088692621858000,0.427858154296875,1.4124248027801514,-0.622467041015625,-0.9977772831916809
1757088692631812000,0.43781201171875,1.4695050716400146,-0.9299399256706238,-1.2102947235107422
1757088692641767000,0.447766845703125,1.4214098453521729,-1.1222219467163086,-1.3336225748062134
1757088692651722200,0.45772216796875,1.2350858449935913,-1.1542131900787354,-1.3314439058303833
1757088692661676300,0.46767626953125,0.9051268696784973,-1.087331771850586,-1.1760413646697998
1757088692671631000,0.477631103515625,0.509005606174469,-1.0065572261810303,-0.8679885268211365
1757088692681585200,0.487585205078125,0.148767352104187,-0.9402742385864258,-0.4315868318080902
1757088692691540000,0.4975400390625,0.01277436874806881,-0.9869914054870605,0.13215990364551544
1757088692701494300,0.507494384765625,0.1248948946595192,-1.1560440063476562,0.7221454977989197
1757088692711449000,0.517448974609375,0.22299961745738983,-1.264980673789978,1.2013616561889648
1757088692721404200,0.527404052734375,0.2794879972934723,-1.2646303176879883,1.5212551355361938
1757088692731358000,0.53735791015625,0.3569047451019287,-1.1614054441452026,1.7039672136306763
1757088692741313300,0.547313232421875,0.45396730303764343,-0.9545150995254517,1.7582181692123413
1757088692751267000,0.55726708984375,0.4925391972064972,-0.758133053779602,1.664868712425232
1757088692761222100,0.56722216796875,0.43043217062950134,-0.605904221534729,1.4012247323989868
1757088692771176200,0.57717626953125,0.34862226247787476,-0.4443321228027344,1.019476056098938
1757088692781131000,0.587131103515625,0.34702497720718384,-0.2900948226451874,0.5857058167457581
1757088692791086000,0.597086181640625,0.4158485233783722,-0.16086439788341522,0.16801615059375763
1757088692801040100,0.6070400390625,0.5055816173553467,-0.001899130642414093,-0.18063406646251678
1757088692810995200,0.6169951171875,0.5604131817817688,0.08997299522161484,-0.43547406792640686
1757088692820949000,0.626948974609375,0.5866075158119202,0.16257786750793457,-0.5972585082054138
1757088692830904000,0.636904052734375,0.6042333841323853,0.1730499565601349,-0.6638079881668091
1757088692840858000,0.646858154296875,0.5852089524269104,0.07021743804216385,-0.6331031322479248
1757088692850813200,0.656813232421875,0.5343303680419922,-0.06892793625593185,-0.5147277116775513
1757088692860768000,0.66676806640625,0.44572940468788147,-0.15728218853473663,-0.3469058573246002
1757088692870722000,0.67672216796875,0.32434090971946716,-0.15225839614868164,-0.18081167340278625
1757088692880677000,0.686677001953125,0.21125371754169464,-0.10450982302427292,-0.06108323857188225
1757088692890631200,0.696631103515625,0.1533059924840927,-0.007465294562280178,0.0009196833707392216
1757088692900586200,0.706586181640625,0.16143444180488586,0.10423155128955841,0.010334838181734085
1757088692910540000,0.7165400390625,0.20424501597881317,0.18075881898403168,-0.014242942444980145
1757088692920495000,0.7264951171875,0.24366624653339386,0.20038212835788727,-0.06351581960916519
1757088692930450200,0.7364501953125,0.2431357353925705,0.1422051042318344,-0.12859122455120087
1757088692940404200,0.746404296875,0.19158366322517395,0.049922436475753784,-0.20532657206058502
1757088692950359000,0.756359130859375,0.08500608056783676,-0.03318603336811066,-0.3014994263648987
1757088692960313000,0.76631298828125,-0.05392005667090416,-0.01284095086157322,-0.36854326725006104
1757088692970268000,0.776267822265625,-0.190333291888237,0.10619328916072845,-0.37982362508773804
1757088692980222000,0.786221923828125,-0.3273479640483856,0.22491663694381714,-0.3467492163181305
1757088692990177000,0.796177001953125,-0.5252898335456848,0.350602388381958,-0.30595412850379944
1757088693000131800,0.8061318359375,-0.7740519046783447,0.365756094455719,-0.3159664273262024
1757088693010086000,0.8160859375,-1.1064869165420532,0.32157960534095764,-0.39252912998199463
1757088693020041000,0.826041015625,-1.486928939819336,0.34365153312683105,-0.4453648328781128
1757088693029995000,0.8359951171875,-1.8704112768173218,0.4531988203525543,-0.37604063749313354
1757088693039949800,0.84594970703125,-2.1980528831481934,0.4777289927005768,-0.19773030281066895
1757088693049903900,0.85590380859375,-2.4585304260253906,0.40341293811798096,0.016358815133571625
1757088693059858700,0.865858642578125,-2.5207788944244385,0.44009584188461304,0.15735995769500732
1757088693069814000,0.87581396484375,-2.3308985233306885,0.4748232066631317,0.2272080034017563
1757088693079768000,0.88576806640625,-1.9981768131256104,0.39065027236938477,0.3218536674976349
1757088693089723000,0.895722900390625,-1.4680925607681274,0.20066356658935547,0.3764713704586029
1757088693099677000,0.905677001953125,-0.8267300724983215,-0.10084839165210724,0.3668660819530487
1757088693109632000,0.915632080078125,-0.12371736764907837,-0.2838565409183502,0.24617454409599304
1757088693119586000,0.9255859375,0.4823422431945801,-0.22583313286304474,-0.014293134212493896
1757088693129540900,0.935540771484375,0.967194139957428,-0.10700155049562454,-0.3533036708831787
1757088693139496000,0.945495849609375,1.2061803340911865,0.02793041057884693,-0.7099632620811462
1757088693149449700,0.95544970703125,1.2406656742095947,0.04054740443825722,-1.027016282081604
1757088693159405000,0.965405029296875,1.2045707702636719,-0.09344113618135452,-1.2732187509536743
1757088693169358800,0.97535888671875,1.1499698162078857,-0.23590055108070374,-1.4294735193252563
1757088693179314000,0.98531396484375,1.2677143812179565,-0.4888954758644104,-1.4509891271591187
1757088693189268000,0.99526806640625,1.5044044256210327,-0.7688115239143372,-1.3338524103164673
1757088693199222800,1.005222900390625,1.5761035680770874,-0.7885306477546692,-1.1521515846252441
1757088693209177900,1.015177734375,1.4381753206253052,-0.651803731918335,-0.9511812329292297
1757088693219132000,1.0251318359375,1.1494632959365845,-0.5292078256607056,-0.7856647372245789
1757088693229087000,1.0350869140625,0.85329270362854,-0.47184357047080994,-0.6435304880142212
1757088693239040800,1.045040771484375,0.6652463674545288,-0.49215906858444214,-0.49620240926742554
1757088693248995800,1.054995849609375,0.6189882755279541,-0.5696871280670166,-0.3250330686569214
1757088693258950000,1.064949951171875,0.6569555401802063,-0.74539715051651,-0.14806294441223145
1757088693268905000,1.074905029296875,0.7421767115592957,-0.8309626579284668,-0.016207443550229073
1757088693278859800,1.08485986328125,0.8327648639678955,-0.6623194813728333,-0.027277570217847824
1757088693288813800,1.094813720703125,0.9034126996994019,-0.5352225303649902,-0.1847236454486847
1757088693298769000,1.104768798828125,0.9266294836997986,-0.44786542654037476,-0.37767744064331055
1757088693308723000,1.114722900390625,0.9653297066688538,-0.28728827834129333,-0.5400860905647278
1757088693318678000,1.124677978515625,1.0203633308410645,-0.08865324407815933,-0.6802300214767456
1757088693328631800,1.1346318359375,1.0641446113586426,0.006026925519108772,-0.7924758195877075
1757088693338587000,1.1445869140625,1.0703564882278442,0.03826691955327988,-0.8762657046318054
1757088693348542000,1.1545419921875,1.0352517366409302,0.05803636088967323,-0.9251970052719116
1757088693358496000,1.16449609375,0.9875355362892151,0.03589315712451935,-0.9349667429924011
1757088693368450800,1.174450927734375,0.9404032230377197,-0.03808972239494324,-0.9042133688926697
1757088693378404900,1.18440478515625,0.910577654838562,-0.11897549778223038,-0.8060367703437805
1757088693388359700,1.194359619140625,0.9127249717712402,-0.1852187067270279,-0.6400461792945862
1757088693398314000,1.20431396484375,0.9719228148460388,-0.25068390369415283,-0.4590302109718323
1757088693408269000,1.21426904296875,1.0541460514068604,-0.27039581537246704,-0.30152738094329834
1757088693418223900,1.224223876953125,1.1117053031921387,-0.2242337465286255,-0.1608322411775589
1757088693428178000,1.234177978515625,1.144108533859253,-0.15431831777095795,-0.03248890861868858
1757088693438133000,1.244133056640625,1.1287869215011597,-0.10502448678016663,0.061044272035360336
1757088693448087000,1.254087158203125,1.0520830154418945,-0.06880602985620499,0.09434977173805237
1757088693458041900,1.264041748046875,0.9651155471801758,-0.03079734928905964,0.07510919868946075
1757088693467996000,1.273995849609375,0.9166907668113708,-0.002322831191122532,0.006423876620829105
1757088693477950700,1.28395068359375,0.9039217829704285,-0.026225127279758453,-0.10604548454284668
1757088693487906000,1.293906005859375,0.8903412818908691,-0.1096305400133133,-0.24894243478775024
1757088693497859800,1.30385986328125,0.8997134566307068,-0.22367233037948608,-0.38289299607276917
1757088693507815000,1.31381494140625,0.9465368986129761,-0.3336734175682068,-0.46676018834114075
1757088693517769000,1.32376904296875,1.0202038288116455,-0.4434131383895874,-0.49434104561805725
1757088693527723800,1.333723876953125,1.0800002813339233,-0.5258398652076721,-0.47234228253364563
1757088693537678000,1.343677978515625,1.1437004804611206,-0.6257405877113342,-0.4093537926673889
1757088693547633000,1.3536328125,1.2241452932357788,-0.6673756837844849,-0.3285846412181854
1757088693557588000,1.363587890625,1.3399654626846313,-0.6686251759529114,-0.2661536931991577
1757088693567541800,1.373541748046875,1.452886939048767,-0.6445978879928589,-0.2360469251871109
1757088693577497000,1.3834970703125,1.540976881980896,-0.6275097727775574,-0.23849128186702728
1757088693587451000,1.393450927734375,1.6156678199768066,-0.6254168152809143,-0.23347468674182892
1757088693597406000,1.403406005859375,1.6556888818740845,-0.609897255897522,-0.17632514238357544
1757088693607360000,1.413360107421875,1.6573954820632935,-0.6224242448806763,-0.036790959537029266
1757088693617314800,1.423314697265625,1.56833815574646,-0.6891340613365173,0.19369414448738098
1757088693627270000,1.433269775390625,1.3841842412948608,-0.8281028270721436,0.483479380607605
1757088693637224000,1.443223876953125,1.175923466682434,-1.044356107711792,0.7808284163475037
1757088693647179000,1.453178955078125,1.079272747039795,-1.3052151203155518,1.0057883262634277
1757088693657132800,1.4631328125,1.1442742347717285,-1.5557472705841064,1.1236462593078613
1757088693667088000,1.473087890625,1.3131828308105469,-1.7955719232559204,1.157386302947998
1757088693677042000,1.4830419921875,1.4893805980682373,-1.9841045141220093,1.1415274143218994
1757088693686997000,1.4929970703125,1.6040639877319336,-2.038438558578491,1.0814063549041748
1757088693696951800,1.502951904296875,1.6471459865570068,-1.9846241474151611,1.0149495601654053
1757088693706905900,1.51290576171875,1.664414405822754,-1.9993420839309692,0.991291880607605
1757088693716861000,1.52286083984375,1.7262581586837769,-2.10286283493042,1.0119177103042603
1757088693726815000,1.53281494140625,1.896769642829895,-2.248218059539795,1.0536736249923706
1757088693736769800,1.542769775390625,2.4036080837249756,-2.3197598457336426,1.0679001808166504
1757088693746723800,1.552723876953125,2.8626351356506348,-2.3984150886535645,1.122951865196228
1757088693756679000,1.562678955078125,3.072671890258789,-2.3984086513519287,1.241360068321228
1757088693766632700,1.5726328125,3.0288374423980713,-2.3327457904815674,1.3313034772872925
1757088693776588000,1.582588134765625,2.882188081741333,-2.275904655456543,1.3248904943466187
1757088693786542800,1.59254296875,2.8275868892669678,-2.2751924991607666,1.3057482242584229
1757088693796497000,1.602496826171875,2.8565165996551514,-2.3215787410736084,1.3266156911849976
1757088693806451700,1.61245166015625,2.8930606842041016,-2.4555485248565674,1.3643553256988525
1757088693816406000,1.622406005859375,2.926133155822754,-2.6695749759674072,1.3909807205200195
1757088693826360800,1.63236083984375,2.935513973236084,-2.876485586166382,1.3770300149917603
1757088693836315000,1.64231494140625,2.8963584899902344,-2.9917869567871094,1.310867428779602
1757088693846270000,1.65227001953125,2.824164390563965,-2.9757866859436035,1.2119275331497192
1757088693856225000,1.66222509765625,2.7544660568237305,-2.8384649753570557,1.109599232673645
1757088693866179000,1.672178955078125,2.6805295944213867,-2.668400764465332,1.0139172077178955
1757088693876134000,1.6821337890625,2.6245923042297363,-2.55161190032959,0.9347463846206665
1757088693886088000,1.692087890625,2.617757558822632,-2.435152769088745,0.8673214912414551
1757088693896042800,1.702042724609375,2.6687657833099365,-2.328808069229126,0.7939631342887878
1757088693905996800,1.711996826171875,2.7617740631103516,-2.2520766258239746,0.7072489857673645
1757088693915951900,1.721951904296875,2.858548164367676,-2.220515727996826,0.625243604183197
1757088693925907000,1.731906982421875,2.888554334640503,-2.221494436264038,0.5666859745979309
1757088693935861000,1.741861083984375,2.7902135848999023,-2.172058582305908,0.5323547720909119
1757088693945815800,1.75181591796875,2.579521894454956,-2.026183843612671,0.4855247139930725
1757088693955770000,1.76177001953125,2.354875087738037,-1.9078530073165894,0.4217025935649872
1757088693965725000,1.771724853515625,2.168736696243286,-1.80852210521698,0.37019360065460205
1757088693975679000,1.781678955078125,2.0270206928253174,-1.7125141620635986,0.3209700286388397
1757088693985633500,1.791633544921875,1.8853952884674072,-1.558868408203125,0.25183889269828796
1757088693995588600,1.801588623046875,1.7118232250213623,-1.2972005605697632,0.16347885131835938
1757088694005542400,1.81154248046875,1.5082632303237915,-0.9734777212142944,0.07400275766849518
1757088694015497700,1.821497802734375,1.2913856506347656,-0.698966920375824,-0.012471741065382957
1757088694025451800,1.83145166015625,1.0607337951660156,-0.5360339283943176,-0.08905147016048431
1757088694035406600,1.841406494140625,0.8384075164794922,-0.4473015069961548,-0.1142624020576477
1757088694045360600,1.851360595703125,0.6538230180740356,-0.4362352788448334,-0.09121673554182053
1757088694055315500,1.8613154296875,0.5210649371147156,-0.5086966156959534,-0.05119413137435913
1757088694065270800,1.871270751953125,0.4416332244873047,-0.6273524165153503,-0.01030555460602045
1757088694075224600,1.881224609375,0.4080946743488312,-0.7763896584510803,0.0037587040569633245
1757088694085179600,1.8911796875,0.3901154100894928,-0.9301291704177856,0.00010644504800438881
1757088694095133400,1.901133544921875,0.36103537678718567,-0.9656737446784973,-0.00685939472168684
1757088694105088800,1.9110888671875,0.3263101577758789,-0.9089832901954651,-0.0723116397857666
1757088694115042600,1.92104248046875,0.3168773055076599,-0.7444910407066345,-0.15762199461460114
1757088694124997600,1.93099755859375,0.3300926983356476,-0.5389871597290039,-0.24530096352100372
1757088694134952400,1.940952392578125,0.343413382768631,-0.4058968424797058,-0.3430347442626953
1757088694144906500,1.950906494140625,0.29868853092193604,-0.3908313512802124,-0.40590929985046387
1757088694154861600,1.960861572265625,0.23041747510433197,-0.4694822430610657,-0.41458576917648315
1757088694164815600,1.970815673828125,0.21947509050369263,-0.6112462878227234,-0.3877328634262085
1757088694174770700,1.980770751953125,0.2838468551635742,-0.8130617737770081,-0.3815762400627136
1757088694184724500,1.990724365234375,0.4013274013996124,-1.032285451889038,-0.3615729808807373
1757088694194679600,2.000679443359375,0.5225134491920471,-1.2048395872116089,-0.2741839587688446
1757088694204633600,2.010633544921875,0.6311044096946716,-1.2719802856445312,-0.11521799862384796
1757088694214588700,2.020588623046875,0.7229809761047363,-1.2755379676818848,0.07102048397064209
1757088694224543500,2.03054345703125,0.7848110198974609,-1.2988179922103882,0.21492838859558105
1757088694234497500,2.04049755859375,0.8039453625679016,-1.3562867641448975,0.32048070430755615
1757088694244452600,2.05045263671875,0.8147566914558411,-1.4785192012786865,0.3765530288219452
1757088694254406700,2.06040673828125,0.7999945878982544,-1.5287585258483887,0.3369702994823456
1757088694264361700,2.07036181640625,0.8026801347732544,-1.39267897605896,0.25735723972320557
1757088694274315500,2.0803154296875,0.8397631049156189,-1.3483905792236328,0.11348263174295425
1757088694284270600,2.0902705078125,0.9204677939414978,-1.367644190788269,-0.05563662201166153
1757088694294225700,2.1002255859375,1.0509538650512695,-1.3212404251098633,-0.1801896095275879
1757088694304179700,2.1101796875,1.1948164701461792,-1.3127702474594116,-0.2618322968482971
1757088694314134500,2.120134521484375,1.2912793159484863,-1.3531571626663208,-0.299073189496994
1757088694324088600,2.130088623046875,1.326948881149292,-1.3626047372817993,-0.27308472990989685
1757088694334043400,2.14004345703125,0.8306169509887695,-1.0725271701812744,-0.26157253980636597
1757088694343997700,2.149997802734375,0.9070954918861389,-0.8469626903533936,-0.16107921302318573
1757088694353952800,2.159952880859375,0.9465181827545166,-0.6394824981689453,-0.10589442402124405
1757088694363907600,2.169907470703125,0.7296873331069946,-0.2583026587963104,-0.1769491583108902
1757088694373861600,2.179861572265625,0.53216552734375,0.1821029931306839,-0.320238322019577
1757088694383816700,2.189816650390625,0.46140795946121216,0.5937094688415527,-0.3803999125957489
1757088694393770800,2.199770751953125,0.4562946557998657,0.8571839928627014,-0.37957963347435
1757088694403725600,2.2097255859375,0.4742550253868103,0.8662019968032837,-0.35509932041168213
1757088694413679600,2.2196796875,0.49021115899086,0.7110166549682617,-0.2757576107978821
1757088694423634400,2.229634521484375,0.5594493746757507,0.49514907598495483,-0.18569429218769073
1757088694433589800,2.23958984375,0.6624549031257629,0.2584461271762848,-0.08194243907928467
1757088694443543600,2.24954345703125,0.7886484861373901,-0.031313247978687286,0.03152020275592804
1757088694453498600,2.25949853515625,0.9633480906486511,-0.31997212767601013,0.12906891107559204
1757088694463452700,2.26945263671875,1.1484191417694092,-0.5428525805473328,0.1986551731824875
1757088694473407500,2.279407470703125,1.276167869567871,-0.7367538213729858,0.31867289543151855
1757088694483361800,2.28936181640625,1.4386546611785889,-1.053006649017334,0.6677730679512024
1757088694493316600,2.299316650390625,1.4399656057357788,-1.2515686750411987,0.9712537527084351
1757088694503271700,2.309271728515625,0.5351635217666626,-0.9160626530647278,0.5805121064186096
1757088694513225500,2.3192255859375,0.04651137813925743,-0.47788017988204956,0.023955021053552628
1757088694523180800,2.329180908203125,0.24188433587551117,0.01677643321454525,-0.3336537182331085
1757088694533134600,2.339134521484375,0.34528061747550964,0.47086700797080994,-0.46106022596359253
1757088694543089700,2.349089599609375,0.32163575291633606,0.5614438056945801,-0.4620647728443146
1757088694553043700,2.359043701171875,0.21626853942871094,0.3612833321094513,-0.38860517740249634
1757088694562998500,2.36899853515625,0.19478030502796173,0.14190435409545898,-0.3486042320728302
1757088694572952600,2.37895263671875,0.19507408142089844,0.01123187318444252,-0.37783265113830566
1757088694582907600,2.38890771484375,0.1187678650021553,-0.04333576560020447,-0.2850007116794586
1757088694592862700,2.39886279296875,0.14740069210529327,-0.15373574197292328,-0.1888314038515091
1757088694602816500,2.40881640625,0.1334148347377777,-0.2277740240097046,-0.15192051231861115
1757088694612771600,2.418771484375,0.09223656356334686,-0.19579173624515533,-0.17796765267848969
1757088694622725600,2.4287255859375,0.10235977172851562,-0.10029049962759018,-0.23401014506816864
1757088694632680700,2.4386806640625,0.13600367307662964,-0.010778570547699928,-0.2918403446674347
1757088694642634800,2.448634765625,0.1657050997018814,0.018975863233208656,-0.3226741552352905
1757088694652589600,2.458589599609375,0.21401862800121307,-0.01521969959139824,-0.3082110285758972
1757088694662544400,2.46854443359375,0.2839822769165039,-0.052996110171079636,-0.2766621708869934
1757088694672498700,2.478498779296875,0.35946694016456604,-0.07298771291971207,-0.2685320973396301
1757088694682453800,2.488453857421875,0.4485427737236023,-0.09731116145849228,-0.2821642756462097
1757088694692407600,2.498407470703125,0.5242032408714294,-0.14808768033981323,-0.3011162281036377
1757088694702362600,2.508362548828125,0.598131000995636,-0.22573107481002808,-0.3405962586402893
1757088694712316400,2.51831640625,0.69252610206604,-0.26062828302383423,-0.42437776923179626
1757088694722271700,2.528271728515625,0.7616828083992004,-0.3154859244823456,-0.5583816170692444
1757088694732226600,2.5382265625,0.826820433139801,-0.35167184472084045,-0.6697350740432739
1757088694742180600,2.5481806640625,0.9462624192237854,-0.6267337799072266,-0.5976691842079163
1757088694752135400,2.558135498046875,1.1016048192977905,-0.7400728464126587,-0.701276421546936
1757088694762089500,2.56808935546875,1.2438560724258423,-0.44047197699546814,-0.9486672878265381
1757088694772044500,2.57804443359375,1.3035706281661987,-0.03845936432480812,-1.2433750629425049
1757088694781998600,2.58799853515625,1.2490200996398926,0.15945026278495789,-1.4139584302902222
1757088694791953700,2.59795361328125,1.2527923583984375,0.08052827417850494,-1.409651756286621
1757088694801908500,2.607908447265625,1.282409906387329,-0.09405578672885895,-1.3803743124008179
1757088694811862800,2.61786279296875,1.428558349609375,-0.05674797669053078,-1.3355634212493896
1757088694821817600,2.627817626953125,1.491905689239502,0.13387231528759003,-1.2614244222640991
1757088694831771600,2.637771728515625,1.4120593070983887,0.12849543988704681,-1.0388808250427246
1757088694841726500,2.6477265625,1.3098759651184082,0.2046554535627365,-0.815506100654602
1757088694851680500,2.657680419921875,1.1981732845306396,0.2706940770149231,-0.5449188947677612
1757088694861635600,2.667635498046875,1.099122405052185,0.2950931489467621,-0.30309218168258667
1757088694871590700,2.677590576171875,0.9448926448822021,0.2511542737483978,-0.1833205670118332
1757088694881544700,2.687544677734375,0.7063871622085571,0.14455832540988922,-0.0537354052066803
1757088694891499500,2.69749951171875,0.42865532636642456,-0.04079589992761612,0.10587135702371597
1757088694901453600,2.70745361328125,0.24609774351119995,-0.12147236615419388,0.19421081244945526
1757088694911408600,2.71740869140625,0.22060231864452362,-0.03902239352464676,0.22540007531642914
1757088694921362700,2.72736279296875,0.09869986027479172,-0.0609482005238533,0.18026508390903473
1757088694931317500,2.7373173828125,0.010260716080665588,-0.06235978379845619,0.1760115623474121
1757088694941271600,2.747271484375,-0.137634739279747,-0.04850655049085617,0.18469692766666412
1757088694951226600,2.7572265625,-0.2691575884819031,-0.0763096809387207,0.18069899082183838
1757088694961181700,2.767181640625,-0.3664892017841339,-0.09154589474201202,0.19427525997161865
1757088694971135700,2.7771357421875,-0.44781067967414856,-0.08915705978870392,0.20693886280059814
1757088694981090600,2.787090576171875,-0.49664318561553955,-0.11229327321052551,0.18920087814331055
1757088694991044600,2.797044677734375,-0.39792510867118835,0.015310641378164291,0.1877616047859192
1757088695000999400,2.80699951171875,-0.3064095675945282,0.04170816019177437,0.14663547277450562
1757088695010953500,2.816953369140625,-0.15574957430362701,-0.010320431552827358,0.12234444916248322
1757088695020908500,2.826908447265625,0.02815953455865383,-0.08199035376310349,0.08192112296819687
1757088695030863600,2.836863525390625,0.3277824819087982,-0.0872708410024643,0.024686655029654503
1757088695040817400,2.8468173828125,0.7270417809486389,0.033070750534534454,-0.06815673410892487
1757088695050772500,2.8567724609375,1.26385498046875,0.24579450488090515,-0.19981998205184937
1757088695060726500,2.8667265625,1.8202775716781616,0.48421934247016907,-0.34614574909210205
1757088695070681600,2.876681640625,2.2386341094970703,0.7292604446411133,-0.6066422462463379
1757088695080635600,2.8866357421875,2.5707974433898926,0.8565062880516052,-0.7398189902305603
1757088695090590500,2.896590576171875,2.498579978942871,0.8004403114318848,-0.77840656042099
1757088695100545300,2.906545166015625,2.190511703491211,0.332198828458786,-0.3436628580093384
1757088695110499600,2.91649951171875,1.750144362449646,-0.1628199815750122,0.18853174149990082
1757088695120454700,2.92645458984375,1.315436840057373,-0.25511184334754944,0.3577692210674286
1757088695130408400,2.936408447265625,1.3620011806488037,0.21230413019657135,0.16138219833374023
1757088695140363500,2.946363525390625,1.3476009368896484,0.47129493951797485,-0.1258852630853653
1757088695150317300,2.9563173828125,1.183324933052063,0.4172125458717346,-0.1949755698442459
1757088695160272600,2.966272705078125,0.9359064102172852,0.1279381364583969,-0.0925368070602417
1757088695170226700,2.976226806640625,0.6127229928970337,-0.15723960101604462,0.011323753744363785
1757088695180181500,2.986181396484375,0.31576642394065857,-0.4689575433731079,0.08057180047035217
1757088695190136300,2.99613623046875,0.09254494309425354,-0.44553354382514954,-0.004894572775810957
1757088695200090400,3.00609033203125,-0.37486326694488525,-0.2698962092399597,-0.25779634714126587
1757088695210045700,3.016045654296875,-1.3323334455490112,-0.0054627833887934685,-0.2535504102706909
1757088695219999500,3.02599951171875,-2.2572524547576904,-0.21012458205223083,-0.03888362646102905
1757088695229954600,3.03595458984375,-2.67008638381958,-0.3112153112888336,0.4344956874847412
1757088695239908400,3.045908447265625,-2.666569948196411,-0.2301689237356186,0.680925726890564
1757088695249863700,3.05586376953125,-2.4319489002227783,0.42837604880332947,0.3456733226776123
1757088695259818500,3.065818603515625,-1.5255426168441772,0.4691818058490753,-0.32765820622444153
1757088695269772500,3.0757724609375,-0.4629665017127991,-0.3529853820800781,-0.7962173223495483
1757088695279727400,3.085727294921875,0.13070908188819885,-1.0095176696777344,-0.8440437316894531
1757088695289681400,3.095681396484375,0.2932107746601105,-0.9909661412239075,-0.46749022603034973
1757088695299636500,3.105636474609375,0.67105633020401,-0.8667344450950623,-0.26982003450393677
1757088695309590500,3.115590576171875,0.8241487145423889,0.06712077558040619,-0.1944562941789627
1757088695319545600,3.125545654296875,0.8182181119918823,-0.2044641226530075,-0.10153859853744507
1757088695329500400,3.13550048828125,0.9390547275543213,-0.45903509855270386,0.14218002557754517
1757088695339454500,3.145454345703125,1.1656513214111328,-0.4351726472377777,0.2995736598968506
1757088695349409500,3.155409423828125,1.4175148010253906,-0.36520475149154663,0.30999457836151123
1757088695359363600,3.165363525390625,1.6065880060195923,-0.3879369795322418,0.20592330396175385
1757088695369318400,3.175318359375,1.7063030004501343,-0.48035377264022827,0.0299517959356308
1757088695379272400,3.1852724609375,1.6713210344314575,-0.5662926435470581,-0.10113698244094849
1757088695389227500,3.1952275390625,1.5244108438491821,-0.588320255279541,-0.10893326252698898
1757088695399181600,3.205181640625,1.265292763710022,-1.047735571861267,-0.24266576766967773
1757088695409136600,3.21513671875,0.9921658039093018,-0.9695059657096863,-0.30012381076812744
1757088695419091500,3.225091552734375,0.7365438938140869,-0.8142407536506653,-0.26831182837486267
1757088695429045500,3.23504541015625,0.5150476694107056,-0.5918338298797607,-0.1611649990081787
1757088695439000600,3.24500048828125,0.3711261749267578,-0.3741994798183441,-0.06456761062145233
1757088695448954600,3.25495458984375,0.30986136198043823,-0.19293946027755737,-0.020257558673620224
1757088695458909400,3.264909423828125,0.3048780560493469,-0.11414610594511032,-0.01607692986726761
1757088695468863500,3.274863525390625,0.3165988624095917,-0.10513534396886826,-0.025322701781988144
1757088695478818300,3.284818359375,0.30779793858528137,-0.16191020607948303,-0.05598261207342148
1757088695488773600,3.294773681640625,0.27830231189727783,-0.16110655665397644,-0.07223812490701675
1757088695498727700,3.304727783203125,0.2491886466741562,-0.03431639447808266,-0.048891253769397736
1757088695508682500,3.3146826171875,0.25909990072250366,0.1612572818994522,-0.010759090073406696
1757088695518636500,3.324636474609375,0.3202016055583954,0.245779886841774,0.004266730975359678
1757088695528591600,3.334591552734375,0.6510710120201111,0.22877800464630127,-0.016879204660654068
1757088695538545700,3.344545654296875,1.2901819944381714,-0.015877818688750267,-0.5873213410377502
1757088695548500500,3.35450048828125,1.5498433113098145,-0.16918061673641205,-0.40466561913490295
1757088695558455600,3.36445556640625,1.365181803703308,0.09236524254083633,0.23704595863819122
1757088695568409300,3.374409423828125,0.8923318982124329,-0.12350181490182877,0.08790956437587738
1757088695578364700,3.38436474609375,0.37102583050727844,-0.4161914885044098,0.051001884043216705
1757088695588318500,3.394318359375,0.24700798094272614,-0.21556341648101807,-0.03516381233930588
1757088695598273500,3.4042734375,0.27112340927124023,0.14599691331386566,-0.23841147124767303
1757088695608227600,3.4142275390625,0.3076947033405304,0.14206503331661224,-0.4035796523094177
1757088695618182400,3.424182373046875,0.29244065284729004,-0.14709167182445526,-0.4621058404445648
1757088695628137500,3.434137451171875,0.2865277826786041,-0.8624923229217529,-0.8126144409179688
1757088695638091500,3.444091552734375,0.3933306634426117,-1.6773948669433594,-1.0681105852127075
1757088695648046600,3.454046630859375,0.5629227757453918,-2.171325445175171,-0.9909693598747253
1757088695658000400,3.46400048828125,0.7880712151527405,-2.6766979694366455,-1.0082671642303467
1757088695667955700,3.473955810546875,0.8370090126991272,-3.0252254009246826,-0.8955078125
1757088695677909500,3.483909423828125,0.648662805557251,-3.058457136154175,-0.5393409132957458
1757088695687864600,3.493864501953125,0.8439779877662659,-2.974456787109375,-0.20695869624614716
1757088695697818600,3.503818603515625,2.068175792694092,-2.018630027770996,-0.29737088084220886
1757088695707773400,3.5137734375,2.9913504123687744,-1.127376914024353,-0.7843491435050964
1757088695717728500,3.523728515625,3.0502872467041016,-1.9054557085037231,-0.8592116832733154
1757088695727682600,3.5336826171875,2.8759729862213135,-2.813389301300049,-0.3667353689670563
1757088695737637600,3.5436376953125,2.4814717769622803,-2.144688129425049,0.034347355365753174
1757088695747591400,3.55359130859375,2.123650074005127,-0.5506762266159058,0.30301743745803833
1757088695757546500,3.56354638671875,1.9883041381835938,0.5549116730690002,0.6568948030471802
1757088695767500500,3.57350048828125,1.746909737586975,0.8608250617980957,0.9565072059631348
1757088695777455600,3.58345556640625,0.838420569896698,0.8854305744171143,1.209543228149414
1757088695787410400,3.593410400390625,0.11596353352069855,0.7469105124473572,1.222312331199646
1757088695797364500,3.603364501953125,0.012038467451930046,-0.05576595291495323,0.912530779838562
1757088695807319600,3.613319580078125,-0.024476051330566406,-0.9884451627731323,0.5897989273071289
1757088695817273600,3.623273681640625,-0.20690923929214478,-1.3573336601257324,0.42353591322898865
1757088695827228700,3.633228759765625,-0.4054051637649536,-0.9858436584472656,0.1358654946088791
1757088695837182500,3.643182373046875,-0.3475932478904724,-0.23610123991966248,-0.22152619063854218
1757088695847137500,3.653137451171875,-0.15774355828762054,0.35434308648109436,-0.48859405517578125
1757088695857092600,3.663092529296875,0.211881622672081,0.7996137142181396,-0.7651468515396118
1757088695867046700,3.673046630859375,0.23812077939510345,0.7795436978340149,-0.7967061400413513
1757088695877001500,3.68300146484375,0.08216740190982819,0.142507866024971,-0.5891830325126648
1757088695886955500,3.69295556640625,-0.03159957751631737,-0.27386781573295593,-0.3439663350582123
1757088695896910300,3.702910400390625,-0.004943732637912035,-0.3159388303756714,-0.11195307970046997
1757088695906864400,3.712864501953125,0.049546658992767334,-0.2831128239631653,0.06422369182109833
1757088695916819500,3.7228193359375,0.1648162603378296,-0.19699576497077942,0.16007858514785767
1757088695926774500,3.7327744140625,0.2112049162387848,0.01664433628320694,0.27927592396736145
1757088695936728600,3.742728515625,0.1578357070684433,0.2490738481283188,0.32930848002433777
1757088695946683400,3.752683349609375,0.06731590628623962,0.2752164304256439,0.3070371747016907
1757088695956637700,3.7626376953125,0.010800699703395367,0.17571116983890533,0.21306967735290527
1757088695966592500,3.772592529296875,-0.003977307118475437,0.056714124977588654,0.08264993876218796
1757088695976546600,3.782546630859375,-0.03874114900827408,-0.03471618890762329,-0.03231526538729668
1757088695986501400,3.79250146484375,-0.05367876589298248,-0.035209596157073975,-0.09040612727403641
1757088695996456400,3.80245654296875,-0.05088857188820839,-0.013325338251888752,-0.0984928160905838
1757088696006410500,3.812410400390625,-0.05644790083169937,0.011890370398759842,-0.07101766020059586
1757088696016365600,3.822365478515625,-0.060625068843364716,0.028134852647781372,-0.022041594609618187
1757088696026319600,3.832319580078125,-0.06446227431297302,0.05747592821717262,0.021213030442595482
1757088696036274400,3.8422744140625,-0.06737790256738663,0.13842803239822388,-0.001586290542036295
1757088696046228500,3.852228515625,-0.05535440891981125,0.09825535118579865,-0.029374608770012856
1757088696056183600,3.86218359375,-0.04492839798331261,-0.04160135239362717,-0.02031799778342247
1757088696066138600,3.872138671875,-0.03269609063863754,-0.038129158318042755,-0.016208643093705177
1757088696076092400,3.882092529296875,-0.021387778222560883,0.023228473961353302,-0.06321290135383606
1757088696086047500,3.892047607421875,-0.02829766646027565,-0.06300875544548035,-0.0255878958851099
1757088696096001300,3.902001220703125,-0.05055849626660347,-0.05749467387795448,0.04275893792510033
1757088696105956600,3.91195654296875,-0.06412716209888458,0.036086589097976685,0.08106937259435654
1757088696115910700,3.92191064453125,-0.0394391268491745,0.15807054936885834,0.048297569155693054
1757088696125865500,3.931865478515625,0.013185813091695309,0.2541464865207672,-0.09857487678527832
1757088696135820300,3.9418203125,0.011765548959374428,0.1004253700375557,-0.23243281245231628
1757088696145774300,3.9517744140625,-0.006104584317654371,-0.15387387573719025,-0.2711883783340454
1757088696155729400,3.9617294921875,-0.04286579415202141,-0.2630451023578644,-0.23089902102947235
1757088696165683500,3.971683349609375,-0.06896188110113144,-0.32678839564323425,-0.09636678546667099
1757088696175638500,3.981638427734375,-0.08784689009189606,-0.21954074501991272,0.01047151442617178
1757088696185592300,3.99159228515625,-0.09229226410388947,-0.09854235500097275,0.03131001070141792
1757088696195547600,4.001547607421875,-0.08766555041074753,-0.14259450137615204,0.02605639398097992
1757088696205502500,4.01150244140625,-0.07208036631345749,-0.23576797544956207,0.023784419521689415
1757088696215456500,4.02145654296875,-0.07395949214696884,-0.2946152985095978,0.036960676312446594
1757088696225411300,4.031411376953125,-0.08446173369884491,-0.2780517041683197,0.048870112746953964
1757088696235365400,4.041365478515625,-0.09674529731273651,-0.40114831924438477,0.07544127106666565
1757088696245320400,4.051320556640625,-0.0841861292719841,-0.4990937411785126,0.0987042710185051
1757088696255274500,4.0612744140625,-0.06237350404262543,-0.3455611765384674,0.1203930601477623
1757088696265229600,4.0712294921875,-0.06656434386968613,-0.1744387298822403,0.11209876835346222
1757088696275184400,4.081184326171875,-0.09769722819328308,-0.1025562733411789,0.05070784315466881
1757088696285138400,4.091138427734375,-0.07019270956516266,-0.2065599113702774,-0.019149882718920708
1757088696295093500,4.101093505859375,-0.04847782105207443,-0.30726656317710876,-0.07097099721431732
1757088696305047600,4.111047607421875,-0.02491447888314724,-0.29290786385536194,-0.0965840071439743
1757088696315002400,4.12100244140625,-0.037808969616889954,-0.2313893884420395,-0.12283425033092499
1757088696324956400,4.130956298828125,-0.08024851977825165,-0.23094473779201508,-0.1271214634180069
1757088696334911500,4.140911376953125,-0.10507211089134216,-0.28101882338523865,-0.07922956347465515
1757088696344866600,4.150866455078125,-0.0926552265882492,-0.2558839023113251,-0.028508953750133514
1757088696354820600,4.160820556640625,-0.07344265282154083,-0.1901743859052658,0.003557369112968445
1757088696364775400,4.170775390625,-0.0677574947476387,-0.15340466797351837,0.01458108052611351
1757088696374729500,4.1807294921875,-0.06802194565534592,-0.13548292219638824,0.006328210700303316
1757088696384684500,4.1906845703125,-0.07548568397760391,-0.13049058616161346,-0.011582331731915474
1757088696394638600,4.200638671875,-0.08871467411518097,-0.11041755229234695,-0.04910573735833168
1757088696404593400,4.210593505859375,-0.07644067704677582,-0.07868742942810059,-0.11113777756690979
1757088696414548500,4.220548583984375,-0.05827498435974121,-0.07367109507322311,-0.12100160121917725
1757088696424502300,4.230502197265625,-0.07298167794942856,-0.10464121401309967,-0.06574831902980804
1757088696434457600,4.24045751953125,-0.10169427841901779,-0.08023813366889954,0.001182775478810072
1757088696444411400,4.250411376953125,-0.11285438388586044,-0.014437185600399971,0.04061353951692581
1757088696454366500,4.260366455078125,-0.10939280688762665,0.029223477467894554,0.05191865935921669
1757088696464321300,4.2703212890625,-0.1139678880572319,0.05895404517650604,0.045120447874069214
1757088696474275600,4.280275634765625,-0.11139820516109467,0.10342616587877274,0.007885729894042015
1757088696484230400,4.29023046875,-0.08414965867996216,0.07087795436382294,-0.02997933328151703
1757088696494184400,4.300184326171875,-0.07806646823883057,0.04572519659996033,-0.07368500530719757
1757088696504139500,4.310139404296875,-0.056199271231889725,0.05961747467517853,-0.08451327681541443
1757088696514093300,4.32009326171875,-0.06936806440353394,0.10195986926555634,-0.09122337400913239
1757088696524048600,4.330048583984375,-0.05736285448074341,0.08315633237361908,-0.09293293952941895
1757088696534003500,4.34000341796875,-0.04179667681455612,0.09519834816455841,-0.10188329219818115
1757088696543957500,4.34995751953125,-0.02194003015756607,0.15029513835906982,-0.10434021055698395
1757088696553912300,4.359912353515625,0.020593848079442978,0.17894861102104187,-0.1088891550898552
1757088696563866400,4.369866455078125,0.039176199585199356,0.21248896420001984,-0.10716545581817627
1757088696573821400,4.379821533203125,0.03487545996904373,0.2588790953159332,-0.08780215680599213
1757088696583775500,4.389775390625,0.05621970072388649,0.2524712085723877,-0.06161658838391304
1757088696593730600,4.39973046875,0.07261917740106583,0.22348245978355408,-0.04081250727176666
1757088696603685400,4.409685302734375,0.06721863150596619,0.20776869356632233,-0.030352115631103516
1757088696613639700,4.4196396484375,0.05062127485871315,0.2024490237236023,-0.0279611274600029
1757088696623594500,4.429594482421875,0.03079940192401409,0.2065982222557068,-0.031075945124030113
1757088696633548500,4.439548583984375,0.009648310020565987,0.21160602569580078,-0.027032999321818352
1757088696643503400,4.44950341796875,-0.012882474809885025,0.21445117890834808,-0.012429632246494293
1757088696653457400,4.45945751953125,-0.039718616753816605,0.19752919673919678,0.011101259849965572
1757088696663412500,4.46941259765625,-0.038910310715436935,0.17590881884098053,0.035859618335962296
1757088696673367600,4.479367431640625,-0.03569081798195839,0.16236771643161774,0.05214405059814453
1757088696683321600,4.489321533203125,-0.02879977598786354,0.1726088970899582,0.057445161044597626
1757088696693276400,4.4992763671875,-0.023231638595461845,0.19263426959514618,0.049914274364709854
1757088696703230500,4.50923046875,-0.016270318999886513,0.21630209684371948,0.03129519522190094
1757088696713185500,4.519185546875,-0.00025886064395308495,0.21595188975334167,0.008514516055583954
1757088696723139600,4.5291396484375,0.02831709012389183,0.18339477479457855,-0.01675197295844555
1757088696733094400,4.539094482421875,0.05863717943429947,0.1695157140493393,-0.03794753924012184
1757088696743049500,4.549049560546875,0.06951313465833664,0.2170492708683014,-0.05129021406173706
1757088696753003500,4.55900341796875,0.08883889764547348,0.21543806791305542,-0.0319141186773777
1757088696762958600,4.56895849609375,0.12546025216579437,0.21901288628578186,-0.007586924824863672
1757088696772912400,4.578912353515625,0.1298542022705078,0.21063031256198883,0.033681418746709824
1757088696782867500,4.588867431640625,0.13115859031677246,0.23990444839000702,0.059285156428813934
1757088696792821500,4.598821533203125,0.13189895451068878,0.161936417222023,0.08068738132715225
1757088696802776600,4.608776611328125,0.14035479724407196,0.07655336707830429,0.08802071958780289
1757088696812731400,4.6187314453125,0.14047996699810028,0.02719939686357975,0.07521278411149979
1757088696822685400,4.628685546875,0.13588201999664307,-0.007000386249274015,0.06562992930412292
1757088696832640500,4.638640625,0.11984500288963318,-0.0315890870988369,0.07855558395385742
1757088696842594300,4.64859423828125,0.09196095913648605,-0.05516384541988373,0.11608684808015823
1757088696852549600,4.658549560546875,0.08616964519023895,-0.3578190505504608,0.08518139272928238
1757088696862503400,4.66850341796875,0.07430123537778854,-0.41143515706062317,-0.010141445323824883
1757088696872458500,4.67845849609375,0.059786468744277954,-0.37803778052330017,-0.05823361128568649
1757088696882413300,4.688413330078125,0.030197883024811745,-0.47551578283309937,-0.04580143839120865
1757088696892367400,4.698367431640625,0.019121263176202774,-0.652245283126831,-0.08724234998226166
1757088696902322400,4.708322509765625,0.039838701486587524,-0.6040408611297607,-0.13528117537498474
1757088696912276500,4.7182763671875,0.04097320884466171,-0.6034888029098511,-0.1878543645143509
1757088696922231600,4.7282314453125,-0.0007918442133814096,-0.6439716815948486,-0.2149813026189804
1757088696932185300,4.738185302734375,-0.016540180891752243,-0.556378960609436,-0.174495667219162
1757088696942140700,4.748140625,-0.03601907938718796,-0.19533194601535797,-0.07719874382019043
1757088696952095500,4.758095458984375,0.012422755360603333,-0.07455358654260635,-0.03086293488740921
1757088696962049500,4.768049560546875,0.03978799656033516,-0.11405861377716064,-0.07207804918289185
1757088696972004400,4.77800439453125,0.05958034098148346,-0.12958963215351105,-0.14986926317214966
1757088696981958400,4.78795849609375,0.038334161043167114,-0.1106325015425682,-0.21035557985305786
1757088696991913200,4.797913330078125,0.005521621089428663,-0.10339749604463577,-0.19736069440841675
1757088697001867300,4.8078671875,0.033761780709028244,-0.03772128373384476,-0.09216555953025818
1757088697011822300,4.817822265625,0.06713172793388367,-0.07845645397901535,-0.03518696501851082
1757088697021777200,4.827777099609375,0.01728968322277069,-0.11686398088932037,-0.08064297586679459
1757088697031731200,4.837731201171875,0.015616418793797493,-0.22737930715084076,-0.1050306111574173
1757088697041686300,4.847686279296875,0.01927359402179718,-0.2851272523403168,-0.035276394337415695
1757088697051640300,4.857640380859375,-0.009275225922465324,-0.2154110223054886,0.07682138681411743
1757088697061595100,4.86759521484375,-0.029064711183309555,-0.023638837039470673,0.1779075264930725
1757088697071549200,4.877549072265625,-0.03469676151871681,0.08699925988912582,0.22737254202365875
1757088697081504300,4.887504150390625,-0.030046479776501656,0.09139445424079895,0.23337458074092865
1757088697091459300,4.897459228515625,-0.05876068025827408,0.05709534138441086,0.20785750448703766
1757088697101413400,4.907413330078125,-0.06298351287841797,0.04455821216106415,0.1795537918806076
1757088697111368200,4.9173681640625,-0.05364007502794266,0.0009582684724591672,0.15835556387901306
1757088697121322200,4.927322265625,-0.04035887494683266,-0.03220917657017708,0.13636089861392975
1757088697131277300,4.93727734375,-0.020657876506447792,-0.032540738582611084,0.08961443603038788
1757088697141231400,4.9472314453125,-0.007787792943418026,0.007683218456804752,0.03374762833118439
1757088697151186200,4.957186279296875,0.00786440446972847,-0.0597086064517498,-0.02670160122215748
1757088697161141200,4.967141357421875,-0.006392014678567648,-0.282831609249115,-0.09071481972932816
1757088697171095000,4.977094970703125,-0.004550971556454897,-0.4285491406917572,-0.09131908416748047
1757088697181050400,4.98705029296875,-0.03315789997577667,-0.3902982771396637,-0.04076660796999931
1757088697191004200,4.997004150390625,-0.04182595759630203,-0.305356502532959,0.00988458376377821
1757088697200959200,5.006959228515625,-0.029880404472351074,-0.2753712236881256,0.03382093831896782
1757088697210913300,5.016913330078125,-0.012773587368428707,-0.23710612952709198,0.043664246797561646
1757088697220868400,5.026868408203125,-0.009137979708611965,-0.18043477833271027,0.05203823372721672
1757088697230823200,5.0368232421875,-0.009140909649431705,-0.08899940550327301,0.04289932921528816
1757088697240777200,5.046777099609375,0.024096012115478516,-0.07508207857608795,0.017964210361242294
1757088697250732300,5.056732177734375,0.019444536417722702,-0.1903623342514038,-0.0027852756902575493
1757088697260686000,5.06668603515625,-0.01308272872120142,-0.2097678929567337,-0.0015587531961500645
1757088697270641400,5.076641357421875,-0.055873870849609375,-0.049149468541145325,0.024346880614757538
1757088697280595200,5.08659521484375,-0.07611183077096939,0.08842175453901291,0.04465930908918381
1757088697290550300,5.09655029296875,-0.07304946333169937,0.1057988777756691,0.04046669602394104
1757088697300505000,5.106505126953125,-0.048389386385679245,0.08814296871423721,0.02264752797782421
1757088697310459100,5.116459228515625,-0.009055828675627708,0.05504627153277397,-0.010831335559487343
1757088697320414200,5.126414306640625,0.014218228869140148,0.04725419357419014,-0.04028008133172989
1757088697330368300,5.1363681640625,0.016992710530757904,0.06026479974389076,-0.050004612654447556
1757088697340323300,5.1463232421875,0.007983271032571793,0.07955724745988846,-0.06618250161409378
1757088697350277000,5.156277099609375,-0.00383956590667367,0.06048129126429558,-0.08364884555339813
1757088697360232200,5.166232177734375,-0.014966096729040146,0.035400986671447754,-0.09575007110834122
1757088697370187300,5.176187255859375,-0.018204234540462494,0.008996807038784027,-0.10529324412345886
1757088697380141300,5.186141357421875,-0.02382241189479828,-0.015072104521095753,-0.10321815311908722
1757088697390096100,5.19609619140625,-0.025538286194205284,-0.027252869680523872,-0.06996460258960724
1757088697400050200,5.20605029296875,-0.03551343083381653,-0.03414412587881088,-0.03646155446767807
1757088697410005200,5.216005126953125,-0.03396639972925186,-0.03307965770363808,-0.013004962354898453
1757088697419959300,5.225959228515625,0.018057135865092278,-0.19223113358020782,0.021209584549069405
1757088697429914000,5.2359140625,0.0350281298160553,-0.3240637481212616,-0.05967621132731438
1757088697439869200,5.245869140625,0.05832319334149361,-0.3292616009712219,-0.1799190491437912
1757088697449823200,5.2558232421875,0.005000048317015171,-0.2977644205093384,-0.09522467851638794
1757088697459778300,5.2657783203125,0.042904533445835114,-0.040390800684690475,0.07019368559122086
1757088697469732400,5.275732421875,-0.02968791127204895,0.25506481528282166,0.15472108125686646
1757088697479687200,5.285687255859375,-0.13984347879886627,0.326710045337677,0.17152538895606995
1757088697489641200,5.29564111328125,-0.09857139736413956,0.33264997601509094,0.1399991661310196
1757088697499596000,5.305595947265625,-0.04976560175418854,0.3188549280166626,0.08457725495100021
1757088697509551400,5.31555126953125,-0.013469647616147995,0.1543104648590088,0.04651375487446785
1757088697519505200,5.325505126953125,0.03230559825897217,0.05571437254548073,0.041942987591028214
1757088697529460200,5.335460205078125,0.07601259648799896,0.13965214788913727,0.08808891475200653
1757088697539414300,5.345414306640625,0.09950579702854156,0.234442338347435,0.18123020231723785
1757088697549369300,5.355369384765625,0.0916590541601181,0.2510378360748291,0.1941838264465332
1757088697559323400,5.365323486328125,0.10855671018362045,0.4552709460258484,0.22413505613803864
1757088697569278200,5.3752783203125,0.10887203365564346,0.47289150953292847,0.2222181111574173
1757088697579233300,5.3852333984375,0.11362744122743607,0.3077791631221771,0.16474123299121857
1757088697589187000,5.39518701171875,0.08499659597873688,0.08325125277042389,0.06625620275735855
1757088697599142400,5.405142333984375,-0.0034928424283862114,-0.1911337822675705,-0.07014545053243637
1757088697609096200,5.41509619140625,-0.006855349522083998,-0.21487027406692505,-0.11795105040073395
1757088697619051300,5.42505126953125,0.010213823989033699,0.13996626436710358,0.012882663868367672
1757088697629005300,5.43500537109375,-0.027105851098895073,-0.039385102689266205,0.0004978994838893414
1757088697638960000,5.444960205078125,-0.21520794928073883,-0.6980542540550232,-0.2714247405529022
1757088697648914400,5.45491455078125,-0.08339639753103256,-0.8850491642951965,-0.5050784945487976
1757088697658869200,5.464869140625,0.01371985673904419,-0.021214237436652184,-0.23158156871795654
1757088697668824300,5.47482421875,-0.039558008313179016,0.20490066707134247,0.08532607555389404
1757088697678778000,5.484778076171875,-0.028313271701335907,-0.048344384878873825,0.09243945777416229
1757088697688733400,5.4947333984375,-0.016323987394571304,-0.09418697655200958,0.021183114498853683
1757088697698687200,5.504687255859375,-0.0037822227459400892,-0.12363550066947937,-0.0030356133356690407
1757088697708642300,5.514642333984375,-0.004873319528996944,-0.08043822646141052,0.026381397619843483
1757088697718596000,5.52459619140625,-0.010475097224116325,0.00012394296936690807,0.06186654046177864
1757088697728551200,5.53455126953125,-0.01055818796157837,0.03415381535887718,0.05807553231716156
1757088697738506200,5.54450634765625,0.0013825919013470411,0.00801970437169075,0.023109812289476395
1757088697748460300,5.554460205078125,0.009461823850870132,-0.03432935103774071,-0.014699884690344334
1757088697758415000,5.5644150390625,0.007788464426994324,-0.05478684604167938,-0.03340962529182434
1757088697768369200,5.574369140625,-0.002607184462249279,-0.05964525043964386,-0.031107857823371887
1757088697778324200,5.58432421875,-0.01529579609632492,-0.05668899416923523,-0.01676364615559578
1757088697788278300,5.5942783203125,-0.024052536115050316,-0.055328384041786194,-0.006850294303148985
1757088697798233300,5.6042333984375,-0.03181846812367439,-0.05660085380077362,-0.0048349895514547825
1757088697808188200,5.614188232421875,-0.037979692220687866,-0.06117643415927887,-0.011884909123182297
1757088697818142200,5.62414208984375,-0.04307040944695473,-0.058752208948135376,-0.021663907915353775
1757088697828097300,5.63409716796875,-0.046558085829019547,-0.05273079872131348,-0.029320497065782547
1757088697838051300,5.64405126953125,-0.04202757403254509,-0.04692763462662697,-0.03454606980085373
1757088697848006100,5.654006103515625,-0.03511214256286621,-0.034925833344459534,-0.037702448666095734
1757088697857960200,5.663960205078125,-0.025755902752280235,-0.019825026392936707,-0.04135214164853096
1757088697867915300,5.673915283203125,-0.019181089475750923,-0.007652514614164829,-0.036977365612983704
1757088697877870300,5.683870361328125,-0.01489488035440445,-0.002441213931888342,-0.03226688131690025
1757088697887824400,5.693824462890625,-0.012230120599269867,-0.004709960427135229,-0.027345892041921616
1757088697897779200,5.703779296875,-0.007565688341856003,-0.015397648327052593,-0.027935750782489777
1757088697907733200,5.713733154296875,-0.006541702896356583,-0.03009696491062641,-0.03150491788983345
1757088697917688000,5.72368798828125,-0.006449824199080467,-0.04210462421178818,-0.03108014538884163
1757088697927642400,5.733642333984375,-0.007773148827254772,-0.05037853494286537,-0.02927372232079506
1757088697937597200,5.74359716796875,-0.010599488392472267,-0.062117740511894226,-0.024183552712202072
1757088697947552300,5.75355224609375,-0.014048013836145401,-0.0661654844880104,-0.02014460414648056
1757088697957506300,5.76350634765625,-0.01587831974029541,-0.06964164972305298,-0.015438113361597061
1757088697967461400,5.77346142578125,-0.018750539049506187,-0.06829861551523209,-0.012291856110095978
1757088697977415400,5.78341552734375,-0.021081136539578438,-0.06418100744485855,-0.01310756802558899
1757088697987371500,5.79337158203125,-0.023048946633934975,-0.04651253670454025,-0.01858462393283844
1757088697997325300,5.8033251953125,-0.016194824129343033,-0.040211357176303864,-0.02360113337635994
1757088698007280400,5.8132802734375,-0.010842936113476753,-0.035997435450553894,-0.025215543806552887
1757088698017235200,5.823235107421875,-0.005459566600620747,-0.029739147052168846,-0.023901624605059624
1757088698027189200,5.833189208984375,0.0017578662373125553,-0.01569443568587303,-0.019747359678149223
1757088698037144300,5.843144287109375,0.006707084830850363,0.006740034092217684,-0.01810658723115921
1757088698047098400,5.853098388671875,0.009160388261079788,0.02897556498646736,-0.01959822326898575
1757088698057053400,5.863053466796875,0.012986230663955212,0.04624097794294357,-0.013479790650308132
1757088698067007200,5.87300732421875,0.015846997499465942,0.05904252454638481,-0.008989434689283371
1757088698076962600,5.882962646484375,0.016579050570726395,0.07240353524684906,-0.003313034772872925
1757088698086917400,5.89291748046875,0.015002460218966007,0.07932908087968826,0.002479872666299343
1757088698096871400,5.902871337890625,0.011355220340192318,0.08249235153198242,0.005414612125605345
1757088698106826200,5.912826171875,0.004684001673012972,0.09467098861932755,0.010729748755693436
1757088698116780300,5.9227802734375,-0.004183169454336166,0.10220970213413239,0.017948972061276436
1757088698126735400,5.9327353515625,-0.011417113244533539,0.1057162880897522,0.02303694188594818
1757088698136689400,5.942689453125,-0.01605186238884926,0.1039034053683281,0.02288953959941864
1757088698146644500,5.95264453125,-0.015630017966032028,0.09195246547460556,0.01595919579267502
1757088698156598300,5.962598388671875,-0.011379611678421497,0.06604204326868057,0.010670690797269344
1757088698166553300,5.97255322265625,-0.005823193117976189,0.04775863513350487,0.004806676413863897
1757088698176508400,5.98250830078125,-0.004081232473254204,0.0349106565117836,0.0004720063880085945
1757088698186462500,5.99246240234375,0.002257889835163951,0.03089194744825363,-0.004328608047217131
1757088698196417300,6.002417236328125,0.002771325409412384,0.023306846618652344,-0.004468061961233616
1757088698206371300,6.012371337890625,0.006319721229374409,0.018436457961797714,-0.0030709682032465935
1757088698216326400,6.022326416015625,0.003990485332906246,0.016313940286636353,-0.0013127629645168781
1757088698226280400,6.032280517578125,0.006684805266559124,0.010071223601698875,0.0015240362845361233
1757088698236235300,6.0422353515625,0.009024919010698795,0.007666867226362228,0.005199413746595383
1757088698246190300,6.0521904296875,0.011934955604374409,-0.0013210347387939692,0.0044606528244912624
1757088698256144400,6.062144287109375,0.017153019085526466,-0.01008668728172779,0.006085710600018501
1757088698266099500,6.072099365234375,0.022674551233649254,-0.016069212928414345,0.009356604889035225
1757088698276053500,6.082053466796875,0.02679639495909214,-0.0222893338650465,0.01261421013623476
1757088698286008300,6.09200830078125,0.03150779381394386,-0.030872169882059097,0.010784085839986801
1757088698295962400,6.10196240234375,0.036649852991104126,-0.03873256593942642,0.00707186758518219
1757088698305917200,6.111917236328125,0.03739021345973015,-0.03642334043979645,0.006245754659175873
1757088698315872500,6.12187255859375,0.035017918795347214,-0.026342665776610374,0.00830957479774952
1757088698325826300,6.131826416015625,0.028030583634972572,-0.018029075115919113,0.012085404247045517
1757088698335781400,6.141781494140625,0.022508522495627403,-0.010593214072287083,0.018421107903122902
1757088698345735400,6.1517353515625,0.013863902539014816,-0.006776637863367796,0.021158836781978607
1757088698355690200,6.161690185546875,0.013692809268832207,-0.008742079138755798,0.027431227266788483
1757088698365644500,6.17164453125,0.013299726881086826,-0.009855015203356743,0.02824908122420311
1757088698375599400,6.181599365234375,0.016825057566165924,-0.01337391510605812,0.02993037924170494
1757088698385554400,6.191554443359375,0.01938994787633419,-0.013167786411941051,0.030242498964071274
1757088698395508200,6.20150830078125,0.01911904849112034,-0.01276045199483633,0.02731284126639366
1757088698405463600,6.211463623046875,0.018574699759483337,-0.013162323273718357,0.021325523033738136
1757088698415417300,6.221417236328125,0.01594071462750435,-0.015958402305841446,0.013471707701683044
1757088698425372400,6.231372314453125,0.011754490435123444,-0.015129894949495792,0.008287065662443638
1757088698435326500,6.241326416015625,0.009221726097166538,-0.020291795954108238,0.0062718684785068035
1757088698445281300,6.25128125,0.004078896250575781,-0.020468896254897118,0.004632692784070969
1757088698455236400,6.261236328125,-0.0035972315818071365,-0.025697628036141396,0.004783438052982092
1757088698465190400,6.2711904296875,-0.006153067573904991,-0.028506729751825333,0.007279619108885527
1757088698475145200,6.281145263671875,-0.012138759717345238,-0.035397738218307495,0.008076131343841553
1757088698485099300,6.291099365234375,-0.011395472101867199,-0.04317070543766022,0.011254880577325821
1757088698495054300,6.301054443359375,-0.015153919346630573,-0.05268409103155136,0.012368643656373024
1757088698505008400,6.31100830078125,-0.016347283497452736,-0.06157825142145157,0.016573775559663773
1757088698514963500,6.32096337890625,-0.02085082046687603,-0.07120463997125626,0.01631304807960987
1757088698524917200,6.330917236328125,-0.023221833631396294,-0.07781913131475449,0.019355975091457367
1757088698534872300,6.340872314453125,-0.02933388017117977,-0.07619444280862808,0.02050173655152321
1757088698544827400,6.350827392578125,-0.03968851640820503,-0.06765368580818176,0.02370232343673706
1757088698554781400,6.360781494140625,-0.042927637696266174,-0.07054026424884796,0.028028719127178192
1757088698564736300,6.370736328125,-0.046291742473840714,-0.06390872597694397,0.030624503269791603
1757088698574690300,6.380690185546875,-0.04392159730195999,-0.055633414536714554,0.03190763667225838
1757088698584645400,6.390645263671875,-0.03934229165315628,-0.04624044522643089,0.029853273183107376
1757088698594599200,6.40059912109375,-0.03433189541101456,-0.03385167196393013,0.03113151714205742
1757088698604554500,6.410554443359375,-0.026870250701904297,-0.009449928067624569,0.02789337933063507
1757088698614509300,6.42050927734375,-0.018775638192892075,0.004042251966893673,0.02613091468811035
1757088698624463400,6.43046337890625,-0.008624201640486717,0.018888575956225395,0.02070179581642151
1757088698634418200,6.440418212890625,0.0025280737318098545,0.03343012183904648,0.015699483454227448
1757088698644372500,6.45037255859375,0.011102654039859772,0.05250367894768715,0.011731904931366444
1757088698654327300,6.460327392578125,0.01765882410109043,0.07324863225221634,0.007718254812061787
1757088698664281300,6.47028125,0.024913806468248367,0.08298062533140182,0.00002384977415204048
1757088698674236400,6.480236328125,0.02978324517607689,0.08005139231681824,-0.005524999462068081
1757088698684191500,6.49019140625,0.03404403477907181,0.0812186598777771,-0.004858143627643585
1757088698694145500,6.5001455078125,0.0337132066488266,0.0885072872042656,-0.004144403617829084
1757088698704100400,6.510100341796875,0.034470342099666595,0.09422536194324493,-0.002913224045187235
1757088698714054400,6.520054443359375,0.03335384279489517,0.08675845712423325,0.002374439500272274
1757088698724009200,6.53000927734375,0.03486758470535278,0.07641447335481644,0.008167346939444542
1757088698733963300,6.53996337890625,0.03174390643835068,0.0727841928601265,0.01456860825419426
1757088698743918300,6.54991845703125,0.027619998902082443,0.07367422431707382,0.015969431027770042
1757088698753873400,6.559873291015625,0.020710568875074387,0.07034358382225037,0.01579878106713295
1757088698763827200,6.5698271484375,0.019448496401309967,0.06518344581127167,0.012355046346783638
1757088698773782300,6.5797822265625,0.018351254984736443,0.060522764921188354,0.012544237077236176
1757088698783736600,6.589736572265625,0.014816707000136375,0.06039147078990936,0.011629174463450909
1757088698793691400,6.59969140625,0.009633968584239483,0.0637769103050232,0.008158868178725243
1757088698803645400,6.6096455078125,0.007248309440910816,0.05045071989297867,-0.0033766147680580616
1757088698813600300,6.619600341796875,0.0068991342559456825,0.027198417112231255,-0.014061762019991875
1757088698823554300,6.62955419921875,0.006691940128803253,0.0004019555344711989,-0.021757500246167183
1757088698833509400,6.63950927734375,0.00812038965523243,-0.009101757779717445,-0.024068884551525116
1757088698843464400,6.64946435546875,0.0059504457749426365,-0.00804448314011097,-0.02578529343008995
1757088698853418200,6.659418212890625,0.006665785331279039,-0.012421559542417526,-0.03400129824876785
1757088698863373300,6.669373291015625,0.006139811128377914,-0.02826577052474022,-0.04137665405869484
1757088698873327400,6.679327392578125,0.009515794925391674,-0.03982968255877495,-0.044783417135477066
1757088698883282400,6.689282470703125,0.008422833867371082,-0.04500926658511162,-0.050728388130664825
1757088698893236500,6.699236572265625,0.014304607175290585,-0.04822748154401779,-0.06425418704748154
1757088698903191300,6.70919140625,0.019759826362133026,-0.043362684547901154,-0.07596437633037567
1757088698913146400,6.719146484375,0.022382032126188278,-0.03370726481080055,-0.08063270896673203
1757088698923100400,6.729100341796875,0.029756322503089905,-0.07246477901935577,-0.10925476998090744
1757088698933055500,6.739055419921875,0.03907937929034233,-0.1366330236196518,-0.15937764942646027
1757088698943009300,6.74900927734375,0.05569963529706001,-0.16643992066383362,-0.1969125121831894
1757088698952964400,6.75896435546875,0.045848168432712555,-0.15543799102306366,-0.201663076877594
1757088698962918400,6.76891845703125,0.03133047744631767,-0.23061609268188477,-0.20960088074207306
1757088698972873500,6.77887353515625,0.05025593936443329,-0.36384332180023193,-0.26868414878845215
1757088698982828300,6.788828369140625,0.08462855219841003,-0.42387762665748596,-0.37009143829345703
1757088698992781600,6.798781494140625,0.09357389062643051,-0.34849998354911804,-0.4080565571784973
1757088699002736600,6.808736572265625,0.08824064582586288,-0.23336566984653473,-0.2962607741355896
1757088699012690400,6.8186904296875,0.056982092559337616,-0.08728740364313126,-0.14616216719150543
1757088699022645500,6.8286455078125,-0.027649173513054848,-0.12185151129961014,-0.01737835258245468
1757088699032599600,6.838599609375,-0.1455346643924713,-0.2199462652206421,0.05669398605823517
1757088699042554600,6.8485546875,-0.25158414244651794,-0.27497515082359314,0.11819623410701752
1757088699052509400,6.858509521484375,-0.3247777223587036,-0.2769705653190613,0.20306670665740967
1757088699062463500,6.86846337890625,-0.29662808775901794,-0.21898289024829865,0.2404358983039856
1757088699072418600,6.87841845703125,-0.10057657212018967,-0.2564820349216461,0.09791794419288635
1757088699082372400,6.888372314453125,0.1304723620414734,-0.5026236176490784,-0.12444934248924255
1757088699092327700,6.89832763671875,0.281072199344635,-0.7375918030738831,-0.22828803956508636
1757088699102281500,6.908281494140625,0.3336765468120575,-0.6970505118370056,-0.12933269143104553
1757088699112236500,6.918236572265625,0.3542793095111847,-0.4581383168697357,0.10390588641166687
1757088699122190600,6.928190673828125,0.30918264389038086,-0.15905411541461945,0.36050623655319214
1757088699132145400,6.9381455078125,0.2127370983362198,0.07784862816333771,0.5817469358444214
1757088699142100500,6.9481005859375,0.10647352039813995,0.19670018553733826,0.6691702604293823
1757088699152054500,6.958054443359375,0.018390603363513947,0.24968425929546356,0.5604441165924072
1757088699162009600,6.968009521484375,-0.02744745835661888,0.21903420984745026,0.3400310277938843
1757088699171963400,6.97796337890625,-0.06093136966228485,0.1864132285118103,0.1332492232322693
1757088699181918700,6.987918701171875,-0.08843036741018295,0.16480940580368042,-0.009615528397262096
1757088699191872500,6.99787255859375,-0.12333101034164429,0.11864282190799713,-0.10007492452859879
1757088699201827600,7.00782763671875,-0.14249484241008759,0.12011075764894485,-0.1318376511335373
1757088699211782400,7.017782470703125,-0.12172672152519226,0.2079620510339737,-0.10385927557945251
1757088699221736400,7.027736328125,-0.10769958049058914,0.3214550316333771,-0.050558771938085556
1757088699231691500,7.03769140625,-0.09057673066854477,0.42716991901397705,0.014483258128166199
1757088699241645600,7.0476455078125,-0.07508698850870132,0.39378637075424194,0.06455761194229126
1757088699251600400,7.057600341796875,-0.05171425640583038,0.2502400577068329,0.06129573658108711
1757088699261554400,7.067554443359375,-0.01746041513979435,0.10900596529245377,0.009456240572035313
1757088699271509500,7.077509521484375,0.01706935092806816,-0.020953534170985222,-0.06610097736120224
1757088699281464600,7.087464599609375,0.05257061868906021,-0.09758972376585007,-0.11802356690168381
1757088699291418600,7.097418701171875,0.0765267163515091,-0.08933568000793457,-0.11296968907117844
1757088699301373400,7.10737353515625,0.06609591096639633,-0.031412720680236816,-0.0536445789039135
1757088699311327500,7.117327392578125,0.034976571798324585,0.014205917716026306,0.03329882770776749
1757088699321282600,7.127282470703125,-0.004921839572489262,0.04682165011763573,0.10514745116233826
1757088699331236600,7.137236572265625,-0.03671632707118988,0.05667645484209061,0.14275258779525757
1757088699341191400,7.14719140625,-0.047464579343795776,0.04237315058708191,0.14085082709789276
1757088699351146500,7.157146484375,-0.05655880644917488,0.039622679352760315,0.10900817811489105
1757088699361100500,7.1671005859375,-0.059464048594236374,0.042576923966407776,0.06800029426813126
1757088699371055600,7.1770556640625,-0.05245168134570122,0.04105093330144882,0.04047625884413719
1757088699381009700,7.187009765625,-0.04321583732962608,0.028691204264760017,0.033992789685726166
1757088699390964500,7.196964599609375,-0.03321828693151474,0.010044323280453682,0.04241032153367996
1757088699400918500,7.20691845703125,-0.020357616245746613,-0.00589762581512332,0.0480133481323719
1757088699410873300,7.216873291015625,-0.008801581338047981,-0.026706699281930923,0.04773463308811188
1757088699420828700,7.22682861328125,-0.0005295362789183855,-0.06407751142978668,0.03691181167960167
1757088699430782500,7.236782470703125,0.0008414589101448655,-0.10496395826339722,0.010877549648284912
1757088699440737500,7.246737548828125,-0.0031048129312694073,-0.1348390281200409,-0.019475828856229782
1757088699450691600,7.256691650390625,-0.0123627670109272,-0.143946573138237,-0.041179049760103226
1757088699460646700,7.266646728515625,-0.026767805218696594,-0.1448056995868683,-0.049405552446842194
1757088699470600700,7.2766005859375,-0.041593778878450394,-0.13505668938159943,-0.04578092694282532
1757088699480555500,7.286555419921875,-0.0486689992249012,-0.11943326145410538,-0.03886682912707329
1757088699490509600,7.296509521484375,-0.04938090220093727,-0.10441304743289948,-0.03247447684407234
1757088699500464400,7.30646435546875,-0.044049520045518875,-0.07279759645462036,-0.023150216788053513
1757088699510419700,7.316419677734375,-0.0393696166574955,-0.03535297513008118,-0.014595107175409794
1757088699520373500,7.32637353515625,-0.037544816732406616,-0.003016606206074357,-0.0038646990433335304
1757088699530328600,7.33632861328125,-0.033215850591659546,0.023337237536907196,-0.0027190065011382103
1757088699540282400,7.346282470703125,-0.026602689176797867,0.036380335688591,-0.005185892805457115
1757088699550237400,7.356237548828125,-0.01480958890169859,0.03656020760536194,-0.00816604308784008
1757088699560191700,7.366191650390625,0.0011155818356201053,0.050184670835733414,-0.005105805117636919
1757088699570146600,7.376146484375,0.013163205236196518,0.07958206534385681,-0.002874225378036499
1757088699580101400,7.386101318359375,0.023563381284475327,0.11786234378814697,0.0019916361197829247
1757088699590055400,7.396055419921875,0.03502468392252922,0.14362771809101105,0.006916294805705547
1757088699600010800,7.4060107421875,0.04327409341931343,0.15376876294612885,0.006727210246026516
1757088699609964500,7.415964599609375,0.054508887231349945,0.1490580141544342,0.0002118907868862152
1757088699619919600,7.425919677734375,0.0643247663974762,0.13785436749458313,-0.008920088410377502
1757088699629873400,7.435873291015625,0.06635607779026031,0.12981140613555908,-0.01439885888248682
1757088699639828500,7.445828369140625,0.06928049027919769,0.11999738961458206,-0.013240649364888668
1757088699649783600,7.455783447265625,0.06603728979825974,0.11303071677684784,-0.003690925892442465
1757088699659737600,7.465737548828125,0.06188914552330971,0.12045854330062866,0.010768440552055836
1757088699669692400,7.4756923828125,0.05805669724941254,0.1411302089691162,0.024912536144256592
1757088699679646500,7.485646484375,0.048964664340019226,0.15526679158210754,0.03454652056097984
1757088699689601500,7.4956015625,0.04650425910949707,0.16207100450992584,0.038813624531030655
1757088699699555600,7.5055556640625,0.047121312469244,0.15495344996452332,0.03952415660023689
1757088699709510700,7.5155107421875,0.05106658115983009,0.13389308750629425,0.039696961641311646
1757088699719464400,7.52546435546875,0.060653429478406906,0.11324745416641235,0.03297274559736252
1757088699729419500,7.53541943359375,0.06715377420186996,0.09923090785741806,0.025366531684994698
1757088699739374600,7.54537451171875,0.078031986951828,0.09655682742595673,0.014509623870253563
1757088699749328600,7.55532861328125,0.08723466843366623,0.10040970146656036,0.00776351522654295
1757088699759283500,7.565283447265625,0.09197136759757996,0.09868157655000687,0.003477956634014845
1757088699769237500,7.575237548828125,0.09976838529109955,0.10041961073875427,0.0034671768080443144
1757088699779192300,7.5851923828125,0.10547208040952682,0.09702035039663315,0.006552182603627443
1757088699789146400,7.595146484375,0.11356033384799957,0.08521133661270142,0.014778895303606987
1757088699799101700,7.605101806640625,0.12101558595895767,0.06743287295103073,0.02774156630039215
1757088699809056500,7.615056396484375,0.12609896063804626,0.05343731492757797,0.04521065205335617
1757088699819010600,7.625010498046875,0.12699644267559052,0.04675278067588806,0.0635923221707344
1757088699828965400,7.63496533203125,0.13154466450214386,0.051031842827796936,0.07633018493652344
1757088699838919700,7.644919677734375,0.13733065128326416,0.05935288965702057,0.08109484612941742
1757088699848874500,7.65487451171875,0.14084410667419434,0.05251435562968254,0.07426504045724869
1757088699858828500,7.66482861328125,0.1466204971075058,0.028783190995454788,0.06607262790203094
1757088699868783400,7.674783447265625,0.14841684699058533,0.018359599635004997,0.0538589172065258
1757088699878738700,7.68473876953125,0.13973520696163177,0.01524929329752922,0.04031993821263313
1757088699888692700,7.694692626953125,0.12589439749717712,0.006301986984908581,0.02460063435137272
1757088699898647600,7.7046474609375,0.10648101568222046,-0.006290237419307232,0.006764380261301994
1757088699908601600,7.7146015625,0.08748778700828552,-0.01667427457869053,-0.007923947647213936
1757088699918556400,7.724556396484375,0.07126034796237946,-0.009880020283162594,-0.017543019726872444
1757088699928510500,7.734510498046875,0.050103504210710526,0.010495495982468128,-0.019784025847911835
1757088699938465500,7.744465576171875,0.03305075317621231,0.035471685230731964,-0.014925620518624783
1757088699948420600,7.754420654296875,0.016725394874811172,0.055537860840559006,-0.008086739107966423
1757088699958374400,7.76437451171875,0.005151562858372927,0.07467000931501389,-0.0032999743707478046
1757088699968329500,7.77432958984375,0.0013750791549682617,0.09372515976428986,-0.006161437835544348
1757088699978283500,7.784283447265625,-0.00016289623454213142,0.10573841631412506,-0.014718707650899887
1757088699988238800,7.79423876953125,0.0004465958336368203,0.10203215479850769,-0.02590695582330227
1757088699998193000,7.80419287109375,-0.0013771369121968746,0.09211001545190811,-0.038029931485652924
1757088700008148000,7.81414794921875,-0.0000020063016563653946,0.07414931058883667,-0.05327700451016426
1757088700018102800,7.824102783203125,0.005641764961183071,0.037949491292238235,-0.06661012023687363
1757088700028056800,7.834056884765625,0.018043166026473045,-0.000011122145224362612,-0.07979682087898254
1757088700038012000,7.844011962890625,0.03058825246989727,-0.03611639514565468,-0.08864863216876984
1757088700047966000,7.853966064453125,0.04602247476577759,-0.07205983251333237,-0.09589290618896484
1757088700057921000,7.863921142578125,0.054128870368003845,-0.08446936309337616,-0.10584434121847153
1757088700067874800,7.873874755859375,0.05851418897509575,-0.08370582014322281,-0.11778630316257477
1757088700077830000,7.883829833984375,0.05484994873404503,-0.0707242414355278,-0.12402316927909851
1757088700087784000,7.893783935546875,0.04535709321498871,-0.052347734570503235,-0.12196572124958038
1757088700097739000,7.903739013671875,0.030765634030103683,-0.03221237286925316,-0.10986459255218506
1757088700107693800,7.91369384765625,0.019434457644820213,-0.01955140382051468,-0.09791864454746246
1757088700117648000,7.92364794921875,0.009576501324772835,-0.01483095157891512,-0.09514524042606354
1757088700127602700,7.933602783203125,0.009313198737800121,-0.022186817601323128,-0.1029505506157875
1757088700137556700,7.943556640625,0.016238749027252197,-0.03244717791676521,-0.12151491641998291
1757088700147512000,7.953511962890625,0.022862648591399193,-0.04256314039230347,-0.15094029903411865
1757088700157465900,7.9634658203125,0.028486445546150208,-0.0630929097533226,-0.18716460466384888
1757088700167421000,7.9734208984375,0.028679564595222473,-0.07376576960086823,-0.2279769629240036
1757088700177375700,7.983375732421875,0.017784040421247482,-0.06751266866922379,-0.2764925956726074
1757088700187330000,7.993330078125,-0.007944727316498756,-0.06862807273864746,-0.3245016932487488
1757088700197284900,8.003284912109375,-0.04954223707318306,-0.07241614907979965,-0.3878993093967438
1757088700207239000,8.013239013671875,-0.11514578014612198,-0.07523290812969208,-0.48423007130622864
1757088700217193700,8.02319384765625,-0.19543476402759552,-0.0977049246430397,-0.6127952337265015
1757088700227147800,8.033147705078125,-0.30528154969215393,-0.14608362317085266,-0.7564327120780945
1757088700237103000,8.04310302734375,-0.4195130467414856,-0.16891783475875854,-0.9188176393508911
1757088700247058000,8.053057861328124,-0.5250935554504395,-0.17025864124298096,-1.1195878982543945
1757088700257012000,8.063011962890625,-0.6394557952880859,-0.21315550804138184,-1.3533241748809814
1757088700266966800,8.072966796875,-0.7584919333457947,-0.2515612244606018,-1.5800801515579224
1757088700276920800,8.0829208984375,-0.8434147834777832,-0.27994945645332336,-1.7439606189727783
1757088700286876000,8.0928759765625,-0.8718665242195129,-0.2702471911907196,-1.8786664009094238
1757088700296830000,8.102829833984375,-0.8338373899459839,-0.3175657093524933,-1.9417617321014404
1757088700306784800,8.11278466796875,-0.7504541873931885,-0.67814040184021,-1.6792548894882202
1757088700316739800,8.12273974609375,-0.6926239132881165,-1.1281400918960571,-1.4336800575256348
1757088700326694000,8.13269384765625,-0.6526995301246643,-1.4348440170288086,-1.4671639204025269
1757088700336649000,8.14264892578125,-0.49238812923431396,-1.5971754789352417,-1.5019909143447876
1757088700346603000,8.15260302734375,-0.32259321212768555,-1.5256109237670898,-1.3343254327774048
1757088700356557800,8.162557861328125,-0.2187909185886383,-1.3178319931030273,-1.1136897802352905
1757088700366511900,8.172511962890624,-0.17201809585094452,-0.7764889597892761,-1.0674638748168945
1757088700376467000,8.182467041015625,-0.07810785621404648,-0.34498119354248047,-1.0587691068649292
1757088700386422000,8.192422119140625,-0.06313849240541458,-0.3049914240837097,-1.010308861732483
1757088700396375800,8.202375732421874,-0.06057759374380112,-0.3650694191455841,-0.9574086666107178
1757088700406331000,8.212330810546876,-0.07856368273496628,-0.44924643635749817,-0.9316073656082153
1757088700416284700,8.22228466796875,-0.12613093852996826,-0.6408156156539917,-0.896279513835907
1757088700426240000,8.232239990234374,-0.1786029040813446,-0.762033998966217,-0.8595485091209412
1757088700436194000,8.242194091796875,-0.27708473801612854,-0.7040894627571106,-0.7254780530929565
1757088700446148900,8.25214892578125,-0.32857653498649597,-0.7336814403533936,-0.5923365950584412
1757088700456103700,8.262103759765624,-0.30585578083992004,-0.7803131341934204,-0.5690033435821533
1757088700466058000,8.27205810546875,-0.3088566064834595,-0.7562137246131897,-0.5708203911781311
1757088700476013000,8.282012939453125,-0.30675163865089417,-0.6525714993476868,-0.522555947303772
1757088700485966800,8.291966796875,-0.33545026183128357,-0.537943959236145,-0.45023342967033386
1757088700495922000,8.301921875,-0.3585697114467621,-0.5028318166732788,-0.3942101001739502
1757088700505875700,8.311875732421875,-0.36191800236701965,-0.3931376338005066,-0.35342997312545776
1757088700515831000,8.3218310546875,-0.33132708072662354,-0.3151661455631256,-0.30157050490379333
1757088700525785000,8.33178515625,-0.3208601772785187,-0.2072157859802246,-0.2595633566379547
1757088700535740000,8.341739990234375,-0.27266600728034973,-0.1401752382516861,-0.22606422007083893
1757088700545694700,8.35169482421875,-0.23577837646007538,-0.02894827537238598,-0.18024615943431854
1757088700555648800,8.361648681640625,-0.19618862867355347,0.07069603353738785,-0.14641709625720978
1757088700565604000,8.37160400390625,-0.13845837116241455,0.12190816551446915,-0.12884481251239777
1757088700575558000,8.381557861328124,-0.09536521881818771,0.19422951340675354,-0.12179090082645416
1757088700585513000,8.391512939453126,-0.0467243418097496,0.22896824777126312,-0.13862203061580658
1757088700595466800,8.401466796875,-0.011785268783569336,0.2181566059589386,-0.1700015366077423
1757088700605421800,8.411421875,0.05033837631344795,0.2399306744337082,-0.172665074467659
1757088700615377000,8.421376953125,0.09004583954811096,0.23014594614505768,-0.16903412342071533
1757088700625331000,8.4313310546875,0.10814891010522842,0.2361852079629898,-0.15469035506248474
1757088700635285800,8.44128564453125,0.15115390717983246,0.12598520517349243,-0.16149792075157166
1757088700645239800,8.45123974609375,0.16888277232646942,0.025850452482700348,-0.133307546377182
1757088700655195000,8.46119482421875,0.16089887917041779,-0.05716586858034134,-0.08048401027917862
1757088700665149000,8.47114892578125,0.12124713510274887,-0.13648076355457306,-0.03807772323489189
1757088700675104000,8.48110400390625,0.0962110236287117,-0.13002899289131165,-0.024444468319416046
1757088700685058800,8.491058837890625,0.049845870584249496,-0.11976338177919388,-0.034385912120342255
1757088700695012900,8.501012939453124,0.0011398517526686192,-0.1371580809354782,-0.03442106768488884
1757088700704968000,8.510968017578126,-0.0514911487698555,-0.12916868925094604,-0.005559173412621021
1757088700714922000,8.520921875,-0.10943514853715897,-0.15042497217655182,0.03142627328634262
1757088700724876800,8.530876708984374,-0.16543349623680115,-0.19206953048706055,0.07661376893520355
1757088700734830800,8.540830810546876,-0.21090297400951385,-0.25534653663635254,0.09935902804136276
1757088700744785700,8.55078564453125,-0.24200467765331268,-0.3591388165950775,0.11329656839370728
1757088700754741000,8.560740966796875,-0.2676035165786743,-0.43062710762023926,0.12675219774246216
1757088700764695000,8.570695068359376,-0.28293362259864807,-0.5233733057975769,0.14047791063785553
1757088700774649900,8.58064990234375,-0.2888011038303375,-0.5864364504814148,0.15385550260543823
1757088700784604000,8.59060400390625,-0.29543614387512207,-0.6510199308395386,0.17415601015090942
1757088700794559000,8.60055908203125,-0.2977064847946167,-0.6902139186859131,0.2057054042816162
1757088700804513000,8.610512939453125,-0.29961082339286804,-0.7013959288597107,0.25651252269744873
1757088700814467800,8.6204677734375,-0.28249815106391907,-0.6944024562835693,0.3220830261707306
1757088700824422000,8.630421875,-0.25097835063934326,-0.6925508975982666,0.38430020213127136
1757088700834376700,8.640376708984375,-0.22370545566082,-0.6886134147644043,0.4208694100379944
1757088700844332000,8.65033203125,-0.20679901540279388,-0.6237999796867371,0.42873629927635193
1757088700854286000,8.6602861328125,-0.19798235595226288,-0.4349355697631836,0.4344996213912964
1757088700864241000,8.670240966796875,-0.15445028245449066,-0.2143823802471161,0.4592985212802887
1757088700874195000,8.68019482421875,-0.08947848528623581,-0.015222681686282158,0.498128741979599
1757088700884149800,8.690149658203126,-0.002142388606444001,0.1646491140127182,0.5315696597099304
1757088700894104800,8.700104736328125,0.06943698972463608,0.3422430455684662,0.5499294996261597
1757088700904059000,8.710058837890625,0.11166775226593018,0.5035653114318848,0.49802276492118835
1757088700914014000,8.720013916015626,0.12087216973304749,0.7164317965507507,0.4213927090167999
1757088700923967700,8.7299677734375,0.1084313616156578,0.9443994760513306,0.37310391664505005
1757088700933923000,8.739923095703125,0.08404559642076492,1.1632177829742432,0.3680630922317505
1757088700943876900,8.749876953125,0.06807350367307663,1.3224670886993408,0.41525977849960327
1757088700953832000,8.75983203125,0.05916709825396538,1.4235934019088745,0.5184032320976257
1757088700963786000,8.769785888671874,0.06560201197862625,1.4615449905395508,0.6644808650016785
1757088700973740800,8.77974072265625,0.10027530044317245,1.4528958797454834,0.8156456351280212
1757088700983696000,8.78969580078125,0.14507155120372772,1.404710292816162,0.9502749443054199
1757088700993649700,8.799649658203125,0.20395112037658691,1.3065109252929688,1.020725965499878
1757088701003604700,8.809604736328126,0.2506084740161896,1.1130403280258179,1.0644670724868774
1757088701013558500,8.81955859375,0.2966694235801697,0.9701939225196838,1.1179726123809814
1757088701023513600,8.829513671875,0.33977898955345154,0.8757957220077515,1.1601828336715698
1757088701033467600,8.839467529296876,0.375977486371994,0.7924270629882812,1.1446433067321777
1757088701043422700,8.849422607421875,0.4050542414188385,0.6928419470787048,1.0584759712219238
1757088701053377500,8.85937744140625,0.41733166575431824,0.60713130235672,0.9312834739685059
1757088701063331600,8.86933154296875,0.41725972294807434,0.5449520945549011,0.8154918551445007
1757088701073286700,8.87928662109375,0.4227948486804962,0.5635793209075928,0.7508223056793213
1757088701083240400,8.889240478515624,0.4314821660518646,0.6614040732383728,0.7578496336936951
1757088701093195800,8.89919580078125,0.4521951675415039,0.818802535533905,0.8465725779533386
1757088701103149600,8.909149658203125,0.47059717774391174,1.0016719102859497,0.9888767600059509
1757088701113104600,8.919104736328125,0.4581948220729828,1.1638003587722778,1.151825189590454
1757088701123059500,8.9290595703125,0.42400822043418884,1.317623257637024,1.2868000268936157
1757088701133013800,8.939013671875,0.35942018032073975,1.4239318370819092,1.3463653326034546
1757088701142968600,8.948968505859375,0.2709908187389374,1.4389934539794922,1.3674167394638062
1757088701152922600,8.958922607421876,0.1691073477268219,1.392379879951477,1.3786399364471436
1757088701162877400,8.96887744140625,0.08508439362049103,1.2383179664611816,1.2806737422943115
1757088701172831500,8.97883154296875,0.04873543605208397,0.9002877473831177,1.0391710996627808
1757088701182786800,8.988786865234376,0.01471331063657999,0.4732497036457062,0.8119724988937378
1757088701192741600,8.99874169921875,-0.029637640342116356,0.14023952186107635,0.6956877112388611
1757088701202695700,9.00869580078125,-0.012648755684494972,-0.021241968497633934,0.6861070990562439
1757088701212650500,9.018650390625,0.013649160973727703,-0.09470899403095245,0.7273001074790955
1757088701222604500,9.0286044921875,0.0870928019285202,-0.009966018609702587,0.7549723386764526
1757088701232559600,9.0385595703125,0.1813066601753235,0.0897320806980133,0.7748581767082214
1757088701242513700,9.048513671875,0.2612391710281372,0.11677224934101105,0.7631676197052002
1757088701252468500,9.058468505859375,0.3272240459918976,0.08584097027778625,0.7267150282859802
1757088701262423600,9.068423583984375,0.3602849245071411,-0.001973072998225689,0.7008664608001709
1757088701272377600,9.078377685546876,0.3725295960903168,-0.09066405892372131,0.6999263763427734
1757088701282332700,9.088332763671875,0.39397889375686646,-0.14103759825229645,0.7186620831489563
1757088701292286700,9.09828662109375,0.4177659749984741,-0.17524510622024536,0.7370591759681702
1757088701302241500,9.108241455078126,0.45608189702033997,-0.22226691246032715,0.7522202730178833
1757088701312195600,9.118195556640625,0.5142256021499634,-0.26666316390037537,0.7596926093101501
1757088701322150700,9.128150634765625,0.5706701874732971,-0.3466624915599823,0.7511191964149475
1757088701332105700,9.138105712890624,0.6170845627784729,-0.3831440806388855,0.7322821021080017
1757088701342059500,9.1480595703125,0.6326586008071899,-0.3402746915817261,0.7315095067024231
1757088701352014600,9.1580146484375,0.6221013069152832,-0.2894996702671051,0.7332515120506287
1757088701361968600,9.16796875,0.6001355648040771,-0.1970362514257431,0.7304805517196655
1757088701371923700,9.177923828125,0.5827890634536743,0.026160070672631264,0.749269962310791
1757088701381877800,9.187877685546875,0.562429666519165,0.1362846940755844,0.7274215817451477
1757088701391832600,9.19783251953125,0.5399781465530396,0.15365943312644958,0.6443397402763367
1757088701401787400,9.207787353515625,0.5052686333656311,0.12934929132461548,0.5441279411315918
1757088701411741400,9.217741455078125,0.47811049222946167,0.14135749638080597,0.44920167326927185
1757088701421696800,9.22769677734375,0.46027350425720215,0.20454561710357666,0.366800993680954
1757088701431650600,9.237650634765625,0.44979584217071533,0.2595928907394409,0.3068532347679138
1757088701441605600,9.247605712890625,0.46066758036613464,0.2788977324962616,0.2517277002334595
1757088701451559400,9.257559326171876,0.4809323847293854,0.2579631507396698,0.19779044389724731
1757088701461514800,9.2675146484375,0.48913225531578064,0.2633291780948639,0.16036534309387207
1757088701471469600,9.277469482421875,0.46108970046043396,0.32654303312301636,0.13817216455936432
1757088701481423600,9.287423583984374,0.4072827696800232,0.4516459107398987,0.12138672173023224
1757088701491378400,9.29737841796875,0.34185343980789185,0.5753335356712341,0.11208164691925049
1757088701501332500,9.30733251953125,0.26490500569343567,0.6603761315345764,0.10880095511674881
1757088701511287800,9.317287841796874,0.180136576294899,0.6228034496307373,0.11299064010381699
1757088701521241600,9.32724169921875,0.14289215207099915,0.5844459533691406,0.0653822124004364
1757088701531196700,9.33719677734375,0.1081102043390274,0.6475692391395569,-0.05336947366595268
1757088701541150500,9.347150390625,0.06561409682035446,0.6791901588439941,-0.18562382459640503
1757088701551105500,9.35710546875,0.030583137646317482,0.5875387787818909,-0.35653167963027954
1757088701561060600,9.367060546875,-0.036073990166187286,0.4680800437927246,-0.5602853894233704
1757088701571014700,9.3770146484375,-0.15268875658512115,0.3821025490760803,-0.7856926918029785
1757088701580969500,9.386969482421875,-0.26925575733184814,0.31566235423088074,-0.9977792501449585
1757088701590923500,9.396923583984375,-0.37591350078582764,0.17173980176448822,-1.2011216878890991
1757088701600878600,9.406878662109374,-0.4599038362503052,-0.017008759081363678,-1.4273070096969604
1757088701610832600,9.41683251953125,-0.5328899025917053,-0.23399300873279572,-1.6733721494674683
1757088701620787700,9.42678759765625,-0.5912932753562927,-0.41396579146385193,-1.9235659837722778
1757088701630742500,9.436742431640624,-0.6177965402603149,-0.4284805357456207,-2.1606502532958984
1757088701640696600,9.446696533203125,-0.589312732219696,-0.39178401231765747,-2.3780808448791504
1757088701650651600,9.456651611328125,-0.5449985861778259,-0.4488568902015686,-2.549846887588501
1757088701660605700,9.466605712890624,-0.5179734826087952,-0.5031619071960449,-2.5516774654388428
1757088701670560500,9.476560546875,-0.48469144105911255,-0.25663602352142334,-2.3795535564422607
1757088701680514600,9.4865146484375,-0.4526754319667816,0.18656259775161743,-2.1777753829956055
1757088701690469400,9.496469482421874,-0.41911694407463074,0.6948686838150024,-1.9932401180267334
1757088701700424700,9.5064248046875,-0.3231441378593445,1.2858736515045166,-1.7338917255401611
1757088701710378800,9.516378662109375,-0.16063404083251953,1.8223810195922852,-1.4915851354599
1757088701720333600,9.52633349609375,-0.15230822563171387,2.159414052963257,-1.2875148057937622
1757088701730287600,9.53628759765625,-0.2984313368797302,2.180060386657715,-1.0971016883850098
1757088701740242700,9.54624267578125,-0.5372058749198914,2.135930061340332,-1.1631861925125122
1757088701750196700,9.55619677734375,-0.6986269950866699,1.589432716369629,-1.440112590789795
1757088701760151600,9.566151611328126,-0.853232741355896,0.7263494729995728,-1.6713954210281372
1757088701770106600,9.576106689453125,-0.961719274520874,-0.1562356799840927,-1.8594896793365479
1757088701780060400,9.586060302734374,-0.994171679019928,-0.8501907587051392,-1.9399834871292114
1757088701790015700,9.596015625,-1.0283739566802979,-1.465258240699768,-1.890916347503662
1757088701799969800,9.6059697265625,-1.0015181303024292,-1.772035837173462,-1.8320119380950928
1757088701809924600,9.615924560546874,-0.9431216716766357,-1.8145790100097656,-1.7429078817367554
1757088701819878700,9.625878662109375,-0.9849008917808533,-1.9623384475708008,-1.5874879360198975
1757088701829833500,9.63583349609375,-1.010246992111206,-1.9315836429595947,-1.4720923900604248
1757088701839788800,9.645788818359375,-1.0278109312057495,-1.7792943716049194,-1.3699705600738525
1757088701849742600,9.65574267578125,-1.0059823989868164,-1.6401293277740479,-1.2226535081863403
1757088701859697700,9.66569775390625,-0.96909099817276,-1.5677636861801147,-1.0391110181808472
1757088701869651500,9.6756513671875,-0.9362677931785583,-1.414306402206421,-0.8645977973937988
1757088701879606800,9.685606689453126,-0.8610023856163025,-1.3201462030410767,-0.6626415252685547
1757088701889560600,9.695560546875,-0.7758920192718506,-1.2234779596328735,-0.46189674735069275
1757088701899515600,9.705515625,-0.7070579528808594,-1.0937806367874146,-0.26596540212631226
1757088701909470500,9.715470458984376,-0.620639979839325,-1.0026803016662598,-0.11019071936607361
1757088701919424500,9.725424560546875,-0.5482701063156128,-0.8959653377532959,-0.021916549652814865
1757088701929379600,9.735379638671875,-0.4594601094722748,-0.7956759929656982,0.022441860288381577
1757088701939333600,9.745333740234376,-0.3594104051589966,-0.6792347431182861,0.06044827401638031
1757088701949288700,9.755288818359375,-0.2920374870300293,-0.5745443105697632,0.14349788427352905
1757088701959242500,9.765242431640624,-0.2321275770664215,-0.5390283465385437,0.2682446539402008
1757088701969197600,9.775197509765626,-0.21033786237239838,-0.45701363682746887,0.40257716178894043
1757088701979152600,9.785152587890625,-0.18147800862789154,-0.4919353723526001,0.5247347354888916
1757088701989106700,9.795106689453124,-0.16883784532546997,-0.4942416548728943,0.6336247324943542
1757088701999061800,9.805061767578126,-0.1587192863225937,-0.5293262004852295,0.7249777317047119
1757088702009015800,9.815015869140625,-0.13791893422603607,-0.5825766324996948,0.8114711046218872
1757088702018970600,9.824970703125,-0.10085809975862503,-0.5813812613487244,0.9202903509140015
1757088702028924700,9.834924560546876,-0.05288498476147652,-0.5126652717590332,1.0652868747711182
1757088702038879700,9.844879638671875,-0.025746943429112434,-0.4222126007080078,1.185682773590088
1757088702048834800,9.854834716796875,-0.030441563576459885,-0.37919509410858154,1.2016106843948364
1757088702058788900,9.864788818359376,0.028164168819785118,-0.40779247879981995,1.0718780755996704
1757088702068743700,9.87474365234375,0.09763379395008087,-0.5117689371109009,0.8199488520622253
1757088702078697700,9.88469775390625,0.1488288789987564,-0.6293954253196716,0.47478994727134705
1757088702088652800,9.89465283203125,0.14828932285308838,-0.7575609087944031,0.07203824818134308
1757088702098606800,9.90460693359375,0.08121778070926666,-0.9002087116241455,-0.3118382394313812
1757088702108561700,9.914561767578125,-0.01688321679830551,-0.9524450302124023,-0.5691891312599182
1757088702118515700,9.924515625,-0.13184894621372223,-1.0224283933639526,-0.6590793132781982
1757088702128470800,9.934470703125,-0.2411474734544754,-1.0207982063293457,-0.6600666046142578
1757088702138425900,9.94442578125,-0.3229164481163025,-0.9320598840713501,-0.6327751278877258
1757088702148380000,9.9543798828125,-0.3805525600910187,-0.8561152815818787,-0.6054955720901489
1757088702158334700,9.964334716796875,-0.40759772062301636,-0.7254883050918579,-0.595595121383667
1757088702168288800,9.974288818359375,-0.37100347876548767,-0.544887900352478,-0.48523879051208496
1757088702178243800,9.984243896484376,-0.2791581451892853,-0.32244324684143066,-0.2525486350059509
1757088702188198000,9.994197998046875,-0.2189619243144989,-0.347373902797699,-0.1119542196393013
1757088702198152700,10.004152587890625,-0.16485360264778137,-0.31515711545944214,-0.1344214230775833
1757088702208107800,10.014107666015626,-0.13361632823944092,-0.05067167803645134,-0.14522187411785126
1757088702218061600,10.0240615234375,-0.12759548425674438,0.5062617063522339,0.05644317343831062
1757088702228017000,10.034016845703125,-0.08653059601783752,1.1268954277038574,0.4250824749469757
1757088702237971000,10.043970947265626,0.05641966685652733,1.5460323095321655,0.7983205318450928
1757088702247925800,10.05392578125,0.20616655051708221,1.6785993576049805,1.0260883569717407
1757088702257879800,10.0638798828125,0.3241649270057678,1.6684181690216064,1.0307211875915527
1757088702267834600,10.073834716796876,0.37653306126594543,1.5355958938598633,0.8725205659866333
1757088702277790000,10.0837900390625,0.3514927327632904,1.205739140510559,0.5749281048774719
1757088702287743700,10.09374365234375,0.35168421268463135,0.7884082794189453,0.247599259018898
1757088702297698800,10.10369873046875,0.40309587121009827,0.6691151261329651,0.0433543361723423
1757088702307652600,10.113652587890625,0.4233643710613251,0.8257012963294983,0.0999600887298584
1757088702317608000,10.12360791015625,0.35054126381874084,0.9870122671127319,0.37716302275657654
1757088702327561700,10.133561767578126,0.3052288889884949,1.0872650146484375,0.7315892577171326
1757088702337516800,10.143516845703125,0.2742522358894348,1.023901343345642,1.0769509077072144
1757088702347471600,10.1534716796875,0.24212652444839478,0.9550788998603821,1.4220153093338013
1757088702357425700,10.16342578125,0.28331896662712097,1.0309102535247803,1.754751205444336
1757088702367380700,10.173380615234375,0.3527931272983551,1.1976209878921509,2.010976552963257
1757088702377334800,10.183334716796875,0.3892795145511627,1.3805110454559326,2.1455490589141846
1757088702387289900,10.193289794921874,0.3545420169830322,1.554509162902832,2.0659313201904297
1757088702397243600,10.20324365234375,0.3265782594680786,1.6534656286239624,1.6579921245574951
1757088702407198700,10.21319873046875,0.3635578453540802,1.3594244718551636,1.1263186931610107
1757088702417153800,10.22315380859375,0.3948800563812256,0.7795876860618591,0.773978054523468
1757088702427107800,10.23310791015625,0.375692218542099,0.4842335283756256,0.6981335878372192
1757088702437062700,10.243062744140625,0.31178155541419983,0.613277792930603,0.8371753096580505
1757088702447016700,10.2530166015625,0.268699049949646,0.9955077171325684,1.0726122856140137
1757088702456971800,10.2629716796875,0.23318366706371307,1.271525263786316,1.303466558456421
1757088702466925800,10.27292578125,0.2248689979314804,1.2199581861495972,1.4587608575820923
1757088702476881000,10.282880859375,0.23342180252075195,0.921542763710022,1.463985800743103
1757088702486835700,10.292835693359375,0.2502172887325287,0.4524852931499481,1.3347516059875488
1757088702496789800,10.302789794921875,0.2818891704082489,0.10008949786424637,1.1277105808258057
1757088702506744800,10.312744873046874,0.3460385799407959,-0.04293530061841011,0.9370085597038269
1757088702516699000,10.322698974609375,0.372438907623291,-0.19173870980739594,0.9254806041717529
1757088702526653700,10.33265380859375,0.3868753910064697,-0.21670983731746674,1.0348325967788696
1757088702536607700,10.342607666015626,0.38578882813453674,-0.01696135476231575,1.1091421842575073
1757088702546562600,10.3525625,0.40994793176651,0.2219657301902771,1.1077784299850464
1757088702556518000,10.362517822265625,0.43637800216674805,0.3075126111507416,1.0726466178894043
1757088702566472000,10.372471923828124,0.4445640444755554,0.21002332866191864,1.0538914203643799
1757088702576426800,10.3824267578125,0.39919522404670715,0.03101229853928089,1.0851062536239624
1757088702586380800,10.392380859375,0.3675038814544678,-0.19506904482841492,1.1283565759658813
1757088702596335900,10.4023359375,0.4545798599720001,-0.127634659409523,1.0752853155136108
1757088702606290000,10.4122900390625,0.5507401823997498,-0.007813449017703533,1.0293916463851929
1757088702616244700,10.42224462890625,0.6238588094711304,0.045018501579761505,0.9853148460388184
1757088702626199800,10.43219970703125,0.6809556484222412,0.00722531508654356,0.9241103529930115
1757088702636153600,10.442153564453125,0.7205073833465576,-0.014162474311888218,0.8750489950180054
1757088702646109000,10.45210888671875,0.7388834953308105,0.050632502883672714,0.8781430125236511
1757088702656062700,10.462062744140624,0.7284667491912842,0.17626528441905975,0.8845401406288147
1757088702666017800,10.472017822265625,0.7188982963562012,0.27216649055480957,0.8616856932640076
1757088702675971800,10.481971923828125,0.7270974516868591,0.2989608347415924,0.8127472996711731
1757088702685926700,10.4919267578125,0.7410649657249451,0.2852676510810852,0.7265223860740662
1757088702695881700,10.5018818359375,0.7584323883056641,0.28284692764282227,0.6096224784851074
1757088702705835800,10.511835693359375,0.724431574344635,0.2739482522010803,0.5188142657279968
1757088702715790800,10.521790771484374,0.6624154448509216,0.30283740162849426,0.4160320460796356
1757088702725744600,10.53174462890625,0.5769713521003723,0.4083057641983032,0.316896915435791
1757088702735700000,10.541699951171875,0.48603367805480957,0.51441890001297,0.2292937934398651
1757088702745653800,10.55165380859375,0.4038490653038025,0.5462998747825623,0.1732901930809021
1757088702755608800,10.56160888671875,0.33261165022850037,0.49635857343673706,0.13188588619232178
1757088702765563600,10.571563720703125,0.27450332045555115,0.41004258394241333,0.11000882089138031
1757088702775517700,10.581517578125,0.22237345576286316,0.39427056908607483,0.1244116947054863
1757088702785472800,10.59147265625,0.1744205802679062,0.4536060690879822,0.11905794590711594
1757088702795426800,10.6014267578125,0.11943569034337997,0.5714576840400696,0.07697614282369614
1757088702805382000,10.6113818359375,0.07611138373613358,0.6818963289260864,0.04029110074043274
1757088702815336700,10.621336669921876,0.0839444100856781,0.7501243352890015,-0.029069239273667336
1757088702825290800,10.631290771484375,0.09745542705059052,0.8864366412162781,-0.18014317750930786
1757088702835245800,10.641245849609374,0.059721581637859344,0.934512734413147,-0.34903091192245483
1757088702845200000,10.651199951171876,-0.03350476920604706,0.7460951209068298,-0.5154392719268799
1757088702855154700,10.66115478515625,-0.1516832560300827,0.47752928733825684,-0.7022577524185181
1757088702865108700,10.671108642578124,-0.2364410161972046,0.3523140847682953,-0.9070468544960022
1757088702875063600,10.6810634765625,-0.33726298809051514,0.3421030342578888,-1.1640996932983398
1757088702885019000,10.691018798828125,-0.41860684752464294,0.31531935930252075,-1.433090090751648
1757088702894973000,10.700972900390624,-0.5170081257820129,0.3080250322818756,-1.68665611743927
1757088702904927700,10.710927734375,-0.6340556144714355,0.293542742729187,-1.9158227443695068
1757088702914881800,10.7208818359375,-0.733119547367096,0.21053780615329742,-2.109614372253418
1757088702924836900,10.7308369140625,-0.8102372288703918,0.03210415318608284,-2.299359083175659
1757088702934791000,10.740791015625,-0.8019243478775024,-0.290118932723999,-2.514111280441284
1757088702944745700,10.750745849609375,-0.7507535815238953,-0.6598469018936157,-2.6206753253936768
1757088702954700800,10.76070068359375,-0.6647324562072754,-0.7648528218269348,-2.4832763671875
1757088702964654600,10.770654541015626,-0.6204792261123657,-0.4548766314983368,-2.186826229095459
1757088702974610000,10.78060986328125,-0.6623666882514954,-0.009561494924128056,-1.9429378509521484
1757088702984563700,10.790563720703124,-0.7056558728218079,0.4311879277229309,-1.8017876148223877
1757088702994518000,10.80051806640625,-0.7925689816474915,0.8287072777748108,-1.686869740486145
1757088703004472000,10.81047216796875,-0.8132404685020447,1.0677776336669922,-1.5918374061584473
1757088703014427000,10.820427001953124,-0.8326994776725769,1.1588104963302612,-1.5123635530471802
1757088703024382000,10.8303818359375,-0.9137743711471558,1.1577068567276,-1.4114776849746704
1757088703034336000,10.8403359375,-0.996653139591217,0.9724308252334595,-1.3631417751312256
1757088703044291000,10.850291015625,-1.0227588415145874,0.4909891188144684,-1.4924778938293457
1757088703054245000,10.8602451171875,-0.9427263736724854,-0.09431741386651993,-1.7082431316375732
1757088703064200000,10.870199951171875,-0.8729715347290039,-0.5441266298294067,-1.8994089365005493
1757088703074155000,10.880155029296875,-0.8981896042823792,-1.148004412651062,-1.8597393035888672
1757088703084109000,10.890109130859376,-0.8756720423698425,-1.518744945526123,-1.795414924621582
1757088703094063900,10.90006396484375,-0.9005900621414185,-1.5906442403793335,-1.694347858428955
1757088703104018000,10.910017822265624,-0.8752455711364746,-1.5444855690002441,-1.6410471200942993
1757088703113973000,10.919972900390626,-0.8383867740631104,-1.7285631895065308,-1.6657596826553345
1757088703123926800,10.9299267578125,-0.7876847386360168,-1.8867123126983643,-1.7109538316726685
1757088703133882000,10.939882080078124,-0.7581481337547302,-2.0173416137695312,-1.6730263233184814
1757088703143837000,10.9498369140625,-0.7563014626502991,-2.0103201866149902,-1.56502366065979
1757088703153791000,10.959791015625,-0.7249758839607239,-1.8489181995391846,-1.4215850830078125
1757088703163745800,10.969745849609374,-0.6601787805557251,-1.6191859245300293,-1.2111010551452637
1757088703173700000,10.9797001953125,-0.5644142627716064,-1.3746678829193115,-0.9268516898155212
1757088703183655000,10.989655029296875,-0.4674147963523865,-1.1092448234558105,-0.5909061431884766
1757088703193609000,10.99960888671875,-0.382723331451416,-0.8601486086845398,-0.26421087980270386
1757088703203564000,11.00956396484375,-0.3218621015548706,-0.6464565992355347,0.012275826185941696
1757088703213519000,11.01951904296875,-0.2669315040111542,-0.4814404249191284,0.24085336923599243
1757088703223473200,11.02947314453125,-0.21211881935596466,-0.4040564298629761,0.41890937089920044
1757088703233428000,11.039427978515626,-0.1366046965122223,-0.3288117051124573,0.5727058053016663
1757088703243382000,11.049382080078125,-0.061239637434482574,-0.24002724885940552,0.7124509215354919
1757088703253336800,11.0593369140625,-0.021429287269711494,-0.20400576293468475,0.8687885403633118
1757088703263291000,11.069290771484376,-0.004590918775647879,-0.19945628941059113,0.9911711812019348
1757088703273246000,11.079245849609375,0.018606405705213547,-0.22824257612228394,1.0510294437408447
1757088703283201000,11.089200927734375,0.04840957373380661,-0.3382769525051117,1.0909453630447388
1757088703293155000,11.099155029296876,0.08700264245271683,-0.4336831867694855,1.1543821096420288
1757088703303110000,11.10910986328125,0.08489928394556046,-0.5204548239707947,1.2467637062072754
1757088703313064200,11.119064208984375,0.05812907963991165,-0.6112914681434631,1.2970644235610962
1757088703323019000,11.12901904296875,0.004854938946664333,-0.69319087266922,1.271315097808838
1757088703332973000,11.13897314453125,0.0031899844761937857,-0.6838665008544922,1.169628620147705
1757088703342928000,11.148927978515625,0.09290948510169983,-0.5951228141784668,0.9634376168251038
1757088703352883200,11.15888330078125,0.18547460436820984,-0.5031387805938721,0.6113624572753906
1757088703362837000,11.1688369140625,0.1828300952911377,-0.41632136702537537,0.13934485614299774
1757088703372792000,11.1787919921875,0.07361619174480438,-0.5017032027244568,-0.3706495761871338
1757088703382745900,11.188745849609376,-0.10320758074522018,-0.7169718742370605,-0.7868992686271667
1757088703392701000,11.198700927734375,-0.24993601441383362,-0.7861925959587097,-0.9936003684997559
1757088703402656000,11.208656005859375,-0.32514023780822754,-0.8109949231147766,-1.0138158798217773
1757088703412610000,11.218610107421876,-0.34552136063575745,-0.9305248260498047,-0.8901425004005432
1757088703422564900,11.22856494140625,-0.327769011259079,-1.0213918685913086,-0.7280761003494263
1757088703432519000,11.238518798828125,-0.2814513146877289,-1.01373291015625,-0.5549159049987793
1757088703442474000,11.248473876953126,-0.20793873071670532,-0.8439595103263855,-0.34782135486602783
1757088703452427800,11.258427734375,-0.17191319167613983,-0.6277509331703186,-0.14529407024383545
1757088703462383000,11.268383056640625,-0.14801184833049774,-0.4652310013771057,-0.10065549612045288
1757088703472338000,11.278337890625,-0.12776930630207062,-0.16243226826190948,-0.1499379575252533
1757088703482292000,11.2882919921875,-0.13548821210861206,0.3820379674434662,-0.13000312447547913
1757088703492246800,11.298246826171875,-0.15877285599708557,1.1061593294143677,0.1352054476737976
1757088703502201000,11.308201171875,-0.11387088894844055,1.7533111572265625,0.5629695653915405
1757088703512156000,11.318156005859375,-0.007234301883727312,1.9898972511291504,0.8691534399986267
1757088703522110000,11.32810986328125,0.07656312733888626,1.806142807006836,0.8682982921600342
1757088703532065000,11.33806494140625,0.06271399557590485,1.3708921670913696,0.6361353993415833
1757088703542020000,11.34802001953125,0.10756295919418335,0.851355791091919,0.2896812856197357
1757088703551974100,11.35797412109375,0.20269779860973358,0.48953691124916077,0.011090744286775589
1757088703561929000,11.367928955078124,0.34088361263275146,0.4248031675815582,-0.13605450093746185
1757088703571883000,11.377883056640625,0.4461182653903961,0.5186614990234375,-0.12171534448862076
1757088703581837800,11.387837890625,0.4170381426811218,0.7413968443870544,0.09473440051078796
1757088703591791900,11.3977919921875,0.3803586959838867,1.0281301736831665,0.5101824402809143
1757088703601747000,11.407746826171875,0.3306071162223816,1.175674319267273,1.0071440935134888
1757088703611702000,11.417701904296875,0.3153163194656372,1.1488664150238037,1.4810192584991455
1757088703621656000,11.427656005859374,0.3708256483078003,1.1734575033187866,1.8710756301879883
1757088703631611000,11.43761083984375,0.4378550052642822,1.2823408842086792,2.151653289794922
1757088703641565200,11.447565185546875,0.43423524498939514,1.3879562616348267,2.3080127239227295
1757088703651520000,11.45752001953125,0.32741278409957886,1.546126127243042,2.241077184677124
1757088703661474800,11.467474853515625,0.17749227583408356,1.6018624305725098,1.8233035802841187
1757088703671428900,11.477428955078125,0.15126411616802216,1.165102481842041,1.2143030166625977
1757088703681384200,11.48738427734375,0.22326160967350006,0.4771539270877838,0.7476745843887329
1757088703691338000,11.497337890625,0.20659756660461426,0.31604239344596863,0.6028980016708374
1757088703701293000,11.50729296875,0.15721456706523895,0.5140385627746582,0.6431497931480408
1757088703711246800,11.517246826171874,0.13115499913692474,0.711360514163971,0.755940318107605
1757088703721202000,11.527201904296875,0.14699947834014893,0.8269060254096985,0.8634393215179443
1757088703731157000,11.537156982421875,0.20084936916828156,0.8449796438217163,0.9691001176834106
1757088703741111000,11.547111083984374,0.20245260000228882,0.8145304322242737,1.052276611328125
1757088703751065900,11.55706591796875,0.25146690011024475,0.6728990077972412,1.0918400287628174
1757088703761020000,11.56702001953125,0.3222305476665497,0.5517275929450989,1.005615234375
1757088703770975000,11.57697509765625,0.3616503179073334,0.28228259086608887,0.9546619653701782
1757088703780929000,11.586928955078125,0.3863506019115448,0.05400760844349861,0.9429243803024292
1757088703790884000,11.596884033203125,0.408783495426178,0.006190595217049122,0.9162382483482361
1757088703800839000,11.6068388671875,0.43885910511016846,0.10911697894334793,0.8924453258514404
1757088703810793000,11.61679296875,0.4400618076324463,0.2078045904636383,0.8918899297714233
1757088703820748000,11.626748046875,0.4135114252567291,0.200713649392128,0.9002394676208496
1757088703830702000,11.6367021484375,0.3790434002876282,0.11846791952848434,0.8928179144859314
1757088703840657000,11.646656982421876,0.35248422622680664,-0.013227254152297974,0.8646579384803772
1757088703850611000,11.65661083984375,0.3249577283859253,-0.12718118727207184,0.8312253355979919
1757088703860566000,11.66656591796875,0.3345980942249298,-0.19318337738513947,0.8086286783218384
1757088703870521000,11.67652099609375,0.37369972467422485,-0.2455844134092331,0.8235220313072205
1757088703880475100,11.68647509765625,0.4092417359352112,-0.2506833076477051,0.8201842904090881
1757088703890430000,11.696429931640624,0.464790403842926,-0.27596718072891235,0.809924840927124
1757088703900384000,11.706384033203125,0.5194302201271057,-0.31628236174583435,0.7945136427879333
1757088703910338800,11.7163388671875,0.5654135346412659,-0.3529694676399231,0.7890551090240479
1757088703920293000,11.726293212890624,0.5906674861907959,-0.36792871356010437,0.7946740984916687
1757088703930248000,11.736248046875,0.6095155477523804,-0.3421134948730469,0.7916495203971863
1757088703940203000,11.746203125,0.6381048560142517,-0.27191150188446045,0.7241679430007935
1757088703950156800,11.75615673828125,0.6739250421524048,-0.18848200142383575,0.6391015648841858
1757088703960112000,11.766112060546876,0.7026421427726746,-0.07814669609069824,0.569375216960907
1757088703970066200,11.776066162109375,0.7073663473129272,0.013753851875662804,0.520696222782135
1757088703980021000,11.78602099609375,0.6640958786010742,0.08708399534225464,0.47487419843673706
1757088703989975000,11.79597509765625,0.5690321922302246,0.09327622503042221,0.42676082253456116
1757088703999930000,11.80593017578125,0.44150030612945557,0.0767744779586792,0.3687635660171509
1757088704009885200,11.81588525390625,0.3426845371723175,0.13163352012634277,0.3063417971134186
1757088704019839000,11.8258388671875,0.2853996753692627,0.2338555008172989,0.24576684832572937
1757088704029794300,11.835794189453125,0.23557187616825104,0.2906886339187622,0.18823212385177612
1757088704039748000,11.845748046875,0.20817060768604279,0.3047759532928467,0.172024667263031
1757088704049703200,11.855703125,0.1583361178636551,0.30921387672424316,0.18948718905448914
1757088704059658000,11.865657958984375,0.11464454978704453,0.32107454538345337,0.21921978890895844
1757088704069612000,11.875612060546874,0.08100643008947372,0.3706498146057129,0.23468956351280212
1757088704079567000,11.885567138671876,0.0790785700082779,0.4469834566116333,0.2507888972759247
1757088704089521200,11.895521240234375,0.10926197469234467,0.5547715425491333,0.22152210772037506
1757088704099476200,11.905476318359375,0.16273237764835358,0.6713375449180603,0.14071300625801086
1757088704109430000,11.915429931640626,0.19880399107933044,0.7913883924484253,0.03988887742161751
1757088704119385000,11.925385009765625,0.20770427584648132,0.8390225172042847,-0.0638151466846466
1757088704129340200,11.935340087890625,0.19412817060947418,0.7747265100479126,-0.18632182478904724
1757088704139294200,11.945294189453126,0.16177715361118317,0.6805928349494934,-0.33059030771255493
1757088704149249000,11.9552490234375,0.10706815868616104,0.6192617416381836,-0.50548255443573
1757088704159203000,11.965203125,0.018403802067041397,0.5899637937545776,-0.6907434463500977
1757088704169158100,11.975158203125,-0.07827174663543701,0.5451937317848206,-0.8709487318992615
1757088704179112200,11.9851123046875,-0.17466485500335693,0.4703442454338074,-1.0577278137207031
1757088704189067000,11.99506689453125,-0.26520562171936035,0.3785165846347809,-1.2442116737365723
1757088704199022000,12.00502197265625,-0.39997169375419617,0.2900058925151825,-1.425191044807434
1757088704208976100,12.01497607421875,-0.5374607443809509,0.20200689136981964,-1.5842293500900269
1757088704218931200,12.02493115234375,-0.6118401885032654,0.17933699488639832,-1.7355048656463623
1757088704228885200,12.03488525390625,-0.606482744216919,0.2559002935886383,-1.946784257888794
1757088704238840000,12.044840087890625,-0.5623424053192139,0.32842910289764404,-2.1516873836517334
1757088704248795100,12.054795166015625,-0.5840016603469849,0.34171783924102783,-2.2112932205200195
1757088704258749000,12.0647490234375,-0.579433262348175,0.42094552516937256,-2.1024386882781982
1757088704268704300,12.074704345703125,-0.5148433446884155,0.5491518974304199,-1.9007937908172607
1757088704278658000,12.084657958984375,-0.41302725672721863,0.6697180271148682,-1.7311933040618896
1757088704288613000,12.094613037109376,-0.28713107109069824,0.8011053800582886,-1.5882444381713867
1757088704298567200,12.104567138671875,-0.2285575121641159,0.9349222779273987,-1.4950859546661377
1757088704308522200,12.114522216796875,-0.21964706480503082,0.9900760650634766,-1.442018747329712
1757088704318477000,12.12447705078125,-0.2950907051563263,0.9096816182136536,-1.3985711336135864
1757088704328431000,12.13443115234375,-0.4922748804092407,0.6739319562911987,-1.4076189994812012
1757088704338386200,12.14438623046875,-0.7695291638374329,0.30633318424224854,-1.4073045253753662
1757088704348340000,12.154340087890626,-0.9883371591567993,-0.06782224029302597,-1.3988288640975952
1757088704358295300,12.16429541015625,-1.039460301399231,-0.5853298306465149,-1.4431531429290771
1757088704368249000,12.1742490234375,-1.0273793935775757,-1.3230279684066772,-1.5059541463851929
1757088704378204200,12.1842041015625,-0.9883823990821838,-2.0685760974884033,-1.5285420417785645
1757088704388159000,12.194158935546875,-0.951498806476593,-2.483145236968994,-1.5396381616592407
1757088704398113000,12.204113037109375,-0.9360806941986084,-2.5924763679504395,-1.5257737636566162
1757088704408068000,12.214068115234374,-0.9394594430923462,-2.521362066268921,-1.5007444620132446
1757088704418022100,12.224022216796875,-0.9601240158081055,-2.4183712005615234,-1.4710413217544556
1757088704427977000,12.23397705078125,-0.9800955653190613,-2.4169998168945312,-1.4307032823562622
1757088704437931000,12.243930908203126,-0.996921718120575,-2.4866421222686768,-1.3528199195861816
