time,seconds_elapsed,z,y,x
1757088840745129700,0.015129638671875,-0.973114013671875,-0.142425537109375,-0.357269287109375
1757088840755084800,0.025084716796875,-0.95062255859375,-0.1803436279296875,-0.3853607177734375
1757088840765039600,0.03503955078125,-0.9267425537109375,-0.19415283203125,-0.3934326171875
1757088840774994700,0.04499462890625,-0.9043731689453125,-0.1587677001953125,-0.3770751953125
1757088840784949800,0.05494970703125,-0.86785888671875,0.0025482177734375,-0.3901519775390625
1757088840794904800,0.06490478515625,-0.8767547607421875,0.09771728515625,-0.3655242919921875
1757088840804858600,0.074858642578125,-0.9099884033203125,0.0078582763671875,-0.3025970458984375
1757088840814813700,0.084813720703125,-0.8834075927734375,-0.0500335693359375,-0.3049163818359375
1757088840824768800,0.094768798828125,-0.9175567626953125,-0.0942535400390625,-0.30316162109375
1757088840834723600,0.1047236328125,-0.9872283935546875,-0.1839141845703125,-0.388427734375
1757088840844678700,0.1146787109375,-1.0423431396484375,-0.209869384765625,-0.48541259765625
1757088840854632700,0.1246328125,-1.0953369140625,-0.1121978759765625,-0.4964599609375
1757088840864587800,0.134587890625,-1.040008544921875,-0.0568084716796875,-0.55328369140625
1757088840874542600,0.14454248046875,-0.999267578125,-0.022216796875,-0.49932861328125
1757088840884497700,0.15449755859375,-1.008026123046875,0.0777740478515625,-0.213104248046875
1757088840894452700,0.16445263671875,-0.98980712890625,0.143218994140625,0.0662689208984375
1757088840904406800,0.17440673828125,-1.0861053466796875,-0.0782012939453125,0.0251312255859375
1757088840914361600,0.184361572265625,-1.1117095947265625,-0.1909332275390625,-0.0710601806640625
1757088840924316700,0.194316650390625,-1.0496368408203125,-0.23809814453125,-0.0673828125
1757088840934271700,0.204271728515625,-1.0243072509765625,-0.3119354248046875,-0.1407623291015625
1757088840944226800,0.214226806640625,-0.9340667724609375,-0.37847900390625,-0.3552703857421875
1757088840954181600,0.224181640625,-0.8490142822265625,-0.4449310302734375,-0.517730712890625
1757088840964135700,0.2341357421875,-0.794219970703125,-0.4888763427734375,-0.5210418701171875
1757088840974090800,0.2440908203125,-0.7418060302734375,-0.48419189453125,-0.418609619140625
1757088840984045800,0.2540458984375,-0.7218780517578125,-0.4160003662109375,-0.272308349609375
1757088840994000600,0.264000732421875,-0.7501220703125,-0.3239593505859375,-0.1517333984375
1757088841003955700,0.273955810546875,-0.8561859130859375,-0.2729949951171875,-0.083282470703125
1757088841013909800,0.28390966796875,-1.018157958984375,-0.265899658203125,0.00360107421875
1757088841023864800,0.29386474609375,-1.0774078369140625,-0.1837310791015625,0.0175018310546875
1757088841033819600,0.303819580078125,-0.9333343505859375,-0.088470458984375,-0.109527587890625
1757088841043774700,0.313774658203125,-0.63421630859375,-0.0818328857421875,-0.3954620361328125
1757088841053729800,0.323729736328125,-0.426513671875,-0.184600830078125,-0.6373291015625
1757088841063683800,0.333683837890625,-0.391021728515625,-0.31610107421875,-0.6133880615234375
1757088841073638700,0.343638671875,-0.4360504150390625,-0.3386688232421875,-0.4016571044921875
1757088841083593700,0.35359375,-0.5507354736328125,-0.33856201171875,-0.0315093994140625
1757088841093548800,0.363548828125,-0.67193603515625,-0.4423828125,0.303436279296875
1757088841103503600,0.373503662109375,-0.714874267578125,-0.3648529052734375,0.1022491455078125
1757088841113457700,0.383457763671875,-0.6970977783203125,-0.2089691162109375,-0.3625335693359375
1757088841123412700,0.393412841796875,-0.75616455078125,-0.2381591796875,-0.611114501953125
1757088841133367800,0.403367919921875,-0.7819366455078125,-0.250762939453125,-0.6204071044921875
1757088841143323000,0.413322998046875,-0.7140655517578125,-0.1998443603515625,-0.5464019775390625
1757088841153278000,0.42327783203125,-0.6502532958984375,-0.174835205078125,-0.495819091796875
1757088841163232800,0.433232666015625,-0.6054534912109375,-0.2091522216796875,-0.51715087890625
1757088841173186800,0.443186767578125,-0.6176910400390625,-0.2520294189453125,-0.5919036865234375
1757088841183142000,0.453141845703125,-0.6470794677734375,-0.268585205078125,-0.6537628173828125
1757088841193097000,0.463096923828125,-0.660888671875,-0.25,-0.7205963134765625
1757088841203051800,0.4730517578125,-0.694305419921875,-0.205596923828125,-0.7841949462890625
1757088841213006800,0.4830068359375,-0.76788330078125,-0.16064453125,-0.8388519287109375
1757088841222961000,0.4929609375,-0.864990234375,-0.150726318359375,-0.8375701904296875
1757088841232916000,0.502916015625,-0.928558349609375,-0.15069580078125,-0.8464202880859375
1757088841242870800,0.512870849609375,-0.9491729736328125,-0.1282196044921875,-0.8952178955078125
1757088841252825900,0.522825927734375,-0.939056396484375,-0.08819580078125,-0.9051666259765625
1757088841262781000,0.532781005859375,-0.890106201171875,-0.049468994140625,-0.872711181640625
1757088841272735000,0.54273486328125,-0.77069091796875,-0.0204010009765625,-0.8495025634765625
1757088841282689800,0.552689697265625,-0.6470184326171875,0.0235748291015625,-0.8149871826171875
1757088841292644900,0.562644775390625,-0.5755615234375,0.057464599609375,-0.788360595703125
1757088841302600000,0.572599853515625,-0.6065216064453125,0.0676116943359375,-0.7589569091796875
1757088841312554800,0.5825546875,-0.7037811279296875,0.0944366455078125,-0.7294158935546875
1757088841322510000,0.592510009765625,-0.7900543212890625,0.176361083984375,-0.72760009765625
1757088841332463900,0.6024638671875,-0.850341796875,0.2483673095703125,-0.833709716796875
1757088841342419000,0.6124189453125,-0.8364105224609375,0.224884033203125,-1.0626068115234375
1757088841352373800,0.622373779296875,-0.7931976318359375,0.1366729736328125,-1.271392822265625
1757088841362328800,0.632328857421875,-0.7367706298828125,0.05487060546875,-1.37957763671875
1757088841372284000,0.642283935546875,-0.6774444580078125,0.026947021484375,-1.3700408935546875
1757088841382238000,0.652238037109375,-0.6307373046875,0.0537872314453125,-1.289794921875
1757088841392192800,0.66219287109375,-0.6036376953125,0.10076904296875,-1.16302490234375
1757088841402147800,0.67214794921875,-0.5801544189453125,0.15570068359375,-1.0016632080078125
1757088841412103000,0.68210302734375,-0.558013916015625,0.1930389404296875,-0.85321044921875
1757088841422058000,0.69205810546875,-0.5823974609375,0.205169677734375,-0.753753662109375
1757088841432011800,0.70201171875,-0.6905059814453125,0.239776611328125,-0.6960906982421875
1757088841441966800,0.711966796875,-0.8106536865234375,0.2752838134765625,-0.654876708984375
1757088841451922000,0.721921875,-0.8568878173828125,0.298492431640625,-0.6341094970703125
1757088841461877000,0.731876953125,-0.8558349609375,0.3160552978515625,-0.6224365234375
1757088841471831800,0.741831787109375,-0.852142333984375,0.3093109130859375,-0.6194305419921875
1757088841481787000,0.751786865234375,-0.8100738525390625,0.3049774169921875,-0.6142578125
1757088841491741000,0.761740966796875,-0.748443603515625,0.292816162109375,-0.5934906005859375
1757088841501695700,0.77169580078125,-0.7273101806640625,0.26678466796875,-0.6483612060546875
1757088841511650800,0.78165087890625,-0.691375732421875,0.3033599853515625,-0.818359375
1757088841521606000,0.79160595703125,-0.6370849609375,0.29315185546875,-0.9296112060546875
1757088841531561000,0.80156103515625,-0.62591552734375,0.24774169921875,-0.9771575927734375
1757088841541514800,0.8115146484375,-0.6555023193359375,0.223541259765625,-0.9697418212890625
1757088841551469800,0.8214697265625,-0.7155914306640625,0.2537689208984375,-0.895965576171875
1757088841561425000,0.8314248046875,-0.7576446533203125,0.30499267578125,-0.8018951416015625
1757088841571380000,0.8413798828125,-0.7958831787109375,0.3604278564453125,-0.7244415283203125
1757088841581334800,0.851334716796875,-0.8229217529296875,0.401275634765625,-0.6808929443359375
1757088841591288800,0.861288818359375,-0.8287811279296875,0.4169769287109375,-0.6558074951171875
1757088841601244000,0.871243896484375,-0.804229736328125,0.3936309814453125,-0.613128662109375
1757088841611199000,0.881198974609375,-0.7644805908203125,0.3674774169921875,-0.572235107421875
1757088841621153800,0.89115380859375,-0.7311553955078125,0.366058349609375,-0.56951904296875
1757088841631109000,0.901109130859375,-0.7080535888671875,0.3674468994140625,-0.5785064697265625
1757088841641063000,0.91106298828125,-0.68768310546875,0.36083984375,-0.575653076171875
1757088841651018000,0.92101806640625,-0.6676177978515625,0.3583831787109375,-0.5611572265625
1757088841660972800,0.930972900390625,-0.6402740478515625,0.3581085205078125,-0.5405120849609375
1757088841670928100,0.94092822265625,-0.6045074462890625,0.3412017822265625,-0.5368499755859375
1757088841680883000,0.950883056640625,-0.5838470458984375,0.3251953125,-0.54095458984375
1757088841690837000,0.9608369140625,-0.5736236572265625,0.3278961181640625,-0.5306243896484375
1757088841700791800,0.970791748046875,-0.576324462890625,0.342041015625,-0.504669189453125
1757088841710747000,0.980746826171875,-0.593048095703125,0.3591461181640625,-0.473541259765625
1757088841720702000,0.990701904296875,-0.61474609375,0.3834381103515625,-0.4499053955078125
1757088841730656800,1.00065673828125,-0.6485748291015625,0.403228759765625,-0.4412384033203125
1757088841740611800,1.01061181640625,-0.6831817626953125,0.4208526611328125,-0.4406585693359375
1757088841750566000,1.02056591796875,-0.7115631103515625,0.42919921875,-0.4336700439453125
1757088841760521000,1.03052099609375,-0.717987060546875,0.4279022216796875,-0.4285125732421875
1757088841770475800,1.040475830078125,-0.7197113037109375,0.4314727783203125,-0.4245758056640625
1757088841780430800,1.050430908203125,-0.7348480224609375,0.450714111328125,-0.414642333984375
1757088841790386000,1.060385986328125,-0.7649688720703125,0.486175537109375,-0.3827972412109375
1757088841800340000,1.070340087890625,-0.7855682373046875,0.5474853515625,-0.3225860595703125
1757088841810294800,1.080294677734375,-0.7831878662109375,0.5901947021484375,-0.245941162109375
1757088841820249900,1.090249755859375,-0.8048248291015625,0.6111907958984375,-0.20208740234375
1757088841830205000,1.100204833984375,-0.816680908203125,0.623199462890625,-0.2639312744140625
1757088841840160000,1.110159912109375,-0.7961273193359375,0.5677947998046875,-0.3872222900390625
1757088841850113800,1.12011376953125,-0.801971435546875,0.5179443359375,-0.50616455078125
1757088841860068900,1.13006884765625,-0.77099609375,0.4500732421875,-0.6467742919921875
1757088841870024000,1.14002392578125,-0.7210540771484375,0.3891448974609375,-0.752227783203125
1757088841879979000,1.14997900390625,-0.684783935546875,0.3688201904296875,-0.807708740234375
1757088841889933800,1.159933837890625,-0.6619720458984375,0.3446044921875,-0.8510589599609375
1757088841899887900,1.169887939453125,-0.657073974609375,0.332733154296875,-0.8871917724609375
1757088841909843000,1.179843017578125,-0.6644439697265625,0.3434295654296875,-0.8943939208984375
1757088841919798000,1.189798095703125,-0.64898681640625,0.355255126953125,-0.88153076171875
1757088841929752800,1.1997529296875,-0.6240997314453125,0.36907958984375,-0.8402252197265625
1757088841939708000,1.2097080078125,-0.614410400390625,0.38873291015625,-0.8057098388671875
1757088841949663000,1.2196630859375,-0.6038360595703125,0.423583984375,-0.7562408447265625
1757088841959617000,1.229616943359375,-0.60003662109375,0.4765777587890625,-0.6540679931640625
1757088841969571800,1.23957177734375,-0.6207275390625,0.525115966796875,-0.5382843017578125
1757088841979527000,1.24952685546875,-0.65130615234375,0.5779266357421875,-0.4307708740234375
1757088841989482000,1.25948193359375,-0.697601318359375,0.640289306640625,-0.3692626953125
1757088841999436800,1.269436767578125,-0.7465362548828125,0.679046630859375,-0.3702392578125
1757088842009390800,1.279390869140625,-0.786773681640625,0.674224853515625,-0.413330078125
1757088842019346000,1.289345947265625,-0.7728424072265625,0.6488037109375,-0.4768524169921875
1757088842029301000,1.299301025390625,-0.738311767578125,0.5875091552734375,-0.5320281982421875
1757088842039255800,1.309255859375,-0.7128753662109375,0.4897308349609375,-0.5977935791015625
1757088842049211000,1.3192109375,-0.714935302734375,0.42987060546875,-0.669647216796875
1757088842059165000,1.3291650390625,-0.71234130859375,0.42156982421875,-0.754669189453125
1757088842069120000,1.3391201171875,-0.428863525390625,0.3937225341796875,-0.940887451171875
1757088842079074800,1.34907470703125,-0.0880279541015625,0.3156890869140625,-1.0234832763671875
1757088842089030000,1.35902978515625,-0.18267822265625,0.3120269775390625,-0.86077880859375
1757088842098985000,1.36898486328125,-0.33392333984375,0.3547210693359375,-0.662200927734375
1757088842108939000,1.37893896484375,-0.486602783203125,0.4554901123046875,-0.595703125
1757088842118893800,1.388893798828125,-0.6604156494140625,0.5633697509765625,-0.502166748046875
1757088842128849200,1.39884912109375,-0.8386688232421875,0.6001129150390625,-0.382476806640625
1757088842138804200,1.40880419921875,-0.931243896484375,0.631439208984375,-0.342987060546875
1757088842148759000,1.418759033203125,-0.9121856689453125,0.6255645751953125,-0.3435516357421875
1757088842158714000,1.428714111328125,-0.84271240234375,0.578155517578125,-0.387115478515625
1757088842168668000,1.43866796875,-0.669647216796875,0.507049560546875,-0.49420166015625
1757088842178623200,1.448623291015625,-0.540069580078125,0.424835205078125,-0.5465850830078125
1757088842188578000,1.458578125,-0.4571380615234375,0.391143798828125,-0.580841064453125
1757088842198533000,1.468533203125,-0.4658355712890625,0.3962554931640625,-0.624420166015625
1757088842208488000,1.478488037109375,-0.5144500732421875,0.405181884765625,-0.61865234375
1757088842218442200,1.488442138671875,-0.5982666015625,0.4133758544921875,-0.5659637451171875
1757088842228397000,1.49839697265625,-0.6735992431640625,0.4361572265625,-0.5109405517578125
1757088842238352100,1.50835205078125,-0.7237701416015625,0.451751708984375,-0.469635009765625
1757088842248307000,1.518306884765625,-0.7579345703125,0.4485931396484375,-0.44976806640625
1757088842258262300,1.52826220703125,-0.8002471923828125,0.478912353515625,-0.472412109375
1757088842268216000,1.538216064453125,-0.7919769287109375,0.4999237060546875,-0.5338592529296875
1757088842278171100,1.548171142578125,-0.7374114990234375,0.4919891357421875,-0.59844970703125
1757088842288126000,1.5581259765625,-0.6547698974609375,0.4698333740234375,-0.669158935546875
1757088842298081300,1.568081298828125,-0.59954833984375,0.4624481201171875,-0.709930419921875
1757088842308036000,1.5780361328125,-0.5428619384765625,0.47467041015625,-0.6763916015625
1757088842317991000,1.587990966796875,-0.5175628662109375,0.4875946044921875,-0.6180572509765625
1757088842327945000,1.597945068359375,-0.5348968505859375,0.502960205078125,-0.5665283203125
1757088842337900300,1.607900390625,-0.5434722900390625,0.521881103515625,-0.5352935791015625
1757088842347855000,1.617855224609375,-0.58245849609375,0.5212860107421875,-0.52032470703125
1757088842357810000,1.627809814453125,-0.60302734375,0.53717041015625,-0.499786376953125
1757088842367765200,1.63776513671875,-0.5846099853515625,0.5518035888671875,-0.5115203857421875
1757088842377719000,1.647718994140625,-0.59185791015625,0.5489501953125,-0.540985107421875
1757088842387674000,1.657674072265625,-0.5905609130859375,0.5318756103515625,-0.6445465087890625
1757088842397629000,1.66762890625,-0.5825958251953125,0.5089569091796875,-0.782012939453125
1757088842407584300,1.677584228515625,-0.6589508056640625,0.4915771484375,-0.7978973388671875
1757088842417539000,1.6875390625,-0.7198028564453125,0.5000762939453125,-0.743621826171875
1757088842427493000,1.6974931640625,-0.7177734375,0.5282135009765625,-0.7147979736328125
1757088842437448000,1.707447998046875,-0.668914794921875,0.52740478515625,-0.6926727294921875
1757088842447403300,1.7174033203125,-0.6024932861328125,0.5145111083984375,-0.71209716796875
1757088842457358000,1.727358154296875,-0.5337982177734375,0.5480804443359375,-0.778350830078125
1757088842467313200,1.737313232421875,-0.556732177734375,0.5629119873046875,-0.8188629150390625
1757088842477268000,1.74726806640625,-0.404632568359375,0.60589599609375,-0.7527923583984375
1757088842487222300,1.75722216796875,-0.3045806884765625,0.5689849853515625,-0.700714111328125
1757088842497177000,1.767177001953125,-0.4041290283203125,0.5351715087890625,-0.6633453369140625
1757088842507132200,1.777132080078125,-0.4100341796875,0.5644073486328125,-0.63641357421875
1757088842517087000,1.7870869140625,-0.4324798583984375,0.5908966064453125,-0.6141357421875
1757088842527042000,1.7970419921875,-0.4772796630859375,0.597076416015625,-0.574432373046875
1757088842536996000,1.80699609375,-0.493011474609375,0.5930328369140625,-0.5277099609375
1757088842546951200,1.816951171875,-0.4998016357421875,0.58050537109375,-0.49957275390625
1757088842556906000,1.826906005859375,-0.5214080810546875,0.5724029541015625,-0.510894775390625
1757088842566861000,1.836861083984375,-0.5550537109375,0.5709075927734375,-0.558380126953125
1757088842576816000,1.846816162109375,-0.552642822265625,0.5631256103515625,-0.5858917236328125
1757088842586771000,1.85677099609375,-0.5525970458984375,0.554046630859375,-0.6061553955078125
1757088842596725000,1.86672509765625,-0.5385284423828125,0.5507965087890625,-0.619140625
1757088842606680000,1.87668017578125,-0.5440826416015625,0.537872314453125,-0.637969970703125
1757088842616635100,1.88663525390625,-0.54071044921875,0.5239715576171875,-0.6360321044921875
1757088842626590000,1.89658984375,-0.547088623046875,0.5135040283203125,-0.6180267333984375
1757088842636545300,1.906545166015625,-0.545318603515625,0.4963836669921875,-0.6067657470703125
1757088842646499000,1.9164990234375,-0.5431365966796875,0.4783782958984375,-0.6113739013671875
1757088842656454100,1.9264541015625,-0.5438079833984375,0.47491455078125,-0.6210479736328125
1757088842666409000,1.936408935546875,-0.5556488037109375,0.4998016357421875,-0.6392669677734375
1757088842676364300,1.9463642578125,-0.583404541015625,0.5479583740234375,-0.64892578125
1757088842686319000,1.956319091796875,-0.62127685546875,0.594024658203125,-0.649993896484375
1757088842696273200,1.966273193359375,-0.665008544921875,0.623687744140625,-0.648223876953125
1757088842706228000,1.97622802734375,-0.6949615478515625,0.6338653564453125,-0.6566162109375
1757088842716183300,1.986183349609375,-0.6930084228515625,0.6259613037109375,-0.6729278564453125
1757088842726138000,1.99613818359375,-0.6772003173828125,0.6128692626953125,-0.682037353515625
1757088842736093000,2.006093017578125,-0.6476898193359375,0.6023712158203125,-0.670745849609375
1757088842746047000,2.016046875,-0.557098388671875,0.578369140625,-0.6576080322265625
1757088842756002300,2.026002197265625,-0.504730224609375,0.567108154296875,-0.63134765625
1757088842765957000,2.03595703125,-0.51470947265625,0.57073974609375,-0.6122894287109375
1757088842775912000,2.045911865234375,-0.5306396484375,0.5767059326171875,-0.587860107421875
1757088842785867300,2.0558671875,-0.540802001953125,0.576629638671875,-0.56475830078125
1757088842795822000,2.065822021484375,-0.5402374267578125,0.568939208984375,-0.561248779296875
1757088842805776100,2.075776123046875,-0.5090484619140625,0.5548095703125,-0.56475830078125
1757088842815731000,2.08573095703125,-0.4640655517578125,0.5394134521484375,-0.5406646728515625
1757088842825686000,2.09568603515625,-0.4568328857421875,0.54156494140625,-0.534149169921875
1757088842835641000,2.10564111328125,-0.4522857666015625,0.5507965087890625,-0.542266845703125
1757088842845596200,2.11559619140625,-0.4591522216796875,0.5474853515625,-0.5457611083984375
1757088842855550000,2.125550048828125,-0.49658203125,0.5484619140625,-0.5784149169921875
1757088842865505000,2.135505126953125,-0.501739501953125,0.5557098388671875,-0.6023406982421875
1757088842875460000,2.145460205078125,-0.4645843505859375,0.54254150390625,-0.5783843994140625
1757088842885415200,2.155415283203125,-0.47235107421875,0.53424072265625,-0.5880889892578125
1757088842895370000,2.165369873046875,-0.4698638916015625,0.5367889404296875,-0.6312408447265625
1757088842905324000,2.175323974609375,-0.4688262939453125,0.534881591796875,-0.6654510498046875
1757088842915279000,2.185279052734375,-0.4351654052734375,0.53564453125,-0.6859283447265625
1757088842925234200,2.195234130859375,-0.4065399169921875,0.5464630126953125,-0.6967010498046875
1757088842935189000,2.20518896484375,-0.3924713134765625,0.57501220703125,-0.7460784912109375
1757088842945144000,2.21514404296875,-0.3789215087890625,0.597381591796875,-0.8020782470703125
1757088842955099100,2.22509912109375,-0.35955810546875,0.62420654296875,-0.8444671630859375
1757088842965053200,2.23505322265625,-0.2577972412109375,0.64605712890625,-0.8064117431640625
1757088842975008000,2.245008056640625,-0.1785736083984375,0.6427459716796875,-0.7591094970703125
1757088842984963000,2.254963134765625,-0.13897705078125,0.6326141357421875,-0.737762451171875
1757088842994918100,2.264918212890625,-0.1032867431640625,0.6153106689453125,-0.6992645263671875
1757088843004873000,2.274873046875,-0.4305419921875,0.993408203125,-0.8661346435546875
1757088843014827000,2.284826904296875,-0.518951416015625,0.849029541015625,-0.7222900390625
1757088843024782000,2.294781982421875,-0.10992431640625,0.6537628173828125,-0.608642578125
1757088843034737200,2.304737060546875,-0.113067626953125,0.8864898681640625,-0.7525634765625
1757088843044692000,2.31469189453125,-0.0970916748046875,0.8677978515625,-0.6801300048828125
1757088843054647300,2.324647216796875,-0.0387115478515625,0.8459014892578125,-0.572052001953125
1757088843064601000,2.33460107421875,-0.18182373046875,0.816009521484375,-0.399627685546875
1757088843074556200,2.34455615234375,-0.248687744140625,0.555450439453125,-0.2925262451171875
1757088843084511000,2.354510986328125,0.2523193359375,0.4891510009765625,-0.323822021484375
1757088843094466300,2.36446630859375,-0.12054443359375,1.0081787109375,-0.55517578125
1757088843104421000,2.374421142578125,-0.3182525634765625,0.96044921875,-0.97259521484375
1757088843114376200,2.384376220703125,-0.44390869140625,0.7495574951171875,-0.7572784423828125
1757088843124329500,2.39432958984375,-0.50701904296875,0.852569580078125,-0.5691070556640625
1757088843134284500,2.404284423828125,-0.165679931640625,0.945281982421875,-0.578643798828125
1757088843144239400,2.4142392578125,-0.0140533447265625,0.8929595947265625,-0.4397735595703125
1757088843154194400,2.4241943359375,-0.027679443359375,0.8271636962890625,-0.37432861328125
1757088843164149500,2.4341494140625,0.02545166015625,0.786773681640625,-0.4561614990234375
1757088843174103600,2.444103515625,0.0343780517578125,0.70574951171875,-0.43682861328125
1757088843184058400,2.454058349609375,0.088226318359375,0.620941162109375,-0.34832763671875
1757088843194013400,2.464013427734375,0.1154327392578125,0.5745697021484375,-0.3698883056640625
1757088843203968500,2.473968505859375,0.036376953125,0.4918365478515625,-0.38262939453125
1757088843213923300,2.48392333984375,-0.021484375,0.3960418701171875,-0.4058074951171875
1757088843223877400,2.49387744140625,-0.0965423583984375,0.3229827880859375,-0.4722442626953125
1757088843233832400,2.50383251953125,-0.0719146728515625,0.369476318359375,-0.4646148681640625
1757088843243787500,2.51378759765625,0.095703125,0.499114990234375,-0.431884765625
1757088843253742300,2.523742431640625,0.0757904052734375,0.5142364501953125,-0.4717254638671875
1757088843263697400,2.533697509765625,0.008697509765625,0.5973052978515625,-0.5285797119140625
1757088843273652500,2.543652587890625,0.0072479248046875,0.74560546875,-0.509368896484375
1757088843283606500,2.5536064453125,0.0036773681640625,0.917449951171875,-0.464141845703125
1757088843293561300,2.563561279296875,-0.0218658447265625,1.3559417724609375,-0.4042510986328125
1757088843303516400,2.573516357421875,0.151611328125,1.6012725830078125,-0.279022216796875
1757088843313471500,2.583471435546875,0.01708984375,0.8463287353515625,-0.6859283447265625
1757088843323426600,2.593426513671875,-0.328460693359375,0.749725341796875,-1.0446014404296875
1757088843333380400,2.60338037109375,-0.129119873046875,1.5064697265625,-0.622650146484375
1757088843343335400,2.61333544921875,-0.0946044921875,1.6898193359375,-0.272674560546875
1757088843353290500,2.62329052734375,0.0421295166015625,1.651275634765625,-0.379364013671875
1757088843363245600,2.63324560546875,0.13031005859375,1.591064453125,-0.504058837890625
1757088843373200400,2.643200439453125,0.1192169189453125,1.5061492919921875,-0.4629974365234375
1757088843383154400,2.653154541015625,-0.032958984375,1.2990875244140625,-0.27093505859375
1757088843393109500,2.663109619140625,-0.209686279296875,0.869903564453125,-0.4173126220703125
1757088843403064600,2.673064697265625,-0.07379150390625,0.430023193359375,-0.36004638671875
1757088843413019400,2.683019287109375,-0.0167083740234375,0.7575836181640625,-0.464569091796875
1757088843422974500,2.692974365234375,0.0171356201171875,0.843109130859375,-0.4223480224609375
1757088843432929500,2.702929443359375,0.0781707763671875,0.8966217041015625,-0.4526519775390625
1757088843442883600,2.712883544921875,0.087615966796875,0.9036102294921875,-0.537872314453125
1757088843452838400,2.72283837890625,0.03399658203125,0.9046783447265625,-0.491546630859375
1757088843462793500,2.73279345703125,0.0269775390625,0.9378204345703125,-0.415557861328125
1757088843472748500,2.74274853515625,0.0483856201171875,0.8049774169921875,-0.484527587890625
1757088843482703400,2.752703369140625,0.0536041259765625,0.8395233154296875,-0.40264892578125
1757088843492657400,2.762657470703125,-0.011444091796875,0.8931427001953125,-0.3323822021484375
1757088843502612500,2.772612548828125,-0.0078125,0.9058074951171875,-0.3502349853515625
1757088843512567600,2.782567626953125,0.0132293701171875,0.962127685546875,-0.3909149169921875
1757088843522522400,2.7925224609375,0.054595947265625,1.009735107421875,-0.412628173828125
1757088843532477400,2.8024775390625,0.0702056884765625,0.865081787109375,-0.3269805908203125
1757088843542431200,2.81243115234375,0.03753662109375,0.6106414794921875,-0.2602386474609375
1757088843552386600,2.822386474609375,-0.0335540771484375,0.4945068359375,-0.2852783203125
1757088843562341400,2.83234130859375,-0.068145751953125,0.575408935546875,-0.326873779296875
1757088843572296400,2.84229638671875,-0.0660858154296875,0.669036865234375,-0.2740631103515625
1757088843582251500,2.85225146484375,-0.007537841796875,0.5597381591796875,-0.1689910888671875
1757088843592205600,2.86220556640625,0.07562255859375,0.4465789794921875,-0.146026611328125
1757088843602160400,2.872160400390625,0.1001434326171875,0.37762451171875,-0.13739013671875
1757088843612115500,2.882115478515625,0.075897216796875,0.4764556884765625,-0.136627197265625
1757088843622070500,2.892070556640625,0.067291259765625,0.7442474365234375,-0.321624755859375
1757088843632025600,2.902025634765625,0.0951690673828125,1.0149993896484375,-0.4039306640625
1757088843641980400,2.91198046875,0.1580657958984375,1.3043975830078125,-0.4696197509765625
1757088843651934500,2.9219345703125,0.1614532470703125,1.382110595703125,-0.388153076171875
1757088843661889500,2.9318896484375,0.0737457275390625,1.43682861328125,-0.2533111572265625
1757088843671844600,2.9418447265625,-0.0477142333984375,1.429229736328125,-0.196014404296875
1757088843681799400,2.95179931640625,-0.060943603515625,1.30804443359375,-0.112152099609375
1757088843691754500,2.96175439453125,0.0049896240234375,1.069732666015625,-0.1004638671875
1757088843701708500,2.97170849609375,0.132110595703125,0.9516448974609375,-0.160980224609375
1757088843711663400,2.981663330078125,0.19439697265625,0.75732421875,-0.1134490966796875
1757088843721618400,2.991618408203125,0.1954193115234375,0.64190673828125,-0.07958984375
1757088843731573500,3.001573486328125,0.1509552001953125,0.818572998046875,-0.2533111572265625
1757088843741528600,3.011528564453125,0.09814453125,0.570281982421875,-0.2359161376953125
1757088843751482400,3.021482421875,0.137054443359375,0.67510986328125,-0.247100830078125
1757088843761437400,3.0314375,0.025390625,0.92913818359375,-0.231201171875
1757088843771392500,3.041392578125,0.03875732421875,1.0188140869140625,-0.101318359375
1757088843781347600,3.05134765625,0.141387939453125,1.133087158203125,-0.10491943359375
1757088843791302400,3.061302490234375,0.0584564208984375,1.0858917236328125,-0.082275390625
1757088843801257500,3.071257568359375,-0.15118408203125,0.796356201171875,0.022247314453125
1757088843811211500,3.08121142578125,0.042144775390625,0.4416351318359375,-0.095733642578125
1757088843821166600,3.09116650390625,0.1743927001953125,0.428985595703125,-0.1519012451171875
1757088843831121400,3.101121337890625,-0.0648040771484375,0.900299072265625,-0.4006195068359375
1757088843841076500,3.111076416015625,-0.1896820068359375,1.53607177734375,-0.119903564453125
1757088843851031600,3.121031494140625,0.137420654296875,2.262786865234375,0.4491119384765625
1757088843860985600,3.130985595703125,0.3443450927734375,2.054779052734375,0.642486572265625
1757088843870940400,3.1409404296875,0.3254547119140625,1.4061737060546875,0.2913970947265625
1757088843880895500,3.1508955078125,0.2615203857421875,1.268585205078125,0.065277099609375
1757088843890850600,3.1608505859375,0.243072509765625,1.33721923828125,-0.0624237060546875
1757088843900805400,3.170805419921875,0.199554443359375,1.3827667236328125,-0.3065185546875
1757088843910759400,3.180759521484375,0.1461639404296875,1.3419952392578125,-0.5431976318359375
1757088843920714500,3.190714599609375,0.1029815673828125,1.2139892578125,-0.591339111328125
1757088843930669600,3.200669677734375,0.113525390625,1.2174072265625,-0.426025390625
1757088843940624400,3.210624267578125,0.1361083984375,1.179779052734375,-0.1450347900390625
1757088843950579500,3.220579345703125,0.1900787353515625,1.0613250732421875,0.1441650390625
1757088843960533500,3.230533447265625,0.2434539794921875,1.00592041015625,0.2749786376953125
1757088843970488600,3.240488525390625,0.209625244140625,0.9767303466796875,0.3099822998046875
1757088843980443400,3.250443359375,0.1588287353515625,0.9836273193359375,0.3011016845703125
1757088843990398500,3.2603984375,0.16790771484375,1.0139312744140625,0.2313232421875
1757088844000353500,3.270353515625,0.1849212646484375,1.0458526611328125,0.161590576171875
1757088844010308600,3.28030859375,0.171234130859375,1.0730438232421875,0.1227264404296875
1757088844020262400,3.290262451171875,0.154632568359375,1.0310211181640625,0.1194915771484375
1757088844030217500,3.300217529296875,0.1487274169921875,0.9739227294921875,0.1472320556640625
1757088844040172500,3.310172607421875,0.1516876220703125,0.9069366455078125,0.1787261962890625
1757088844050127600,3.320127685546875,0.178497314453125,0.8529815673828125,0.2029266357421875
1757088844060082400,3.33008251953125,0.1926116943359375,0.822265625,0.204742431640625
1757088844070036500,3.340036376953125,0.1905059814453125,0.8409881591796875,0.197418212890625
1757088844079991600,3.349991455078125,0.189910888671875,0.8616180419921875,0.190399169921875
1757088844089946600,3.359946533203125,0.230224609375,0.8246307373046875,0.18218994140625
1757088844099901400,3.3699013671875,0.2574920654296875,0.8523101806640625,0.2323150634765625
1757088844109856300,3.379856201171875,0.235076904296875,0.8524932861328125,0.257659912109375
1757088844119810600,3.389810546875,0.2158355712890625,0.8154296875,0.2292022705078125
1757088844129765400,3.399765380859375,0.202484130859375,0.79931640625,0.206298828125
1757088844139720400,3.409720458984375,0.2130584716796875,0.8308563232421875,0.1653594970703125
1757088844149675300,3.41967529296875,0.2114105224609375,0.8827362060546875,0.15960693359375
1757088844159630300,3.42963037109375,0.2135467529296875,0.9403076171875,0.1622314453125
1757088844169584400,3.43958447265625,0.2172698974609375,0.9413604736328125,0.20294189453125
1757088844179539500,3.44953955078125,0.1968536376953125,0.8829345703125,0.2735137939453125
1757088844189494300,3.459494384765625,0.19256591796875,0.88824462890625,0.32318115234375
1757088844199449300,3.469449462890625,0.205230712890625,0.8930206298828125,0.319000244140625
1757088844209404200,3.479404052734375,0.2317657470703125,0.864105224609375,0.3297576904296875
1757088844219358500,3.4893583984375,0.260467529296875,0.89697265625,0.3318939208984375
1757088844229313300,3.499313232421875,0.2507171630859375,0.9632415771484375,0.28179931640625
1757088844239268400,3.509268310546875,0.224212646484375,0.983795166015625,0.219451904296875
1757088844249223200,3.51922314453125,0.203826904296875,1.01104736328125,0.1990966796875
1757088844259178500,3.529178466796875,0.1976470947265625,1.0292510986328125,0.1944122314453125
1757088844269133300,3.53913330078125,0.1930694580078125,0.9903106689453125,0.2282867431640625
1757088844279087400,3.54908740234375,0.1609649658203125,0.969573974609375,0.265228271484375
1757088844289042200,3.559042236328125,0.1358184814453125,0.9817962646484375,0.2805023193359375
1757088844298997500,3.56899755859375,0.12274169921875,0.968963623046875,0.281707763671875
1757088844308952300,3.578952392578125,0.14447021484375,0.96905517578125,0.280303955078125
1757088844318907100,3.5889072265625,0.19158935546875,0.9962310791015625,0.2645721435546875
1757088844328861200,3.598861083984375,0.210113525390625,0.970184326171875,0.248443603515625
1757088844338816500,3.60881640625,0.214996337890625,0.9234771728515625,0.2559356689453125
1757088844348771300,3.618771240234375,0.229034423828125,0.9106292724609375,0.232818603515625
1757088844358726100,3.62872607421875,0.2252197265625,0.9158172607421875,0.1892852783203125
1757088844368681500,3.638681396484375,0.2075653076171875,0.921722412109375,0.1549072265625
1757088844378635500,3.648635498046875,0.1936798095703125,0.9463653564453125,0.121826171875
1757088844388590300,3.65859033203125,0.175262451171875,0.9698028564453125,0.1094207763671875
1757088844398545200,3.668545166015625,0.160064697265625,1.00433349609375,0.1013031005859375
1757088844408500500,3.67850048828125,0.14697265625,1.0223236083984375,0.0952606201171875
1757088844418455300,3.688455322265625,0.1338043212890625,1.012359619140625,0.118377685546875
1757088844428410400,3.698410400390625,0.1202850341796875,0.976226806640625,0.15966796875
1757088844438364200,3.7083642578125,0.121429443359375,0.9565887451171875,0.1972503662109375
1757088844448319500,3.718319580078125,0.1222686767578125,0.9759674072265625,0.1951751708984375
1757088844458274300,3.7282744140625,0.1111602783203125,0.9951324462890625,0.1606903076171875
1757088844468229400,3.7382294921875,0.0933074951171875,0.9881134033203125,0.1858367919921875
1757088844478184400,3.748184326171875,0.11602783203125,0.997589111328125,0.19293212890625
1757088844488138500,3.758138427734375,0.12188720703125,1.029815673828125,0.186553955078125
1757088844498093300,3.76809326171875,0.12115478515625,1.0242919921875,0.1939849853515625
1757088844508048400,3.77804833984375,0.12322998046875,0.971466064453125,0.216796875
1757088844518003500,3.78800341796875,0.1349334716796875,0.9741058349609375,0.232940673828125
1757088844527958300,3.797958251953125,0.113677978515625,1.0052947998046875,0.1993408203125
1757088844537912300,3.807912353515625,0.088043212890625,0.9963531494140625,0.18084716796875
1757088844547867400,3.817867431640625,0.0764007568359375,0.994598388671875,0.1797027587890625
1757088844557822200,3.827822265625,0.0732269287109375,0.9853668212890625,0.2112274169921875
1757088844567777300,3.83777734375,0.0811309814453125,0.9875030517578125,0.2469329833984375
1757088844577732400,3.847732421875,0.075775146484375,0.9918212890625,0.2202606201171875
1757088844587686400,3.857686279296875,0.067718505859375,0.9780731201171875,0.1973419189453125
1757088844597641200,3.86764111328125,0.065185546875,0.9802398681640625,0.1921234130859375
1757088844607596300,3.87759619140625,0.06671142578125,0.9918975830078125,0.17535400390625
1757088844617551400,3.88755126953125,0.0749664306640625,1.0109405517578125,0.13604736328125
1757088844627506200,3.897506103515625,0.069122314453125,1.04107666015625,0.1003570556640625
1757088844637460200,3.907460205078125,0.0711822509765625,1.0899810791015625,0.0797576904296875
1757088844647415300,3.917415283203125,0.0679931640625,1.13409423828125,0.1065826416015625
1757088844657370400,3.927370361328125,0.0501708984375,1.151519775390625,0.1720733642578125
1757088844667325200,3.9373251953125,0.0265655517578125,1.1104278564453125,0.1893157958984375
1757088844677280500,3.947280517578125,0.0246429443359375,1.0740966796875,0.180023193359375
1757088844687234300,3.957234375,0.0318145751953125,1.08331298828125,0.1841583251953125
1757088844697189400,3.967189453125,0.0294952392578125,1.0856781005859375,0.1654052734375
1757088844707144200,3.977144287109375,0.02728271484375,1.082763671875,0.1498565673828125
1757088844717099500,3.987099609375,0.0480194091796875,1.0789794921875,0.1430816650390625
1757088844727054300,3.997054443359375,0.09906005859375,1.040283203125,0.1232452392578125
1757088844737009400,4.007009521484375,0.144500732421875,0.999267578125,0.1394195556640625
1757088844746963200,4.016963134765625,0.152557373046875,0.9598236083984375,0.1621551513671875
1757088844756918500,4.02691845703125,0.1451568603515625,0.891021728515625,0.1818084716796875
1757088844766873300,4.036873291015625,0.089324951171875,0.7698211669921875,0.3049468994140625
1757088844776828400,4.046828369140625,0.056427001953125,0.5005340576171875,0.340301513671875
1757088844786783500,4.056783447265625,0.130615234375,0.5851593017578125,0.1428680419921875
1757088844796737500,4.066737548828125,0.143096923828125,0.870361328125,0.1107330322265625
1757088844806692400,4.0766923828125,0.1246795654296875,0.98779296875,0.0723114013671875
1757088844816647200,4.086647216796875,0.1112060546875,0.9744720458984375,0.07965087890625
1757088844826602500,4.0966025390625,0.097076416015625,1.02801513671875,0.1168212890625
1757088844836557300,4.106557373046875,0.1238555908203125,1.1192626953125,0.0825653076171875
1757088844846511400,4.116511474609375,0.1585540771484375,1.11395263671875,0.05126953125
1757088844856466200,4.126466064453125,0.157379150390625,1.118621826171875,0.1407012939453125
1757088844866421500,4.13642138671875,0.1317138671875,1.0794525146484375,0.203460693359375
1757088844876376300,4.146376220703125,0.121063232421875,0.9936676025390625,0.2337188720703125
1757088844886331400,4.156331298828125,0.114501953125,0.96551513671875,0.27471923828125
1757088844896285200,4.16628515625,0.096954345703125,0.9599761962890625,0.27581787109375
1757088844906240500,4.176240478515625,0.0759429931640625,0.97967529296875,0.2538604736328125
1757088844916195300,4.1861953125,0.041778564453125,1.0345306396484375,0.2469329833984375
1757088844926150400,4.196150390625,0.02288818359375,1.0001068115234375,0.219482421875
1757088844936105200,4.206105224609375,0.026580810546875,0.969696044921875,0.2404327392578125
1757088844946059300,4.216059326171875,0.029449462890625,0.9999847412109375,0.2574920654296875
1757088844956014300,4.226014404296875,0.0268707275390625,0.975250244140625,0.2327423095703125
1757088844965969400,4.235969482421875,0.0247802734375,0.972747802734375,0.2293853759765625
1757088844975924200,4.24592431640625,0.0026397705078125,0.96826171875,0.2112579345703125
1757088844985879300,4.25587939453125,-0.027313232421875,0.9280242919921875,0.1746063232421875
1757088844995833300,4.265833251953125,-0.0462799072265625,1.05987548828125,0.2127838134765625
1757088845005788400,4.275788330078125,-0.022735595703125,1.0445556640625,0.197479248046875
1757088845015743200,4.2857431640625,0.012939453125,0.88287353515625,0.1927032470703125
1757088845025698300,4.2956982421875,0.0652313232421875,0.777618408203125,0.21514892578125
1757088845035653400,4.3056533203125,0.1102142333984375,0.9412384033203125,0.261993408203125
1757088845045608200,4.315608154296875,0.1380615234375,1.0072021484375,0.227569580078125
1757088845055562200,4.325562255859375,0.09228515625,0.9946441650390625,0.171478271484375
1757088845065517300,4.335517333984375,0.0665130615234375,1.015472412109375,0.1588287353515625
1757088845075472400,4.345472412109375,0.0843048095703125,1.0074005126953125,0.1209564208984375
1757088845085427200,4.35542724609375,0.100616455078125,1.017578125,0.105133056640625
1757088845095382500,4.365382568359375,0.096893310546875,1.00689697265625,0.0943145751953125
1757088845105336300,4.37533642578125,0.0788726806640625,0.98687744140625,0.0917205810546875
1757088845115291400,4.38529150390625,0.0665283203125,0.9889678955078125,0.1178131103515625
1757088845125246200,4.39524609375,0.042999267578125,0.9675750732421875,0.1410675048828125
1757088845135201500,4.405201416015625,0.0362548828125,0.951629638671875,0.1759490966796875
1757088845145156400,4.41515625,0.0368804931640625,0.946197509765625,0.20751953125
1757088845155110400,4.4251103515625,0.0348052978515625,0.9376220703125,0.23114013671875
1757088845165065200,4.435065185546875,0.0381927490234375,0.9378814697265625,0.2453155517578125
1757088845175020500,4.4450205078125,0.05072021484375,0.946685791015625,0.2520599365234375
1757088845184975400,4.454975341796875,0.05999755859375,0.95501708984375,0.2538604736328125
1757088845194930400,4.464930419921875,0.069000244140625,0.9704742431640625,0.2552032470703125
1757088845204884200,4.47488427734375,0.0725860595703125,0.9783935546875,0.2551727294921875
1757088845214839600,4.484839599609375,0.07379150390625,0.9763641357421875,0.246368408203125
1757088845224794400,4.49479443359375,0.0740966796875,0.9807586669921875,0.23980712890625
1757088845234749400,4.50474951171875,0.066741943359375,0.9785003662109375,0.2382049560546875
1757088845244704300,4.514704345703125,0.0604248046875,0.9766387939453125,0.238372802734375
1757088845254658600,4.524658447265625,0.0666961669921875,0.96240234375,0.237213134765625
1757088845264613400,4.53461328125,0.0613250732421875,0.954864501953125,0.2455291748046875
1757088845274568200,4.544568115234375,0.0329742431640625,0.9589080810546875,0.219482421875
1757088845284523300,4.554523193359375,0.0355682373046875,0.955108642578125,0.1824798583984375
1757088845294478300,4.564478271484375,0.0385284423828125,0.95953369140625,0.1836395263671875
1757088845304432400,4.574432373046875,0.0242767333984375,0.98260498046875,0.1806182861328125
1757088845314387200,4.58438720703125,0.0283203125,0.989837646484375,0.1424407958984375
1757088845324342300,4.59434228515625,0.0260009765625,1.0093231201171875,0.1318206787109375
1757088845334297300,4.60429736328125,0.0511627197265625,0.9977569580078125,0.1816558837890625
1757088845344252400,4.61425244140625,0.054412841796875,0.9665374755859375,0.2416229248046875
1757088845354206200,4.624206298828125,0.0370330810546875,0.9438934326171875,0.234344482421875
1757088845364161300,4.634161376953125,0.05413818359375,0.927947998046875,0.2132720947265625
1757088845374116400,4.644116455078125,0.015167236328125,0.9800567626953125,0.1776123046875
1757088845384071400,4.654071533203125,-0.0388336181640625,0.9679718017578125,0.144439697265625
1757088845394026200,4.664026123046875,-0.0022735595703125,0.9920806884765625,0.27923583984375
1757088845403981600,4.673981689453125,0.1073760986328125,1.0182952880859375,0.2612457275390625
1757088845413935400,4.683935302734375,0.1344146728515625,1.005279541015625,0.2672271728515625
1757088845423890400,4.693890380859375,0.0606536865234375,1.0272979736328125,0.258087158203125
1757088845433845200,4.70384521484375,0.0412139892578125,0.966400146484375,0.262908935546875
1757088845443800600,4.713800537109375,0.0438232421875,0.9483795166015625,0.287933349609375
1757088845453755400,4.72375537109375,0.04925537109375,0.981597900390625,0.253570556640625
1757088845463709400,4.73370947265625,0.049224853515625,0.9990081787109375,0.2024383544921875
1757088845473664300,4.743664306640625,0.0568084716796875,1.0130767822265625,0.1710357666015625
1757088845483619300,4.753619384765625,0.075042724609375,1.031005859375,0.139892578125
1757088845493574400,4.763574462890625,0.099853515625,1.024139404296875,0.112579345703125
1757088845503529200,4.773529296875,0.099822998046875,0.9927215576171875,0.100860595703125
1757088845513483300,4.783483154296875,0.065521240234375,0.958221435546875,0.1053924560546875
1757088845523438300,4.793438232421875,0.0536041259765625,0.9466400146484375,0.1124725341796875
1757088845533393400,4.803393310546875,0.0880279541015625,0.9614105224609375,0.12762451171875
1757088845543348200,4.81334814453125,0.1011810302734375,0.982208251953125,0.1412811279296875
1757088845553303300,4.82330322265625,0.1074981689453125,0.9840240478515625,0.144927978515625
1757088845563257300,4.83325732421875,0.101470947265625,0.9846038818359375,0.1616363525390625
1757088845573212400,4.84321240234375,0.1011810302734375,0.9712371826171875,0.178955078125
1757088845583167200,4.853167236328125,0.094696044921875,0.989288330078125,0.223724365234375
1757088845593122300,4.863122314453125,0.0846099853515625,0.9987945556640625,0.2405242919921875
1757088845603077400,4.873077392578125,0.07244873046875,0.982574462890625,0.2254791259765625
1757088845613031400,4.883031494140625,0.0547332763671875,0.97808837890625,0.2245025634765625
1757088845622986200,4.892986328125,0.0462646484375,0.9732208251953125,0.2263946533203125
1757088845632941300,4.90294140625,0.0859832763671875,0.9561614990234375,0.2074432373046875
1757088845642896400,4.912896484375,0.09857177734375,0.9437713623046875,0.18499755859375
1757088845652851500,4.9228515625,0.1021728515625,0.9476470947265625,0.1656341552734375
1757088845662805200,4.93280517578125,0.104156494140625,0.961822509765625,0.149810791015625
1757088845672760300,4.94276025390625,0.095672607421875,0.9764251708984375,0.1431121826171875
1757088845682715400,4.95271533203125,0.095703125,0.9862213134765625,0.1395111083984375
1757088845692670500,4.96267041015625,0.082244873046875,0.9854888916015625,0.157318115234375
1757088845702625300,4.972625244140625,0.0748748779296875,0.985748291015625,0.16510009765625
1757088845712579300,4.982579345703125,0.049652099609375,0.9781646728515625,0.18707275390625
1757088845722534400,4.992534423828125,0.0235137939453125,0.958099365234375,0.206573486328125
1757088845732489500,5.002489501953125,0.0104827880859375,0.9469451904296875,0.2354583740234375
1757088845742444300,5.0124443359375,0.0077056884765625,0.9451141357421875,0.2559356689453125
1757088845752399400,5.0223994140625,0.0419921875,0.936370849609375,0.29998779296875
1757088845762353400,5.032353515625,0.0420684814453125,0.9312744140625,0.3617095947265625
1757088845772308200,5.04230810546875,0.0004425048828125,0.949249267578125,0.3594970703125
1757088845782263300,5.05226318359375,0.0133819580078125,0.9795379638671875,0.3650360107421875
1757088845792218400,5.06221826171875,0.0214080810546875,1.04779052734375,0.2453460693359375
1757088845802173400,5.07217333984375,0.0214691162109375,1.027069091796875,0.0429229736328125
1757088845812127200,5.082127197265625,0.0455780029296875,0.9700469970703125,0.1356201171875
1757088845822082300,5.092082275390625,0.069793701171875,0.9444732666015625,0.340606689453125
1757088845832037400,5.102037353515625,0.081939697265625,0.972869873046875,0.28863525390625
1757088845841992400,5.111992431640625,0.050506591796875,0.990264892578125,0.214019775390625
1757088845851947300,5.121947265625,0.018707275390625,0.9934539794921875,0.188720703125
1757088845861901300,5.1319013671875,-0.0014190673828125,0.990570068359375,0.1896820068359375
1757088845871856400,5.1418564453125,-0.0030670166015625,0.96923828125,0.2047882080078125
1757088845881811500,5.1518115234375,0.036529541015625,0.9692230224609375,0.1798858642578125
1757088845891766300,5.161766357421875,0.0224151611328125,0.958404541015625,0.18701171875
1757088845901721300,5.171721435546875,0.0086669921875,0.955078125,0.2084197998046875
1757088845911675400,5.18167529296875,0.0262908935546875,0.9683990478515625,0.2026214599609375
1757088845921630500,5.19163037109375,0.015533447265625,0.9858245849609375,0.1916351318359375
1757088845931585300,5.201585205078125,0.0131072998046875,0.9927215576171875,0.176849365234375
1757088845941540400,5.211540283203125,0.0207977294921875,0.9883575439453125,0.1754913330078125
1757088845951495400,5.221495361328125,0.005828857421875,0.97979736328125,0.1998443603515625
1757088845961449500,5.231449462890625,0.0002288818359375,0.9768829345703125,0.2138519287109375
1757088845971404300,5.241404296875,0.0002593994140625,0.980712890625,0.2121734619140625
1757088845981359400,5.251359375,-0.012054443359375,0.9787139892578125,0.2201690673828125
1757088845991314400,5.261314453125,-0.0095977783203125,0.974334716796875,0.2280120849609375
1757088846001269200,5.271269287109375,-0.0048980712890625,0.9701995849609375,0.2380218505859375
1757088846011223300,5.281223388671875,-0.003387451171875,0.9705352783203125,0.2430572509765625
1757088846021178400,5.291178466796875,-0.0037078857421875,0.967742919921875,0.2464141845703125
1757088846031133400,5.301133544921875,0.001251220703125,0.9690093994140625,0.2437286376953125
1757088846041088300,5.311088134765625,0.00933837890625,0.9740753173828125,0.2468719482421875
1757088846051043300,5.321043212890625,0.0153961181640625,0.9835357666015625,0.2484130859375
1757088846060997000,5.3309970703125,0.0157012939453125,0.98345947265625,0.242828369140625
1757088846070952400,5.340952392578125,0.0131988525390625,0.9771728515625,0.234710693359375
1757088846080907300,5.3509072265625,0.0178375244140625,0.972747802734375,0.2250518798828125
1757088846090862300,5.3608623046875,0.0275115966796875,0.9741973876953125,0.2142791748046875
1757088846100817400,5.3708173828125,0.033782958984375,0.9784698486328125,0.199432373046875
1757088846110771500,5.380771484375,0.033233642578125,0.9802398681640625,0.1844024658203125
1757088846120726300,5.390726318359375,0.0340118408203125,0.980682373046875,0.1737823486328125
1757088846130681900,5.400681884765625,0.0355377197265625,0.9818878173828125,0.165191650390625
1757088846140637000,5.410636962890625,0.03985595703125,0.98370361328125,0.1609649658203125
1757088846150591700,5.420591796875,0.0400390625,0.9897003173828125,0.158782958984375
1757088846160545800,5.4305458984375,0.045562744140625,0.99725341796875,0.1605072021484375
1757088846170500900,5.4405009765625,0.0532379150390625,0.9978485107421875,0.163543701171875
1757088846180456000,5.4504560546875,0.0519256591796875,0.9967041015625,0.172119140625
1757088846190410800,5.46041064453125,0.051116943359375,0.9954681396484375,0.181610107421875
1757088846200365800,5.47036572265625,0.0478057861328125,0.9919281005859375,0.19305419921875
1757088846210320000,5.48031982421875,0.045989990234375,0.9893798828125,0.2016448974609375
1757088846220275000,5.49027490234375,0.048095703125,0.986175537109375,0.211669921875
1757088846230229800,5.500229736328125,0.0498199462890625,0.9834442138671875,0.216522216796875
1757088846240184800,5.510184814453125,0.0478057861328125,0.983245849609375,0.2175140380859375
1757088846250140000,5.520139892578125,0.04779052734375,0.978179931640625,0.2148590087890625
1757088846260094000,5.530093994140625,0.04632568359375,0.9765167236328125,0.2124786376953125
1757088846270048800,5.540048828125,0.04345703125,0.974609375,0.21038818359375
1757088846280003800,5.55000390625,0.041168212890625,0.971466064453125,0.2079925537109375
1757088846289959000,5.559958984375,0.037841796875,0.97027587890625,0.20855712890625
1757088846299914000,5.5699140625,0.0326080322265625,0.971099853515625,0.209869384765625
1757088846309868800,5.579868896484375,0.0313568115234375,0.9684600830078125,0.2119903564453125
1757088846319822800,5.58982275390625,0.0339202880859375,0.967987060546875,0.2136993408203125
1757088846329778000,5.59977783203125,0.0298614501953125,0.9711151123046875,0.216522216796875
1757088846339733000,5.60973291015625,0.0289459228515625,0.9724884033203125,0.217193603515625
1757088846349687800,5.619687744140625,0.031463623046875,0.9765167236328125,0.2178497314453125
1757088846359642600,5.629642578125,0.030059814453125,0.97711181640625,0.216094970703125
1757088846369597000,5.639596923828125,0.0281982421875,0.9761810302734375,0.2115631103515625
1757088846379552000,5.649552001953125,0.026153564453125,0.974029541015625,0.2129364013671875
1757088846389506800,5.6595068359375,0.0298614501953125,0.9711761474609375,0.2137603759765625
1757088846399461600,5.669461669921875,0.0333709716796875,0.96630859375,0.21087646484375
1757088846409417000,5.6794169921875,0.0387725830078125,0.9660186767578125,0.2044219970703125
1757088846419371000,5.68937109375,0.042816162109375,0.9673614501953125,0.1929168701171875
1757088846429325800,5.699325927734375,0.04351806640625,0.9700469970703125,0.1841583251953125
1757088846439280600,5.70928076171875,0.045806884765625,0.9735565185546875,0.1747283935546875
1757088846449236000,5.719236083984375,0.051483154296875,0.978790283203125,0.165374755859375
1757088846459190800,5.729190673828125,0.0581817626953125,0.984100341796875,0.1592864990234375
1757088846469144800,5.739144775390625,0.06549072265625,0.9889984130859375,0.155670166015625
1757088846479099600,5.749099609375,0.071929931640625,0.989532470703125,0.152587890625
1757088846489055000,5.759054931640625,0.0758209228515625,0.98974609375,0.1492462158203125
1757088846499009800,5.769009765625,0.0781402587890625,0.9903106689453125,0.1432647705078125
1757088846508964900,5.77896484375,0.078216552734375,0.9918670654296875,0.138763427734375
1757088846518918700,5.788918701171875,0.077880859375,0.99517822265625,0.134857177734375
1757088846528874000,5.7988740234375,0.0740966796875,0.9975433349609375,0.136627197265625
1757088846538828800,5.808828857421875,0.0730743408203125,0.997833251953125,0.140289306640625
1757088846548783900,5.818783935546875,0.0742340087890625,0.9951171875,0.1473541259765625
1757088846558739000,5.828739013671875,0.0743408203125,0.9911956787109375,0.15509033203125
1757088846568693000,5.83869287109375,0.0696258544921875,0.9862518310546875,0.1658935546875
1757088846578647800,5.848647705078125,0.0616302490234375,0.9828643798828125,0.172271728515625
1757088846588603000,5.858602783203125,0.0571136474609375,0.9822845458984375,0.178253173828125
1757088846598558000,5.868557861328125,0.051513671875,0.9820709228515625,0.1889190673828125
1757088846608512800,5.8785126953125,0.0477294921875,0.98114013671875,0.198394775390625
1757088846618466800,5.888466796875,0.04290771484375,0.9776458740234375,0.205078125
1757088846628422000,5.898421875,0.03826904296875,0.97503662109375,0.21746826171875
1757088846638377000,5.908376953125,0.0396881103515625,0.9740142822265625,0.2310638427734375
1757088846648331800,5.918331787109375,0.035614013671875,0.9753570556640625,0.2424468994140625
1757088846658286800,5.928286865234375,0.036773681640625,0.9794158935546875,0.2468719482421875
1757088846668241000,5.938240966796875,0.0407562255859375,0.9824066162109375,0.2463836669921875
1757088846678196000,5.948196044921875,0.0447845458984375,0.98419189453125,0.2343902587890625
1757088846688150800,5.95815087890625,0.04779052734375,0.980865478515625,0.2155609130859375
1757088846698105900,5.96810595703125,0.0466156005859375,0.9771881103515625,0.1995086669921875
1757088846708060700,5.978060791015625,0.046478271484375,0.972930908203125,0.1856536865234375
1757088846718015000,5.988014892578125,0.0507049560546875,0.96826171875,0.171234130859375
1757088846727969800,5.9979697265625,0.054779052734375,0.9663238525390625,0.160552978515625
1757088846737924900,6.0079248046875,0.0604095458984375,0.9649658203125,0.1540069580078125
1757088846747879700,6.017879638671875,0.060882568359375,0.9661712646484375,0.15283203125
1757088846757835000,6.0278349609375,0.062713623046875,0.9687042236328125,0.1535186767578125
1757088846767788800,6.037788818359375,0.0636444091796875,0.9775238037109375,0.1565399169921875
1757088846777744000,6.047743896484375,0.0627899169921875,0.982574462890625,0.163726806640625
1757088846787698700,6.05769873046875,0.0605010986328125,0.98443603515625,0.1692657470703125
1757088846797654000,6.067654052734375,0.057952880859375,0.9851531982421875,0.1783905029296875
1757088846807608800,6.07760888671875,0.0541839599609375,0.9893951416015625,0.1876373291015625
1757088846817563000,6.08756298828125,0.0506591796875,0.99267578125,0.1961212158203125
1757088846827517700,6.097517578125,0.05035400390625,0.9935455322265625,0.201629638671875
1757088846837473000,6.10747314453125,0.0474853515625,0.9922027587890625,0.20843505859375
1757088846847427800,6.117427734375,0.047760009765625,0.983917236328125,0.2137603759765625
1757088846857382700,6.127382568359375,0.0509796142578125,0.9795379638671875,0.216888427734375
1757088846867336700,6.137336669921875,0.051544189453125,0.9729766845703125,0.2220916748046875
1757088846877292000,6.1472919921875,0.053680419921875,0.9687042236328125,0.2228240966796875
1757088846887246800,6.157246826171875,0.05804443359375,0.9696807861328125,0.2254638671875
1757088846897201700,6.16720166015625,0.0587005615234375,0.9704437255859375,0.223724365234375
1757088846907157000,6.177156982421875,0.0602569580078125,0.9716644287109375,0.2198944091796875
1757088846917111000,6.187111083984375,0.0586395263671875,0.973846435546875,0.21337890625
1757088846927065900,6.19706591796875,0.0581207275390625,0.9743499755859375,0.2079315185546875
1757088846937020700,6.207020751953125,0.058074951171875,0.9757080078125,0.201446533203125
1757088846946976000,6.21697607421875,0.056488037109375,0.9759979248046875,0.193695068359375
1757088846956930800,6.226930908203125,0.0539398193359375,0.9742431640625,0.1890869140625
1757088846966884900,6.236884765625,0.051177978515625,0.9720916748046875,0.1828765869140625
1757088846976839700,6.246839599609375,0.05120849609375,0.9719390869140625,0.1810150146484375
1757088846986795000,6.256794921875,0.05194091796875,0.9759063720703125,0.1782989501953125
1757088846996749800,6.266749755859375,0.0548248291015625,0.982421875,0.17547607421875
1757088847006705000,6.276704833984375,0.0594024658203125,0.9856414794921875,0.174774169921875
1757088847016658700,6.28665869140625,0.0625,0.990753173828125,0.166900634765625
1757088847026614000,6.296614013671875,0.0599822998046875,0.992767333984375,0.164215087890625
1757088847036568800,6.30656884765625,0.059173583984375,0.9924774169921875,0.164825439453125
1757088847046524000,6.31652392578125,0.0552825927734375,0.9884185791015625,0.1703338623046875
1757088847056478700,6.326478759765625,0.0510406494140625,0.982330322265625,0.1786346435546875
1757088847066433000,6.33643310546875,0.055023193359375,0.9793243408203125,0.188629150390625
1757088847076387800,6.346387939453125,0.06256103515625,0.9762115478515625,0.1946868896484375
1757088847086343000,6.356343017578125,0.070709228515625,0.976898193359375,0.1952056884765625
1757088847096297700,6.366297607421875,0.074798583984375,0.972198486328125,0.190643310546875
1757088847106252800,6.376252685546875,0.07879638671875,0.9713592529296875,0.1842041015625
1757088847116206800,6.386206787109375,0.0812530517578125,0.9729461669921875,0.1783599853515625
1757088847126162000,6.396161865234375,0.082855224609375,0.977447509765625,0.17138671875
1757088847136117200,6.4061171875,0.07684326171875,0.9835205078125,0.164398193359375
1757088847146072000,6.416072021484375,0.0668182373046875,0.9889068603515625,0.1591796875
1757088847156027100,6.426027099609375,0.05926513671875,0.992034912109375,0.15985107421875
1757088847165981000,6.43598095703125,0.058441162109375,0.994354248046875,0.161376953125
1757088847175936300,6.445936279296875,0.0580291748046875,0.990936279296875,0.1633758544921875
1757088847185891000,6.45589111328125,0.0586090087890625,0.985260009765625,0.1671142578125
1757088847195846100,6.46584619140625,0.0610809326171875,0.979949951171875,0.16949462890625
1757088847205801200,6.47580126953125,0.062774658203125,0.9744873046875,0.1737060546875
1757088847215755300,6.48575537109375,0.0658721923828125,0.976837158203125,0.1751251220703125
1757088847225710000,6.4957099609375,0.06884765625,0.980712890625,0.1787261962890625
1757088847235665200,6.5056650390625,0.0654144287109375,0.9840240478515625,0.1763153076171875
1757088847245620200,6.5156201171875,0.0623626708984375,0.9873809814453125,0.1725616455078125
1757088847255575300,6.5255751953125,0.0605316162109375,0.988006591796875,0.171875
1757088847265529000,6.535529052734375,0.0614013671875,0.98675537109375,0.1760711669921875
1757088847275484200,6.545484130859375,0.060943603515625,0.983612060546875,0.18328857421875
1757088847285439200,6.555439208984375,0.061676025390625,0.9781341552734375,0.1861724853515625
1757088847295394300,6.565394287109375,0.060760498046875,0.9711761474609375,0.191314697265625
1757088847305349000,6.57534912109375,0.0629730224609375,0.967926025390625,0.1913299560546875
1757088847315303200,6.58530322265625,0.0637969970703125,0.9732666015625,0.190277099609375
1757088847325258200,6.59525830078125,0.06536865234375,0.9783782958984375,0.189056396484375
1757088847335213300,6.60521337890625,0.0631256103515625,0.9840545654296875,0.186920166015625
1757088847345168100,6.615168212890625,0.060028076171875,0.9842529296875,0.187591552734375
1757088847355123000,6.625123046875,0.060791015625,0.98406982421875,0.1903076171875
1757088847365077000,6.635076904296875,0.0618896484375,0.9800567626953125,0.190765380859375
1757088847375032000,6.645031982421875,0.062896728515625,0.976165771484375,0.1916046142578125
1757088847384987100,6.654987060546875,0.061981201171875,0.9740753173828125,0.192657470703125
1757088847394942000,6.66494189453125,0.0650482177734375,0.9745330810546875,0.190216064453125
1757088847404897300,6.674897216796875,0.06451416015625,0.9761505126953125,0.18756103515625
1757088847414851000,6.68485107421875,0.0635528564453125,0.9817962646484375,0.1828765869140625
1757088847424806100,6.69480615234375,0.0633697509765625,0.9843597412109375,0.1827850341796875
1757088847434761000,6.704760986328125,0.0623931884765625,0.98773193359375,0.1810760498046875
1757088847444716300,6.71471630859375,0.061859130859375,0.985015869140625,0.1828155517578125
1757088847454671000,6.724671142578125,0.0614166259765625,0.9819183349609375,0.1876068115234375
1757088847464625200,6.734625244140625,0.062164306640625,0.9807281494140625,0.190216064453125
1757088847474580000,6.744580078125,0.0613250732421875,0.9781494140625,0.19183349609375
1757088847484535300,6.754535400390625,0.0604248046875,0.9791412353515625,0.19110107421875
1757088847494490000,6.764489990234375,0.059234619140625,0.979095458984375,0.191253662109375
1757088847504445200,6.774445068359375,0.0606689453125,0.979644775390625,0.1900634765625
1757088847514399000,6.78439892578125,0.0632476806640625,0.9795379638671875,0.190887451171875
1757088847524354300,6.794354248046875,0.0648040771484375,0.9778594970703125,0.195068359375
1757088847534309000,6.80430908203125,0.061279296875,0.9796142578125,0.195831298828125
1757088847544264200,6.81426416015625,0.059906005859375,0.979095458984375,0.1988983154296875
1757088847554219300,6.82421923828125,0.060791015625,0.98016357421875,0.2010345458984375
1757088847564173300,6.83417333984375,0.0622711181640625,0.9781341552734375,0.1998748779296875
1757088847574128000,6.844128173828125,0.063201904296875,0.9763031005859375,0.1982421875
1757088847584083200,6.854083251953125,0.060089111328125,0.9755401611328125,0.1966705322265625
1757088847594038300,6.864038330078125,0.0556640625,0.9755859375,0.1979827880859375
1757088847603993000,6.8739931640625,0.0572509765625,0.9763336181640625,0.1981964111328125
1757088847613947100,6.883947021484375,0.0641021728515625,0.980621337890625,0.198944091796875
1757088847623902200,6.893902099609375,0.0690460205078125,0.98468017578125,0.19970703125
1757088847633857300,6.903857177734375,0.073944091796875,0.9856109619140625,0.2031097412109375
1757088847643812000,6.91381201171875,0.0771026611328125,0.97991943359375,0.2012786865234375
1757088847653767200,6.92376708984375,0.0808563232421875,0.97314453125,0.194793701171875
1757088847663721000,6.933720947265625,0.080718994140625,0.9701080322265625,0.1882476806640625
1757088847673676300,6.94367626953125,0.08160400390625,0.970123291015625,0.1846160888671875
1757088847683631000,6.953631103515625,0.082366943359375,0.9745941162109375,0.1846466064453125
1757088847693586200,6.963586181640625,0.083465576171875,0.9761810302734375,0.1866912841796875
1757088847703541000,6.973541015625,0.0803070068359375,0.97601318359375,0.189727783203125
1757088847713495300,6.983495361328125,0.073516845703125,0.9760894775390625,0.193939208984375
1757088847723450000,6.9934501953125,0.0666046142578125,0.9745635986328125,0.2004241943359375
1757088847733405200,7.0034052734375,0.0618896484375,0.9749908447265625,0.2053375244140625
1757088847743360000,7.013360107421875,0.0587615966796875,0.976287841796875,0.209259033203125
1757088847753315300,7.0233154296875,0.0572509765625,0.976287841796875,0.20892333984375
1757088847763269000,7.03326904296875,0.057281494140625,0.9767913818359375,0.2045440673828125
1757088847773224200,7.04322412109375,0.057769775390625,0.9776153564453125,0.1996612548828125
1757088847783179000,7.053178955078125,0.061614990234375,0.9770355224609375,0.1980133056640625
1757088847793134300,7.06313427734375,0.064208984375,0.977447509765625,0.1933441162109375
1757088847803089200,7.073089111328125,0.0637359619140625,0.9763336181640625,0.1882476806640625
1757088847813043200,7.083043212890625,0.0623321533203125,0.9771575927734375,0.1868896484375
1757088847822998000,7.092998046875,0.05889892578125,0.9801788330078125,0.1873931884765625
1757088847832953000,7.102953125,0.05706787109375,0.982513427734375,0.188568115234375
1757088847842908200,7.112908203125,0.057098388671875,0.9821624755859375,0.18780517578125
1757088847852863000,7.122863037109375,0.0537261962890625,0.97943115234375,0.1888580322265625
1757088847862818300,7.132818359375,0.0523834228515625,0.9763946533203125,0.1883087158203125
1757088847872772000,7.142772216796875,0.0498046875,0.972747802734375,0.185455322265625
1757088847882727200,7.15272705078125,0.0496673583984375,0.97186279296875,0.183013916015625
1757088847892682000,7.162681884765625,0.0498809814453125,0.9730987548828125,0.1815338134765625
1757088847902637300,7.17263720703125,0.05316162109375,0.9746246337890625,0.18377685546875
1757088847912592100,7.182592041015625,0.0552215576171875,0.9757232666015625,0.1864471435546875
1757088847922546200,7.192546142578125,0.0560150146484375,0.975860595703125,0.1893157958984375
1757088847932501000,7.2025009765625,0.05841064453125,0.970489501953125,0.189483642578125
1757088847942456300,7.212456298828125,0.0553436279296875,0.9673919677734375,0.1880035400390625
1757088847952411100,7.2224111328125,0.05078125,0.96710205078125,0.1868133544921875
1757088847962366200,7.2323662109375,0.050262451171875,0.9697113037109375,0.1886749267578125
1757088847972320000,7.242320068359375,0.0508880615234375,0.9766998291015625,0.1895751953125
1757088847982275300,7.252275390625,0.0531768798828125,0.9849395751953125,0.1912384033203125
1757088847992230100,7.262230224609375,0.0532684326171875,0.9907379150390625,0.192901611328125
1757088848002185200,7.272185302734375,0.054168701171875,0.9934539794921875,0.1959228515625
1757088848012140000,7.28214013671875,0.055023193359375,0.99188232421875,0.199066162109375
1757088848022094300,7.29209423828125,0.05694580078125,0.986328125,0.2030181884765625
1757088848032049200,7.302049072265625,0.0591278076171875,0.9799041748046875,0.206756591796875
1757088848042004200,7.312004150390625,0.0599822998046875,0.975921630859375,0.2092742919921875
1757088848051959000,7.321958984375,0.058685302734375,0.973358154296875,0.209930419921875
1757088848061914000,7.3319140625,0.0596160888671875,0.9705352783203125,0.206146240234375
1757088848071868200,7.3418681640625,0.0562591552734375,0.968353271484375,0.201812744140625
1757088848081823200,7.3518232421875,0.0545196533203125,0.971771240234375,0.20159912109375
1757088848091778000,7.361778076171875,0.055419921875,0.9733734130859375,0.2023162841796875
1757088848101733000,7.371733154296875,0.055450439453125,0.975616455078125,0.203094482421875
1757088848111688200,7.381688232421875,0.0578460693359375,0.97747802734375,0.2046051025390625
1757088848121642200,7.391642333984375,0.0589141845703125,0.976715087890625,0.2106170654296875
1757088848131597300,7.401597412109375,0.059661865234375,0.9749603271484375,0.2134857177734375
1757088848141552000,7.41155224609375,0.0568084716796875,0.975250244140625,0.214752197265625
1757088848151507200,7.421507080078125,0.0559844970703125,0.976470947265625,0.216949462890625
1757088848161462300,7.431462158203125,0.0557403564453125,0.97772216796875,0.215972900390625
1757088848171416300,7.441416259765625,0.054107666015625,0.97686767578125,0.2150421142578125
1757088848181371100,7.45137109375,0.0527801513671875,0.9768829345703125,0.213226318359375
1757088848191326200,7.461326171875,0.052154541015625,0.97589111328125,0.212921142578125
1757088848201281300,7.47128125,0.0532073974609375,0.9749603271484375,0.2135009765625
1757088848211236400,7.481236328125,0.0550537109375,0.972503662109375,0.2144012451171875
1757088848221190100,7.491190185546875,0.055633544921875,0.971435546875,0.21441650390625
1757088848231145200,7.501145263671875,0.0564727783203125,0.9709014892578125,0.2126312255859375
1757088848241100300,7.511100341796875,0.0547943115234375,0.9702911376953125,0.2107391357421875
1757088848251055400,7.521055419921875,0.0558624267578125,0.9728851318359375,0.2080230712890625
1757088848261010200,7.53101025390625,0.05767822265625,0.9726409912109375,0.206695556640625
1757088848270964200,7.540964111328125,0.05682373046875,0.9752349853515625,0.204925537109375
1757088848280919300,7.550919189453125,0.0584259033203125,0.97784423828125,0.2038421630859375
1757088848290874400,7.560874267578125,0.0573883056640625,0.9772796630859375,0.2024688720703125
1757088848300829200,7.5708291015625,0.0579681396484375,0.9778594970703125,0.201568603515625
1757088848310784000,7.580783935546875,0.0589141845703125,0.9790496826171875,0.20318603515625
1757088848320738300,7.59073828125,0.06005859375,0.97662353515625,0.203460693359375
1757088848330693000,7.600693115234375,0.06201171875,0.9755401611328125,0.2031707763671875
1757088848340648200,7.610648193359375,0.0630645751953125,0.9761962890625,0.2008209228515625
1757088848350603000,7.62060302734375,0.0627288818359375,0.97674560546875,0.199798583984375
1757088848360558300,7.630558349609375,0.06365966796875,0.9798126220703125,0.1975555419921875
1757088848370512100,7.64051220703125,0.064910888671875,0.9811553955078125,0.1952972412109375
1757088848380467200,7.65046728515625,0.0641021728515625,0.983184814453125,0.1924896240234375
1757088848390422000,7.660422119140625,0.0634918212890625,0.9833831787109375,0.18853759765625
1757088848400377300,7.67037744140625,0.0654754638671875,0.982574462890625,0.1873016357421875
1757088848410332200,7.680332275390625,0.066802978515625,0.9806365966796875,0.187591552734375
1757088848420286200,7.6902861328125,0.0698394775390625,0.9778594970703125,0.189361572265625
1757088848430241000,7.700240966796875,0.0674896240234375,0.9755096435546875,0.1893768310546875
1757088848440196400,7.7101962890625,0.066375732421875,0.9761810302734375,0.192657470703125
1757088848450151200,7.720151123046875,0.066162109375,0.978759765625,0.1941680908203125
1757088848460106200,7.730106201171875,0.0659027099609375,0.979705810546875,0.1982574462890625
1757088848470060000,7.74006005859375,0.0664215087890625,0.979034423828125,0.2011260986328125
1757088848480015400,7.750015380859375,0.07342529296875,0.97833251953125,0.204010009765625
1757088848489970200,7.75997021484375,0.090301513671875,0.975860595703125,0.2064361572265625
1757088848499925200,7.76992529296875,0.1100006103515625,0.9732818603515625,0.2122650146484375
1757088848509880300,7.77988037109375,0.09735107421875,0.9684295654296875,0.2179718017578125
1757088848519834400,7.78983447265625,0.055633544921875,0.9843597412109375,0.235565185546875
1757088848529789200,7.7997890625,0.0185699462890625,0.9827117919921875,0.2316741943359375
1757088848539744300,7.809744140625,-0.006317138671875,0.9792633056640625,0.2015228271484375
1757088848549699300,7.81969921875,-0.012664794921875,0.972076416015625,0.189483642578125
1757088848559654100,7.829654052734375,-0.0003509521484375,0.9609222412109375,0.2012481689453125
1757088848569608200,7.839608154296875,0.03192138671875,0.96270751953125,0.2356109619140625
1757088848579563300,7.849563232421875,0.0550384521484375,0.959686279296875,0.2523040771484375
1757088848589518300,7.859518310546875,0.0562591552734375,0.9645843505859375,0.24957275390625
1757088848599473200,7.86947314453125,0.0456695556640625,0.970977783203125,0.232818603515625
1757088848609428200,7.87942822265625,0.0342864990234375,0.9713134765625,0.214935302734375
1757088848619382000,7.889382080078125,0.036834716796875,0.9718475341796875,0.200775146484375
1757088848629337300,7.89933740234375,0.044036865234375,0.9760589599609375,0.1905975341796875
1757088848639292200,7.909292236328125,0.0491180419921875,0.982879638671875,0.1886138916015625
1757088848649247200,7.919247314453125,0.05126953125,0.9876861572265625,0.1819000244140625
1757088848659202300,7.929202392578125,0.0549163818359375,0.992828369140625,0.1746673583984375
1757088848669156400,7.93915625,0.063140869140625,0.9990234375,0.179473876953125
1757088848679111200,7.949111083984375,0.0742034912109375,0.9938201904296875,0.17559814453125
1757088848689066200,7.959066162109375,0.0806427001953125,0.9884185791015625,0.17047119140625
1757088848699021000,7.96902099609375,0.0820770263671875,0.9836578369140625,0.1591339111328125
1757088848708976400,7.978976318359375,0.0800018310546875,0.983734130859375,0.15545654296875
1757088848718930200,7.98893017578125,0.085784912109375,0.9873809814453125,0.160400390625
1757088848728885200,7.99888525390625,0.0912322998046875,0.97833251953125,0.16656494140625
1757088848738840000,8.008840087890626,0.0850067138671875,0.9828338623046875,0.1619873046875
1757088848748795400,8.01879541015625,0.051544189453125,0.9641876220703125,0.143768310546875
1757088848758750200,8.028750244140625,0.034027099609375,0.9564208984375,0.143524169921875
1757088848768704300,8.038704345703126,0.044036865234375,0.96185302734375,0.16778564453125
1757088848778659000,8.0486591796875,0.0743560791015625,0.962432861328125,0.2105560302734375
1757088848788614400,8.058614501953125,0.0961456298828125,0.9628143310546875,0.24322509765625
1757088848798569200,8.0685693359375,0.102996826171875,0.9586944580078125,0.245758056640625
1757088848808524000,8.07852392578125,0.107696533203125,0.95703125,0.236419677734375
1757088848818478000,8.08847802734375,0.10302734375,0.954864501953125,0.221160888671875
1757088848828433200,8.09843310546875,0.0990142822265625,0.9576568603515625,0.20965576171875
1757088848838388200,8.10838818359375,0.0924530029296875,0.9607086181640625,0.2049560546875
1757088848848343000,8.118343017578125,0.0815582275390625,0.9621734619140625,0.2050018310546875
1757088848858298400,8.12829833984375,0.077789306640625,0.9647979736328125,0.2110137939453125
1757088848868252200,8.138252197265626,0.0749664306640625,0.96136474609375,0.2146453857421875
1757088848878207200,8.148207275390625,0.063690185546875,0.9556427001953125,0.212799072265625
1757088848888162000,8.158162109375,0.0574951171875,0.9525909423828125,0.2023162841796875
1757088848898117400,8.168117431640624,0.0512847900390625,0.951446533203125,0.19195556640625
1757088848908072200,8.178072265625,0.0416259765625,0.9548797607421875,0.171844482421875
1757088848918026200,8.188026123046875,0.03070068359375,0.96307373046875,0.1522674560546875
1757088848927981000,8.19798095703125,0.0189971923828125,0.9754180908203125,0.13995361328125
1757088848937936400,8.207936279296876,0.006988525390625,0.985748291015625,0.1390838623046875
1757088848947891200,8.21789111328125,0.009307861328125,1.002655029296875,0.1399383544921875
1757088848957846300,8.22784619140625,0.012664794921875,0.9986724853515625,0.145843505859375
1757088848967800000,8.237800048828126,0.0263214111328125,0.9967498779296875,0.15130615234375
1757088848977755400,8.24775537109375,0.039154052734375,0.9980316162109375,0.153533935546875
1757088848987710200,8.257710205078125,0.0556488037109375,0.9953765869140625,0.1597137451171875
1757088848997665300,8.267665283203126,0.0807342529296875,0.9941253662109375,0.158721923828125
1757088849007620400,8.277620361328125,0.090972900390625,1.00494384765625,0.1507415771484375
1757088849017574400,8.287574462890625,0.0841827392578125,1.0032196044921875,0.151458740234375
1757088849027529200,8.297529296875,0.088470458984375,1.007568359375,0.1478118896484375
1757088849037484300,8.307484375,0.086273193359375,1.0096893310546875,0.15704345703125
1757088849047439400,8.317439453125,0.0733184814453125,0.99884033203125,0.15863037109375
1757088849057393400,8.327393310546874,0.0635223388671875,0.99261474609375,0.144683837890625
1757088849067348200,8.33734814453125,0.048309326171875,0.9875335693359375,0.1202392578125
1757088849077303300,8.34730322265625,0.04974365234375,0.9826202392578125,0.0984954833984375
1757088849087258400,8.35725830078125,0.0609130859375,0.97882080078125,0.0809173583984375
1757088849097213200,8.367213134765626,0.067108154296875,0.98193359375,0.060577392578125
1757088849107167200,8.377167236328125,0.0840911865234375,0.9859466552734375,0.04278564453125
1757088849117122000,8.3871220703125,0.0904541015625,0.990570068359375,0.0280914306640625
1757088849127077000,8.3970771484375,0.0743865966796875,0.9979400634765625,0.0227508544921875
1757088849137031700,8.40703173828125,0.0839996337890625,1.0037078857421875,-0.0021820068359375
1757088849146986800,8.41698681640625,0.0872955322265625,1.0007476806640625,-0.0041961669921875
1757088849156940800,8.42694091796875,0.0818023681640625,0.99041748046875,0.012176513671875
1757088849166895900,8.436895751953125,0.0717926025390625,0.9860076904296875,0.0206451416015625
1757088849176850700,8.4468505859375,0.092926025390625,0.986175537109375,0.0230255126953125
1757088849186805800,8.4568056640625,0.0864715576171875,0.978485107421875,0.057525634765625
1757088849196760600,8.466760498046876,0.0878753662109375,0.9825592041015625,0.067230224609375
1757088849206715000,8.47671484375,0.10711669921875,0.9867401123046875,0.057861328125
1757088849216669700,8.486669677734374,0.086639404296875,0.9741363525390625,0.0770721435546875
1757088849226624800,8.496624755859376,0.0723876953125,0.9609527587890625,0.0823822021484375
1757088849236579600,8.50657958984375,0.0660247802734375,0.967803955078125,0.0877838134765625
1757088849246535000,8.516534912109375,0.0673675537109375,0.9673004150390625,0.0764007568359375
1757088849256488700,8.52648876953125,0.0796661376953125,0.9722747802734375,0.07440185546875
1757088849266443800,8.53644384765625,0.0750274658203125,0.975341796875,0.087249755859375
1757088849276398600,8.546398681640625,0.0693206787109375,0.9766082763671875,0.08148193359375
1757088849286354000,8.55635400390625,0.0647430419921875,0.9668121337890625,0.0658111572265625
1757088849296308700,8.566308837890626,0.05194091796875,0.965484619140625,0.063720703125
1757088849306262800,8.5762626953125,0.043548583984375,0.971160888671875,0.0580291748046875
1757088849316217600,8.586217529296874,0.0511474609375,0.9784088134765625,0.04876708984375
1757088849326173000,8.5961728515625,0.020904541015625,0.9761199951171875,0.0810394287109375
1757088849336127700,8.606127685546875,0.00396728515625,0.9769287109375,0.0847320556640625
1757088849346082600,8.61608251953125,0.0081329345703125,0.9813995361328125,0.0753021240234375
1757088849356036600,8.62603662109375,0.00653076171875,0.9881744384765625,0.08343505859375
1757088849365992000,8.635991943359375,0.01373291015625,0.988922119140625,0.0960845947265625
1757088849375946800,8.64594677734375,0.03668212890625,0.990386962890625,0.0902099609375
1757088849385901600,8.655901611328124,0.010589599609375,0.96099853515625,0.115142822265625
1757088849395857000,8.66585693359375,0.0031890869140625,0.9714813232421875,0.1301422119140625
1757088849405811000,8.67581103515625,-0.009124755859375,0.9752960205078125,0.123199462890625
1757088849415765800,8.685765869140624,-0.027618408203125,0.979522705078125,0.133331298828125
1757088849425720600,8.695720458984376,-0.0359649658203125,0.9865570068359375,0.1467132568359375
1757088849435676000,8.705676025390625,-0.0369415283203125,0.988189697265625,0.1645660400390625
1757088849445630700,8.715630615234375,-0.0525665283203125,0.9927825927734375,0.1958465576171875
1757088849455584800,8.725584716796876,-0.0352630615234375,1.009613037109375,0.193359375
1757088849465539600,8.73553955078125,-0.0081634521484375,1.019378662109375,0.19976806640625
1757088849475495000,8.745494873046875,-0.0285797119140625,1.0107574462890625,0.2196044921875
1757088849485449700,8.75544970703125,-0.0507965087890625,1.02410888671875,0.225555419921875
1757088849495404800,8.76540478515625,-0.049957275390625,1.0502471923828125,0.205047607421875
1757088849505358600,8.775358642578125,-0.0122833251953125,1.1127471923828125,0.1510467529296875
1757088849515314000,8.78531396484375,-0.03082275390625,1.1279296875,0.1345977783203125
1757088849525268700,8.795268798828126,-0.0327301025390625,1.142364501953125,0.0956878662109375
1757088849535223800,8.805223876953125,-0.0346221923828125,1.1241607666015625,0.079193115234375
1757088849545178600,8.8151787109375,-0.0137481689453125,1.1244049072265625,0.0601654052734375
1757088849555133000,8.8251328125,0.0044708251953125,1.1409912109375,0.053131103515625
1757088849565087700,8.835087646484375,0.01055908203125,1.1560821533203125,0.073150634765625
1757088849575042800,8.845042724609375,0.0462646484375,1.215911865234375,0.0779876708984375
1757088849584997600,8.85499755859375,0.0789947509765625,1.2542877197265625,0.1191558837890625
1757088849594952000,8.864951904296875,0.129547119140625,1.2713470458984375,0.13995361328125
1757088849604906800,8.87490673828125,0.1532440185546875,1.2617340087890625,0.1362762451171875
1757088849614861800,8.88486181640625,0.13262939453125,1.235321044921875,0.1072235107421875
1757088849624816600,8.894816650390625,0.10601806640625,1.2122650146484375,0.074371337890625
1757088849634771700,8.904771728515625,0.0961761474609375,1.1883392333984375,0.05279541015625
1757088849644725800,8.914725830078124,0.0828857421875,1.1496124267578125,0.0398712158203125
1757088849654680800,8.924680908203126,0.07110595703125,1.09979248046875,0.0229949951171875
1757088849664635600,8.9346357421875,0.06097412109375,1.0400848388671875,0.0140228271484375
1757088849674590700,8.9445908203125,0.059234619140625,0.9585418701171875,0.0197296142578125
1757088849684545800,8.9545458984375,0.0880584716796875,0.8879547119140625,0.0510101318359375
1757088849694499800,8.964499755859375,0.1165618896484375,0.8375701904296875,0.092803955078125
1757088849704454700,8.97445458984375,0.1240997314453125,0.8160247802734375,0.176849365234375
1757088849714409700,8.98440966796875,0.1686248779296875,0.8356170654296875,0.2705535888671875
1757088849724364800,8.99436474609375,0.213836669921875,0.871002197265625,0.3637847900390625
1757088849734319600,9.004319580078125,0.2051544189453125,0.912750244140625,0.447265625
1757088849744273700,9.014273681640624,0.13397216796875,0.9541015625,0.5106964111328125
1757088849754228700,9.024228759765625,0.05010986328125,0.99322509765625,0.5191802978515625
1757088849764183800,9.034183837890625,-0.02337646484375,1.0536651611328125,0.4892425537109375
1757088849774138600,9.044138671875,-0.0789031982421875,1.10943603515625,0.3780670166015625
1757088849784094000,9.054093994140626,-0.05950927734375,1.192779541015625,0.2329559326171875
1757088849794047700,9.0640478515625,-0.0160369873046875,1.2265167236328125,0.2041015625
1757088849804002800,9.0740029296875,0.042022705078125,1.18292236328125,0.1356658935546875
1757088849813957600,9.08395751953125,0.1310577392578125,1.197418212890625,-0.0341033935546875
1757088849823913000,9.093912841796875,0.2295684814453125,1.247222900390625,-0.0803375244140625
1757088849833867800,9.10386767578125,0.3604278564453125,1.265106201171875,-0.06488037109375
1757088849843821800,9.11382177734375,0.31842041015625,1.2375030517578125,-0.037841796875
1757088849853776600,9.123776611328125,0.2448272705078125,1.197235107421875,-0.0484161376953125
1757088849863732000,9.13373193359375,0.160980224609375,1.1514892578125,-0.025848388671875
1757088849873686800,9.143686767578124,0.1211090087890625,1.0972442626953125,-0.00555419921875
1757088849883640800,9.153640869140625,0.152252197265625,0.98095703125,0.0287628173828125
1757088849893595600,9.163595703125,0.18096923828125,0.8984222412109375,0.052764892578125
1757088849903551000,9.173551025390625,0.187652587890625,0.87890625,0.0583648681640625
1757088849913505800,9.183505859375,0.2002410888671875,0.8680419921875,0.0858001708984375
1757088849923460600,9.193460693359375,0.1978607177734375,0.856475830078125,0.0864715576171875
1757088849933414700,9.20341455078125,0.1728668212890625,0.82647705078125,0.0988006591796875
1757088849943370000,9.213369873046876,0.146942138671875,0.7686309814453125,0.129302978515625
1757088849953324800,9.22332470703125,0.158233642578125,0.7071990966796875,0.1457977294921875
1757088849963279600,9.233279541015625,0.178924560546875,0.6650390625,0.1606597900390625
1757088849973234700,9.243234619140624,0.174835205078125,0.6454925537109375,0.1581268310546875
1757088849983189000,9.25318896484375,0.174163818359375,0.629058837890625,0.143310546875
1757088849993143800,9.263143798828125,0.1928253173828125,0.6053466796875,0.120574951171875
1757088850003098600,9.2730986328125,0.20245361328125,0.58026123046875,0.102294921875
1757088850013053700,9.2830537109375,0.215118408203125,0.5856475830078125,0.1096954345703125
1757088850023008800,9.2930087890625,0.22625732421875,0.5971527099609375,0.13641357421875
1757088850032962800,9.302962890625,0.17706298828125,0.536712646484375,0.099517822265625
1757088850042917600,9.312917724609376,0.1940460205078125,0.539459228515625,0.0833892822265625
1757088850052872700,9.322872802734375,0.2353057861328125,0.5518035888671875,0.1302032470703125
1757088850062827800,9.332827880859375,0.2303466796875,0.547760009765625,0.1419830322265625
1757088850072782800,9.342782958984374,0.2229156494140625,0.5404052734375,0.125152587890625
1757088850082736600,9.352736572265625,0.22625732421875,0.5411529541015625,0.1054229736328125
1757088850092691700,9.362691650390625,0.238555908203125,0.54925537109375,0.095306396484375
1757088850102646800,9.372646728515624,0.2835845947265625,0.572509765625,0.0853729248046875
1757088850112601900,9.382601806640626,0.348480224609375,0.623443603515625,0.0904998779296875
1757088850122555600,9.3925556640625,0.442474365234375,0.6939697265625,0.080963134765625
1757088850132510700,9.4025107421875,0.5384063720703125,0.78143310546875,0.0420379638671875
1757088850142465500,9.412465576171876,0.642242431640625,0.872711181640625,-0.0055694580078125
1757088850152420600,9.422420654296875,0.7422027587890625,1.0080108642578125,-0.093170166015625
1757088850162375700,9.432375732421875,0.7988433837890625,1.221405029296875,-0.2021331787109375
1757088850172329700,9.442329833984376,0.8026885986328125,1.42694091796875,-0.3167572021484375
1757088850182284500,9.452284423828125,0.7750396728515625,1.573974609375,-0.444366455078125
1757088850192239600,9.462239501953125,0.7216949462890625,1.6389923095703125,-0.4953155517578125
1757088850202194700,9.472194580078124,0.6617431640625,1.602203369140625,-0.4183197021484375
1757088850212149500,9.4821494140625,0.6327972412109375,1.4606781005859375,-0.2594757080078125
1757088850222103600,9.492103515625,0.66864013671875,1.293975830078125,-0.1255645751953125
1757088850232058600,9.50205859375,0.717376708984375,1.1587066650390625,-0.1080474853515625
1757088850242013700,9.512013671875,0.7152862548828125,1.033477783203125,-0.180328369140625
1757088850251968500,9.521968505859375,0.662078857421875,0.958038330078125,-0.18707275390625
1757088850261923600,9.531923583984375,0.5356903076171875,0.9464569091796875,-0.1340789794921875
1757088850271877600,9.541877685546876,0.373931884765625,0.933624267578125,-0.0572509765625
1757088850281832700,9.551832763671875,0.3985137939453125,0.855499267578125,0.0305023193359375
1757088850291787500,9.56178759765625,0.50689697265625,0.784698486328125,0.125335693359375
1757088850301742600,9.57174267578125,0.481658935546875,0.8065185546875,0.114593505859375
1757088850311696600,9.581696533203125,0.3487396240234375,0.858306884765625,0.048309326171875
1757088850321651700,9.591651611328125,0.18695068359375,0.885894775390625,0.06036376953125
1757088850331606500,9.6016064453125,0.1016387939453125,0.8861083984375,0.155548095703125
1757088850341561600,9.6115615234375,0.1036376953125,0.869354248046875,0.311920166015625
1757088850351516700,9.6215166015625,0.177490234375,0.9055023193359375,0.4792327880859375
1757088850361470700,9.631470703125,0.290771484375,1.0571136474609375,0.5344085693359375
1757088850371425500,9.641425537109376,0.34075927734375,1.2772369384765625,0.4935302734375
1757088850381380600,9.651380615234375,0.3329010009765625,1.40264892578125,0.497283935546875
1757088850391335700,9.661335693359375,0.3456573486328125,1.3199005126953125,0.49200439453125
1757088850401290800,9.671290771484376,0.3694915771484375,1.1051177978515625,0.4227142333984375
1757088850411244500,9.68124462890625,0.314727783203125,0.905181884765625,0.313507080078125
1757088850421199600,9.69119970703125,0.1386260986328125,0.7907257080078125,0.22265625
1757088850431154700,9.70115478515625,-0.060211181640625,0.7230072021484375,0.17230224609375
1757088850441109800,9.71110986328125,-0.23272705078125,0.708099365234375,0.16314697265625
1757088850451064600,9.721064697265625,-0.3340911865234375,0.7400665283203125,0.16552734375
1757088850461018600,9.7310185546875,-0.3553009033203125,0.811126708984375,0.1396026611328125
1757088850470973700,9.7409736328125,-0.3465576171875,0.8892364501953125,0.1270904541015625
1757088850480928800,9.7509287109375,-0.2979888916015625,0.96527099609375,0.1359405517578125
1757088850490883600,9.760883544921874,-0.1692047119140625,1.0225372314453125,0.115997314453125
1757088850500838400,9.77083837890625,0.0383453369140625,1.062896728515625,0.0865936279296875
1757088850510792700,9.780792724609375,0.2339935302734375,1.080963134765625,0.0820159912109375
1757088850520747800,9.790747802734375,0.335296630859375,1.0692596435546875,0.12255859375
1757088850530702600,9.80070263671875,0.309051513671875,1.0269927978515625,0.2146759033203125
1757088850540657400,9.810657470703125,0.2044219970703125,0.9610137939453125,0.2751617431640625
1757088850550611700,9.82061181640625,0.100189208984375,0.9163818359375,0.290191650390625
1757088850560566800,9.83056689453125,0.017059326171875,0.92279052734375,0.2882232666015625
1757088850570521600,9.840521484375,-0.0430908203125,0.9463958740234375,0.2381744384765625
1757088850580476400,9.850476318359375,-0.0977325439453125,0.9664154052734375,0.1833038330078125
1757088850590431700,9.860431640625,-0.0697479248046875,0.9967041015625,0.1400604248046875
1757088850600385800,9.8703857421875,-0.0545196533203125,1.0016937255859375,0.09027099609375
1757088850610340600,9.880340576171875,-0.0443572998046875,0.9754638671875,0.027923583984375
1757088850620295400,9.89029541015625,0.00103759765625,0.941802978515625,-0.011260986328125
1757088850630250800,9.900250732421876,0.0556488037109375,0.9178009033203125,-0.002349853515625
1757088850640205600,9.91020556640625,0.0928497314453125,0.8931732177734375,-0.0117034912109375
1757088850650159600,9.92015966796875,0.1188812255859375,0.8900909423828125,-0.0098419189453125
1757088850660114400,9.930114501953126,0.1221466064453125,0.8982086181640625,0.0128631591796875
1757088850670069800,9.94006982421875,0.1111907958984375,0.906280517578125,0.0323486328125
1757088850680024600,9.950024658203125,0.1022186279296875,0.925140380859375,0.0411376953125
1757088850689979600,9.959979736328124,0.072845458984375,0.9339599609375,0.0719146728515625
1757088850699933400,9.969933349609375,0.0357818603515625,0.952789306640625,0.08343505859375
1757088850709888800,9.979888671875,0.07891845703125,0.970367431640625,0.0848388671875
1757088850719843600,9.989843505859374,0.138092041015625,0.9489898681640625,0.0956573486328125
1757088850729798700,9.999798583984376,0.1584625244140625,0.909332275390625,0.1347198486328125
1757088850739753700,10.009753662109375,0.169891357421875,0.8804168701171875,0.1356201171875
1757088850749707800,10.019707763671875,0.1462249755859375,0.8691864013671875,0.1075897216796875
1757088850759662600,10.02966259765625,0.1118621826171875,0.873992919921875,0.08941650390625
1757088850769617700,10.03961767578125,0.103759765625,0.8924560546875,0.053192138671875
1757088850779572700,10.04957275390625,0.095794677734375,0.90972900390625,0.0168914794921875
1757088850789526800,10.05952685546875,0.0741729736328125,0.91595458984375,0.0059661865234375
1757088850799481600,10.069481689453125,0.0880279541015625,0.923492431640625,0.0163116455078125
1757088850809436700,10.079436767578125,0.097991943359375,0.9269866943359375,0.037628173828125
1757088850819391700,10.089391845703124,0.0948486328125,0.944366455078125,0.0559844970703125
1757088850829346600,10.0993466796875,0.07183837890625,0.9762725830078125,0.06475830078125
1757088850839300600,10.109300537109375,0.032440185546875,1.008148193359375,0.075958251953125
1757088850849255700,10.119255615234374,-0.0102691650390625,1.0578765869140625,0.0802764892578125
1757088850859210800,10.129210693359376,-0.0163726806640625,1.11358642578125,0.0862884521484375
1757088850869165600,10.13916552734375,-0.0216217041015625,1.125335693359375,0.1250457763671875
1757088850879120600,10.14912060546875,-0.0318603515625,1.1157379150390625,0.1495208740234375
1757088850889074700,10.15907470703125,-0.0516510009765625,1.083465576171875,0.160797119140625
1757088850899029800,10.16902978515625,-0.0754241943359375,1.0597076416015625,0.1563873291015625
1757088850908984600,10.178984619140625,-0.06793212890625,1.070037841796875,0.1306304931640625
1757088850918939600,10.188939697265624,-0.039398193359375,1.0927581787109375,0.102447509765625
1757088850928893400,10.1988935546875,-0.01422119140625,1.1130218505859375,0.1009674072265625
1757088850938848800,10.208848876953125,0.0095977783203125,1.10443115234375,0.129180908203125
1757088850948803600,10.218803466796874,-0.002197265625,1.0777740478515625,0.1678009033203125
1757088850958758700,10.228758544921876,-0.014404296875,1.0771636962890625,0.19403076171875
1757088850968713500,10.23871337890625,0.0252532958984375,1.13525390625,0.2264862060546875
1757088850978667800,10.248667724609374,0.0968170166015625,1.206207275390625,0.237945556640625
1757088850988622600,10.25862255859375,0.1031341552734375,1.2381134033203125,0.2075958251953125
1757088850998577700,10.26857763671875,0.0855560302734375,1.237884521484375,0.163482666015625
1757088851008532500,10.278532470703125,0.1192779541015625,1.249420166015625,0.095001220703125
1757088851018487800,10.28848779296875,0.118011474609375,1.28515625,0.0351409912109375
1757088851028441600,10.298441650390625,0.106292724609375,1.2897796630859375,0.019012451171875
1757088851038396700,10.308396728515625,0.12811279296875,1.287841796875,0.01055908203125
1757088851048351500,10.3183515625,0.1316375732421875,1.2559814453125,0.0270233154296875
1757088851058306800,10.328306884765626,0.1495208740234375,1.19097900390625,0.0230560302734375
1757088851068261600,10.33826171875,0.1376190185546875,1.084503173828125,0.0047454833984375
1757088851078215700,10.348215576171874,0.122894287109375,1.02130126953125,0.0324554443359375
1757088851088170500,10.35817041015625,0.145416259765625,0.994903564453125,0.1060638427734375
1757088851098125800,10.368125732421875,0.2351837158203125,1.0446624755859375,0.2236480712890625
1757088851108080600,10.37808056640625,0.299896240234375,1.0418701171875,0.3184661865234375
1757088851118034700,10.38803466796875,0.2715911865234375,1.0075225830078125,0.4616241455078125
1757088851127989500,10.397989501953125,0.194793701171875,1.0301666259765625,0.56085205078125
1757088851137944600,10.407944580078125,0.1001434326171875,1.0977020263671875,0.5845947265625
1757088851147899600,10.417899658203124,0.022918701171875,1.176544189453125,0.5558013916015625
1757088851157854700,10.427854736328126,-0.0379486083984375,1.2285308837890625,0.4972991943359375
1757088851167808800,10.437808837890625,-0.036346435546875,1.2462615966796875,0.4423370361328125
1757088851177763600,10.447763671875,0.0224761962890625,1.2626495361328125,0.292236328125
1757088851187718700,10.45771875,0.090545654296875,1.3056488037109375,0.1387939453125
1757088851197673700,10.467673828125,0.1293487548828125,1.299468994140625,-0.0124969482421875
1757088851207628800,10.47762890625,0.1968994140625,1.255645751953125,-0.092926025390625
1757088851217582600,10.48758251953125,0.277130126953125,1.22088623046875,-0.154052734375
1757088851227537700,10.49753759765625,0.2611083984375,1.1844024658203125,-0.101043701171875
1757088851237492700,10.50749267578125,0.2189788818359375,1.1059722900390625,-0.0019989013671875
1757088851247447800,10.51744775390625,0.1689453125,1.0399169921875,0.0108489990234375
1757088851257401600,10.527401611328125,0.1064453125,0.9880828857421875,0.0689697265625
1757088851267356700,10.537356689453125,0.0841522216796875,0.9271697998046875,0.1214599609375
1757088851277311700,10.547311767578124,0.0523834228515625,0.867431640625,0.1510772705078125
1757088851287266800,10.557266845703126,0.059112548828125,0.7777557373046875,0.248291015625
1757088851297221600,10.5672216796875,0.086151123046875,0.7169647216796875,0.2809600830078125
1757088851307175700,10.57717578125,0.092254638671875,0.7028045654296875,0.2934417724609375
1757088851317130800,10.587130859375,0.092742919921875,0.69171142578125,0.2973785400390625
1757088851327085800,10.5970859375,0.0868072509765625,0.664215087890625,0.325958251953125
1757088851337040600,10.60704052734375,0.0457611083984375,0.62078857421875,0.31329345703125
1757088851346995700,10.61699560546875,0.0342864990234375,0.553863525390625,0.28155517578125
1757088851356949800,10.62694970703125,0.07440185546875,0.5358428955078125,0.2626800537109375
1757088851366904800,10.63690478515625,0.1092987060546875,0.5575103759765625,0.2446441650390625
1757088851376859600,10.646859619140624,0.137969970703125,0.5737152099609375,0.2293243408203125
1757088851386814700,10.656814697265625,0.1530914306640625,0.5845184326171875,0.2118682861328125
1757088851396768800,10.666768798828125,0.170501708984375,0.576263427734375,0.2205352783203125
1757088851406723800,10.676723876953124,0.19989013671875,0.5521697998046875,0.22576904296875
1757088851416678700,10.6866787109375,0.2229156494140625,0.53082275390625,0.2083740234375
1757088851426633700,10.6966337890625,0.2249603271484375,0.522003173828125,0.1943817138671875
1757088851436588800,10.7065888671875,0.229888916015625,0.51837158203125,0.1753692626953125
1757088851446542800,10.71654296875,0.235443115234375,0.5170745849609375,0.164337158203125
1757088851456497700,10.72649755859375,0.2415618896484375,0.5182647705078125,0.1652374267578125
1757088851466452700,10.73645263671875,0.258209228515625,0.5257568359375,0.1631927490234375
1757088851476407800,10.74640771484375,0.2875518798828125,0.538116455078125,0.1364593505859375
1757088851486362600,10.756362548828125,0.334564208984375,0.5939178466796875,0.1422271728515625
1757088851496316700,10.766316650390625,0.3983612060546875,0.7179718017578125,0.178375244140625
1757088851506271700,10.776271728515624,0.48114013671875,0.8659210205078125,0.1795501708984375
1757088851516226800,10.786226806640625,0.58984375,1.0201416015625,0.1684112548828125
1757088851526181600,10.796181640625,0.7542572021484375,1.2035064697265625,0.1385955810546875
1757088851536135700,10.8061357421875,0.954132080078125,1.4300994873046875,0.0667572021484375
1757088851546090500,10.816090576171876,1.082916259765625,1.6185150146484375,-0.02923583984375
1757088851556045800,10.8260458984375,1.1177825927734375,1.6763916015625,-0.1501312255859375
1757088851566000600,10.836000732421875,1.042266845703125,1.603302001953125,-0.2781219482421875
1757088851575955700,10.845955810546876,0.8871307373046875,1.414459228515625,-0.3452911376953125
1757088851585909500,10.855909423828125,0.7252197265625,1.1301116943359375,-0.3009185791015625
1757088851595864800,10.86586474609375,0.602020263671875,0.928741455078125,-0.2349853515625
1757088851605819600,10.875819580078126,0.504852294921875,0.8072967529296875,-0.1866912841796875
1757088851615774700,10.885774658203125,0.432861328125,0.673370361328125,-0.1937713623046875
1757088851625729800,10.895729736328125,0.390045166015625,0.5970458984375,-0.2075347900390625
1757088851635683800,10.905683837890624,0.32794189453125,0.6932373046875,-0.1577911376953125
1757088851645638700,10.915638671875,0.2768707275390625,0.840972900390625,-0.128387451171875
1757088851655593700,10.92559375,0.3404541015625,0.9583740234375,-0.0397491455078125
1757088851665548800,10.935548828125,0.38818359375,1.0221099853515625,0.067230224609375
1757088851675502800,10.9455029296875,0.282257080078125,1.058685302734375,0.13043212890625
1757088851685457700,10.955457763671875,0.1272735595703125,1.07257080078125,0.2623291015625
1757088851695412700,10.965412841796875,0.0724639892578125,1.0741424560546875,0.433837890625
1757088851705367800,10.975367919921876,0.108551025390625,1.1140899658203125,0.586883544921875
1757088851715322600,10.985322509765625,0.24365234375,1.23638916015625,0.7187042236328125
1757088851725276700,10.995276611328125,0.43243408203125,1.4395599365234375,0.79254150390625
1757088851735231700,11.005231689453124,0.5294036865234375,1.6141815185546875,0.73150634765625
1757088851745186800,11.015186767578125,0.469879150390625,1.574951171875,0.5418701171875
1757088851755141600,11.0251416015625,0.3957366943359375,1.231475830078125,0.3427276611328125
1757088851765096700,11.0350966796875,0.2916412353515625,0.88134765625,0.1956787109375
1757088851775050800,11.04505078125,0.109619140625,0.7152557373046875,0.1708221435546875
1757088851785005800,11.055005859375,-0.0757598876953125,0.6175384521484375,0.226226806640625
1757088851794960600,11.064960693359374,-0.2705078125,0.5439453125,0.28814697265625
1757088851804915700,11.074915771484376,-0.44482421875,0.517608642578125,0.3236083984375
1757088851814869800,11.084869873046875,-0.513153076171875,0.5441436767578125,0.2930908203125
1757088851824824800,11.094824951171875,-0.4761199951171875,0.6361083984375,0.2448577880859375
1757088851834779600,11.104779541015626,-0.385345458984375,0.8087921142578125,0.1729278564453125
1757088851844734700,11.114734619140625,-0.297576904296875,1.046417236328125,0.089813232421875
1757088851854689800,11.124689697265625,-0.1656494140625,1.24896240234375,0.0172576904296875
1757088851864643800,11.134643798828124,0.0760955810546875,1.339324951171875,-0.0504302978515625
1757088851874598700,11.1445986328125,0.407440185546875,1.3275909423828125,-0.0886688232421875
1757088851884553700,11.1545537109375,0.5786285400390625,1.201263427734375,-0.0126495361328125
1757088851894508800,11.1645087890625,0.41510009765625,1.02508544921875,0.10748291015625
1757088851904462800,11.174462890625,0.150146484375,0.8872833251953125,0.1543731689453125
1757088851914417700,11.184417724609375,-0.01080322265625,0.8129425048828125,0.2257843017578125
1757088851924372700,11.194372802734375,-0.0427093505859375,0.77294921875,0.30743408203125
1757088851934327600,11.20432763671875,-0.089111328125,0.766998291015625,0.30755615234375
1757088851944283000,11.214282958984375,-0.1305389404296875,0.8170166015625,0.2550201416015625
1757088851954236700,11.224236572265625,-0.1300811767578125,0.8585662841796875,0.17974853515625
1757088851964191700,11.234191650390626,-0.068389892578125,0.9092864990234375,0.11029052734375
1757088851974146600,11.244146484375,0.0255279541015625,0.966064453125,0.0634307861328125
1757088851984102000,11.254101806640625,0.066864013671875,0.993133544921875,0.036956787109375
1757088851994056700,11.264056640625,0.1169891357421875,1.0127410888671875,0.07763671875
1757088852004010800,11.2740107421875,0.131195068359375,0.996917724609375,0.0872955322265625
1757088852013965600,11.283965576171875,0.1217041015625,0.9742584228515625,0.129547119140625
1757088852023921000,11.2939208984375,0.1099700927734375,0.9600677490234375,0.166748046875
1757088852033875700,11.303875732421876,0.098907470703125,0.9480438232421875,0.17236328125
1757088852043829800,11.313829833984375,0.0804595947265625,0.9365234375,0.1912078857421875
1757088852053784600,11.32378466796875,0.0680694580078125,0.9366607666015625,0.1720428466796875
1757088852063740000,11.333739990234376,0.0572357177734375,0.941619873046875,0.16937255859375
1757088852073694700,11.34369482421875,0.0581207275390625,0.9354705810546875,0.1422576904296875
1757088852083649500,11.3536494140625,0.06915283203125,0.9363555908203125,0.094970703125
1757088852093603600,11.363603515625,0.067718505859375,0.92596435546875,0.0856475830078125
1757088852103558700,11.37355859375,0.064971923828125,0.918304443359375,0.0753326416015625
1757088852113513700,11.383513671875,0.0574188232421875,0.8922119140625,0.085540771484375
1757088852123468500,11.393468505859374,0.051544189453125,0.880401611328125,0.0845794677734375
1757088852133424000,11.403424072265626,0.0568084716796875,0.8766937255859375,0.0705108642578125
1757088852143379000,11.41337890625,0.0389251708984375,0.8384552001953125,0.082183837890625
1757088852153334000,11.423333984375,0.0423583984375,0.8447265625,0.0821075439453125
1757088852163289000,11.4332890625,0.08111572265625,0.9122772216796875,0.062164306640625
1757088852173244000,11.443243896484375,0.083251953125,0.9871063232421875,0.04351806640625
1757088852183198000,11.453197998046875,0.0204925537109375,1.028045654296875,0.0336151123046875
1757088852193153000,11.463153076171874,-0.048858642578125,1.05810546875,0.0411529541015625
1757088852203108000,11.473108154296876,-0.0299072265625,1.1325836181640625,0.0297698974609375
1757088852213063000,11.48306298828125,-0.0168304443359375,1.12615966796875,0.0491485595703125
1757088852223017000,11.493016845703124,-0.0521240234375,1.0819854736328125,0.078887939453125
1757088852232972000,11.502971923828126,-0.0627288818359375,1.0650177001953125,0.0740966796875
1757088852242927000,11.512927001953125,-0.0930938720703125,1.0596771240234375,0.0455780029296875
1757088852252882000,11.5228818359375,-0.10919189453125,1.0492095947265625,0.0397491455078125
1757088852262837000,11.5328369140625,-0.0458221435546875,1.1308135986328125,0.0087432861328125
1757088852272790800,11.542790771484375,0.0094757080078125,1.1744537353515625,0.035369873046875
1757088852282746000,11.55274609375,0.0560760498046875,1.1773681640625,0.105560302734375
1757088852292701000,11.562700927734374,0.0796356201171875,1.16656494140625,0.161651611328125
1757088852302656000,11.572656005859375,0.08514404296875,1.1638946533203125,0.19195556640625
1757088852312610800,11.58261083984375,0.156097412109375,1.2060546875,0.2148895263671875
1757088852322565000,11.592565185546874,0.2328948974609375,1.250732421875,0.215606689453125
1757088852332520000,11.60252001953125,0.2042083740234375,1.2379608154296875,0.181427001953125
1757088852342475000,11.61247509765625,0.1735382080078125,1.2161712646484375,0.0994720458984375
1757088852352429800,11.622429931640625,0.1839141845703125,1.2393798828125,0.0297088623046875
1757088852362384100,11.632384033203126,0.174774169921875,1.2366180419921875,0.0186920166015625
1757088852372339000,11.6423388671875,0.193359375,1.2216033935546875,0.03302001953125
1757088852382294000,11.6522939453125,0.1859130859375,1.1953582763671875,0.068359375
1757088852392248800,11.662248779296876,0.163543701171875,1.1108551025390625,0.1237945556640625
1757088852402204200,11.6722041015625,0.121063232421875,1.0069580078125,0.122314453125
1757088852412158000,11.682157958984375,0.063385009765625,0.9710693359375,0.1005096435546875
1757088852422113000,11.692113037109374,0.018096923828125,0.947265625,0.113250732421875
1757088852432067800,11.70206787109375,0.0384979248046875,0.9851226806640625,0.161956787109375
1757088852442023000,11.71202294921875,0.1143951416015625,1.07647705078125,0.22564697265625
1757088852451977000,11.72197705078125,0.19244384765625,1.1596221923828125,0.3199615478515625
1757088852461932000,11.73193212890625,0.2052764892578125,1.2524261474609375,0.392181396484375
1757088852471886800,11.741886962890625,0.1744537353515625,1.3238372802734375,0.4396209716796875
1757088852481842000,11.751842041015625,0.1165924072265625,1.339569091796875,0.4531707763671875
1757088852491797000,11.761796875,0.0361328125,1.3182220458984375,0.4100189208984375
1757088852501751000,11.7717509765625,-0.0371246337890625,1.30194091796875,0.3575592041015625
1757088852511705900,11.781705810546875,-0.04315185546875,1.2861175537109375,0.34552001953125
1757088852521661000,11.791660888671874,0.023223876953125,1.2235565185546875,0.3130340576171875
1757088852531616000,11.801615966796875,0.0847625732421875,1.1561279296875,0.219512939453125
1757088852541570800,11.81157080078125,0.126800537109375,1.1078948974609375,0.084686279296875
1757088852551524900,11.82152490234375,0.1525421142578125,1.0723876953125,0.0139007568359375
1757088852561480000,11.83147998046875,0.1384429931640625,1.0038604736328125,0.0839996337890625
1757088852571435000,11.84143505859375,0.221038818359375,0.9373321533203125,0.0913848876953125
1757088852581389800,11.851389892578124,0.1883392333984375,0.89788818359375,0.1131439208984375
1757088852591343900,11.86134375,0.109161376953125,0.9135589599609375,0.161346435546875
1757088852601299000,11.871298828125,0.0528717041015625,0.9130859375,0.1607208251953125
1757088852611254000,11.88125390625,0.0325927734375,0.89678955078125,0.1883087158203125
1757088852621208800,11.891208740234376,0.03515625,0.8736419677734375,0.2125244140625
1757088852631164200,11.9011640625,0.033416748046875,0.87353515625,0.23193359375
1757088852641118000,11.911117919921875,0.0508270263671875,0.8613128662109375,0.26092529296875
1757088852651073000,11.921072998046874,0.0573577880859375,0.8365020751953125,0.27398681640625
1757088852661027800,11.93102783203125,0.0482177734375,0.783477783203125,0.2752685546875
1757088852670983200,11.940983154296875,0.067657470703125,0.7260894775390625,0.2727508544921875
1757088852680937000,11.95093701171875,0.0995025634765625,0.674835205078125,0.25872802734375
1757088852690892000,11.96089208984375,0.159576416015625,0.63214111328125,0.2321929931640625
1757088852700846800,11.970846923828125,0.20758056640625,0.6062774658203125,0.1684112548828125
1757088852710802200,11.98080224609375,0.2222747802734375,0.5850372314453125,0.1032867431640625
1757088852720757000,11.990757080078126,0.2407684326171875,0.57122802734375,0.078338623046875
1757088852730711000,12.0007109375,0.22698974609375,0.4923858642578125,0.0740203857421875
1757088852740665900,12.010665771484375,0.16278076171875,0.4879150390625,0.094970703125
1757088852750621200,12.02062109375,0.185943603515625,0.52337646484375,0.1493682861328125
1757088852760576000,12.030575927734375,0.226409912109375,0.5317230224609375,0.1662445068359375
1757088852770530000,12.040530029296875,0.2403411865234375,0.552764892578125,0.1789398193359375
1757088852780484900,12.05048486328125,0.2581787109375,0.54803466796875,0.1515960693359375
1757088852790440200,12.060440185546875,0.271240234375,0.5398101806640625,0.1546783447265625
1757088852800395000,12.07039501953125,0.2941436767578125,0.5340576171875,0.1518402099609375
1757088852810349800,12.080349853515624,0.3200531005859375,0.5427398681640625,0.1200103759765625
1757088852820304000,12.090303955078125,0.34759521484375,0.569854736328125,0.122344970703125
1757088852830259200,12.10025927734375,0.369049072265625,0.6223907470703125,0.1361236572265625
1757088852840214000,12.110214111328125,0.38372802734375,0.6872711181640625,0.1405487060546875
1757088852850168800,12.1201689453125,0.41656494140625,0.7816009521484375,0.1257171630859375
1757088852860123000,12.130122802734375,0.55987548828125,0.9420623779296875,0.0933837890625
1757088852870078200,12.140078125,0.7537689208984375,1.1480712890625,0.0493927001953125
1757088852880033000,12.150032958984376,0.9322052001953125,1.3207550048828125,-0.021026611328125
1757088852889987800,12.15998779296875,1.0182647705078125,1.47637939453125,-0.1063232421875
1757088852899943000,12.16994287109375,0.9380035400390625,1.7158355712890625,-0.280548095703125
1757088852909897200,12.179897216796874,0.7508087158203125,1.8947296142578125,-0.3319549560546875
1757088852919852000,12.18985205078125,0.648284912109375,1.6723480224609375,-0.37750244140625
1757088852929806800,12.199806884765625,0.6865997314453125,1.3390655517578125,-0.3050384521484375
1757088852939762000,12.209761962890624,0.7584381103515625,1.05047607421875,-0.2408599853515625
1757088852949717000,12.219717041015626,0.789947509765625,0.901763916015625,-0.2140350341796875
1757088852959671000,12.229671142578125,0.6468505859375,0.9104156494140625,-0.151153564453125
1757088852969625900,12.2396259765625,0.3442230224609375,0.89544677734375,-0.045440673828125
1757088852979581000,12.249580810546876,0.2884674072265625,0.7836456298828125,0.0696563720703125
1757088852989536000,12.259535888671875,0.2798614501953125,0.7687835693359375,0.208099365234375
1757088852999490000,12.269489990234375,0.148681640625,0.8065032958984375,0.1879425048828125
1757088853009444900,12.27944482421875,0.0234832763671875,0.8459930419921875,0.2008514404296875
1757088853019400000,12.28939990234375,-0.0392913818359375,0.8730316162109375,0.3053741455078125
1757088853029355000,12.29935498046875,-0.0349273681640625,0.9294281005859375,0.4346466064453125
1757088853039310000,12.30931005859375,0.05108642578125,1.0655975341796875,0.54107666015625
1757088853049263900,12.319263916015625,0.2495269775390625,1.29180908203125,0.5657501220703125
1757088853059219000,12.329218994140625,0.4405670166015625,1.536956787109375,0.5036773681640625
1757088853069174000,12.339174072265624,0.4578704833984375,1.6533050537109375,0.36920166015625
1757088853079129000,12.349129150390626,0.3992462158203125,1.4720001220703125,0.27587890625
1757088853089083000,12.359082763671875,0.3651885986328125,1.0886688232421875,0.1938934326171875
1757088853099038000,12.369037841796874,0.2631072998046875,0.835784912109375,0.17529296875
1757088853108993000,12.378992919921876,0.13427734375,0.7238922119140625,0.216583251953125
1757088853118948000,12.388947998046875,0.00201416015625,0.6402740478515625,0.222869873046875
1757088853128903000,12.39890283203125,-0.1180419921875,0.60772705078125,0.2347869873046875
1757088853138856400,12.4088564453125,-0.2225799560546875,0.635498046875,0.2621002197265625
1757088853148811300,12.418811279296875,-0.2975921630859375,0.7134246826171875,0.283538818359375
1757088853158766300,12.428766357421875,-0.3504638671875,0.7976226806640625,0.2592315673828125
1757088853168721400,12.438721435546874,-0.37384033203125,0.910552978515625,0.210205078125
1757088853178676500,12.448676513671876,-0.3296661376953125,1.060791015625,0.17236328125
1757088853188630300,12.45863037109375,-0.217315673828125,1.166839599609375,0.1552581787109375
1757088853198585300,12.46858544921875,-0.0205841064453125,1.213043212890625,0.1406707763671875
1757088853208540400,12.47854052734375,0.276214599609375,1.2186431884765625,0.1320953369140625
1757088853218495500,12.48849560546875,0.481475830078125,1.147552490234375,0.18017578125
1757088853228450300,12.4984501953125,0.39501953125,1.013763427734375,0.252410888671875
1757088853238404400,12.508404296875,0.2392425537109375,0.91729736328125,0.27734375
1757088853248359400,12.518359375,0.14361572265625,0.8689727783203125,0.2478790283203125
1757088853258314500,12.528314453125,0.0598297119140625,0.848663330078125,0.213623046875
1757088853268269300,12.538269287109374,0.0142974853515625,0.844390869140625,0.1838836669921875
1757088853278223400,12.548223388671875,-0.0211029052734375,0.8625640869140625,0.1628570556640625
1757088853288178400,12.558178466796875,-0.042694091796875,0.8742828369140625,0.1243438720703125
1757088853298133200,12.56813330078125,-0.0371551513671875,0.92120361328125,0.0632476806640625
1757088853308088300,12.57808837890625,0.0096435546875,0.9663238525390625,0.025299072265625
1757088853318043400,12.58804345703125,0.0749969482421875,0.97711181640625,-0.0251617431640625
1757088853327997400,12.59799755859375,0.1160736083984375,0.959259033203125,-0.044891357421875
1757088853337952300,12.6079521484375,0.127349853515625,0.9398040771484375,-0.0274200439453125
1757088853347907300,12.6179072265625,0.126251220703125,0.9420318603515625,-0.003997802734375
1757088853357862400,12.6278623046875,0.1118621826171875,0.9455718994140625,0.0225982666015625
1757088853367817500,12.6378173828125,0.0926971435546875,0.9546661376953125,0.0632171630859375
1757088853377771300,12.647771240234375,0.1044769287109375,0.9525146484375,0.1066436767578125
1757088853387726300,12.657726318359375,0.1135711669921875,0.929229736328125,0.1374664306640625
1757088853397681400,12.667681396484374,0.1118316650390625,0.8922882080078125,0.15643310546875
1757088853407636500,12.677636474609375,0.09521484375,0.8644561767578125,0.1598663330078125
1757088853417591300,12.68759130859375,0.07366943359375,0.849609375,0.145904541015625
1757088853427545300,12.69754541015625,0.0594940185546875,0.8484344482421875,0.115814208984375
1757088853437500400,12.70750048828125,0.0777130126953125,0.8811492919921875,0.088470458984375
1757088853447455500,12.71745556640625,0.1160430908203125,0.9309539794921875,0.0693359375
1757088853457410300,12.727410400390625,0.1399688720703125,0.976776123046875,0.079742431640625
1757088853467365400,12.737365478515626,0.1559906005859375,1.00238037109375,0.09912109375
1757088853477319400,12.7473193359375,0.16082763671875,1.02880859375,0.09039306640625
1757088853487274500,12.7572744140625,0.1392974853515625,1.0461883544921875,0.074859619140625
1757088853497229300,12.767229248046876,0.060089111328125,1.0383453369140625,0.0690765380859375
1757088853507184400,12.777184326171875,0.00128173828125,1.05621337890625,0.039459228515625
1757088853517139500,12.787139404296875,-0.040740966796875,1.07757568359375,0.0131072998046875
1757088853527093500,12.797093505859374,-0.07098388671875,1.0625762939453125,0.0168304443359375
1757088853537048300,12.80704833984375,-0.0472564697265625,1.043487548828125,0.0428619384765625
1757088853547003400,12.81700341796875,-0.022064208984375,1.023468017578125,0.0850067138671875
1757088853556958500,12.82695849609375,0.0064849853515625,1.0066070556640625,0.1234283447265625
1757088853566913300,12.836913330078126,0.0150909423828125,0.994232177734375,0.16107177734375
1757088853576867300,12.846867431640625,0.01287841796875,1.0074920654296875,0.190765380859375
1757088853586822100,12.856822265625,0.012664794921875,1.0364227294921875,0.1928558349609375
1757088853596777500,12.866777587890626,0.0009307861328125,1.05780029296875,0.1751708984375
1757088853606732300,12.876732177734375,-0.0079193115234375,1.066436767578125,0.1419830322265625
1757088853616687400,12.886687255859375,0.019195556640625,1.081207275390625,0.1287689208984375
1757088853626641200,12.89664111328125,0.0738983154296875,1.1171417236328125,0.15350341796875
1757088853636596500,12.906596435546875,0.125823974609375,1.1539459228515625,0.1805419921875
1757088853646551300,12.91655126953125,0.1572418212890625,1.1928863525390625,0.19757080078125
1757088853656506400,12.92650634765625,0.1581268310546875,1.2061920166015625,0.189453125
1757088853666461400,12.93646142578125,0.151092529296875,1.20050048828125,0.1584320068359375
1757088853676415500,12.94641552734375,0.1512451171875,1.206207275390625,0.1076507568359375
1757088853686370300,12.956370361328124,0.152618408203125,1.23431396484375,0.0690765380859375
1757088853696325400,12.966325439453126,0.148345947265625,1.238433837890625,0.0538330078125
1757088853706280400,12.976280517578125,0.1251373291015625,1.2253875732421875,0.0295257568359375
1757088853716235500,12.986235595703125,0.0903472900390625,1.173675537109375,0.00213623046875
