time,seconds_elapsed,z,y,x
1757088840751351800,0.021351806640625,-0.2602034263253212,0.6021775194950402,-1.0531633376561105
1757088840761307000,0.031306884765625,-0.060199324896931646,0.22275895407199858,-1.2460717817351221
1757088840771261700,0.04126171875,0.1509802505403757,0.09027794455736875,-1.2448106757581234
1757088840781215700,0.0512158203125,0.34488428152799605,0.4494911956891417,-1.005044472783804
1757088840791170800,0.0611708984375,0.6770166335105896,2.0452305477060375,-1.0560188732177018
1757088840801126000,0.0711259765625,0.5652922885596752,2.995499912598729,-0.746666216059029
1757088840811080700,0.081080810546875,0.21338439200520515,2.131683965539187,-0.05915361523628235
1757088840821035500,0.091035400390625,0.4408540079861879,1.5756182088777422,0.012426643113791942
1757088840830989800,0.10098974609375,0.06247369956970215,1.1504992379009722,0.15277970117777584
1757088840840944600,0.110944580078125,-0.6718313398271799,0.29386195029914375,-0.5536071114629507
1757088840850899700,0.120899658203125,-1.248822834008932,0.07284107206612825,-1.426595229884982
1757088840860854500,0.1308544921875,-1.7764970473140478,1.0747697509169578,-1.541942149247229
1757088840870809900,0.140809814453125,-1.2203063490986823,1.6764074644468723,-2.1754913969531655
1757088840880763600,0.150763671875,-0.7949070998758078,2.0860506338723,-1.7694059200093148
1757088840890718700,0.16071875,-0.8492787415325641,3.1224948919177056,0.9019871261522173
1757088840900673500,0.170673583984375,-0.6374567765384912,3.789466516754031,3.518897179237008
1757088840910628900,0.18062890625,-1.5466192011475561,1.6311190006949006,2.990386222846806
1757088840920583700,0.190583740234375,-1.7719050433486698,0.5509196259446442,1.9368650116637347
1757088840930538800,0.200538818359375,-1.1602286047548056,0.14192133029401302,1.9121984801799057
1757088840940492500,0.210492431640625,-0.9366261855959892,-0.49075055005550383,1.19085316786021
1757088840950447900,0.22044775390625,-0.10235679714679717,-1.0142828412503004,-0.866243028075993
1757088840960402700,0.230402587890625,0.6619412294536828,-1.5070295335590838,-2.388455517719686
1757088840970357800,0.240357666015625,1.117646185091138,-1.7641402545660734,-2.3407389500379563
1757088840980312800,0.250312744140625,1.548624695751071,-1.5538134965658188,-1.2563365706399083
1757088840990267000,0.260266845703125,1.6711767241865396,-0.7562012293845415,0.2547024908214807
1757088841000221700,0.2702216796875,1.3382692961782217,0.226572082619369,1.510813143751025
1757088841010176800,0.2801767578125,0.2592980019181967,0.7608344421431422,2.2542548448055983
1757088841020131800,0.2901318359375,-1.3512071036845446,0.8296662785679102,3.16871099190861
1757088841030086700,0.300086669921875,-1.939576316449046,1.610856110997498,3.351757528795302
1757088841040040700,0.310040771484375,-0.5252437712877989,2.5074910624668,2.141952992227673
1757088841049995800,0.319995849609375,2.4077386025995016,2.534121587499976,-0.6212561678439379
1757088841059950800,0.329950927734375,4.434318664240837,1.4995079058825969,-2.9390280837923286
1757088841069905700,0.33990576171875,4.752570959430932,0.19133008884638547,-2.609624279990792
1757088841079860700,0.34986083984375,4.257300301602482,-0.05335194322019815,-0.3792772572562098
1757088841089814800,0.359814697265625,3.06808408729434,-0.09354542192071676,3.437485847224295
1757088841099769900,0.369769775390625,1.8174784615218638,-1.1795683882579207,6.914796924358606
1757088841109724700,0.379724609375,1.3411124106496572,-0.5180597050026059,5.132789004668593
1757088841119679700,0.3896796875,1.4765654217123985,0.8801920584514736,0.7443620307698845
1757088841129634800,0.399634765625,0.8831675671309233,0.4405848356559872,-1.5661828565344214
1757088841139590000,0.40958984375,0.6357604940146208,0.14427169281244276,-1.5633634151995182
1757088841149544000,0.4195439453125,1.3282371469855307,0.44456995976939795,-0.7772510316759348
1757088841159499000,0.4294990234375,1.9925790078401564,0.46699368076249953,-0.24013269819915292
1757088841169453800,0.439453857421875,2.4634254185080526,-0.10723828557804226,-0.40067163520157334
1757088841179409000,0.449408935546875,2.3531313986212012,-0.7741311460897325,-1.0558312416911124
1757088841189364000,0.459364013671875,2.0455659171402454,-1.1906249120622872,-1.54560505566895
1757088841199318000,0.469318115234375,1.8570020781368015,-1.272685940155387,-2.0410615914583206
1757088841209272800,0.47927294921875,1.4504793788194656,-1.1085627149254083,-2.481612817105651
1757088841219228000,0.489227783203125,0.6410942562580109,-0.9325420580875128,-2.842608275479078
1757088841229183000,0.499182861328125,-0.39369653549194333,-1.076076741862297,-2.6840672342956067
1757088841239137800,0.5091376953125,-1.0928145261734723,-1.2782264770172536,-2.6508868492275477
1757088841249091800,0.519091796875,-1.3674994823157787,-1.2163755855210125,-3.024623131230473
1757088841259047000,0.529046875,-1.3428899417161941,-0.9414249641798436,-3.020981559857726
1757088841269002000,0.539001953125,-0.9519394900619983,-0.6516781210493297,-2.5867238813966513
1757088841278956800,0.548956787109375,0.10310323159992694,-0.4470235269339755,-2.213708314883709
1757088841288912000,0.558911865234375,1.1654746887147427,-0.10199326106403023,-1.6953981422513722
1757088841298867000,0.568866943359375,1.6794412791848181,0.13046481085401027,-1.2238567350566387
1757088841308821000,0.578821044921875,1.158981819564104,0.11798921403195708,-0.7074778227478266
1757088841318775800,0.58877587890625,-0.02948620672523975,0.26059564051330086,-0.18895546866953372
1757088841328731000,0.59873095703125,-1.1173398956209422,0.9375627357937395,0.04662964922785759
1757088841338686000,0.60868603515625,-1.9317653504371641,1.5147016756221652,-0.8091139044046401
1757088841348641000,0.61864111328125,-1.9759446839034556,1.1596093768779188,-2.9167314963102338
1757088841358594800,0.6285947265625,-1.677103191626072,0.17768223337456582,-4.879277769458294
1757088841368550000,0.6385498046875,-1.184739361155033,-0.7359542679086327,-5.909363744518161
1757088841378505000,0.6485048828125,-0.6010954233467578,-1.1221483188159762,-5.836953757345676
1757088841388460000,0.6584599609375,-0.09070435327589511,-0.9783251004233956,-5.11481612560451
1757088841398414800,0.668414794921875,0.2615536718904972,-0.6488093606799841,-3.970116513893008
1757088841408369000,0.678368896484375,0.594506108084321,-0.255623405058682,-2.508189273864031
1757088841418324000,0.688323974609375,0.90820205514431,-0.04736497776508331,-1.1772142263472078
1757088841428279000,0.698279052734375,0.7414262695789336,-0.09061492142677306,-0.3129045044213533
1757088841438233900,0.70823388671875,-0.26968320233225823,0.09836012872606516,0.1608054789841175
1757088841448188700,0.718188720703125,-1.4193541727155445,0.3206292534545064,0.4962456403404474
1757088841458143000,0.72814306640625,-1.870754124635458,0.4468576323151588,0.6623094782441854
1757088841468098000,0.73809814453125,-1.8832137932360171,0.5365484246343374,0.7681202152371406
1757088841478052900,0.748052978515625,-1.8800684809476136,0.3955383639663458,0.8005114957541227
1757088841488007700,0.758007568359375,-1.5006407093048095,0.2682461552664637,0.8493056295394897
1757088841497963000,0.767962890625,-0.926574162659049,0.04103986639678478,1.0376964500635861
1757088841507917800,0.777917724609375,-0.7322977912276983,-0.3407785997748375,0.4581996950626373
1757088841517871900,0.787871826171875,-0.37127895197868344,-0.12234656899124383,-1.2796657160401343
1757088841527826700,0.79782666015625,0.1839373482465744,-0.37057694118916984,-2.4626421591758727
1757088841537782000,0.807781982421875,0.322364406684041,-0.9590914076432585,-3.029042116716504
1757088841547736800,0.81773681640625,0.06254910289347171,-1.3221981590822338,-3.053250090777874
1757088841557692000,0.82769189453125,-0.4943938749939203,-1.1289882478386164,-2.4199732302725314
1757088841567645700,0.837645751953125,-0.8742331500470638,-0.7060565577730537,-1.5770149239331483
1757088841577601000,0.84760107421875,-1.2127496501088142,-0.21420739882588385,-0.8866413807213306
1757088841587555800,0.857555908203125,-1.4317290856420992,0.16612550496309994,-0.5212532403469086
1757088841597511000,0.867510986328125,-1.4400620297014712,0.32648207113593813,-0.3247182763338089
1757088841607466000,0.877466064453125,-1.153202067118883,0.11959610123932361,0.056605099797248835
1757088841617420000,0.887419921875,-0.71946344409585,-0.10620996544361114,0.4274848233252764
1757088841627374800,0.897374755859375,-0.3492787170946598,-0.08402472938150167,0.4272954382330179
1757088841637330000,0.907329833984375,-0.07841127341389656,-0.030760172183811663,0.31275778942704197
1757088841647285000,0.917284912109375,0.1666132884800434,-0.055176528298854825,0.31297581609189506
1757088841657239800,0.92723974609375,0.4074269546806812,-0.04188070113509893,0.4262532357037067
1757088841667193900,0.93719384765625,0.7146072362363338,-0.012016893269121646,0.6021867257148027
1757088841677149000,0.94714892578125,1.0961299343317747,-0.1504246624842286,0.6178139184355735
1757088841687104000,0.95710400390625,1.3194763329029082,-0.28519758232831954,0.5659019448906183
1757088841697058800,0.967058837890625,1.4287199669539927,-0.2419888474598527,0.6662894877910613
1757088841707014000,0.977013916015625,1.3978326612591743,-0.09243424580842256,0.9324737420916557
1757088841716968000,0.986968017578125,1.2164070035725831,0.08019640326499938,1.2614064212501048
1757088841726923000,0.996923095703125,0.9747451961100101,0.31778380089551206,1.5270447321057319
1757088841736877800,1.0068779296875,0.6054653089940547,0.5070478971228003,1.6532430080890654
1757088841746833000,1.0168330078125,0.22329262255728244,0.6715338181853294,1.703639900895953
1757088841756787700,1.02678759765625,-0.10014964249134063,0.7410039525136352,1.8165671918958424
1757088841766743000,1.036742919921875,-0.20900456948578355,0.7101607782214879,1.9084148699879646
1757088841776696800,1.04669677734375,-0.27049218062758446,0.7193243278861046,1.9817969170629977
1757088841786652000,1.05665185546875,-0.45972179006338115,0.8731444780275225,2.104047916725278
1757088841796606700,1.066606689453125,-0.78971829906106,1.1758160499870776,2.427996962252259
1757088841806562000,1.07656201171875,-1.0237234542906284,1.7179492890164254,3.01849383469522
1757088841816516900,1.086516845703125,-1.0366145000457763,2.0593056886792183,3.7629227932214735
1757088841826471000,1.096470947265625,-1.2925848188459872,2.1702914902225134,4.18188470287323
1757088841836425700,1.10642578125,-1.4605805015951394,2.1831021642178294,3.564567043522
1757088841846381000,1.116381103515625,-1.3169564590364693,1.5341814521178603,2.348561606487632
1757088841856336000,1.1263359375,-1.4363298574358223,0.9439648579210043,1.180004149326682
1757088841866290700,1.136290771484375,-1.1918974162161349,0.18174159176796673,-0.20291911209225652
1757088841876244700,1.14624462890625,-0.7515484351426363,-0.5090910933881998,-1.2510586302369833
1757088841886200000,1.156199951171875,-0.43034255084395406,-0.7996572170123457,-1.8248457754194736
1757088841896155000,1.16615478515625,-0.2249152553230524,-1.1244789537206292,-2.2952204769223927
1757088841906109700,1.176109619140625,-0.1770826600462198,-1.3206766486033796,-2.7095611565142868
1757088841916065000,1.18606494140625,-0.2329372337371111,-1.2845403363391756,-2.850808533069491
1757088841926019000,1.19601904296875,-0.05443535454273223,-1.2256617386519908,-2.7989012356996534
1757088841935974000,1.205973876953125,0.22178397156000135,-1.136021799737215,-2.4662656103700398
1757088841945928700,1.2159287109375,0.3516998067617416,-0.9792600431859493,-2.1963708111137152
1757088841955884000,1.225884033203125,0.49483635806441306,-0.6692375239416957,-1.7826660913377999
1757088841965838800,1.2358388671875,0.578353430184722,-0.18477263002693653,-0.8644611130952835
1757088841975793000,1.24579296875,0.4268856883883476,0.24659195734113454,0.1706879905730486
1757088841985747700,1.255747802734375,0.18398060286641119,0.709341863054037,1.1054314311623572
1757088841995703000,1.265703125,-0.20711481021642683,1.259410863518715,1.57136084369421
1757088842005657900,1.275657958984375,-0.6202899531602859,1.5803244868725537,1.4165607426047324
1757088842015613000,1.285613037109375,-0.9490028520882129,1.486066825029254,0.8567413324981927
1757088842025567700,1.295567626953125,-0.7532675140202045,1.2063152331471443,0.11874153023660182
1757088842035522000,1.30552197265625,-0.3642793023496866,0.5934329258948564,-0.5077496156513691
1757088842045476900,1.315476806640625,-0.07460135973691939,-0.3579395779341459,-1.2036425068065524
1757088842055432000,1.325431884765625,-0.057523968207836146,-0.9163274939328432,-1.9322031573325393
1757088842065386800,1.33538671875,-0.0011123451560735701,-0.9516133268475532,-2.761724766732752
1757088842075341800,1.345341796875,2.77473710078001,-1.1797381918668746,-4.532953518255055
1757088842085295900,1.3552958984375,6.0925832998841996,-1.9088064996540546,-5.268290531048178
1757088842095251000,1.3652509765625,5.151758493554592,-1.9117332007557153,-3.620096330781281
1757088842105205800,1.375205810546875,3.6610692694216964,-1.4602262813299893,-1.6284136872589587
1757088842115160800,1.385160888671875,2.1405554003894327,-0.4367074097007513,-0.9079846130013466
1757088842125116200,1.3951162109375,0.3961386679470539,0.6588523235276341,0.10141396333873272
1757088842135071000,1.405071044921875,-1.3915320998102425,1.0600775009587406,1.3677473195970058
1757088842145025000,1.41502490234375,-2.329353632670641,1.4095859351560474,1.834021015521884
1757088842154980000,1.42497998046875,-2.16318341178298,1.3922265118151902,1.8920663772553203
1757088842164935200,1.43493505859375,-1.502725114363432,0.9607225159764289,1.5213924054324626
1757088842174890000,1.444889892578125,0.17191373297572135,0.2833689055964351,0.5172983652412891
1757088842184845300,1.45484521484375,1.419211549374461,-0.5221165791779756,0.033553894555568696
1757088842194799000,1.464799072265625,2.211680023926496,-0.867867414407432,-0.2898907085806131
1757088842204754200,1.474754150390625,2.107572583720088,-0.8417430853307246,-0.7149293077975512
1757088842214709000,1.484708984375,1.609940457457304,-0.779960290634632,-0.6552005230218172
1757088842224664300,1.494664306640625,0.7609598220884799,-0.7218520927980542,-0.12494389200806617
1757088842234619100,1.504619140625,-0.012801029384136199,-0.515327065168321,0.4423357709765434
1757088842244573200,1.5145732421875,-0.5485509971171617,-0.37489363534450526,0.8889595945358276
1757088842254528000,1.524528076171875,-0.9302420375168323,-0.4131345186725259,1.1326222204267977
1757088842264483300,1.5344833984375,-1.3904875591933727,-0.11765870343595743,0.9616688569158315
1757088842274438100,1.544438232421875,-1.3540227456271647,0.08998656039535999,0.4115478340029716
1757088842284393000,1.55439306640625,-0.8635632874727248,0.013975333860516548,-0.1700502771914005
1757088842294348000,1.56434814453125,-0.09543839606046677,-0.201064424136281,-0.8146697849661111
1757088842304302000,1.574302001953125,0.40353403889536854,-0.2733084070920944,-1.1678496011525392
1757088842314257200,1.584257080078125,0.9111772715628147,-0.15946750837862492,-0.7920026106059551
1757088842324212000,1.5942119140625,1.1026970377624035,-0.04649111754000187,-0.17138357162177562
1757088842334167000,1.6041669921875,0.865123960918188,0.0820820708811283,0.3860521582186222
1757088842344122000,1.6141220703125,0.705173637458682,0.23585078309625385,0.7436369313657283
1757088842354076200,1.624076171875,0.24839316154420374,0.18583529082238673,0.9286696736335753
1757088842364031000,1.634031005859375,-0.01972644473314285,0.28473931716680523,1.1485966191500425
1757088842373986000,1.643986083984375,0.10496025764346122,0.36278584892153737,1.0334832162827252
1757088842383941000,1.653941162109375,-0.013217208969593048,0.2701601721942425,0.7355033092707395
1757088842393896200,1.663896240234375,-0.0485942272990942,0.049662733313441274,-0.27931027785539625
1757088842403850000,1.67385009765625,-0.025475802040100096,-0.20777298186421392,-1.603454018047452
1757088842413805000,1.68380517578125,-0.8397013503700494,-0.38927871904969213,-1.7079291225224733
1757088842423760100,1.693760009765625,-1.5160300016164778,-0.29990766020417214,-1.0984048935264348
1757088842433715200,1.703715087890625,-1.5884037484318017,-0.009912906727194786,-0.722751379725337
1757088842443670000,1.713669921875,-1.2092729139089584,-0.008442834174633025,-0.41280280250012874
1757088842453625000,1.723625,-0.6539128212988377,-0.1336269646793604,-0.5229764108777046
1757088842463579100,1.7335791015625,-0.050606736165285104,0.19105857842862606,-1.1196978569239378
1757088842473534200,1.7435341796875,-0.31475510072410107,0.3231576028883457,-1.4965373656392096
1757088842483489000,1.753489013671875,1.1473901659697294,0.7114701072543859,-0.851996183797717
1757088842493444000,1.763444091796875,2.1197885066926476,0.3031500031262636,-0.3717699503660202
1757088842503399200,1.773399169921875,1.1587053407102823,-0.07886544692218303,-0.058575523087382314
1757088842513353200,1.783353271484375,1.1303916848957538,0.1605348453491926,0.14238076449930667
1757088842523308000,1.79330810546875,0.9465466911077499,0.3814765208661556,0.2983621843278408
1757088842533263000,1.80326318359375,0.5463029259294271,0.4152057719886303,0.6321984176188707
1757088842543218200,1.81321826171875,0.4303659317195415,0.3598778525203466,1.044490932509303
1757088842553173000,1.823173095703125,0.3973761007875204,0.22918577224910258,1.284905370259285
1757088842563127000,1.833126953125,0.21471242573857305,0.14918693738281727,1.1482342155784369
1757088842573082000,1.84308203125,-0.09189736245274543,0.13897475544810295,0.6662514938682317
1757088842583037200,1.853037109375,-0.04649170206189155,0.06965922715961932,0.3836591256022453
1757088842592992000,1.862991943359375,-0.022500585621595383,-0.013588380369544028,0.16938333771526812
1757088842602947000,1.872947021484375,0.14346563712656496,-0.041866964870691296,0.020424363869428634
1757088842612901000,1.882901123046875,0.11989128479361534,-0.16726561490893363,-0.19067104041576385
1757088842622856200,1.892856201171875,0.18565934973359108,-0.3056424044638872,-0.20309213057160377
1757088842632811000,1.90281103515625,0.15605506958663462,-0.4149743013203144,-0.06271218450069427
1757088842642766000,1.91276611328125,0.2035305219888687,-0.5938257246047258,0.009833996272087097
1757088842652721200,1.92272119140625,0.24922844332456587,-0.7835112611144781,-0.07017126833498477
1757088842662676000,1.932676025390625,0.2590565943777561,-0.830531955486536,-0.1926467244029045
1757088842672630000,1.942630126953125,0.1493675546467304,-0.5975391921699047,-0.38774376456737514
1757088842682585000,1.952585205078125,-0.12928805869221688,-0.13460486980080605,-0.4850386021494865
1757088842692540200,1.9625400390625,-0.5206868386358022,0.30859950070381165,-0.48455286445915696
1757088842702495000,1.972494873046875,-0.9785749835312366,0.5926496665626764,-0.4462596664220094
1757088842712450000,1.982449951171875,-1.306235158535838,0.6873714387863874,-0.5016618201702833
1757088842722404000,1.992404052734375,-1.3218921618729829,0.6050824471563101,-0.6339432154595852
1757088842732359200,2.002359130859375,-1.1989981881320475,0.470348982539773,-0.6998118181645869
1757088842742314000,2.01231396484375,-0.9395376891285181,0.3567822245925665,-0.5718038624107837
1757088842752269000,2.02226904296875,-0.08048457255661487,0.1047474916756153,-0.4320183751016855
1757088842762224000,2.03222412109375,0.406246804985404,-0.02571311792731285,-0.16912147190868854
1757088842772179200,2.04217919921875,0.2831552628457546,-0.008807575833797454,0.022773557344079015
1757088842782133000,2.052133056640625,0.10139233602881431,0.03532558040320873,0.2714835297524929
1757088842792088000,2.062088134765625,-0.0251619137853384,0.02566694069802761,0.5132914676874876
1757088842802043100,2.072043212890625,-0.05372574496865272,-0.05462123250365257,0.5727689080506563
1757088842811998200,2.081998291015625,0.2005541365265846,-0.19978256763219832,0.576408141335845
1757088842821953000,2.091953125,0.5701917510390281,-0.3637567397803068,0.8607932382375001
1757088842831907000,2.101906982421875,0.5507260030686855,-0.3632441140830517,0.9799731598913669
1757088842841862100,2.111862060546875,0.4842512511640787,-0.30187632992863656,0.9622422728896141
1757088842851817200,2.121817138671875,0.2861301870033145,-0.37067338730096816,0.9956079513967037
1757088842861772000,2.13177197265625,-0.2252379114061594,-0.4009042749136686,0.7460989375650883
1757088842871727000,2.14172705078125,-0.4342530022859573,-0.3749935885876417,0.5829343282341957
1757088842881681200,2.15168115234375,-0.2413084639802575,-0.5576075792759656,0.8855296200871468
1757088842891636200,2.16163623046875,-0.4977262342870235,-0.6978630221843719,0.8531652275770902
1757088842901591000,2.171591064453125,-0.6604752485543489,-0.7333242116659879,0.48945992572307584
1757088842911546000,2.181546142578125,-0.8469459146708249,-0.8143617419302464,0.21078619220554828
1757088842921501200,2.191501220703125,-0.7225064650535583,-0.8740583780020474,0.060383449292182916
1757088842931456000,2.2014560546875,-0.6443436134427786,-0.8403431554049253,-0.008308394140005112
1757088842941410000,2.21141015625,-0.6995531672284007,-0.6385059933304786,-0.4721107315152883
1757088842951365000,2.221365234375,-0.7381260589897632,-0.4993652336657047,-1.0185919366210698
1757088842961320200,2.2313203125,-0.6985624026253819,-0.3203735251277685,-1.4491525141298771
1757088842971275000,2.24127490234375,0.1602121892660856,-0.1988946788817644,-1.1079863763421773
1757088842981230000,2.25122998046875,0.8032870979472995,-0.33375732283592224,-0.6918447848081588
1757088842991184000,2.261183837890625,1.0561581355579197,-0.5432213265269994,-0.5420031829088926
1757088843001139200,2.27113916015625,1.2625450698912144,-0.8115858474761247,-0.2144885538548231
1757088843011094000,2.281093994140625,-2.0830647499293087,2.8320313518851994,-1.872184449699521
1757088843021049000,2.291049072265625,-3.079402769166231,1.3439414965957401,-0.49688335372209547
1757088843031004200,2.301004150390625,0.7993880446821451,-0.6556184561729431,0.5662076498389244
1757088843040958200,2.310958251953125,0.6366466291993856,1.538473304092884,-0.9048340400159358
1757088843050913000,2.3209130859375,0.6627291649609803,1.2557944265872238,-0.27164719588160513
1757088843060868000,2.3308681640625,1.1040830852933228,0.9230839824557304,0.684295100080967
1757088843070823200,2.3408232421875,-0.4276118107058108,0.48851943000257014,2.2353297795832154
1757088843080778200,2.3507783203125,-1.2091145084768533,-2.237591294774413,3.0981787813067436
1757088843090733000,2.360733154296875,3.630664778807759,-3.0572306848466395,2.581610483905673
1757088843100687000,2.37068701171875,-0.04890979605428874,1.904963852751255,0.13909575147926806
1757088843110642200,2.38064208984375,-2.038534118807316,1.3429694366931915,-4.080812684839963
1757088843120597200,2.39059716796875,-3.3382138643503185,-0.8051070068508386,-2.0762486401736737
1757088843130551600,2.400551513671875,-4.020082614067197,0.1350467683494091,-0.3274550078213215
1757088843140506600,2.410506591796875,-0.7397177120953797,0.9789403097122907,-0.512718051713705
1757088843150460400,2.42046044921875,0.6788122847557068,0.39970600503981113,0.7528747153103351
1757088843160415500,2.43041552734375,0.4757295795995742,-0.308462722581625,1.3002981697022915
1757088843170370600,2.44037060546875,0.9312561099302024,-0.7617705539494752,0.40917175252139565
1757088843180325600,2.45032568359375,0.9696790718268603,-1.6141063449651003,0.5038225053355098
1757088843190280400,2.460280517578125,1.463110312333703,-2.506737321490049,1.2659662765115498
1757088843200234500,2.470234375,1.7049135740935801,-3.0225773046165703,0.943780733525753
1757088843210189600,2.480189453125,0.9121008892137557,-3.893534209471941,0.7063090712293982
1757088843220144400,2.490144287109375,0.3370540262937546,-4.8887739120781415,0.36912761916369197
1757088843230099500,2.500099365234375,-0.3962439549524337,-5.654293004906177,-0.3831435772955417
1757088843240054300,2.51005419921875,-0.15797405495047567,-5.2422804760009045,-0.4003638844266534
1757088843250009600,2.520009521484375,1.4651257438093424,-4.009529655870795,-0.15995938354879616
1757088843259963400,2.52996337890625,1.2312070978194474,-3.891659063249826,-0.6129065649107098
1757088843269918500,2.53991845703125,0.5193032753229141,-3.09866977969408,-1.2127151633173228
1757088843279873300,2.549873291015625,0.43778292997777457,-1.6580080305337905,-1.0484545754432677
1757088843289828600,2.55982861328125,0.32312081454191355,0.018380290821194648,-0.618434096160531
1757088843299783400,2.569783447265625,-0.025080062454473227,4.308430184859037,-0.048263680170476435
1757088843309737500,2.579737548828125,1.560377677386999,6.7080550391077995,1.1693369171008468
1757088843319692300,2.5896923828125,0.17426526453793048,-0.6746949125647544,-2.7729925952002406
1757088843329647600,2.599647705078125,-3.2303988017976284,-1.577383172723651,-6.190502406844496
1757088843339602400,2.6096025390625,-1.2568670242547988,5.89205722040832,-1.9477850496068596
1757088843349557500,2.6195576171875,-0.8835855002820491,7.732788547223806,1.5740592889979481
1757088843359511300,2.62951123046875,0.4912590840995311,7.39570061866045,0.6113762866035104
1757088843369466600,2.639466552734375,1.3774720102757214,6.844804519721865,-0.532427545312047
1757088843379421400,2.64942138671875,1.2569798369795084,6.035723933064937,-0.08285130168795585
1757088843389376500,2.65937646484375,-0.3133949182868004,4.002338283061981,1.7959955285102127
1757088843399331600,2.66933154296875,-2.1561726562380787,-0.22388766584098338,0.32515900583863255
1757088843409286400,2.679286376953125,-0.9349111983716487,-4.559316916784644,0.8395625264212488
1757088843419240400,2.689240478515625,-0.45879123121500015,-1.3699182338953018,-0.23658932650387285
1757088843429195500,2.699195556640625,-0.16330957075953484,-0.5560433986991643,0.12379998266994953
1757088843439150600,2.709150634765625,0.4461854686746374,-0.054665071645379065,-0.22128654343187806
1757088843449105400,2.71910546875,0.5750608549127355,-0.005424363136291504,-1.095101760327816
1757088843459060500,2.729060546875,0.09076919867303222,-0.01259703124463558,-0.6758049196332693
1757088843469014500,2.7390146484375,0.05226444024443626,0.2992114946335554,0.042642625418305394
1757088843478969600,2.748969482421875,0.26319851648807524,-1.0133850156277417,-0.655021659323573
1757088843488924400,2.75892431640625,0.29356793578863144,-0.686939477109909,0.11987491818070412
1757088843498879500,2.76887939453125,-0.3663584467113018,-0.17608838831186294,0.7746326658710837
1757088843508834300,2.778834228515625,-0.3378127357065677,-0.06497253064811229,0.5700009046420454
1757088843518788600,2.78878857421875,-0.11378299451377243,0.4882148940980434,0.17413228580802678
1757088843528743400,2.798743408203125,0.31756957362294197,0.9687935942292213,-0.006866086377203464
1757088843538698500,2.808698486328125,0.4722001633644104,-0.4254483490616083,0.8864937889441847
1757088843548653300,2.8186533203125,0.11165190076921135,-2.89411634439826,1.5959966877788305
1757088843558608600,2.828608642578125,-0.6586135463356971,-4.016823320010304,1.3797995764404534
1757088843568562400,2.8385625,-1.082843167257309,-3.2332483460098502,0.9434010865584015
1757088843578517500,2.848517578125,-1.1345570609468967,-2.3487340404450894,1.3805512715905903
1757088843588472300,2.858472412109375,-0.599146700431779,-3.4701772797316313,2.2955948631927368
1757088843598427600,2.868427734375,0.21699556823968885,-4.638931720769405,2.3842583582907912
1757088843608382500,2.878382568359375,0.49031924596615134,-5.37983425873518,2.3168793510228394
1757088843618337300,2.888337158203125,0.30972295177578923,-4.474656519848108,2.1690295074626804
1757088843628291300,2.898291259765625,0.29527707779407497,-1.9033155010223388,0.21679215462207793
1757088843638246700,2.90824658203125,0.626593437218666,0.711177261787653,-0.6975763141974807
1757088843648201500,2.918201416015625,1.2579846301078796,3.520260284283757,-1.4235489940568804
1757088843658156300,2.92815625,1.2485925323843956,4.257074091631174,-0.7036030271410941
1757088843668111600,2.938111572265625,0.3124864982049912,4.766540448072552,0.5268368856981397
1757088843678065700,2.948065673828125,-0.9602746991436928,4.658831183981895,0.9712284201607108
1757088843688020500,2.9580205078125,-1.1504910545945166,3.4293104318141934,1.6457333631113171
1757088843697975300,2.967975341796875,-0.5365408989150077,1.045434935361147,1.5874235052227974
1757088843707930600,2.9779306640625,0.6950339362382888,-0.1607785909771919,0.8063600756518542
1757088843717885400,2.987885498046875,1.3139058392941951,-2.112572583964467,1.0827744859352708
1757088843727839500,2.997839599609375,1.3174141396760939,-3.285105374497175,1.227981413771212
1757088843737794300,3.007794189453125,0.8707167394239455,-1.5874936478495596,-0.653452364180237
1757088843747749600,3.01774951171875,0.3344026350021362,-4.0490187856942415,-0.6354666256345808
1757088843757704400,3.027704345703125,0.6956558675289154,-3.0409979274481533,-0.8726981955647468
1757088843767659500,3.037659423828125,-0.400133290541172,-0.5683230345577002,-0.8370860533051192
1757088843777614300,3.0476142578125,-0.26610950856395066,0.2927320694863796,0.3077339699156582
1757088843787568600,3.057568603515625,0.7201789719540626,1.399476336812973,0.15317600701898335
1757088843797523500,3.0675234375,-0.11626600696854293,0.9250625890523194,0.26121099593266844
1757088843807478500,3.077478515625,-2.1821710208475587,-1.9242939916431903,1.183870177105069
1757088843817433300,3.087433349609375,-0.33113055452890694,-5.405758389064669,-0.03743753105588257
1757088843827388400,3.097388427734375,0.8789302218221128,-5.5238627904415125,-0.6000348083779216
1757088843837342500,3.107342529296875,-1.5532675531208515,-0.8962930061638354,-3.063643474498391
1757088843847297500,3.117297607421875,-2.8350469003140923,5.333836477670073,-0.4346656016748398
1757088843857252400,3.12725244140625,0.3290810015879571,12.44870764608383,4.887171445317566
1757088843867207400,3.13720751953125,2.316024195498228,10.402527980959414,6.449162110859155
1757088843877162500,3.14716259765625,2.094329071265459,4.046729797974229,2.6629852833002805
1757088843887116500,3.157116455078125,1.4326046994328498,2.7132436444193124,0.12247045109923928
1757088843897071400,3.1670712890625,1.2144235746704042,3.410833694881201,-1.4237372101053594
1757088843907026400,3.1770263671875,0.7518389425218105,3.886469093391299,-4.07123354011178
1757088843916981500,3.1869814453125,0.2061937498487532,3.51383872680366,-6.594532120302319
1757088843926936300,3.196936279296875,-0.2239385192453861,2.281016595003009,-7.221640521305799
1757088843936890400,3.206890380859375,-0.11630801947936414,2.3325737637609243,-5.720947205030917
1757088843946845400,3.216845458984375,0.11001637198925018,1.9791782589972018,-3.0632360627412796
1757088843956800500,3.226800537109375,0.6295604703307152,0.8328589371293783,-0.3073569532968104
1757088843966755300,3.23675537109375,1.1224318119324743,0.3049573448091745,0.9130247991256415
1757088843976710700,3.246710693359375,0.7476108034327625,0.032839608806371684,1.212184271311015
1757088843986665500,3.25666552734375,0.20366510815396904,0.1118932717770338,1.0990420223861932
1757088843996619500,3.26661962890625,0.2452105859853327,0.41741234212219713,0.4071884697496891
1757088844006574300,3.27657421875,0.35906244448423386,0.7365601248472928,-0.26722061161100863
1757088844016529700,3.28652978515625,0.16688684472441673,1.0077157378196715,-0.6249145442210138
1757088844026484500,3.296484375,-0.05520590052381157,0.5988076046705245,-0.6229468974098563
1757088844036439300,3.306439208984375,-0.16782324879169463,0.040537762093544004,-0.3105836602583527
1757088844046393300,3.316393310546875,-0.18195450386628506,-0.61634735301435,0.03915682912915945
1757088844056348700,3.3263486328125,0.04755670094490051,-1.14640057041049,0.3149722506061196
1757088844066303500,3.336303466796875,0.15482245905175804,-1.4484750532597304,0.36999943356215953
1757088844076258300,3.34625830078125,0.09913725057840346,-1.2639455843389034,0.3305935981079936
1757088844086213600,3.356213623046875,0.050860418665409086,-1.058420673662424,0.29029797420725223
1757088844096167700,3.366167724609375,0.39679654733389613,-1.4149679204553365,0.2302417110428214
1757088844106122500,3.37612255859375,0.6131539638005197,-1.1341934152662754,0.726735919316858
1757088844116077300,3.386077392578125,0.34578239941149946,-1.1209288600236176,0.9645281918697058
1757088844126032400,3.396032470703125,0.11715250747948884,-1.4718454074531793,0.6601281886823475
1757088844135987200,3.4059873046875,-0.04255991557091474,-1.6178589754968882,0.4008623354680836
1757088844145941200,3.415941162109375,0.04175006049275398,-1.2979846320629118,-0.037442134165763856
1757088844155896300,3.425896240234375,0.012726064451783895,-0.7799737346380948,-0.13013210830092428
1757088844165851400,3.435851318359375,0.02284063123092055,-0.2065291192829609,-0.14012173352614044
1757088844175806200,3.44580615234375,0.04760843113213777,-0.18684066847264766,0.22261647686138747
1757088844185761500,3.455761474609375,-0.1655737162992358,-0.7500204949229955,0.8782966000936925
1757088844195715300,3.46571533203125,-0.22272359049767254,-0.6875310132622718,1.3290521166302263
1757088844205670400,3.47567041015625,-0.11279402000904083,-0.6299959391385317,1.2502594426833094
1757088844215625200,3.485625244140625,0.14086305341273545,-0.9039367989152669,1.3155480535432695
1757088844225580500,3.49558056640625,0.42364305320531126,-0.5740104325443506,1.2982500050008297
1757088844235535400,3.505535400390625,0.33877456647604703,0.08007540723383426,0.7754074496358633
1757088844245490400,3.515490478515625,0.09717471833378076,0.2817056485593319,0.14431202482283115
1757088844255444200,3.5254443359375,-0.08093728476017713,0.5451876581639051,-0.06040814534202218
1757088844265399600,3.535399658203125,-0.1190802606716752,0.717519908812642,-0.10061828291639685
1757088844275354400,3.545354248046875,-0.14067103797197342,0.32809213668107984,0.24315569928213954
1757088844285309400,3.555309326171875,-0.42882279393076894,0.11622107184827327,0.6184992703512311
1757088844295264300,3.56526416015625,-0.6441501366972923,0.2270101817756891,0.7798910247907042
1757088844305218600,3.575218505859375,-0.7368740131020546,0.09155600166916847,0.8023141612619161
1757088844315173400,3.58517333984375,-0.4834127545133233,0.0823351688593626,0.7976156281821429
1757088844325128200,3.595128173828125,0.02194996600151062,0.3385170845836401,0.6515545677348971
1757088844335083300,3.605083251953125,0.2477671386003494,0.07288520346879959,0.5012428641058504
1757088844345038300,3.615038330078125,0.3390741339445114,-0.3949059112817049,0.5821380632899701
1757088844354992400,3.624992431640625,0.5181609734199941,-0.5299748914629221,0.362386474340409
1757088844364947200,3.634947265625,0.5183784155629575,-0.4873837039709091,-0.05717004020363092
1757088844374902300,3.64490234375,0.37756738459840417,-0.4367056561350822,-0.386766736228764
1757088844384857300,3.654857421875,0.2685444075606763,-0.20106091700494289,-0.7046537052378058
1757088844394812400,3.6648125,0.11115253641232847,0.023966566520929336,-0.8220528809547424
1757088844404766200,3.67476611328125,-0.016395985136181117,0.35859248888492584,-0.8997187428288161
1757088844414721300,3.68472119140625,-0.12558920417428016,0.5317664510548115,-0.9586727438397705
1757088844424676400,3.69467626953125,-0.23787600531354544,0.4317793056488037,-0.7344387487791478
1757088844434631400,3.70463134765625,-0.3537364271558821,0.07614274396002292,-0.3366162193983793
1757088844444586200,3.714586181640625,-0.3252982681788504,-0.11670213336348532,0.01948839819356799
1757088844454540300,3.724540283203125,-0.29980946052670476,0.07372633046805858,-0.01631122946217656
1757088844464495400,3.734495361328125,-0.3908757789827883,0.2622638659864664,-0.3711328215062618
1757088844474450400,3.744450439453125,-0.5482255645550788,0.19393325708210468,-0.1403220784038305
1757088844484405200,3.7544052734375,-0.3095626466475427,0.2869692681759596,-0.08299012563675641
1757088844494360300,3.7643603515625,-0.23632322291359303,0.602643237310648,-0.1552799935609102
1757088844504315400,3.7743154296875,-0.22502236895933747,0.5476835666328669,-0.09184767809212208
1757088844514269400,3.78426953125,-0.18284560748711226,0.028666122514009473,0.12117021868824958
1757088844524224300,3.794224365234375,-0.04565583575963974,0.05375438654124737,0.2678752761274576
1757088844534179300,3.804179443359375,-0.23275194029808044,0.3591302490234375,-0.0736968121126294
1757088844544134400,3.814134521484375,-0.46403775356635446,0.2713648718088865,-0.2679040638305247
1757088844554089200,3.824089111328125,-0.55907297565341,0.2549900755912065,-0.29529943575635553
1757088844564043300,3.834043212890625,-0.5715912425734102,0.16698621344566345,-0.009427315167337656
1757088844573998300,3.843998291015625,-0.47852819734215735,0.19255203185677527,0.31030308975130316
1757088844583953400,3.853953369140625,-0.5178127445042133,0.24109482122957704,0.013244681498408318
1757088844593908200,3.863908203125,-0.5846598368525505,0.11383972966969012,-0.25166809156164527
1757088844603863300,3.87386328125,-0.5981951718606054,0.1438046598225832,-0.3465905009239912
1757088844613817300,3.8838173828125,-0.5723847310386597,0.26730361371934414,-0.5555222974345088
1757088844623772400,3.8937724609375,-0.48295872713550925,0.46285599643588066,-0.9817683727450668
1757088844633727200,3.903727294921875,-0.5344096590399742,0.7654869441241026,-1.3635777788273988
1757088844643682300,3.913682373046875,-0.5105646730720996,1.2499375172525644,-1.586920524136722
1757088844653637400,3.923637451171875,-0.5388312018092721,1.6850357381910084,-1.3353088389374315
1757088844663591400,3.93359130859375,-0.706994496210292,1.8554764760047195,-0.6946366074837744
1757088844673546200,3.943546142578125,-0.9248691853720694,1.4475959323376417,-0.5128820101037621
1757088844683501300,3.953501220703125,-0.9226667068917304,1.0818524026542902,-0.5765916812092066
1757088844693456400,3.963456298828125,-0.8243770861186087,1.1586550718277693,-0.494571569648385
1757088844703411500,3.973411376953125,-0.8123018867909908,1.1638602392554283,-0.6206048643283546
1757088844713366300,3.9833662109375,-0.7921427497290074,1.1122329278707503,-0.6942983154401182
1757088844723320300,3.9933203125,-0.5429131373606622,1.0462047506898642,-0.6527953615762293
1757088844733275400,4.003275390625,-0.0006441431224346161,0.6319324601590633,-0.7005928855396807
1757088844743230500,4.01323046875,0.472678302270174,0.1927899322658777,-0.36199922858849165
1757088844753185300,4.023185302734375,0.5693257087942213,-0.22919278651177882,0.05843421492055058
1757088844763140400,4.033140380859375,0.5210322180073708,-0.9329992272704839,0.4305640846401453
1757088844773094400,4.043094482421875,0.019705475010350346,-2.134247824677825,1.700239006411284
1757088844783049500,4.053049560546875,-0.26500585817098615,-4.776321252852678,2.0319585398092865
1757088844793004300,4.06300439453125,0.4863396748106926,-3.9423961477965115,0.051896045323461294
1757088844802959400,4.07295947265625,0.6261573838889598,-1.138174009335041,-0.32467706754058595
1757088844812914400,4.08291455078125,0.46507476846389467,0.022711598023772237,-0.7738036677010357
1757088844822868200,4.0928681640625,0.353938452534005,-0.0962035352140665,-0.7863209117077291
1757088844832823300,4.1028232421875,0.23054127851128578,0.44254093815982337,-0.5104540523044765
1757088844842778400,4.1127783203125,0.5000887986999005,1.349727094259858,-0.9196279967829585
1757088844852733400,4.1227333984375,0.8411820173818617,1.3070885604947804,-1.2785833276309073
1757088844862688300,4.132688232421875,0.8262859884798526,1.359535371568799,-0.43580578468590975
1757088844872642300,4.142642333984375,0.5690017375368625,0.9795587338715791,0.16005027670264244
1757088844882597400,4.152597412109375,0.4567956004183739,0.14087386706769467,0.4463943987175822
1757088844892552400,4.162552490234375,0.38024420259222386,-0.13315291742682456,0.8426607846975326
1757088844902507300,4.17250732421875,0.19707849630527197,-0.18536942687630653,0.8470242406040429
1757088844912462300,4.18246240234375,-0.005834770568087697,0.009473930788040161,0.6218681622624397
1757088844922416400,4.19241650390625,-0.32983510789088905,0.5479781656652689,0.5466837419405579
1757088844932371500,4.202371337890625,-0.5038297387938946,0.21073533880114553,0.27134748228266836
1757088844942326300,4.212326171875,-0.45479770459942515,-0.08631693197190761,0.4659187450073659
1757088844952281300,4.22228125,-0.4095592905342579,0.21202537861168383,0.6202141114450991
1757088844962236400,4.232236328125,-0.41392106594033534,-0.02946925559043884,0.3646075113907456
1757088844972190500,4.2421904296875,-0.41324769672341644,-0.0526069700717926,0.3173622144825756
1757088844982145300,4.252145263671875,-0.6144377200007438,-0.09499766655564308,0.1263315469741821
1757088844992100400,4.262100341796875,-0.8989712854623794,-0.48746319894790646,-0.2465485565908253
1757088845002055400,4.272055419921875,-1.079788528927043,0.8082464739203452,0.11306553042680025
1757088845012010200,4.28201025390625,-0.8392940116781741,0.6598907266646623,-0.049139732352644204
1757088845021964300,4.29196435546875,-0.4703168703684583,-0.9256389276355504,-0.10195537673905491
1757088845031919400,4.30191943359375,0.06482928625252098,-1.9586656323224305,0.11556918381080031
1757088845041874400,4.31187451171875,0.5226385572254657,-0.35424656863510606,0.5709171427041292
1757088845051829200,4.321829345703125,0.7994892400342971,0.2927987049818039,0.23151260776147245
1757088845061784300,4.331784423828125,0.3497124323368072,0.1696983950138092,-0.31856399148777126
1757088845071738400,4.34173828125,0.09856321355011313,0.3740215286850929,-0.4433776812449097
1757088845081693400,4.351693359375,0.2759528571862727,0.2950771713078022,-0.8166064521171152
1757088845091648300,4.361648193359375,0.43759175478722895,0.3953413800895214,-0.974419763547927
1757088845101603300,4.371603271484375,0.40142625296115875,0.2908715363115072,-1.0819307285875082
1757088845111558400,4.381558349609375,0.2246796564688906,0.09458382505774497,-1.1075370251394807
1757088845121513500,4.391513427734375,0.10579261681437492,0.1145686284661293,-0.8497888830117881
1757088845131467300,4.40146728515625,-0.1200491057038307,-0.09639350482821464,-0.6174700734339654
1757088845141422300,4.41142236328125,-0.1789479424614459,-0.25409575709998605,-0.27096345140114425
1757088845151377400,4.42137744140625,-0.1649614296197891,-0.3086065149664879,0.04250555503517389
1757088845161332500,4.43133251953125,-0.1780336771607399,-0.3937590793341398,0.27731866564676166
1757088845171287300,4.441287353515625,-0.1381704898605123,-0.39201837314665317,0.41848318622410297
1757088845181241300,4.451241455078125,-0.009532419509626924,-0.3062093906968832,0.48570568775609135
1757088845191196400,4.461196533203125,0.0863256267350167,-0.22470190483331678,0.5030662801407277
1757088845201151500,4.4711513671875,0.17858078964948654,-0.07307283499538898,0.5150098159126937
1757088845211106300,4.481106201171875,0.21673487147688864,0.004907645785808563,0.5124269598126411
1757088845221061000,4.49106103515625,0.2311597757358104,-0.014305588728189468,0.4221269495539367
1757088845231015400,4.501015380859375,0.23692549965567886,0.02972644522190094,0.35260420825555916
1757088845240970500,4.510970458984375,0.16708434005789458,0.00860123960673809,0.3314437851965427
1757088845250925300,4.52092529296875,0.11033548440840095,-0.008836217406392097,0.32792467115968466
1757088845260880100,4.530880126953125,0.1783948751559481,-0.14788462261259555,0.31230610013678667
1757088845270835500,4.54083544921875,0.1268120970327407,-0.22025135516524313,0.38621947760954495
1757088845280789200,4.550789306640625,-0.15291677156090736,-0.17855916233956812,0.12154445882812141
1757088845290744300,4.560744384765625,-0.12897596053574234,-0.2140606838315725,-0.24925138580873607
1757088845300699100,4.57069921875,-0.10151391658186912,-0.16835808632075785,-0.24832959478870031
1757088845310654500,4.580654541015625,-0.24473350652549414,0.06093289986848831,-0.29130452090129255
1757088845320609300,4.590609375,-0.21085100107006727,0.13477671923637388,-0.6778355486780404
1757088845330563300,4.600563232421875,-0.23933358371071517,0.3278933992385864,-0.7899703741259873
1757088845340518100,4.61051806640625,-0.002699249021336436,0.216793908187747,-0.3094963034130633
1757088845350473500,4.620473388671875,0.009081132078170776,-0.08509878835380077,0.2640544026650488
1757088845360428300,4.63042822265625,-0.19529219741038978,-0.30065117204785347,0.1719505578547716
1757088845370383400,4.64038330078125,-0.07106492923907935,-0.44700025565624235,-0.06759279614910484
1757088845380338400,4.65033837890625,-0.4878104780156165,0.07314823831915855,-0.4475480987973511
1757088845390292500,4.66029248046875,-1.0305214438676833,-0.04109071980118751,-0.787565797202289
1757088845400247300,4.670247314453125,-0.6652841101408005,0.1965893245488405,0.5269602198168635
1757088845410202400,4.680202392578125,0.4180453793287277,0.45333647294044493,0.34963834418728945
1757088845420157400,4.690157470703125,0.6895102043807506,0.3249778040528297,0.4095880782373249
1757088845430112300,4.7001123046875,-0.02780563322715461,0.5392284574985504,0.32548604583591223
1757088845440066300,4.71006640625,-0.21020583503432572,-0.059738137125968926,0.3780900932982564
1757088845450021400,4.720021484375,-0.17466807318516075,-0.23804010983407495,0.6275920928671955
1757088845459976400,4.7299765625,-0.1088695400416851,0.08576455878615379,0.2957005639031529
1757088845469931300,4.73993115234375,-0.09243165199253707,0.2534305711895227,-0.19680267503857612
1757088845479886300,4.74988623046875,0.003037175738811493,0.38746611666977404,-0.49299204537197944
1757088845489840400,4.75984033203125,0.20196400332450865,0.5592711285740137,-0.7857208999879658
1757088845499795500,4.76979541015625,0.4581026644289493,0.4888257194727659,-1.0429210528440773
1757088845509750300,4.779750244140625,0.46115737582445143,0.17890929095149039,-1.1505727415286005
1757088845519705300,4.789705322265625,0.1228114830892533,-0.16055062744021414,-1.1006031342230738
1757088845529660400,4.799660400390625,0.004667991811037064,-0.27520751871168614,-1.0260101039230822
1757088845539614500,4.809614501953125,0.3434088752131909,-0.13152443944215775,-0.8724613180689513
1757088845549569300,4.8195693359375,0.47439321642927823,0.07074000813364982,-0.7313961662128567
1757088845559524400,4.8295244140625,0.53829672960639,0.0860123960673809,-0.6846320769503712
1757088845569479200,4.839479248046875,0.48079961287286127,0.0881166748702526,-0.5048401579454541
1757088845579434500,4.8494345703125,0.4792635989446193,-0.04733107549548149,-0.31524317650198935
1757088845589388300,4.85938818359375,0.41707974916696544,0.12525836478471755,0.14404051440507173
1757088845599343400,4.86934326171875,0.31899463798999783,0.21432605676949024,0.32809754350855946
1757088845609298200,4.879298095703125,0.19992402192950248,0.051281274425983424,0.19937676331028342
1757088845619253500,4.88925341796875,0.026891477524302897,0.003433481580018997,0.20807342611551283
1757088845629208300,4.899208251953125,-0.05380644552204757,-0.04771159924566745,0.24249869667813181
1757088845639162400,4.909162353515625,0.337666568701528,-0.21745324887931344,0.06804448543936013
1757088845649117200,4.9191171875,0.4603085769753903,-0.34024376224577424,-0.1455856980204582
1757088845659072500,4.929072509765625,0.4922936147790402,-0.3023363486558199,-0.3341182651028037
1757088845669027300,4.93902734375,0.5072118555128574,-0.1625356637775898,-0.49196518654227256
1757088845678982100,4.948982177734375,0.4195206395130604,-0.01806289543509483,-0.5626758224509656
1757088845688936200,4.958936279296875,0.4153833935778588,0.07952595665752887,-0.6042267071098089
1757088845698891500,4.9688916015625,0.27859595557358113,0.07390811677575111,-0.4359175744973123
1757088845708846300,4.978846435546875,0.2014741739809513,0.07813245647251606,-0.36643662651404735
1757088845718801200,4.98880126953125,-0.04965524412672966,0.0052069209933280946,-0.15690803315415977
1757088845728756500,4.998756591796875,-0.306038125783205,-0.19052900159657,0.02935205895155668
1757088845738710500,5.00871044921875,-0.4291290103357285,-0.29913433774411674,0.30762159558236596
1757088845748665300,5.018665283203125,-0.4486720978586003,-0.3164852855175733,0.5035125626035034
1757088845758620200,5.0286201171875,-0.10416874193958937,-0.4009142117857933,0.9271186447992921
1757088845768575500,5.038575439453125,-0.09516250172853469,-0.44956279962062834,1.5239944046244025
1757088845778530300,5.0485302734375,-0.49408692793659864,-0.27265666518509385,1.4969975304968655
1757088845788484400,5.058484375,-0.35726672017388045,0.02532499539256096,1.5444212527118621
1757088845798439200,5.068439208984375,-0.2661889304757118,0.6948030500918626,0.36703269271105526
1757088845808394500,5.07839453125,-0.25029578029513355,0.4902759182810783,-1.6153718348562716
1757088845818349300,5.088349365234375,-0.004288052582740783,-0.07075169857144355,-0.6998397290848195
1757088845828304400,5.098304443359375,0.23720482805371282,-0.3233580938965082,1.3180816636741162
1757088845838258200,5.108258056640625,0.35902616759445516,-0.0468383235424757,0.8171114790298044
1757088845848213500,5.118213623046875,0.05362170007228851,0.12189502583146095,0.09359744436889886
1757088845858168300,5.128168212890625,-0.2560942374408245,0.1514905381500721,-0.14692600671350955
1757088845868123400,5.138123291015625,-0.4510089067757129,0.12139409057199954,-0.12930574047937987
1757088845878078500,5.148078369140625,-0.46465866194367406,-0.08953647854030132,0.026677725175768136
1757088845888032500,5.158032470703125,-0.07454411312434822,-0.09112696260213851,-0.2109375833749771
1757088845897987300,5.1679873046875,-0.211068552810885,-0.1982721630692482,-0.13635259025096894
1757088845907942400,5.1779423828125,-0.34561259580254555,-0.23152970502674577,0.07662935843318701
1757088845917897500,5.1878974609375,-0.17381226007342337,-0.10122574729025363,0.021605828738957642
1757088845927852300,5.197852294921875,-0.2804816962549463,0.06946341232657433,-0.08491510234996676
1757088845937806300,5.207806396484375,-0.30532153847906734,0.13680793280303477,-0.22825638244450092
1757088845947761400,5.217761474609375,-0.23067334392573682,0.09371990170478821,-0.239977799898386
1757088845957716200,5.22771630859375,-0.37769696579482404,0.009617138651013374,-0.00033829204365611076
1757088845967671300,5.23767138671875,-0.4327157097160816,-0.019110358661413192,0.13776844839826224
1757088845977626400,5.24762646484375,-0.4315876555342227,0.018324176719784736,0.12173457457274198
1757088845987580400,5.257580322265625,-0.550104071778059,-0.0013584288716316222,0.20004341052547095
1757088845997535200,5.26753515625,-0.5240110146224498,-0.044372810211777684,0.2768497329607606
1757088846007490300,5.277490234375,-0.4758533886423334,-0.08517536072134971,0.3757875154443085
1757088846017445400,5.2874453125,-0.4591723760196939,-0.08232698555290699,0.42693800309747454
1757088846027400200,5.297400146484375,-0.4613584513545036,-0.11005728852152824,0.4613508525699377
1757088846037354200,5.307354248046875,-0.4116611947169527,-0.09786942259967327,0.43592561167329547
1757088846047309300,5.317309326171875,-0.3317196795284748,-0.0483674328058958,0.46748248719274993
1757088846057264400,5.327264404296875,-0.272781131814979,0.044267011749744414,0.48338849685490126
1757088846067219200,5.33721923828125,-0.27113519123885776,0.04343874423205852,0.42931116196960206
1757088846077174500,5.347174560546875,-0.29722704281806944,-0.018191490250825882,0.3499409803956747
1757088846087128300,5.35712841796875,-0.2526572487294674,-0.0613777210265398,0.2543973703950643
1757088846097083400,5.36708349609375,-0.15819029151704161,-0.04677461065649986,0.14693492067232727
1757088846107038200,5.3770380859375,-0.09722001878023147,-0.004465162715315819,-0.0005645020149648189
1757088846116993500,5.38699365234375,-0.103026659232378,0.013207856619358062,-0.14941197831034658
1757088846126948400,5.3969482421875,-0.09592585078384727,0.017759528574347493,-0.2544784728072583
1757088846136903700,5.406903564453125,-0.08142273018956184,0.029663316857814787,-0.3390307331942022
1757088846146857700,5.416857666015625,-0.03918050226569175,0.047458501267433166,-0.3804017312414944
1757088846156812800,5.426812744140625,-0.03680146164204925,0.10616904891133308,-0.4014484647929668
1757088846166767900,5.436767822265625,0.01799037818815559,0.1801116524785757,-0.3840487094417214
1757088846176722700,5.44672265625,0.093371526658535,0.18571604835689068,-0.35316374183446164
1757088846186678000,5.456677978515625,0.08007949888706206,0.17410919719338416,-0.26708587931543587
1757088846196631800,5.4666318359375,0.07097378035690635,0.16136135930120943,-0.170670454916358
1757088846206587000,5.4765869140625,0.036270752298831935,0.12584580928385258,-0.05401259908601641
1757088846216541700,5.486541748046875,0.01516600494980812,0.0998112043172121,0.03613324352428317
1757088846226497000,5.4964970703125,0.03167874833345413,0.06717325556278228,0.14139716028943658
1757088846236451800,5.506451904296875,0.04386018451452255,0.03902326587736606,0.1968573278352618
1757088846246406000,5.516406005859375,0.01891984105799347,0.035679216146469114,0.21478052253872154
1757088846256360700,5.526360595703125,0.012894589419104157,-0.015337854385375976,0.19684505287557838
1757088846266316000,5.53631591796875,-0.007777721329405903,-0.03285129924416542,0.18108093590214847
1757088846276270800,5.546270751953125,-0.04274725483655929,-0.05260521650612354,0.1675616752460599
1757088846286226000,5.556225830078125,-0.07224814767427742,-0.08429682432115078,0.15023060121685267
1757088846296179700,5.5661796875,-0.11207388904094695,-0.09661445410251616,0.16088804270103574
1757088846306135000,5.576135009765625,-0.17050028598122297,-0.08897475300431251,0.17784385367706418
1757088846316089900,5.58608984375,-0.18955803767256438,-0.11512684687077998,0.20178075571209192
1757088846326044700,5.596044677734375,-0.1707271535396576,-0.11994856793880462,0.22116262479126453
1757088846335999700,5.605999755859375,-0.21606036974880843,-0.08944003242850303,0.2511968207880855
1757088846345954000,5.6159541015625,-0.2296550702612847,-0.07615501891970634,0.25997838539779183
1757088846355908900,5.625908935546875,-0.2083143221992999,-0.03683364687860012,0.2682784501008689
1757088846365863700,5.63586376953125,-0.22415479234457014,-0.031174890464544296,0.2525553957901895
1757088846375818800,5.64581884765625,-0.2429997050028294,-0.040431963631510734,0.20894553277492522
1757088846385773800,5.65577392578125,-0.26207155828475953,-0.06153145028352737,0.22213819182515143
1757088846395728000,5.665727783203125,-0.22349070241264998,-0.08934241727292537,0.22872721482664346
1757088846405682700,5.6756826171875,-0.18613635612819343,-0.1366752463340759,0.19756898323595523
1757088846415637800,5.6856376953125,-0.12949497944116592,-0.13897943162322043,0.1305013800047338
1757088846425592800,5.6955927734375,-0.08563822899274527,-0.12522153990566728,0.013520721960812805
1757088846435548000,5.7055478515625,-0.07434771376941353,-0.09831190567016601,-0.0764842508740723
1757088846445501700,5.715501708984375,-0.047393034815788264,-0.06339665963351726,-0.1726965539164841
1757088846455456800,5.725456787109375,0.012674772655963897,-0.011699205622076988,-0.26747166376262904
1757088846465411800,5.735411865234375,0.0823696556508541,0.040698505613207814,-0.32986221509352326
1757088846475367000,5.745366943359375,0.1570412310797721,0.08902619093060493,-0.3675904727242887
1757088846485321700,5.75532177734375,0.22228088823147116,0.09455752157270908,-0.3998410295963287
1757088846495275800,5.76527587890625,0.26170455160327255,0.09694353992640972,-0.4344048318468034
1757088846505230800,5.77523095703125,0.28500465357210486,0.10275485655367374,-0.4945967040896415
1757088846515186000,5.78518603515625,0.2856920513143763,0.11822656645178795,-0.5397789309881628
1757088846525140700,5.795140625,0.28134090690016744,0.15081599988937378,-0.5784162662878632
1757088846535095800,5.805095703125,0.24252277167346328,0.1740513295263052,-0.5608322404108941
1757088846545049900,5.8150498046875,0.23050386911034582,0.17679507527649402,-0.5239088694222271
1757088846555005000,5.8250048828125,0.239538349035196,0.14995967532098292,-0.45301177103072404
1757088846564959700,5.834959716796875,0.23775186747722327,0.11118015507161616,-0.37478257618546484
1757088846574914800,5.844914794921875,0.18854805691242216,0.062305941787362096,-0.2660806477956474
1757088846584870000,5.854869873046875,0.10708784425668418,0.028588381102681158,-0.20020050078332424
1757088846594824000,5.864823974609375,0.05971015314050018,0.022315292182564735,-0.13773717647716402
1757088846604778800,5.87477880859375,0.0015490560729056596,0.01963993549346924,-0.02932005637809634
1757088846614733800,5.88473388671875,-0.03915602541156113,0.010012275448441505,0.06712707833349704
1757088846624689000,5.89468896484375,-0.09031681526303291,-0.024614801296591757,0.1355624627865851
1757088846634643700,5.904643798828125,-0.13977547737173734,-0.05028291103839874,0.25856544985994695
1757088846644597800,5.91459765625,-0.12985972110033034,-0.06021393794417381,0.39251170962154863
1757088846654552800,5.924552734375,-0.1734323208451271,-0.04688216268420219,0.504305028155446
1757088846664508000,5.9345078125,-0.16482691651992498,-0.00696866996884346,0.5479112379088997
1757088846674462700,5.944462646484375,-0.1277436787944287,0.0223299052298069,0.5438369742073118
1757088846684418000,5.95441796875,-0.09007018355820327,0.03968962083160877,0.4274968060240149
1757088846694371800,5.964371826171875,-0.06250643279552459,0.006875730988383293,0.244378226814419
1757088846704327000,5.974326904296875,-0.07620178067088126,-0.029371055912971494,0.08852364823594688
1757088846714281700,5.98428173828125,-0.07980130300018935,-0.07114858893454075,-0.04655453816503286
1757088846724236800,5.99423681640625,-0.0405728699395433,-0.11676993790268897,-0.18818623786270616
1757088846734191900,6.00419189453125,-0.0026630817294120788,-0.13538111487030982,-0.2943656620375812
1757088846744146000,6.01414599609375,0.05052607214450836,-0.1481570098131895,-0.3607591653995216
1757088846754100700,6.024100830078125,0.053280339288711544,-0.13570961617231367,-0.3749504800982773
1757088846764055800,6.034055908203125,0.06978263434357941,-0.11022329273819922,-0.371104472194612
1757088846774011000,6.044010986328125,0.078068670521304,-0.023201427367329597,-0.3439497771568596
1757088846783966000,6.053966064453125,0.06933131037950516,0.026772856113314626,-0.27564035717099905
1757088846793919700,6.063919677734375,0.046841209619306025,0.04538169499337673,-0.22310762137919662
1757088846803874800,6.073874755859375,0.021816695010662076,0.052690556702017784,-0.13502148777768014
1757088846813830000,6.083829833984375,-0.015154314512014388,0.09448504085838794,-0.04533376419842243
1757088846823784700,6.09378466796875,-0.04975326114110648,0.12673662064373492,0.03747033734694123
1757088846833739800,6.10373974609375,-0.05293890543989837,0.13514087637364863,0.09218275526538491
1757088846843693800,6.11369384765625,-0.08152319488935172,0.12163140645921229,0.16079349628537892
1757088846853649000,6.12364892578125,-0.07965630503892898,0.039941549766063685,0.2154837023720145
1757088846863603700,6.133603759765625,-0.04935227912478149,-0.003423544707894325,0.2486757778778672
1757088846873558800,6.143558837890625,-0.045397477084398265,-0.06815642138123512,0.30215310104340315
1757088846883513900,6.153513916015625,-0.026291794598102568,-0.11035714825093745,0.31142639469280836
1757088846893468000,6.163468017578125,0.014565116447210312,-0.10102408723831176,0.3391390158742666
1757088846903422700,6.173422607421875,0.018910415642522275,-0.09372750048935413,0.32365342358127236
1757088846913377800,6.183377685546875,0.03202946146726608,-0.08191022144556045,0.2875263175368309
1757088846923332900,6.193332763671875,0.014165303474664687,-0.06063830083608627,0.2248755078345537
1757088846933288000,6.203287841796875,0.007135806696675718,-0.05578384654223919,0.172472974293679
1757088846943241700,6.21324169921875,0.00464683942515403,-0.04257306731343269,0.1100448674313724
1757088846953196800,6.22319677734375,-0.012707505881786346,-0.03982639895379543,0.03506955981552601
1757088846963152000,6.23315185546875,-0.03940382616017014,-0.05716390272378921,-0.00893324804008007
1757088846973107000,6.24310693359375,-0.06801737823672592,-0.07838380088508129,-0.06874795753359794
1757088846983061800,6.253061767578125,-0.06865911020636559,-0.08005377992391585,-0.08581964997425674
1757088846993015800,6.263015869140625,-0.06198021696433425,-0.04133855708241462,-0.11131357219293712
1757088847002971000,6.272970947265625,-0.03390687271170318,0.022257424515485763,-0.13738573269098997
1757088847012926000,6.282926025390625,0.01076334954407066,0.05349836595356464,-0.14247837965488433
1757088847022880800,6.292880859375,0.04062434439845383,0.10324760850667952,-0.2175689842134714
1757088847032835800,6.3028359375,0.015289923590421675,0.12251637260019778,-0.24120091195255516
1757088847042790000,6.312789794921875,0.006695186789706349,0.1191653086066246,-0.23236805554702877
1757088847052745000,6.322744873046875,-0.03189739605281502,0.07886369335651397,-0.1756229627572
1757088847062699800,6.33269970703125,-0.07388122876882552,0.018842647635936734,-0.0924554347269237
1757088847072654800,6.34265478515625,-0.03495433593802154,-0.010741174244880676,0.006145517017692327
1757088847082610000,6.35260986328125,0.03869527603201568,-0.04113572798669338,0.0649509033381939
1757088847092564000,6.36256396484375,0.11754735201597213,-0.03402618824243545,0.06841112679466604
1757088847102518800,6.372518798828125,0.15621932023763654,-0.0796118813753128,0.021500030276924372
1757088847112473600,6.3824736328125,0.19387429343648255,-0.087218849247694,-0.04440218243673444
1757088847122429000,6.392428955078125,0.21653255383782088,-0.07096212645173072,-0.10487053353339433
1757088847132384000,6.402384033203125,0.2312368230273947,-0.026104163071513174,-0.17664076149761676
1757088847142338000,6.412338134765625,0.1717851016273722,0.03407002738416195,-0.24821590528115628
1757088847152293000,6.422293212890625,0.07338668671753257,0.08741758669018745,-0.30207842837199567
1757088847162248200,6.432248291015625,-0.0006465908078476787,0.11849193938970565,-0.2975635812960565
1757088847172203000,6.442203125,-0.008709449221566318,0.14149287574887276,-0.2839214249126613
1757088847182158300,6.452158447265625,-0.01273899699859321,0.10815700785815716,-0.2652639245852828
1757088847192112000,6.462112060546875,-0.007395407480932772,0.05260054033100605,-0.2290555699981749
1757088847202067200,6.472067138671875,0.016061565550044177,0.000633037206530571,-0.2060148861505091
1757088847212022000,6.48202197265625,0.03147767280340195,-0.052821489605307574,-0.16493892552703618
1757088847221977300,6.491977294921875,0.060492170363664624,-0.029613047975301742,-0.1514446531817317
1757088847231932200,6.50193212890625,0.08847798246331512,0.008590133690834044,-0.11675620163828133
1757088847241886200,6.51188623046875,0.05362170007228851,0.0412830275028944,-0.14116291314214466
1757088847251841000,6.521841064453125,0.022479506300948558,0.07442308056056499,-0.17872078264206648
1757088847261796400,6.53179638671875,0.003324723975919187,0.0807534526258707,-0.18607932871133087
1757088847271751200,6.541751220703125,0.010559972459077834,0.06863222219944,-0.14528496150821446
1757088847281706000,6.5517060546875,0.004642272847890853,0.03791325880885124,-0.07460092134550213
1757088847291660000,6.561659912109375,0.010315715374425053,-0.015706103175878523,-0.046356823635846374
1757088847301615400,6.571615478515625,0.00010762509293854236,-0.08385317220687866,0.004009674032777548
1757088847311570200,6.581570068359375,0.02070383839793503,-0.11563771900236607,0.004061988741904497
1757088847321525000,6.59152490234375,0.027855975174903867,-0.06319149245023727,-0.006346738678216934
1757088847331480000,6.60147998046875,0.04245148676037788,-0.01301145726442337,-0.018320815718919036
1757088847341434400,6.611434326171875,0.019669234653189777,0.04273088822364807,-0.039410511629283426
1757088847351389200,6.62138916015625,-0.011261435259319842,0.0447772993594408,-0.033167233325541015
1757088847361344000,6.631343994140625,-0.003919876857474446,0.04314005354642868,-0.007302139706909656
1757088847371299000,6.641299072265625,0.006982625428959727,0.004016249904036521,-0.004035831387341022
1757088847381254100,6.651254150390625,0.01733107402920723,-0.03383388054072857,0.0024646365478634834
1757088847391208200,6.661208251953125,0.008915127861499787,-0.05400163930058479,0.010910539462417363
1757088847401163000,6.6711630859375,0.03972534973211586,-0.049203883630037304,-0.014842325953394174
1757088847411118000,6.6811181640625,0.03515672664232552,-0.03303016294240951,-0.04268354195058346
1757088847421073200,6.6910732421875,0.02620060918331146,0.022620997130870818,-0.09022928311005234
1757088847431028200,6.7010283203125,0.024684359401464462,0.04801496610641479,-0.09251213335022329
1757088847440982000,6.71098193359375,0.015150807380676269,0.08130874842107295,-0.11042919057384133
1757088847450937000,6.72093701171875,0.00961772317290306,0.054873161438107484,-0.09429434059187769
1757088847460892200,6.73089208984375,0.004886529932543635,0.024629998865723608,-0.04786036006659269
1757088847470847200,6.74084716796875,0.011553623138926923,0.013105565288662909,-0.022811697397381064
1757088847480802000,6.750802001953125,0.0023508009098470208,-0.012027706924080847,-0.007434680045396089
1757088847490756000,6.760756103515625,-0.007661839864775538,-0.002153378641605377,-0.014990063861012457
1757088847500711200,6.770711181640625,-0.020369345746561882,-0.0025175357788801193,-0.013595102371275425
1757088847510666200,6.780666259765625,-0.007311126730963588,0.0029331308424472807,-0.025269611943513154
1757088847520621000,6.79062109375,0.017147607221081853,0.0018909283131361007,-0.016954203540831804
1757088847530576100,6.800576171875,0.031630817538499834,-0.014545242702960967,0.02417567922696471
1757088847540530200,6.8105302734375,-0.0034580314993858333,0.0026677579045295712,0.03179828305989504
1757088847550485200,6.8204853515625,-0.017248071920871733,-0.002384264788031578,0.06179784613475203
1757088847560440000,6.830440185546875,-0.009041421122290193,0.00822130037844181,0.0822325852677226
1757088847570395100,6.84039501953125,0.004907609253190458,-0.011498714613914489,0.07011734619066119
1757088847580350200,6.85035009765625,0.013199673312902449,-0.02918400890827179,0.052995530997961754
1757088847590304300,6.86030419921875,-0.018301307300850746,-0.036385903111100196,0.036474896568804975
1757088847600259000,6.870259033203125,-0.06228307236842811,-0.035622517523169514,0.047942193131148815
1757088847610214100,6.880214111328125,-0.046610944527387614,-0.02790507501363754,0.04804463059231639
1757088847620169200,6.890169189453125,0.02131985140442848,0.014582652103900908,0.05291501310765743
1757088847630124000,6.9001240234375,0.07106500230431556,0.054882513788342475,0.057482613284140824
1757088847640078000,6.910078125,0.1206289514183998,0.06458616167902946,0.08745864935293793
1757088847650033200,6.920033203125,0.1529541444292292,0.009482114094495772,0.0654964083917439
1757088847659988200,6.92998828125,0.1908873135149479,-0.05612228471636772,-0.0026449615508317946
1757088847669943000,6.939943115234375,0.19051318297293035,-0.0849801304101944,-0.07175532265603542
1757088847679898000,6.949898193359375,0.20016141088195144,-0.08383855915963649,-0.11263064614087342
1757088847689852200,6.95985205078125,0.20822423276305196,-0.038976504126191136,-0.1175843230254948
1757088847699807200,6.96980712890625,0.2190366821458563,-0.022450316739082335,-0.10233648501113056
1757088847709762000,6.979761962890625,0.18768643511440603,-0.02324818911850452,-0.07664923217743634
1757088847719717000,6.989717041015625,0.12053425887227058,-0.02177870108783245,-0.038746933154016734
1757088847729672200,6.999672119140625,0.05218728335499763,-0.03621171558797359,0.02240107076987624
1757088847739627000,7.009626953125,0.005252586765959859,-0.03170096016526222,0.0692208357423544
1757088847749581000,7.0195810546875,-0.025862682465836406,-0.0188484928548336,0.1071568909049034
1757088847759536000,7.0295361328125,-0.040805400053784247,-0.018896423649787903,0.1041411963455379
1757088847769491200,7.0394912109375,-0.040400910906121135,-0.014120879811048507,0.06196253517717123
1757088847779446000,7.049446044921875,-0.035356560063362116,-0.006266074657440186,0.01511369024068117
1757088847789401000,7.059401123046875,0.002342727201245725,-0.012167407655715941,0.000018558569997549056
1757088847799355100,7.069355224609375,0.027606968849897384,-0.00828793587386608,-0.04492401435375214
1757088847809310200,7.079310302734375,0.02242934701628983,-0.019281039053201676,-0.09439356318265199
1757088847819265000,7.08926513671875,0.008014964151382446,-0.01120586914718151,-0.10748466155454516
1757088847829220000,7.09922021484375,-0.02633972539305687,0.018449264404177664,-0.10246478756591677
1757088847839175200,7.109175048828125,-0.04499419351313263,0.04141571397185325,-0.09108136989474296
1757088847849129200,7.119129150390625,-0.04544080476947129,0.038028409621119495,-0.09860051335319876
1757088847859084000,7.129083984375,-0.07908351011965423,0.011269582033157349,-0.0882246652893722
1757088847869039000,7.1390390625,-0.09265022664666175,-0.018442250141501425,-0.09381152551099657
1757088847878994200,7.148994140625,-0.11802790207453072,-0.05414017098844051,-0.12209171744734049
1757088847888949200,7.15894921875,-0.11902743450589477,-0.06279109495580196,-0.14628215585201979
1757088847898903000,7.168903076171875,-0.11595281283352524,-0.05064706817567348,-0.16121742078587412
1757088847908858000,7.178858154296875,-0.08212525243572891,-0.035679216146469114,-0.13975260795280336
1757088847918813200,7.188813232421875,-0.059700654659792775,-0.024954408514499662,-0.11401523236706852
1757088847928768300,7.198768310546875,-0.04911036012768745,-0.023716391152143478,-0.08621712485924363
1757088847938723000,7.20872314453125,-0.022394239170290528,-0.07654664858579635,-0.08477847035825252
1757088847948677000,7.218677001953125,-0.04895838443636894,-0.10716799682080745,-0.09915595527887344
1757088847958632200,7.228632080078125,-0.08990414280891418,-0.11036123990416526,-0.11025105752795934
1757088847968587300,7.238587158203125,-0.09093750444464385,-0.08523965812921523,-0.09091331985145806
1757088847978542000,7.2485419921875,-0.08102408626079559,-0.017246318355202673,-0.08054901609495281
1757088847988497000,7.258496826171875,-0.05541621880624443,0.0630243191897869,-0.06253712019473313
1757088847998451200,7.268451171875,-0.051863531293347476,0.11938391979336738,-0.04452668559923768
1757088848008406300,7.27840625,-0.04100888673663139,0.145608494374156,-0.013460516206175088
1757088848018361000,7.288361083984375,-0.03131276456527412,0.12992109589874742,0.01834142011553049
1757088848028316000,7.29831591796875,-0.0114846130233258,0.0753115538328886,0.057510962595790624
1757088848038271200,7.308271240234375,0.01066518639922142,0.012270868030190467,0.09416282316669822
1757088848048225300,7.318225341796875,0.020003581174090502,-0.02674655262827873,0.1183816108830273
1757088848058180000,7.32818017578125,0.008397314532473683,-0.051800329864025114,0.1240698856525123
1757088848068135000,7.338135009765625,0.018779519271850585,-0.07940671419203281,0.08621040285751223
1757088848078090200,7.34809033203125,-0.012570654694363474,-0.10077741900086402,0.043121202715486286
1757088848088045000,7.358045166015625,-0.02757427215669304,-0.06727671593725681,0.04051744995787739
1757088848097999000,7.3679990234375,-0.016323358291387556,-0.0516483541727066,0.04726517065241933
1757088848107954000,7.377953857421875,-0.013475494579598306,-0.029756255838274955,0.05467705434411764
1757088848117909200,7.3879091796875,0.012617489510774611,-0.011598667857050896,0.0692331107020378
1757088848127864000,7.397864013671875,0.025548246221803128,-0.019130232405662535,0.1277348379008472
1757088848137819400,7.4078193359375,0.035120303622074425,-0.03634849371016025,0.15527736321240662
1757088848147773200,7.417773193359375,0.009061258333921431,-0.03344984965920448,0.16687880754843354
1757088848157728300,7.427728271484375,0.002699395151808858,-0.021368951243162154,0.18739464909359813
1757088848167683000,7.43768310546875,0.0018025924425572155,-0.00895896700322628,0.1767078353844583
1757088848177638400,7.447638427734375,-0.012805742091871797,-0.01718377451300621,0.16642258821353315
1757088848187593200,7.45759326171875,-0.024489056025072932,-0.016910218268632888,0.14762874815538524
1757088848197547300,7.46754736328125,-0.029258864242769776,-0.026531448572874067,0.14373729367479682
1757088848207502000,7.477502197265625,-0.01727605590634048,-0.03558101646900177,0.14858005753085016
1757088848217457400,7.48745751953125,0.0029015666604042052,-0.05963993744850158,0.15667290922403335
1757088848227412200,7.497412109375,0.010884893564507364,-0.07010112570822238,0.1561236047782004
1757088848237367000,7.507366943359375,0.02159574573636055,-0.07532382879257202,0.13785977994352577
1757088848247321000,7.517321044921875,0.007921440649032592,-0.0813157626837492,0.11857713345512746
1757088848257276400,7.5272763671875,0.02158873147368431,-0.05589782831072807,0.0911808847464621
1757088848267231200,7.537231201171875,0.04274374770522117,-0.058302551364898675,0.07731266452223062
1757088848277186000,7.54718603515625,0.037818639327958224,-0.03289163125455379,0.059167059239745134
1757088848287141400,7.557141357421875,0.05684599588103592,-0.0072936641395092,0.047616322177648544
1757088848297095400,7.567095458984375,0.049925147109292446,-0.012815057909488677,0.033214725729078055
1757088848307050200,7.57705029296875,0.05873867775984108,-0.007104279047250747,0.02344663430005312
1757088848317005000,7.587005126953125,0.07101590246558188,0.004559855261445045,0.038562516497820616
1757088848326960400,7.59696044921875,0.08516725048013031,-0.019279285487532615,0.040730800447613
1757088848336915200,7.606915283203125,0.10721885022521019,-0.02999532529115677,0.03759001820385456
1757088848346869200,7.616869140625,0.12039170859642326,-0.023686580535769462,0.014439151979982853
1757088848356824000,7.626823974609375,0.11979071049597113,-0.01847965954244137,0.004613192883878946
1757088848366779400,7.636779296875,0.1313479138314724,0.011356675794720649,-0.016817571549117564
1757088848376734200,7.646734130859375,0.14605561708714812,0.024214403802156448,-0.03805091371387243
1757088848386689300,7.656689208984375,0.14054485430903732,0.04373392778635025,-0.06431129026040434
1757088848396643000,7.66664306640625,0.13708791878819465,0.045234979999065394,-0.10151610853895544
1757088848406598400,7.676598388671875,0.15919797072224318,0.036788054171204565,-0.11175269426256418
1757088848416553200,7.68655322265625,0.17479772744681685,0.017217092260718346,-0.10675196336582303
1757088848426508300,7.69650830078125,0.20682718891408294,-0.010614917516708374,-0.08699819223433733
1757088848436463000,7.706463134765625,0.1857762541115284,-0.034270518392324444,-0.08431435997784137
1757088848446417400,7.71641748046875,0.17669044585824012,-0.028303718942403792,-0.049544806022197005
1757088848456372200,7.726372314453125,0.17610482799001037,-0.003599485796689987,-0.032201310902833936
1757088848466327300,7.736327392578125,0.17454872112181036,0.005181202030181884,0.010129764348268509
1757088848476282000,7.7462822265625,0.17953823650479317,-0.0017787001103162765,0.040150662472099065
1757088848486237200,7.7562373046875,0.24581951166391372,-0.008877133938670158,0.07008797396570443
1757088848496191200,7.766191162109375,0.40467151849269867,-0.033027824854850764,0.09507716153264045
1757088848506146300,7.776146240234375,0.5875380957026034,-0.05774491748213768,0.15199454214945435
1757088848516101000,7.78610107421875,0.45303482311274856,-0.10452361979186535,0.20663550226688385
1757088848526056200,7.79605615234375,0.035523733323812486,0.0524807133436203,0.37747561466172336
1757088848536011300,7.80601123046875,-0.33423772676400837,0.036951135778427124,0.33785686710923907
1757088848545965300,7.81596533203125,-0.5815313661010936,0.003454524368047714,0.041443624892085786
1757088848555920100,7.825920166015625,-0.6440098514437675,-0.06689502314329147,-0.07720394345074892
1757088848565875200,7.835875244140625,-0.521069700473547,-0.17624854730963707,0.03742372172623872
1757088848575830300,7.845830322265625,-0.2013513513188809,-0.15851649126410483,0.3724344056241214
1757088848585785000,7.85578515625,0.02848375168442726,-0.1876882252126932,0.5330497688636183
1757088848595739100,7.8657392578125,0.04318097007870674,-0.13899112206101416,0.5022749836325645
1757088848605694200,7.875694091796875,-0.05761051398012787,-0.07562719565331935,0.33389278578385706
1757088848615649300,7.885649169921875,-0.1657294913828373,-0.0719131435662508,0.1555370370618999
1757088848625604000,7.89560400390625,-0.1373380941569805,-0.06658990271687507,0.01537467926442623
1757088848635559400,7.905559326171875,-0.06351286989171058,-0.02544599142372608,-0.08447495736703275
1757088848645513200,7.91551318359375,-0.010791516192629932,0.04112579111456871,-0.10310717712268233
1757088848655468300,7.92546826171875,0.011949892447516321,0.08795417778491973,-0.16784926001578568
1757088848665423000,7.935423095703125,0.04876081603765487,0.13786474837958812,-0.2364944878272712
1757088848675378400,7.94537841796875,0.12988894719481467,0.19787410366237163,-0.18581190994679928
1757088848685333200,7.955333251953125,0.23851064995527266,0.14578852711617946,-0.21862448461577294
1757088848695287300,7.965287353515625,0.3011281053772196,0.0914589710354805,-0.26203794827610255
1757088848705242000,7.9752421875,0.3133014678496867,0.04322597826421261,-0.36504531828612086
1757088848715197400,7.985197509765625,0.29003154182340946,0.042189036431908605,-0.39143224382176994
1757088848725152300,7.99515234375,0.3455307627379894,0.07578384751975537,-0.33173195448815823
1757088848735107000,8.005107177734375,0.3990928415775299,-0.015547697743773459,-0.2581714821062982
1757088848745061000,8.01506103515625,0.33846740022301675,0.02553893040418625,-0.28758038581162687
1757088848755016400,8.025016357421874,0.011186543392203747,-0.1607394280105829,-0.44886517274528737
1757088848764971300,8.03497119140625,-0.15836458863802252,-0.24027122988700866,-0.434356170399487
1757088848774926000,8.044926025390625,-0.055787974728085096,-0.19025544535219668,-0.18053616150096058
1757088848784881200,8.054881103515624,0.24764205091595648,-0.1874444795846939,0.2524830612063408
1757088848794835500,8.06483544921875,0.4688403315424919,-0.18613339698612688,0.5838210479408502
1757088848804790300,8.074790283203125,0.5441419485032558,-0.22862813836634158,0.6177503516800701
1757088848814745000,8.0847451171875,0.597684153598547,-0.24682898096740244,0.5344245643481612
1757088848824700200,8.0947001953125,0.5584919608950615,-0.2698012757539749,0.3924311917312443
1757088848834655200,8.1046552734375,0.5252384740581736,-0.24399638788998126,0.2866398900911212
1757088848844609300,8.114609375,0.46651046382281924,-0.2155348480373621,0.2471418463088572
1757088848854564000,8.124564208984374,0.36543135846164077,-0.2025724906116724,0.25384134394749996
1757088848864519200,8.134519287109375,0.334565095554851,-0.17821254085898397,0.31887101161032916
1757088848874474200,8.14447412109375,0.31279048612024635,-0.21319968308806417,0.36032296593934293
1757088848884429300,8.15442919921875,0.20746439083907753,-0.2705500482946634,0.34779505440816283
1757088848894383000,8.164383056640625,0.1511118044981733,-0.30168636031448837,0.25065394608303904
1757088848904338200,8.174338134765625,0.09402381655480713,-0.31417057883441446,0.1551753641426563
1757088848914293200,8.184293212890625,0.0030699089646339414,-0.2818313207656145,-0.035504590231925245
1757088848924248300,8.194248291015626,-0.10023034304473548,-0.2028419552028179,-0.22071561167612672
1757088848934203100,8.204203125,-0.21056582745313643,-0.08313421028256415,-0.33489977086931466
1757088848944157200,8.2141572265625,-0.3228571586370468,0.01699906559586525,-0.3380621804229915
1757088848954112300,8.2241123046875,-0.2938789379665628,0.1819289310336113,-0.32617563553526996
1757088848964067300,8.2340673828125,-0.2545323949515819,0.14240589894056319,-0.2670541690029204
1757088848974022100,8.244022216796875,-0.1143336871990934,0.12352642642557621,-0.21472937687337398
1757088848983976200,8.25397607421875,0.01718256893660873,0.13632570224404333,-0.19542042689993977
1757088848993931300,8.26393115234375,0.1839326355388388,0.1105821891784668,-0.13754779138490558
1757088849003886300,8.27388623046875,0.4336743621477857,0.09864449862539768,-0.14994345483854413
1757088849013841200,8.283841064453124,0.5367278363218531,0.20524317112565038,-0.23161446070075034
1757088849023796200,8.293796142578126,0.47176641158964483,0.18892507353127003,-0.22825141400843857
1757088849033751300,8.303751220703125,0.5144259881427511,0.23231880957782267,-0.26833792520314453
1757088849043705300,8.313705322265625,0.49463528253436084,0.25404431917369363,-0.18336393227279185
1757088849053660200,8.32366015625,0.37178514793515205,0.14858897148966788,-0.17388517917916177
1757088849063615200,8.333615234375,0.2831576009333134,0.08823299472630024,-0.31600276269763705
1757088849073570300,8.3435703125,0.14520338417198508,0.03866963013410568,-0.5593604142926633
1757088849083525000,8.353525146484374,0.1736065083682537,-0.00958674351274967,-0.7748413401857018
1757088849093479200,8.363479248046875,0.30038696815371513,-0.047175592672824854,-0.9484284132011234
1757088849103434200,8.373434326171875,0.38126843107342717,-0.01706745465695858,-1.1488938485309481
1757088849113389300,8.383389404296874,0.5683177738606929,0.02175122855901718,-1.3235424132980405
1757088849123344100,8.39334423828125,0.6521767912864684,0.06668225717544556,-1.468399650913477
1757088849133297700,8.403297607421875,0.5172866748034953,0.13847732731997967,-1.521026494729519
1757088849143252700,8.413252685546874,0.6337281114041805,0.1944289316445589,-1.7647079714514313
1757088849153207800,8.423207763671876,0.6874094327092171,0.1646919650286436,-1.7827435404881833
1757088849163162600,8.43316259765625,0.6550093843638897,0.06290156959295272,-1.621433472982794
1757088849173118000,8.443117919921875,0.5779051018953323,0.01929389853477478,-1.5380297981090842
1757088849183071700,8.45307177734375,0.8063654824793338,0.02073357594907284,-1.5149503896862269
1757088849193026800,8.46302685546875,0.765706139832735,-0.054478609162569046,-1.178975536931306
1757088849202981600,8.472981689453125,0.8027426158070564,-0.014133154770731925,-1.0869172848284243
1757088849212937000,8.48293701171875,1.0150397970974445,0.0274362884581089,-1.1825718078576029
1757088849222891800,8.492891845703125,0.8396095804333686,-0.09523439792096615,-0.9996237629093229
1757088849232845800,8.502845703125,0.7276672088176012,-0.22299977709054947,-0.9558316751949488
1757088849242800600,8.512800537109374,0.695567020201683,-0.15370470706820488,-0.9137886231049894
1757088849252756000,8.522755859375,0.7405991711050272,-0.156261405813694,-1.0371715494066476
1757088849262710800,8.532710693359375,0.8954448649019002,-0.10464461582303046,-1.0701640106871724
1757088849272665900,8.542665771484375,0.8865408429563045,-0.07095803479850292,-0.9607231004983187
1757088849282619600,8.55261962890625,0.8675900587707758,-0.05414134003221988,-1.0370487998098135
1757088849292574700,8.56257470703125,0.8589853120326996,-0.1450678116261959,-1.2134779643833637
1757088849302529800,8.57252978515625,0.7689075662225484,-0.15225743086934088,-1.2593662937246262
1757088849312484900,8.58248486328125,0.7210539281576871,-0.0903869578897953,-1.341607208429277
1757088849322439700,8.592439697265625,0.8298013031244278,-0.012754267632961272,-1.4596417594403028
1757088849332393700,8.602393798828125,0.5687526216140016,-0.02782324194908142,-1.173138939732313
1757088849342348800,8.612348876953124,0.43870409994330256,-0.012056933018565178,-1.167901477470249
1757088849352303600,8.6223037109375,0.5150602309256792,0.03968085300326347,-1.2905990518562496
1757088849362258700,8.6322587890625,0.534464019575715,0.11398352205455302,-1.2399265569783746
1757088849372213800,8.6422138671875,0.6419459046512842,0.12932605261504648,-1.1441878627970814
1757088849382167800,8.652167724609376,0.903242971432209,0.15166238758563994,-1.2290319457374512
1757088849392122600,8.66212255859375,0.6823953308742493,-0.1283405487090349,-1.0121155802138149
1757088849402077700,8.67207763671875,0.6427179850023239,-0.017020692905783653,-0.893679024273157
1757088849412032800,8.68203271484375,0.5529799925405532,0.029042554610967636,-0.9906541283816098
1757088849421987800,8.69198779296875,0.4018880983192473,0.07920739222764968,-0.9198325794443487
1757088849431941600,8.701941650390625,0.3496002041339874,0.15685937170684336,-0.8163643139243125
1757088849441896700,8.711896728515624,0.3690542616665363,0.18184183727204797,-0.669729106850922
1757088849451851800,8.721851806640625,0.24299042571783064,0.23612287803590296,-0.3923778541088104
1757088849461806800,8.731806884765625,0.4373234957724809,0.40952071208953855,-0.44267961597815153
1757088849471760600,8.7417607421875,0.7267278090756386,0.5129962841331959,-0.4029448408305645
1757088849481715700,8.7517158203125,0.54859132912755,0.4358715433984995,-0.23045418474972246
1757088849491670800,8.7616708984375,0.35142851553969084,0.5745417629420757,-0.19543197120726108
1757088849501625900,8.7716259765625,0.37796237526535986,0.8371300385773182,-0.41455680656060573
1757088849511580700,8.78158056640625,0.7634119644809514,1.454799580106139,-0.9568585340246558
1757088849521534700,8.79153466796875,0.5940467469442635,1.6070833144605159,-1.1267713024415076
1757088849531489800,8.80148974609375,0.5834340944498777,1.7508686850607393,-1.5139721923038363
1757088849541444900,8.81144482421875,0.5689344444543123,1.5740665955215691,-1.680840332327783
1757088849551399700,8.821399658203125,0.772009550825879,1.5764479377001523,-1.867986413487792
1757088849561354800,8.831354736328125,0.943573155189678,1.7375965310335157,-1.9337842890441417
1757088849571308800,8.841308837890624,0.9898241072982549,1.8823311651825905,-1.7298023700259626
1757088849581264000,8.851263916015625,1.3195429683983326,2.4642460872411727,-1.6710491522841155
1757088849591218700,8.86121875,1.6114987928152082,2.835015920653939,-1.2558087473735213
1757088849601173800,8.871173828125,2.0668571269720792,2.9960172144711015,-1.0408508224412798
1757088849611128800,8.88112890625,2.2480115665018556,2.894664625930786,-1.0654495493859053
1757088849621083000,8.891082763671875,1.985641902053356,2.627854933208227,-1.3375092715911567
1757088849631037700,8.90103759765625,1.6548247243225573,2.3931880991995333,-1.6446126885183154
1757088849640992800,8.91099267578125,1.4772364528417588,2.149294587162137,-1.8386983596831559
1757088849650947800,8.92094775390625,1.252898120623827,1.7595891671329735,-1.9447269772104918
1757088849660902700,8.930902587890625,1.0292249743163584,1.2604478053510189,-2.0848633237838743
1757088849670856700,8.940856689453126,0.8079390154063701,0.6638958706527948,-2.1414779220618305
1757088849680811500,8.9508115234375,0.6553349630564451,-0.1470546015292406,-2.0463782564364372
1757088849690766800,8.960766845703125,0.7865349928498268,-0.8503893331229686,-1.6916335290208457
1757088849700721700,8.9707216796875,0.8975590805768966,-1.3544389252126217,-1.225253888503462
1757088849710676700,8.9806767578125,0.7867606182992458,-1.5729413908839225,-0.3385692531622946
1757088849720630500,8.990630615234375,1.0259938103754074,-1.3839473437696694,0.6462889022916555
1757088849730585900,9.0005859375,1.2703975369572638,-1.0356477008402347,1.6276295511439443
1757088849740540700,9.010540771484376,0.9957213486433029,-0.6211421860754489,2.5122832651793954
1757088849750495700,9.020495849609375,0.12396437945142387,-0.2084977890074253,3.20137612093091
1757088849760450800,9.030450927734375,-0.853736305463314,0.18230653217434883,3.3572201781153677
1757088849770404900,9.04040478515625,-1.7093267143607138,0.780221571919322,3.1468922510713337
1757088849780359700,9.050359619140625,-2.3725158980488774,1.3297072195380926,2.1554196459136903
1757088849790314800,9.060314697265625,-2.294919448149204,2.149946913591027,0.8380592822514474
1757088849800269800,9.070269775390624,-1.9793069999434052,2.4857161607712506,0.6617787323683499
1757088849810225000,9.080224853515626,-1.518586408101022,2.0639111366480587,0.10723667814284563
1757088849820178700,9.0901787109375,-0.7501832842692733,2.2118021890014408,-1.4253899457484482
1757088849830133800,9.1001337890625,0.11019961960166692,2.7081606420665976,-1.7365885230347513
1757088849840088800,9.1100888671875,1.2837912715375424,2.8957267022043465,-1.442718097168207
1757088849850043600,9.120043701171875,0.7610860788166522,2.64118437038064,-1.0393127261538058
1757088849859997700,9.129997802734374,-0.0690960403189063,2.2654104450702666,-1.008726522297412
1757088849869952800,9.139952880859376,-0.9947814374446868,1.83798232036829,-0.659054348905757
1757088849879907800,9.149907958984375,-1.4833973135590552,1.3287117787599563,-0.3392352427903563
1757088849889862700,9.159862548828125,-1.2732257461205123,0.21314590707421302,0.10640552454832941
1757088849899817700,9.169817626953124,-1.0899497843921184,-0.568064091360569,0.43708048079684375
1757088849909771800,9.179771728515625,-1.1280959751740098,-0.7274965284258127,0.5723309550248086
1757088849919726800,9.189726806640625,-1.110685406167805,-0.7994558492213487,0.9083114338029176
1757088849929681700,9.199681640625,-1.2398761419653892,-0.8767126919031143,0.969476900318265
1757088849939636700,9.20963671875,-1.5856594181597232,-1.135076043319702,1.1350159836955367
1757088849949591800,9.219591796875,-1.9310303141608833,-1.6687486202567814,1.4708327232792973
1757088849959545900,9.2295458984375,-1.9037658751383422,-2.2395541192799806,1.6594719656065104
1757088849969500700,9.239500732421876,-1.7773872741520405,-2.6233973692774772,1.8212357682287692
1757088849979455700,9.249455810546875,-1.8841513663470744,-2.7888427830219267,1.804229103848338
1757088849989410800,9.259410888671875,-1.9446786080241203,-2.9284651887238025,1.6612515424996614
1757088849999366000,9.269365966796874,-1.8030688278973102,-3.1443519189387557,1.435399883109331
1757088850009319700,9.279319580078125,-1.7362690818220377,-3.3791806655108925,1.2521487635612487
1757088850019274800,9.289274658203125,-1.623122010591626,-3.321849589526653,1.3234953592859209
1757088850029229800,9.299229736328124,-1.5182745656728744,-3.207616476625204,1.5703611651323734
1757088850039185000,9.309184814453126,-1.9977920663133262,-3.8020261385977268,1.1883870700076222
1757088850049139700,9.3191396484375,-1.8189006032794712,-3.780613348212838,1.0102135459847748
1757088850059093800,9.32909375,-1.392344585236907,-3.668998308855295,1.4455036362335085
1757088850069048600,9.339048583984376,-1.4093281610026955,-3.721978788414597,1.5318287515118718
1757088850079004000,9.34900390625,-1.4423556935966013,-3.8105379463553426,1.3323635792657733
1757088850088958700,9.358958740234375,-1.3634960918933152,-3.821796422472596,1.0994069832410662
1757088850098912800,9.368912841796876,-1.1926903201594947,-3.7620904340505597,0.9553370966110378
1757088850108867600,9.37886767578125,-0.6975088019192218,-3.554530218154192,0.8067039206534624
1757088850118823000,9.388822998046875,-0.0035641222223639487,-3.076262133052945,0.7964867702826857
1757088850128777700,9.39877783203125,0.9843871769413352,-2.4080203421503303,0.631546602646634
1757088850138732500,9.408732666015625,2.0056211525037884,-1.5774714355289936,0.1707869757018052
1757088850148686600,9.4186865234375,3.1185090371519326,-0.712900432318449,-0.3757826566061005
1757088850158641700,9.4286416015625,4.1954269060134886,0.5842571012705564,-1.3101502861529588
1757088850168596700,9.4385966796875,4.827729660789668,2.6547715817064046,-2.4430092379450796
1757088850178551600,9.448551513671875,4.903101712638139,4.660569552081823,-3.6104344762057066
1757088850188506600,9.458506591796874,4.622599010127782,6.106335346382856,-4.877805358818173
1757088850198460700,9.468460693359376,4.0511180960610504,6.758898506638407,-5.366314267426729
1757088850208415700,9.478415771484375,3.394479064668715,6.419115932163596,-4.580894834603369
1757088850218370600,9.48837060546875,3.03753521977365,5.054020588380098,-2.9855569029942153
1757088850228325600,9.49832568359375,3.3182010038912293,3.4421266587674615,-1.637111372977495
1757088850238280400,9.508280517578125,3.727257605600357,2.1387977430671454,-1.4368771160550415
1757088850248234800,9.51823486328125,3.6385607927545904,0.9344277987688779,-2.1195631735041736
1757088850258189600,9.528189453125,3.0542542993843553,0.21675240713357924,-2.1570964930847287
1757088850268144600,9.53814453125,1.775412759208679,0.11711539033949374,-1.6102306725755333
1757088850278099500,9.548099365234375,0.17793401617854832,-0.004894786304235458,-0.843746022650972
1757088850288054800,9.5580546875,0.41560207782983777,-0.7695505403012037,0.010609145363047719
1757088850298008600,9.568008544921875,1.4727999316990374,-1.4611989257544278,0.9250532367020845
1757088850307963600,9.577963623046875,1.2248103825196623,-1.2465502129018307,0.8055853649523109
1757088850317918500,9.58791845703125,-0.060364452330768106,-0.7454927883654833,0.15081863023787737
1757088850327873800,9.597873779296876,-1.598835710597038,-0.49310500422716136,0.26951675972416994
1757088850337828600,9.60782861328125,-2.355635198135674,-0.5203250195860862,1.1991781478088348
1757088850347782700,9.61778271484375,-2.2362869341775773,-0.7196709493666887,2.71465555704385
1757088850357737500,9.627737548828126,-1.4161524540647863,-0.39716742647290226,4.324698890353739
1757088850367692800,9.63769287109375,-0.23095775035768745,1.0658148755669594,4.838752574585378
1757088850377647600,9.647647705078125,0.3121016636058688,3.2078660674721,4.421374426993728
1757088850387601700,9.6576015625,0.27340134607255456,4.425970522612333,4.444599235236645
1757088850397556500,9.667556396484375,0.42888153838068244,3.6056858203738926,4.374039844366908
1757088850407511800,9.67751171875,0.6887567556649447,1.4923130259424446,3.670831661762297
1757088850417466600,9.687466552734374,0.17715572528243065,-0.4750742574959993,2.5754969694614407
1757088850427421700,9.697421630859376,-1.5176622789934278,-1.605984413307905,1.6578389575771986
1757088850437375500,9.70737548828125,-3.4220486241176724,-2.2818378482580184,1.1275856875643133
1757088850447330800,9.717330810546875,-5.052532395648956,-2.4431062685787674,0.9861455649159848
1757088850457285600,9.72728564453125,-5.969278991776704,-2.1477865206867457,0.9468521037951111
1757088850467240400,9.737240478515625,-6.083175420069694,-1.472332898709178,0.6258451030693948
1757088850477195800,9.74719580078125,-5.886607722830772,-0.7305933253973722,0.4350280052464455
1757088850487149800,9.75714990234375,-5.286578467410803,-0.01075403372645378,0.4555276993744075
1757088850497104600,9.767104736328125,-3.8965105949342247,0.5255839630275965,0.20165654481053352
1757088850507059500,9.7770595703125,-1.7434063863560556,0.8991022183656692,-0.13315569390580057
1757088850517014800,9.787014892578124,0.2758183440864086,1.0579057098776101,-0.21108013365082443
1757088850526968800,9.79696875,1.3527296370767057,0.9283090236276388,0.16367022076547144
1757088850536923600,9.806923583984375,1.1699028804205358,0.5010124163508415,1.0488090149041265
1757088850546878500,9.81687841796875,0.21836919468045232,-0.1583914035797119,1.6255813864424824
1757088850556833800,9.826833740234376,-0.7225333530604839,-0.6087403851419687,1.7540481918796895
1757088850566788600,9.83678857421875,-1.4490392630137503,-0.5584826085448265,1.7107836351707577
1757088850576742700,9.84674267578125,-1.9464533626116811,-0.3390004841864109,1.1936337384894489
1757088850586697500,9.856697509765626,-2.3855378767073154,-0.15443652847409248,0.6299259426422417
1757088850596652800,9.86665283203125,-2.016350490180403,0.1318880120575428,0.18249226400479673
1757088850606607600,9.876607666015625,-1.7788133614324033,0.17127251246273517,-0.3237091723565012
1757088850616562700,9.886562744140624,-1.589261242043972,-0.09531330837607384,-0.9494562949441373
1757088850626516500,9.8965166015625,-1.0471022109862416,-0.43472997214794157,-1.3477050869129596
1757088850636471800,9.906471923828125,-0.4144961624145508,-0.6780465610802173,-1.2772716605104506
1757088850646426600,9.916426513671874,0.042534415803477166,-0.925703225043416,-1.3886448539361358
1757088850656381700,9.926381591796876,0.38435930976085364,-0.9601111060798168,-1.394398010635376
1757088850666336500,9.93633642578125,0.4981528622012585,-0.8829284976780414,-1.1999876375608145
1757088850676290800,9.946290771484374,0.46934762347750364,-0.8048311125189066,-1.0399407218590377
1757088850686245600,9.95624560546875,0.4594810401100665,-0.620125702509284,-0.9851248435661196
1757088850696200700,9.96620068359375,0.25329901723172515,-0.5329413400530815,-0.7173333001993596
1757088850706155500,9.976155517578125,-0.0255973460605368,-0.34682255611419677,-0.6388192970633506
1757088850716110600,9.986110595703124,0.4783715454757213,-0.171727855014801,-0.6613109687261283
1757088850726064600,9.996064697265625,1.1381938830792904,-0.37770927728712556,-0.5921291498199105
1757088850736019700,10.006019775390625,1.41654671407938,-0.7615624641567468,-0.24957477254420518
1757088850745974500,10.015974609375,1.6047802982151507,-1.0387819072127342,-0.2840472432494163
1757088850755929600,10.0259296875,1.4466227033913135,-1.1411971565485,-0.6056095397703349
1757088850765883600,10.035883544921875,1.181803892225027,-1.0848755498677491,-0.8343741639979183
1757088850775838700,10.045838623046874,1.1726999637931586,-0.8933487694054841,-1.2428693324320017
1757088850785793500,10.05579345703125,1.1651958717733621,-0.7123276008665561,-1.6539198844373226
1757088850795748600,10.06574853515625,1.0255009853571653,-0.6384294209629297,-1.8177295136734841
1757088850805703700,10.07570361328125,1.2342612246930598,-0.5503168377459049,-1.7750740287736058
1757088850815657700,10.08565771484375,1.4039116889119148,-0.5006009129405021,-1.6265937783554196
1757088850825612500,10.095612548828125,1.4426497081071137,-0.31349896318316456,-1.5089705846242605
1757088850835567600,10.105567626953125,1.2817612270146608,0.01703939760625362,-1.4868138440042733
1757088850845522700,10.115522705078124,0.9550684357374906,0.3481190256655216,-1.4420882748320698
1757088850855477500,10.1254775390625,0.5907388645052909,0.8536591485738754,-1.4602229203291237
1757088850865431600,10.135431640625,0.5787433062851428,1.4163357016772031,-1.4545979200541972
1757088850875386600,10.14538671875,0.5661276434052736,1.5459341414928436,-1.1205895450666545
1757088850885341700,10.155341796875,0.4947131700761616,1.4639397488951682,-0.9194663764804601
1757088850895296500,10.165296630859375,0.32034144948907195,1.157692948797345,-0.8425425651453435
1757088850905251800,10.175251953125,0.09879888546951114,0.9334574924319982,-0.9158350342407822
1757088850915205600,10.18520556640625,0.17815701127946376,1.0420154823064804,-1.194263853086531
1757088850925160700,10.19516064453125,0.4600467111688107,1.2703513597279785,-1.4909452447205782
1757088850935115500,10.205115478515625,0.7052146270561963,1.4730664736807346,-1.5211241098850965
1757088850945070800,10.21507080078125,0.933014497904852,1.392023682719469,-1.2583832740366458
1757088850955024600,10.225024658203125,0.8094399945538491,1.133351119223237,-0.8924886454448103
1757088850964979700,10.234979736328125,0.683504241964221,1.1294354070842265,-0.6449672982990742
1757088850974934500,10.2449345703125,1.0640847638387232,1.7002338918447493,-0.33354017295390365
1757088850984889900,10.254889892578126,1.7447592622697352,2.395892681983113,-0.22724486731439827
1757088850994844700,10.2648447265625,1.7688374724715947,2.707888254866004,-0.5330363248601555
1757088851004798700,10.274798828125,1.5425141039162873,2.704245514449477,-0.9758221776917576
1757088851014753500,10.28475341796875,1.8034423373848198,2.8143887276887893,-1.65455876686275
1757088851024708900,10.294708984375,1.708649253490567,3.159918905904889,-2.2424974792554973
1757088851034663700,10.30466357421875,1.4995418081521987,3.198608409783244,-2.39473269829303
1757088851044618500,10.314618408203126,1.603179877281189,3.171242848473787,-2.4641554863482713
1757088851054572500,10.324572509765625,1.5070067372053861,2.8499107074469325,-2.284203116084635
1757088851064528000,10.33452783203125,1.5343313819825648,2.2031156091988087,-2.2965219149097797
1757088851074482700,10.344482666015624,1.258975979232788,1.1484078185796738,-2.435447570519149
1757088851084437500,10.3544375,0.9479799387812614,0.5165349796533585,-2.1051604080118236
1757088851094391600,10.3643916015625,0.9873977569341659,0.24584230801761148,-1.3097865674071014
1757088851104347000,10.374346923828124,1.6646669039011002,0.7250029580444097,-0.07284399467557669
1757088851114301700,10.3843017578125,2.082264539462328,0.6946914064109325,0.9427702413089573
1757088851124256500,10.394256591796875,1.590339100408554,0.36202480142116544,2.424831776219606
1757088851134211800,10.4042119140625,0.6366188644096255,0.594136690250039,3.465494674873352
1757088851144165600,10.41416552734375,-0.47762584167495364,1.2706786919862032,3.757639884382486
1757088851154120700,10.42412060546875,-1.4107450420632957,2.061364374774694,3.529688037842512
1757088851164075500,10.434075439453125,-2.1766497732080516,2.5907939073145387,3.011438070964813
1757088851174030800,10.44403076171875,-2.322586184362322,2.78499487542212,2.533914666751027
1757088851183985700,10.453985595703125,-1.9005974742352962,2.9665964741975066,1.1294704783976077
1757088851193939700,10.463939697265625,-1.3873675274766981,3.4113638562351465,-0.3035110915236175
1757088851203894500,10.47389453125,-1.163290038152039,3.3759950212121006,-1.7061922157272695
1757088851213849900,10.483849853515625,-0.6613675212189555,2.973749853083491,-2.3999625617705282
1757088851223804700,10.4938046875,-0.034524200892448426,2.6625919000685214,-2.894757564911246
1757088851233758700,10.5037587890625,-0.3458025654166937,2.3367104251742363,-2.270031382869184
1757088851243713500,10.513713623046876,-0.9042527329966425,1.6011048245728015,-1.1992543548502028
1757088851253668900,10.5236689453125,-1.528402284194529,0.986765304249525,-0.9781479172255844
1757088851263623700,10.533623779296875,-2.2635919974714516,0.511427427381277,-0.31805048900768157
1757088851273578800,10.543578857421876,-2.5945024064436555,-0.05389934796988964,0.2853870404858142
1757088851283532500,10.553532470703125,-3.0102322023063897,-0.608329466253519,0.662820861832425
1757088851293487900,10.56348779296875,-3.042814913742244,-1.455665257024765,1.6934508075758814
1757088851303442700,10.573442626953126,-2.870574725291133,-2.0193325747311115,2.0792229798093436
1757088851313397800,10.583397705078125,-2.8961928584113714,-2.1265081703364848,2.2554361635446547
1757088851323352800,10.593352783203125,-2.973306493230164,-2.202993444123864,2.3336633125633
1757088851333307000,10.603306884765624,-3.113714496351778,-2.4384324315488337,2.6415619715213774
1757088851343261700,10.61326171875,-3.5931343818366526,-2.831332848227024,2.541779701037705
1757088851353216800,10.623216796875,-3.7731454965502023,-3.45822439160943,2.2557826388947664
1757088851363171800,10.633171875,-3.4323990454792974,-3.6116426829516883,2.0926362958729268
1757088851373126000,10.6431259765625,-3.1251404379904266,-3.383464041918516,1.9306965521618722
1757088851383080700,10.653080810546875,-2.8601237661644814,-3.217279207983613,1.7882145192451775
1757088851393035800,10.663035888671875,-2.7089558840975165,-3.1127707857608793,1.6182858226068317
1757088851402990800,10.672990966796876,-2.518276368114352,-3.2028760040998456,1.697260867383331
1757088851412945700,10.682945556640625,-2.197083635558188,-3.4539304938077926,1.7343001198366284
1757088851422899700,10.692899658203125,-1.9275386726528405,-3.6824814752846953,1.5425871691524982
1757088851432854500,10.7028544921875,-1.8540724544256924,-3.7920980343014,1.3810215194508433
1757088851442809900,10.712809814453125,-1.742204317089915,-3.8548137259334325,1.1684420140877365
1757088851452764700,10.7227646484375,-1.6131731557682156,-3.8987919838696716,1.033126511799544
1757088851462719700,10.7327197265625,-1.4672776611462235,-3.9223061304479834,1.0133405919641256
1757088851472673500,10.742673583984375,-1.2088991121605037,-3.8866689998775716,0.9627934039663523
1757088851482628900,10.75262890625,-0.8196268228515983,-3.8045594564676284,0.6694917909637094
1757088851492583700,10.762583740234374,-0.2541539170280099,-3.296066328972578,0.693690339609608
1757088851502538800,10.772538818359376,0.47393239398449655,-2.1159318312644957,1.014606739442423
1757088851512493600,10.78249365234375,1.3805179538428782,-0.6971750399202108,0.99128563121818
1757088851522448000,10.79244775390625,2.5292808694705364,0.7886117991238832,0.8464993399471044
1757088851532402700,10.802402587890626,4.207069705273211,2.5672119561970232,0.5175393343903124
1757088851542357800,10.812357666015625,6.208135678690671,4.77855529551506,-0.22217202102951705
1757088851552312600,10.8223125,7.476384513181448,6.627212154632806,-1.1919433011844753
1757088851562267000,10.832266845703124,7.782348989206552,7.208356092318892,-2.3903319791160524
1757088851572221700,10.8422216796875,6.972316216391325,6.514828468990325,-3.6355578115463256
1757088851582176800,10.8521767578125,5.362769726687669,4.691587206158042,-4.264307550016046
1757088851592131600,10.862131591796874,3.6847239935144778,1.932461516007781,-3.787136904762685
1757088851602086700,10.872086669921876,2.3982182023212313,-0.016555998003482817,-3.096012543183565
1757088851612040700,10.882040771484375,1.3874866238117218,-1.1881325107246636,-2.5865982091903685
1757088851621995800,10.891995849609375,0.6487865643262862,-2.490613285163045,-2.631808931531012
1757088851631950600,10.90195068359375,0.22896482297480106,-3.240548439890146,-2.7488667464643717
1757088851641905700,10.91190576171875,-0.3455474216118455,-2.311747833353281,-2.2488749053329227
1757088851651859700,10.921859619140625,-0.7937921243712306,-0.8833785795331001,-1.9600614705950021
1757088851661814800,10.931814697265626,-0.11784808852821588,0.2482739190787077,-1.0948251353435217
1757088851671769600,10.94176953125,0.40271863085925574,0.8537041567593813,-0.04642762384973466
1757088851681724700,10.951724609375,-0.5691527633801102,1.1873498359143733,0.5795578375384212
1757088851691679700,10.9616796875,-2.004926448237896,1.2929606664210558,1.879271485351026
1757088851701633800,10.9716337890625,-2.448011868537962,1.2758832748919724,3.557729890978336
1757088851711588600,10.981588623046875,-2.001243083550036,1.6382272252649068,5.0354889063894746
1757088851721543700,10.991543701171874,-0.6051882456183433,2.8183178838312624,6.279004281640052
1757088851731498800,11.001498779296876,1.276814710523188,4.806713468506932,6.935926221626997
1757088851741453600,11.01145361328125,2.221284010834992,6.5262634707182645,6.283129252615571
1757088851751407600,11.02140771484375,1.6167115590274332,6.150705818507075,4.397893013641238
1757088851761362700,11.03136279296875,0.8674304842948913,2.791509371882677,2.4251632001310583
1757088851771317800,11.04131787109375,-0.1723454023912549,-0.6344616863757372,0.9689155401084572
1757088851781272600,11.0512724609375,-1.9665119619086384,-2.259160152503848,0.7143363103404641
1757088851791226600,11.0612265625,-3.771098208631575,-3.220050426262617,1.2408205832086503
1757088851801181700,11.071181640625,-5.630790548765659,-3.954649480170011,1.8170047065302728
1757088851811136800,11.08113671875,-7.248112348645925,-4.236965954104066,2.119647783047706
1757088851821091600,11.091091552734374,-7.794048779350518,-4.0081659663021565,1.7671968656577168
1757088851831047000,11.101046875,-7.289065121281147,-3.140365479651093,1.2389432450294493
1757088851841000700,11.111000732421875,-6.247993057304621,-1.4812784217089414,0.4821575668204576
1757088851850955800,11.120955810546874,-5.228215125769377,0.8141933996260166,-0.3746997202076018
1757088851860910600,11.13091064453125,-3.7706104251146315,2.76533740427196,-1.1117591728791594
1757088851870866000,11.140865966796875,-1.2457891654014586,3.6185119841992854,-1.7799090477146207
1757088851880820700,11.15082080078125,2.1282070832088587,3.4761633684039115,-2.1396718955531715
1757088851890774800,11.16077490234375,3.908710735815763,2.215587552759051,-1.376105690358579
1757088851900729600,11.1707294921875,2.4049299749195576,0.46822716808021064,-0.1845928895458579
1757088851910685000,11.180684814453125,-0.08314253971949219,-0.9030524172961711,0.28611382039040323
1757088851920639700,11.1906396484375,-1.5480325750768185,-1.6499527343720197,0.9877588453315198
1757088851930593800,11.20059375,-1.7584733148455618,-2.055104145336151,1.7740490696400404
1757088851940548600,11.210548583984375,-2.1223370221316813,-2.1218658974885938,1.745778083923459
1757088851950504000,11.22050390625,-2.4369091675043104,-1.6373387519925833,1.1898666410408913
1757088851960458800,11.230458740234376,-2.336931374448538,-1.2350269483685492,0.4095404397033155
1757088851970413600,11.24041357421875,-1.6352151839673519,-0.7426730547696352,-0.3075606591753661
1757088851980367600,11.25036767578125,-0.6128735394239425,-0.19159107787013052,-0.793719497526437
1757088851990323000,11.260322998046876,-0.10548157810382544,0.06834814456105232,-1.074032961075008
1757088852000277800,11.27027783203125,0.48105925018973644,0.2563461663752794,-0.6933091582722961
1757088852010232600,11.280232666015625,0.7052092932939529,0.09789221895337104,-0.6130808985643088
1757088852020186600,11.2901865234375,0.6889337927322834,-0.12664894236028193,-0.21171762783676384
1757088852030142000,11.300141845703125,0.6470832675397395,-0.26705402287244795,0.13817089171931146
1757088852040096800,11.3100966796875,0.6115046256909147,-0.38492870714664457,0.17387275808900593
1757088852050051600,11.320051513671874,0.5027239329764619,-0.4966074593901634,0.33523937808722254
1757088852060006700,11.330006591796876,0.4511503610730171,-0.4928460610300302,0.1209286650173366
1757088852069961000,11.3399609375,0.41293665801286694,-0.4404869282394647,0.06409370198696851
1757088852079915800,11.349915771484374,0.48793432359099387,-0.4960977563023567,-0.23468378514349458
1757088852089870600,11.35987060546875,0.661476534551382,-0.48169104528725143,-0.7339749306596816
1757088852099825700,11.36982568359375,0.7125315990060568,-0.5765075100570917,-0.8654175370372831
1757088852109780700,11.37978076171875,0.7514356224179267,-0.6430009666621684,-1.0116488394849001
1757088852119734800,11.38973486328125,0.7450023745000361,-0.888307852628827,-0.9633059565983713
1757088852129689600,11.399689697265625,0.7558236282438039,-0.9922767611473798,-1.0270433924935758
1757088852139646000,11.40964599609375,0.8783797483325004,-1.0153905102312564,-1.2218683377183972
1757088852149601000,11.41960107421875,0.7777887918144464,-1.375493988201022,-1.167181346502155
1757088852159555000,11.42955517578125,0.8870651590913534,-1.2974427802711725,-1.230741526134312
1757088852169510000,11.439510009765625,1.3376859433323145,-0.6179746619552373,-1.4878611611001193
1757088852179465000,11.44946484375,1.422072784024477,0.13257540979981422,-1.7287677662812173
1757088852189420000,11.459419921875,0.8641753549564629,0.5508703799754381,-1.882618019299954
1757088852199374800,11.469374755859375,0.23397658672221003,0.8612129249542951,-1.8595529316633939
1757088852209329000,11.479328857421875,0.45860601084120567,1.6044249089062212,-2.0121692589730023
1757088852219284000,11.489283935546876,0.6129319916129112,1.552022521495819,-1.8568783056266605
1757088852229239000,11.499239013671875,0.27951712553910907,1.127597670263052,-1.5963693204835057
1757088852239193900,11.50919384765625,0.1778629237037152,0.9685165308535099,-1.6716634847901761
1757088852249148000,11.51914794921875,-0.12084690501801669,0.9234113147139549,-1.9801769146457313
1757088852259103000,11.52910302734375,-0.2802548652291298,0.8279793483942747,-2.065825738097727
1757088852269058000,11.53905810546875,0.340147316133976,1.6341794111788273,-2.3929908230617642
1757088852279012900,11.549012939453124,0.8823720328390597,2.0674492476463318,-2.1520444703921675
1757088852288968200,11.55896826171875,1.3364701378017663,2.1013193685442206,-1.484533624112606
1757088852298922000,11.568921875,1.5603022740632295,2.0005822815537453,-0.9561208673998713
1757088852308877000,11.578876953125,1.6048831740677356,1.9793682286113499,-0.6801935099810361
1757088852318831900,11.588831787109376,2.284721294739842,2.3973422962695357,-0.47660775067359207
1757088852328787200,11.598787109375,3.0069857677310705,2.839650010195374,-0.4934945880666375
1757088852338741000,11.608740966796875,2.6779063735783097,2.7177982389837503,-0.8536381057858466
1757088852348696000,11.618696044921874,2.3126193554908037,2.505312257122993,-1.6773048516780138
1757088852358651000,11.62865087890625,2.3361843554735184,2.7313322588175533,-2.372664951130748
1757088852368606000,11.63860595703125,2.1573229953169824,2.6999849343955513,-2.4819679141536355
1757088852378561000,11.64856103515625,2.237463869002461,2.5448668533980845,-2.3285934619531035
1757088852388515000,11.65851513671875,2.046641437417269,2.276409977990389,-1.9549989265084267
1757088852398470000,11.668469970703125,1.6932395029127596,1.4342273321986199,-1.3704633005574345
1757088852408425000,11.678425048828124,1.1293079813122748,0.39965047546029087,-1.3277502402514219
1757088852418380000,11.688380126953126,0.40958617854118345,0.030047347739338873,-1.4659678937219083
1757088852428334000,11.698333984375,-0.191448454529047,-0.22220891897380352,-1.2477024516768753
1757088852438289000,11.708288818359375,-0.15770517488121985,0.13092296641767023,-0.6625773354001343
1757088852448244000,11.718243896484376,0.4029436717867851,1.0121078352987765,0.07845131316334009
1757088852458199000,11.728198974609375,0.9728372435968369,1.8180518774956465,1.1237542927078903
1757088852468153900,11.73815380859375,0.9093603583339601,2.7232313699483868,1.9538582320407032
1757088852478108000,11.74810791015625,0.4347146284483373,3.4224989982336758,2.536357968249917
1757088852488063000,11.75806298828125,-0.28878990773186086,3.5791444349288937,2.7789471196904776
1757088852498018000,11.76801806640625,-1.2196271346628664,3.3745278712689877,2.459901336035132
1757088852507972900,11.777972900390624,-2.0671850437521933,3.2210821073979137,2.0462278881803155
1757088852517928000,11.787927978515626,-2.250023490846157,3.0744670663297176,2.0249961534507572
1757088852527882000,11.797882080078125,-1.7228581038460133,2.4726544346243142,1.7992051382064818
1757088852537837000,11.807837158203125,-1.2463210803210734,1.8263287074536083,0.9749068164125084
1757088852547792000,11.8177919921875,-0.9669090956568718,1.3716454960793256,-0.2492016283828765
1757088852557747000,11.827746826171875,-0.8533215871825813,1.0462228708684445,-0.8458635262615978
1757088852567700700,11.83770068359375,-1.1380635346978902,0.40269700354933735,-0.06727825030721724
1757088852577656000,11.847656005859376,-0.4796905191197991,-0.21598083823919295,0.08982304039672016
1757088852587611000,11.85761083984375,-0.9499413019821047,-0.5657312644988298,0.3802634918145835
1757088852597566000,11.86756591796875,-1.8709245127663015,-0.37300387607514857,0.9242703426960855
1757088852607521000,11.87752099609375,-2.5604531295865773,-0.33793548530340195,0.9891378055345267
1757088852617475000,11.88747509765625,-2.8894881000757215,-0.4579080186396837,1.3319948920838534
1757088852627430000,11.897429931640625,-2.9882419042944908,-0.6448129845201969,1.6428626299805937
1757088852637385000,11.907385009765624,-3.1245556238397953,-0.6051788932681084,1.9091969602763652
1757088852647340000,11.917340087890626,-3.070433573029935,-0.6829588830411434,2.26763250503391
1757088852657294000,11.927294189453125,-3.1212095282822845,-0.8824065196305513,2.4610335549354554
1757088852667249000,11.937248779296874,-3.3248236369013786,-1.3565367742747068,2.527653852790594
1757088852677204000,11.947203857421876,-3.24503522991538,-1.8727081813126802,2.548656016547978
1757088852687159000,11.957158935546875,-3.035520665080845,-2.3304063565939663,2.447230947293341
1757088852697114000,11.967114013671875,-2.533289812850952,-2.709859262678027,2.2133570172280073
1757088852707068000,11.97706787109375,-2.1232950535088775,-2.935416907557845,1.6090800412356852
1757088852717023000,11.98702294921875,-2.009715436080098,-3.1294325822263955,0.9920003553587943
1757088852726978000,11.99697802734375,-1.839964726357162,-3.2593688756942747,0.7514467283338307
1757088852736933000,12.00693310546875,-1.9742405103340743,-4.032919883808494,0.6982904538162052
1757088852746887000,12.016886962890625,-2.587511524643004,-4.0844466574281455,0.8858151590302586
1757088852756842000,12.026842041015625,-2.3270430176407095,-3.7521559000134466,1.3929428433910012
1757088852766797000,12.036797119140624,-1.8807517870366572,-3.692890641096234,1.523679931847751
1757088852776751900,12.046751953125,-1.6790952422261236,-3.5156326244831084,1.6082462207600474
1757088852786707000,12.05670703125,-1.4251318793341516,-3.5965123338371514,1.2980717258244752
1757088852796661000,12.066660888671874,-1.208350538367033,-3.714802613174915,1.2868218714050947
1757088852806616000,12.076615966796876,-0.8897644811779261,-3.809832428434491,1.2171480311982332
1757088852816571000,12.08657080078125,-0.537093783557415,-3.7638703032046554,0.8640015327595174
1757088852826526000,12.09652587890625,-0.16557137821167706,-3.5368069299370046,0.8450272215679288
1757088852836480000,12.10647998046875,0.14638766205310821,-3.0588878044039007,0.935156697565317
1757088852846435000,12.11643505859375,0.39072102681249377,-2.457646835106611,0.9266372910231351
1757088852856390000,12.126389892578125,0.8106950361162424,-1.5646072777807711,0.7180312193356454
1757088852866345000,12.136344970703124,2.3166741838395595,-0.021358429849147795,0.3219208276350051
1757088852876299800,12.1462998046875,4.318852210152149,1.9712287612974642,-0.20026735547445712
1757088852886254000,12.156254150390625,6.137835231018066,3.6489229045540092,-0.9781407568324356
1757088852896209000,12.166208984375,6.989293070155382,5.178504461660981,-1.8821221986070273
1757088852906164000,12.1761640625,6.152922910034656,7.546561626735329,-3.6314115055218337
1757088852916118800,12.186118896484375,4.235508741033077,9.328765361258387,-4.1423742380008095
1757088852926074000,12.19607421875,3.1414880539402366,7.17568424129486,-4.5606338446021075
1757088852936028000,12.20602783203125,3.4367855900004503,3.9307904656767843,-3.7952369168490168
1757088852945983000,12.21598291015625,4.0718060793027275,1.1198755515784025,-3.094078652511537
1757088852955937800,12.225937744140625,4.32246806256175,-0.32297581658065316,-2.7504806114017963
1757088852965893000,12.23589306640625,2.8832176415041086,-0.22969781342446802,-2.058067379055917
1757088852975847000,12.245846923828125,-0.09178834912031889,-0.3768593824595213,-0.9696316524885594
1757088852985802000,12.255802001953125,-0.6321677302196621,-1.4767442854106425,0.17814349421076475
1757088852995756800,12.2657568359375,-0.7019643200233578,-1.6280723264753818,1.5372452236026524
1757088853005712100,12.275712158203126,-1.95500214137882,-1.270529638904333,1.33730249697268
1757088853015667000,12.2856669921875,-3.124158733476698,-0.9044985244512558,1.457536019332707
1757088853025621000,12.29562109375,-3.656799629278481,-0.6681500209659338,2.4645523767113686
1757088853035575800,12.305575927734376,-3.5147637326940893,-0.1474725346803665,3.6952211298704145
1757088853045531100,12.31553125,-2.577600079220533,1.1598346370011567,4.684387065520882
1757088853055486000,12.32548583984375,-0.5685024827778339,3.3617508072823283,4.866366557697951
1757088853065440000,12.33543994140625,1.3330831257119775,5.759908511587977,4.215945377907157
1757088853075394800,12.345394775390625,1.5153317902192474,6.897177681037784,2.8933094119295477
1757088853085350100,12.35535009765625,0.9497717906340956,5.115640301468968,1.9853873427703976
1757088853095305000,12.365304931640624,0.6193672853574156,1.35498253057003,1.185560395214334
1757088853105259800,12.375259765625,-0.38416327573209996,-1.124326101246476,1.0050413309786468
