time,seconds_elapsed,gyro_x,gyro_y,gyro_z,acc_x,acc_y,acc_z,grav_x,grav_y,grav_z
1757088840751351800,0.021351806640625,-0.0035562028642743,-0.9017605781555176,-0.1321670264005661,-0.2602034263253212,0.6021775194950402,-1.0531633376561105,-9.28278453132808,-1.99889476685822,-2.4504513706445694
1757088840761307000,0.031306884765625,-0.082572191953659,-0.9057864546775818,-0.0517203919589519,-0.0601993248969316,0.2227589540719985,-1.246071781735122,-9.262223389336466,-1.9913257929086683,-2.5330259012177585
1757088840771261700,0.04126171875,-0.1586691290140152,-0.8901686072349548,0.0487981811165809,0.1509802505403757,0.0902779445573687,-1.2448106757581234,-9.23922011488974,-1.9942669609270989,-2.613445299583673
1757088840781215700,0.0512158203125,-0.0358161851763725,-0.9008825421333312,0.135227620601654,0.344884281527996,0.4494911956891417,-1.005044472783804,-9.213755418765544,-2.006470462809503,-2.692799991327524
1757088840791170800,0.0611708984375,0.1048910468816757,-0.7545342445373535,0.1959936469793319,0.6770166335105896,2.045230547706037,-1.0560188732177018,-9.18780440042913,-2.020240921747684,-2.7700647250548003
1757088840801126000,0.0711259765625,0.1246303990483284,-0.6966296434402466,0.2418815195560455,0.5652922885596752,2.995499912598729,-0.746666216059029,-9.163319362992048,-2.0372206981211898,-2.8379025820061563
1757088840811080700,0.081080810546875,0.063004270195961,-0.8440994620323181,0.1879855096340179,0.2133843920052051,2.131683965539187,-0.0591536152362823,-9.137321582904455,-2.0546207457333803,-2.9083097049236297
1757088840821035500,0.091035400390625,-0.0109205553308129,-1.2318394184112549,0.0859664604067802,0.4408540079861879,1.5756182088777422,0.0124266431137919,-9.104123077657816,-2.0662797654755414,-3.002635171306133
1757088840830989800,0.10098974609375,-0.1433535516262054,-1.506291747093201,0.0958533138036727,0.0624736995697021,1.1504992379009722,0.1527797011777758,-9.060631726455687,-2.0748105701945723,-3.125779612676799
1757088840840944600,0.110944580078125,-0.3461516797542572,-1.3887022733688354,0.2048471719026565,-0.6718313398271799,0.2938619502991437,-0.5536071114629507,-9.009571985825897,-2.097444134546071,-3.2555677298456427
1757088840850899700,0.120899658203125,-0.4466993808746338,-0.4826147258281708,0.2597567141056061,-1.248822834008932,0.0728410720661282,-1.426595229884982,-8.973071516424417,-2.130956820308417,-3.333676220920682
1757088840860854500,0.1308544921875,-0.4380518198013305,0.3922238349914551,0.4042212069034576,-1.7764970473140478,1.0747697509169578,-1.541942149247229,-8.965088116455078,-2.175054759101569,-3.3266666344195603
1757088840870809900,0.140809814453125,-0.3051283955574035,1.101952314376831,0.6351292729377747,-1.2203063490986823,1.6764074644468725,-2.175491396953165,-8.978693447959422,-2.2335081171140074,-3.250368115375936
1757088840880763600,0.150763671875,-0.049182366579771,1.5362099409103394,0.7614861130714417,-0.7949070998758078,2.0860506338723,-1.7694059200093148,-9.004560295143722,-2.3039226926855743,-3.1273347331643104
1757088840890718700,0.16071875,0.5059428215026855,1.5536284446716309,0.6109093427658081,-0.8492787415325641,3.1224948919177056,0.9019871261522172,-9.036080053523182,-2.35979202555418,-2.991825608000159
1757088840900673500,0.170673583984375,1.1706593036651611,1.659338355064392,0.525740921497345,-0.6374567765384912,3.789466516754031,3.518897179237008,-9.069235304149984,-2.384967675603926,-2.869021066108346
1757088840910628900,0.18062890625,1.749442219734192,1.8426909446716309,0.7006876468658447,-1.546619201147556,1.6311190006949006,2.990386222846806,-9.1044357968688,-2.398011866094172,-2.743933089454472
1757088840920583700,0.190583740234375,2.166424036026001,1.562690496444702,1.0341434478759766,-1.7719050433486698,0.5509196259446442,1.9368650116637347,-9.130241853776573,-2.4233349617905917,-2.6337273323729637
1757088840930538800,0.200538818359375,2.3031725883483887,0.9696426391601562,1.437522292137146,-1.1602286047548056,0.141921330294013,1.9121984801799057,-9.133192520275712,-2.476866207100451,-2.5729978461220857
1757088840940492500,0.210492431640625,2.048115968704224,0.2815342843532562,1.804753303527832,-0.9366261855959892,-0.4907505500555038,1.19085316786021,-9.108396517193317,-2.5682912758663297,-2.571260062544048
1757088840950447900,0.22044775390625,1.463992953300476,-0.2569807469844818,2.0439140796661377,-0.1023567971467971,-1.0142828412503004,-0.866243028075993,-9.057709117007256,-2.697328282406926,-2.61776930026263
1757088840960402700,0.230402587890625,0.7890685200691223,-0.616780698299408,2.1395859718322754,0.6619412294536828,-1.5070295335590838,-2.388455517719686,-8.987927140250802,-2.8562533544719217,-2.6887483778491617
1757088840970357800,0.240357666015625,0.303689569234848,-0.8141469955444336,2.062865972518921,1.117646185091138,-1.7641402545660734,-2.3407389500379563,-8.906282876265049,-3.030098932293057,-2.768936013285816
1757088840980312800,0.250312744140625,0.2751183807849884,-0.7886911630630493,1.8091068267822263,1.548624695751071,-1.5538134965658188,-1.2563365706399083,-8.823256802532077,-3.194486945939064,-2.8488211586445567
1757088840990267000,0.260266845703125,0.6414573788642883,-0.61063152551651,1.4249707460403442,1.6711767241865396,-0.7562012293845415,0.2547024908214807,-8.75038212045729,-3.3233690541788934,-2.925135167518258
1757088841000221700,0.2702216796875,1.2387149333953855,-0.3693430125713348,1.0717931985855105,1.3382692961782217,0.226572082619369,1.510813143751025,-8.6944538970083,-3.403528048042953,-2.9988094755381343
1757088841010176800,0.2801767578125,2.005330801010132,-0.0051726787351071,0.8835476636886597,0.2592980019181967,0.7608344421431422,2.2542548448055983,-8.655613001960516,-3.438000518748164,-3.070976593865454
1757088841020131800,0.2901318359375,2.741109848022461,0.4517261683940887,0.822485089302063,-1.3512071036845446,0.8296662785679102,3.16871099190861,-8.633511060267686,-3.4372511616855856,-3.13339622516036
1757088841030086700,0.300086669921875,3.091667652130127,0.7742694616317749,0.7569900155067444,-1.939576316449046,1.610856110997498,3.351757528795302,-8.626185247424244,-3.412642497868836,-3.1801231972828505
1757088841040040700,0.310040771484375,2.614621639251709,0.5962904095649719,0.4981752634048462,-0.5252437712877989,2.5074910624668,2.141952992227673,-8.627639537885784,-3.375090181326866,-3.216051712015271
1757088841049995800,0.319995849609375,1.56836998462677,0.0879404544830322,0.2013395130634308,2.4077386025995016,2.534121587499976,-0.6212561678439379,-8.6272759652704,-3.336627764202654,-3.256901608797908
1757088841059950800,0.329950927734375,0.6730733513832092,-0.5340139269828796,0.0177249461412429,4.434318664240837,1.4995079058825969,-2.9390280837923286,-8.616988964533805,-3.3098236361682414,-3.3110353500455614
1757088841069905700,0.33990576171875,0.3007992506027221,-1.3513301610946655,-0.0943263471126556,4.752570959430932,0.1913300888463854,-2.609624279990792,-8.587184193378686,-3.29122268833369,-3.405657753548026
1757088841079860700,0.34986083984375,0.6217519640922546,-1.851157546043396,-0.0956360846757888,4.257300301602482,-0.0533519432201981,-0.3792772572562098,-8.533494104245305,-3.2678546722278,-3.5596333865121004
1757088841089814800,0.359814697265625,1.4064111709594729,-1.7499438524246216,-0.014043902978301,3.06808408729434,-0.0935454219207167,3.437485847224295,-8.46895411979556,-3.2266137303009628,-3.746487498988211
1757088841099769900,0.369769775390625,1.9927915334701536,-1.5483670234680176,-0.0562843009829521,1.817478461521864,-1.1795683882579209,6.914796924358606,-8.406919980686903,-3.158725019945204,-3.939103535991907
1757088841109724700,0.379724609375,2.117530345916748,-1.4722424745559692,-0.3359198272228241,1.3411124106496572,-0.5180597050026059,5.132789004668593,-8.351634146794677,-3.0599250384971497,-4.130067129613459
1757088841119679700,0.3896796875,1.974668383598328,-1.0945920944213867,-0.7250531911849976,1.4765654217123985,0.8801920584514736,0.7443620307698845,-8.312759349477291,-2.929479041941464,-4.299601858498156
1757088841129634800,0.399634765625,1.8908582925796509,-0.6918477416038513,-0.9469116926193236,0.8831675671309233,0.4405848356559872,-1.5661828565344214,-8.298608659049869,-2.776128555138409,-4.426803174044192
1757088841139590000,0.40958984375,2.0764708518981934,-0.2793738842010498,-1.108661651611328,0.6357604940146208,0.1442716928124427,-1.5633634151995182,-8.30393949868381,-2.6034160730004308,-4.520751916068792
1757088841149544000,0.4195439453125,2.325116872787476,0.1163978278636932,-1.2830685377120972,1.3282371469855307,0.4445699597693979,-0.7772510316759348,-8.330828090131282,-2.404373510080576,-4.5811219213575125
1757088841159499000,0.4294990234375,2.410620927810669,0.1488601714372635,-1.4523736238479614,1.9925790078401564,0.4669936807624995,-0.2401326981991529,-8.36938490754068,-2.181541344641894,-4.622191598370671
1757088841169453800,0.439453857421875,2.346440315246582,-0.1808826923370361,-1.5983331203460691,2.4634254185080526,-0.1072382855780422,-0.4006716352015733,-8.400895898091793,-1.943844349157065,-4.670846031424403
1757088841179409000,0.449408935546875,2.2616753578186035,-0.692181408405304,-1.708496332168579,2.353131398621201,-0.7741311460897325,-1.0558312416911124,-8.410610651898384,-1.6974328629493711,-4.748760753493011
1757088841189364000,0.459364013671875,2.2064096927642822,-1.281375288963318,-1.8177909851074217,2.0455659171402454,-1.1906249120622872,-1.54560505566895,-8.391247779780626,-1.4432963354475796,-4.865618077418207
1757088841199318000,0.469318115234375,2.197145462036133,-1.8315883874893188,-1.9228241443634035,1.8570020781368013,-1.272685940155387,-2.041061591458321,-8.33810597217977,-1.1789764137141403,-5.025573661574721
1757088841209272800,0.47927294921875,2.1814229488372803,-2.003997802734375,-1.923140048980713,1.4504793788194656,-1.1085627149254085,-2.481612817105651,-8.25928962509632,-0.907654504264146,-5.208712552919984
1757088841219228000,0.489227783203125,2.1081130504608154,-1.8292460441589355,-1.76003897190094,0.6410942562580109,-0.9325420580875128,-2.842608275479078,-8.171457027864456,-0.6428424881648271,-5.383718991214036
1757088841229183000,0.499182861328125,1.952189326286316,-1.525540113449097,-1.4417660236358645,-0.3936965354919433,-1.076076741862297,-2.6840672342956067,-8.08895994644165,-0.4020435080766678,-5.529690473681688
1757088841239137800,0.5091376953125,1.7522274255752563,-1.3435916900634766,-1.0300687551498413,-1.0928145261734723,-1.2782264770172536,-2.650886849227548,-8.013231628501416,-0.1995944977141916,-5.649660084408521
1757088841249091800,0.519091796875,1.597148895263672,-1.254014253616333,-0.5701943635940552,-1.367499482315779,-1.2163755855210123,-3.024623131230473,-7.940707075038552,-0.0410292947704205,-5.7544648592293255
1757088841259047000,0.529046875,1.5345139503479004,-1.3580617904663086,-0.1414922624826431,-1.342889941716194,-0.9414249641798436,-3.020981559857726,-7.866108053389191,0.0765194820176577,-5.85567073277533
1757088841269002000,0.539001953125,1.558241367340088,-1.6937849521636963,0.1387529373168945,-0.9519394900619984,-0.6516781210493297,-2.5867238813966518,-7.777020487660169,0.1665530461927875,-5.971649228039383
1757088841278956800,0.548956787109375,1.6232298612594604,-2.1857481002807617,0.2337398827075958,0.1031032315999269,-0.4470235269339755,-2.213708314883709,-7.660998737776279,0.2469580141745507,-6.117065414711833
1757088841288912000,0.558911865234375,1.721459984779358,-2.6993908882141118,0.2047950625419616,1.1654746887147427,-0.1019932610640302,-1.6953981422513722,-7.510558000940084,0.3331832858076319,-6.296895912161469
1757088841298867000,0.568866943359375,1.8700125217437744,-3.1735103130340576,0.1956593543291092,1.679441279184818,0.1304648108540102,-1.2238567350566387,-7.323771693003177,0.4330704414378851,-6.507319700795412
1757088841308821000,0.578821044921875,2.0639374256134038,-3.4095966815948486,0.3071578443050384,1.158981819564104,0.117989214031957,-0.7074778227478266,-7.1069263468891375,0.5450550812928006,-6.735346366137266
1757088841318775800,0.58877587890625,2.297105550765991,-3.534966468811035,0.5153201222419739,-0.0294862067252397,0.2605956405133008,-0.1889554686695337,-6.87224899148643,0.6655114160906523,-6.964170903858542
1757088841328731000,0.59873095703125,2.519867420196533,-3.4121875762939453,0.7801135778427124,-1.1173398956209422,0.9375627357937396,0.0466296492278575,-6.630446314248442,0.7919486884616315,-7.181949146908521
1757088841338686000,0.60868603515625,2.5311946868896484,-2.912473678588867,0.899019718170166,-1.931765350437164,1.5147016756221652,-0.8091139044046401,-6.407239616408944,0.9209496007755398,-7.366785489821433
1757088841348641000,0.61864111328125,2.258448839187622,-2.176807641983032,0.7733474969863892,-1.975944683903456,1.1596093768779188,-2.9167314963102338,-6.226439981666207,1.045749627333507,-7.503881007394194
1757088841358594800,0.6285947265625,1.880040168762207,-1.3189247846603394,0.4742460250854492,-1.677103191626072,0.1776822333745658,-4.879277769458294,-6.101508364617824,1.1626217104364185,-7.588827235534786
1757088841368550000,0.6385498046875,1.5341345071792605,-0.3850465714931488,0.0979995056986808,-1.184739361155033,-0.7359542679086327,-5.909363744518161,-6.04051233638525,1.2740512371592223,-7.619671286609768
1757088841378505000,0.6485048828125,1.264027118682861,0.4541964530944824,-0.3192073106765747,-0.6010954233467578,-1.1221483188159762,-5.836953757345676,-6.042364686253666,1.3864084731861948,-7.598557771432399
1757088841388460000,0.6584599609375,1.093969702720642,1.107567548751831,-0.6959118843078613,-0.0907043532758951,-0.9783251004233956,-5.11481612560451,-6.094715051215887,1.505797507546097,-7.533750660479068
1757088841398414800,0.668414794921875,1.0488730669021606,1.5432777404785156,-0.9847607612609864,0.2615536718904972,-0.6488093606799841,-3.970116513893008,-6.181217276626825,1.6370160959094762,-7.435261644676327
1757088841408369000,0.678368896484375,1.064685583114624,1.7243993282318115,-1.1956602334976196,0.594506108084321,-0.255623405058682,-2.508189273864031,-6.283877440634369,1.782525367692858,-7.314770640423894
1757088841418324000,0.688323974609375,1.1162669658660889,1.5531034469604492,-1.300159215927124,0.90820205514431,-0.0473649777650833,-1.1772142263472078,-6.380449224638938,1.9404304490603503,-7.189922025483846
1757088841428279000,0.698279052734375,1.199292540550232,1.1896148920059204,-1.1697890758514404,0.7414262695789336,-0.090614921426773,-0.3129045044213533,-6.452793745359778,2.102641995450109,-7.078893261581659
1757088841438233900,0.70823388671875,1.2428452968597412,0.832143247127533,-0.816317617893219,-0.2696832023322582,0.0983601287260651,0.1608054789841175,-6.501866696086526,2.253045030624419,-6.987123324900865
1757088841448188700,0.718188720703125,1.254140019416809,0.3802399635314941,-0.4047897160053253,-1.4193541727155443,0.3206292534545064,0.4962456403404474,-6.530442217707634,2.3789824637144803,-6.918391733980179
1757088841458143000,0.72814306640625,1.270876407623291,-0.1600845158100128,-0.0541132017970085,-1.870754124635458,0.4468576323151588,0.6623094782441854,-6.5324447897017,2.480353172433376,-6.880799377688765
1757088841468098000,0.73809814453125,1.3069381713867188,-0.5302801728248596,0.2105891108512878,-1.883213793236017,0.5365484246343374,0.7681202152371406,-6.509660710963606,2.562895262041688,-6.8721373478055
1757088841478052900,0.748052978515625,1.3984425067901611,-0.6097057461738586,0.3020724356174469,-1.8800684809476136,0.3955383639663458,0.8005114957541227,-6.476593138620257,2.637765501847863,-6.875050020381808
1757088841488007700,0.758007568359375,1.5889647006988523,-0.5619760155677795,0.2080942988395691,-1.5006407093048095,0.2682461552664637,0.8493056295394897,-6.443469452175497,2.7225606310799715,-6.873117006492614
1757088841497963000,0.767962890625,1.748157024383545,-0.3657620549201965,0.0065313689410686,-0.926574162659049,0.0410398663967847,1.037696450063586,-6.413150301757455,2.8305057497531174,-6.85785104829967
1757088841507917800,0.777917724609375,1.7084418535232544,0.1111751049757003,-0.2765675485134125,-0.7322977912276983,-0.3407785997748375,0.4581996950626373,-6.40017800745964,2.9570421716496345,-6.816450531896948
1757088841517871900,0.787871826171875,1.5815283060073853,0.5401213765144348,-0.6214268803596497,-0.3712789519786834,-0.1223465689912438,-1.2796657160401343,-6.408800874376297,3.097292061600089,-6.745698248803615
1757088841527826700,0.79782666015625,1.3543078899383545,0.8649954795837402,-0.9194507002830504,0.1839373482465744,-0.3705769411891698,-2.4626421591758727,-6.431606580424308,3.245414584621787,-6.653729574680328
1757088841537782000,0.807781982421875,1.019564509391785,1.012090802192688,-1.0855448246002195,0.322364406684041,-0.9590914076432584,-3.029042116716504,-6.460498912909626,3.388607542286813,-6.553599805933237
1757088841547736800,0.81773681640625,0.7092682719230652,1.0704379081726074,-1.0705392360687256,0.0625491028934717,-1.3221981590822338,-3.053250090777874,-6.490830922809243,3.5143887619018552,-6.45666854096651
1757088841557692000,0.82769189453125,0.5028570294380188,1.0443756580352783,-0.921457290649414,-0.4943938749939203,-1.1289882478386164,-2.4199732302725314,-6.523160828527808,3.6176112359672783,-6.366447587293386
1757088841567645700,0.837645751953125,0.335707426071167,0.9356996417045592,-0.6936444044113159,-0.8742331500470638,-0.7060565577730537,-1.5770149239331483,-6.555722789436579,3.697012981723249,-6.286890066453815
1757088841577601000,0.84760107421875,0.1744967103004455,0.9000630974769592,-0.3921697735786438,-1.2127496501088142,-0.2142073988258838,-0.8866413807213306,-6.592198708918691,3.748797237235308,-6.217703132981062
1757088841587555800,0.857555908203125,0.0153419477865099,0.849084734916687,-0.0617540329694747,-1.4317290856420992,0.1661255049630999,-0.5212532403469086,-6.63837652272582,3.769044198711216,-6.156025552225112
1757088841597511000,0.867510986328125,-0.0714752450585365,0.6773289442062378,0.1775978207588195,-1.4400620297014712,0.3264820711359381,-0.3247182763338089,-6.687504418510199,3.7626647268071767,-6.106556295657158
1757088841607466000,0.877466064453125,-0.0899958908557891,0.5403763055801392,0.3260249197483063,-1.153202067118883,0.1195961012393236,0.0566050997972488,-6.733596892121434,3.740604870690405,-6.069343294072151
1757088841617420000,0.887419921875,-0.1067197397351265,0.4707240164279938,0.4058901667594909,-0.71946344409585,-0.1062099654436111,0.4274848233252764,-6.777530141872167,3.7099323767900474,-6.039194239524006
1757088841627374800,0.897374755859375,-0.1369966864585876,0.4600386321544647,0.4397357702255249,-0.3492787170946598,-0.0840247293815016,0.4272954382330179,-6.820906342262029,3.673830843578279,-6.01236936096251
1757088841637330000,0.907329833984375,-0.1715735644102096,0.4847900569438934,0.4461252093315124,-0.0784112734138965,-0.0307601721838116,0.3127577894270419,-6.865222453850508,3.634183308322728,-5.985968260771036
1757088841647285000,0.917284912109375,-0.1615746468305587,0.501893162727356,0.4325120151042938,0.1666132884800434,-0.0551765282988548,0.312975816091895,-6.9104813992470495,3.593806582009792,-5.958204055532812
1757088841657239800,0.92723974609375,-0.1272893697023391,0.4778453409671783,0.3992339670658111,0.4074269546806812,-0.0418807011350989,0.4262532357037067,-6.954521031981706,3.556419100640714,-5.929325751572847
1757088841667193900,0.93719384765625,-0.1186800450086593,0.403797447681427,0.3312704861164093,0.7146072362363338,-0.0120168932691216,0.6021867257148027,-6.993550143077969,3.5238618159070607,-5.902799563696981
1757088841677149000,0.94714892578125,-0.1349969655275344,0.3025267720222473,0.2401709407567978,1.0961299343317747,-0.1504246624842286,0.6178139184355735,-7.024322882482409,3.496471120156348,-5.882513731515407
1757088841687104000,0.95710400390625,-0.1456227153539657,0.1674795150756836,0.1577218621969223,1.3194763329029082,-0.2851975823283195,0.5659019448906183,-7.04506055008471,3.474274778178334,-5.870854273381829
1757088841697058800,0.967058837890625,-0.1255936026573181,-0.0121264774352312,0.0926464572548866,1.4287199669539927,-0.2419888474598527,0.6662894877910613,-7.054046405094861,3.457551314653456,-5.869937158536911
1757088841707014000,0.977013916015625,-0.0801779255270958,-0.216222658753395,0.0446986407041549,1.3978326612591745,-0.0924342458084225,0.9324737420916556,-7.049645539787411,3.4467107716873286,-5.881587848842144
1757088841716968000,0.986968017578125,-0.0098038893193006,-0.4121511578559875,0.0193346962332725,1.2164070035725831,0.0801964032649993,1.2614064212501048,-7.0322221112996335,3.4418241686895485,-5.905259816330671
1757088841726923000,0.996923095703125,0.0792322382330894,-0.5873988270759583,0.0257928632199764,0.97474519611001,0.317783800895512,1.527044732105732,-7.003344976383447,3.442459543983638,-5.939110063484311
1757088841736877800,1.0068779296875,0.1850436180830001,-0.7220080494880676,0.0651525184512138,0.6054653089940547,0.5070478971228003,1.6532430080890654,-6.9658116568028925,3.4472754198327658,-5.980313596010208
1757088841746833000,1.0168330078125,0.3169782161712646,-0.8144264221191406,0.1306207478046417,0.2232926225572824,0.6715338181853294,1.703639900895953,-6.923016471171379,3.455620931112766,-6.025023675352335
1757088841756787700,1.02678759765625,0.4730040431022644,-0.8717035055160522,0.2012027651071548,-0.1001496424913406,0.7410039525136352,1.8165671918958424,-6.87790014911592,3.468002566041052,-6.069417528352141
1757088841766743000,1.036742919921875,0.6531778573989868,-0.9033826589584352,0.2670320868492126,-0.2090045694857835,0.7101607782214879,1.9084148699879648,-6.832042653304338,3.4861262517526743,-6.110687111851573
1757088841776696800,1.04669677734375,0.8650227189064026,-0.8989570140838623,0.3350492417812347,-0.2704921806275844,0.7193243278861046,1.9817969170629977,-6.78746526043117,3.511978193628788,-6.145463241678476
1757088841786652000,1.05665185546875,1.1039001941680908,-0.859809935092926,0.4220932424068451,-0.4597217900633811,0.8731444780275225,2.104047916725278,-6.746675569403172,3.546851061828434,-6.170300161293149
1757088841796606700,1.066606689453125,1.4142303466796875,-0.8310738801956177,0.5375029444694519,-0.78971829906106,1.1758160499870776,2.427996962252259,-6.71206369022727,3.5919372810065746,-6.181955527773499
1757088841806562000,1.07656201171875,1.8098883628845213,-0.9262253046035768,0.6557133793830872,-1.0237234542906284,1.7179492890164254,3.01849383469522,-6.680069300073385,3.651047933883965,-6.181982415780425
1757088841816516900,1.086516845703125,2.272165298461914,-1.1240710020065308,0.796203076839447,-1.0366145000457765,2.0593056886792183,3.7629227932214735,-6.643834788131714,3.728527187144756,-6.174781690621376
1757088841826471000,1.096470947265625,2.706854343414306,-1.392706274986267,0.9809942841529846,-1.2925848188459872,2.170291490222513,4.18188470287323,-6.60005000694096,3.8234424361139534,-6.163684542545676
1757088841836425700,1.10642578125,2.980176448822021,-1.6323668956756592,1.16394305229187,-1.4605805015951394,2.183102164217829,3.564567043522,-6.548323326835036,3.928396848538518,-6.152848675754666
1757088841846381000,1.116381103515625,3.0881283283233643,-1.8627326488494875,1.3148473501205444,-1.3169564590364693,1.5341814521178605,2.348561606487632,-6.490384932607412,4.033983129125834,-6.145914492577314
1757088841856336000,1.1263359375,3.038458585739136,-1.93010687828064,1.3631515502929688,-1.4363298574358223,0.9439648579210044,1.180004149326682,-6.428323320969938,4.13533396410048,-6.143782741245627
1757088841866290700,1.136290771484375,2.915792465209961,-1.8216708898544312,1.3190494775772097,-1.1918974162161349,0.1817415917679667,-0.2029191120922565,-6.368991426557302,4.23196916873008,-6.139769998472929
1757088841876244700,1.14624462890625,2.7612860202789307,-1.54792320728302,1.2094461917877195,-0.7515484351426363,-0.5090910933881998,-1.2510586302369833,-6.319576530525088,4.325298902073502,-6.125775959911942
1757088841886200000,1.156199951171875,2.572654485702514,-1.2059944868087769,1.0602960586547852,-0.430342550843954,-0.7996572170123457,-1.8248457754194736,-6.285093830686807,4.4165477374896405,-6.09607114199996
1757088841896155000,1.16615478515625,2.3497307300567627,-0.8417171835899353,0.915486216545105,-0.2249152553230524,-1.1244789537206292,-2.2952204769223927,-6.266812324064969,4.503894304770231,-6.0508162882566445
1757088841906109700,1.176109619140625,2.088644504547119,-0.4615536630153656,0.7996175289154053,-0.1770826600462198,-1.3206766486033796,-2.7095611565142868,-6.266611248534917,4.583673651666939,-5.990817454367876
1757088841916065000,1.18606494140625,1.8163236379623413,-0.1655419915914535,0.7061874270439148,-0.2329372337371111,-1.2845403363391756,-2.850808533069491,-6.283032221981883,4.652433591899276,-5.920199026787281
1757088841926019000,1.19601904296875,1.551684856414795,0.0223125498741865,0.6189890503883362,-0.0544353545427322,-1.2256617386519908,-2.798901235699653,-6.309951208567619,4.709524429386854,-5.845962408709526
1757088841935974000,1.205973876953125,1.318993330001831,0.1230934858322143,0.5595635175704956,0.2217839715600013,-1.136021799737215,-2.46626561037004,-6.342111602938175,4.755456159478426,-5.773529040661454
1757088841945928700,1.2159287109375,1.1337014436721802,0.2161732465028762,0.5042240619659424,0.3516998067617416,-0.9792600431859492,-2.1963708111137152,-6.377007559752464,4.791427636569738,-5.704943580213189
1757088841955884000,1.225884033203125,1.044945240020752,0.4104881286621094,0.4149287939071655,0.494836358064413,-0.6692375239416957,-1.7826660913378,-6.416445251649618,4.823177404312789,-5.633523188599944
1757088841965838800,1.2358388671875,1.0867005586624146,0.6058030724525452,0.3262696862220764,0.578353430184722,-0.1847726300269365,-0.8644611130952835,-6.462701975911855,4.858403615994751,-5.54975418754518
1757088841975793000,1.24579296875,1.268954515457153,0.7369565367698669,0.2850178480148315,0.4268856883883476,0.2465919573411345,0.1706879905730486,-6.514143409335613,4.90303653844744,-5.449453738406301
1757088841985747700,1.255747802734375,1.5170444250106812,0.8291851878166199,0.3229321837425232,0.1839806028664111,0.709341863054037,1.1054314311623572,-6.571111497226357,4.958181794825196,-5.329850038382411
1757088841995703000,1.265703125,1.7721326351165771,0.8427454829216003,0.4418780207633972,-0.2071148102164268,1.259410863518715,1.57136084369421,-6.634017158472537,5.01968226544857,-5.192590854680538
1757088842005657900,1.275657958984375,1.956252932548523,0.6797976493835449,0.6567798256874084,-0.6202899531602859,1.5803244868725537,1.4165607426047324,-6.700729810786247,5.078848155644535,-5.047367560231685
1757088842015613000,1.285613037109375,2.0333027839660645,0.361237496137619,0.8947058320045471,-0.9490028520882128,1.486066825029254,0.8567413324981927,-6.766611272972821,5.12582033469975,-4.910124743142724
1757088842025567700,1.295567626953125,2.0152266025543213,-0.0304749067872762,1.0982683897018433,-0.7532675140202045,1.2063152331471445,0.1187415302366018,-6.825727478808164,5.15627567871809,-4.7950662853330375
1757088842035522000,1.30552197265625,1.8630287647247317,-0.4009336531162262,1.2460263967514038,-0.3642793023496866,0.5934329258948564,-0.5077496156513691,-6.876085793170333,5.168063731667399,-4.709664714640379
1757088842045476900,1.315476806640625,1.6401702165603638,-0.7250715494155884,1.3586159944534302,-0.0746013597369193,-0.3579395779341459,-1.2036425068065524,-6.91631785031557,5.160558470603824,-4.658709895689785
1757088842055432000,1.325431884765625,1.3584131002426147,-0.7820762395858765,1.4829150438308716,-0.0575239682078361,-0.9163274939328432,-1.9322031573325396,-6.953596318352222,5.13191806705296,-4.634792721268535
1757088842065386800,1.33538671875,0.8650075197219849,-1.0296828746795654,1.286795139312744,-0.0011123451560735,-0.9516133268475532,-2.761724766732752,-6.984569548764824,5.085801043522357,-4.639051840017736
1757088842075341800,1.345341796875,0.3458575308322906,-1.350185513496399,0.8004041910171509,2.77473710078001,-1.1797381918668746,-4.532953518255055,-6.980451592051982,5.040837281680107,-4.6940004047796124
1757088842085295900,1.3552958984375,0.1208110228180885,-1.0459824800491333,0.5753914713859558,6.0925832998842,-1.9088064996540544,-5.268290531048178,-6.9558420514523975,5.004658299317955,-4.7686517411381
1757088842095251000,1.3652509765625,0.0732688084244728,-0.6527931094169617,0.5131579041481018,5.151758493554592,-1.9117332007557155,-3.620096330781281,-6.9432198857665055,4.9716725600391625,-4.821260172514617
1757088842105205800,1.375205810546875,-0.0815838053822517,-0.6966522336006165,0.4379114508628845,3.661069269421696,-1.460226281329989,-1.6284136872589587,-6.935738590100407,4.93885165593326,-4.86555904070735
1757088842115160800,1.385160888671875,-0.1867493689060211,-1.092483401298523,0.3937628865242004,2.1405554003894327,-0.4367074097007513,-0.9079846130013466,-6.912499168810248,4.903540104055405,-4.933867437779903
1757088842125116200,1.3951162109375,-0.1086357980966568,-1.3297334909439087,0.4961016476154327,0.3961386679470539,0.6588523235276341,0.1014139633387327,-6.872603796273469,4.8659176448866726,-5.025987503072619
1757088842135071000,1.405071044921875,0.0686513632535934,-1.3333806991577148,0.6719922423362732,-1.3915320998102425,1.0600775009587406,1.3677473195970058,-6.832998931115865,4.825019525048137,-5.118562910917401
1757088842145025000,1.41502490234375,0.2700432538986206,-1.2278459072113037,0.8242570757865906,-2.329353632670641,1.4095859351560474,1.834021015521884,-6.803028740265965,4.782717091369628,-5.197575072833895
1757088842154980000,1.42497998046875,0.3855429589748382,-1.1436388492584229,0.8618281483650208,-2.16318341178298,1.3922265118151902,1.8920663772553203,-6.7823021785795685,4.74246632952392,-5.261157025906443
1757088842164935200,1.43493505859375,0.3949549198150635,-1.0622512102127075,0.7279535531997681,-1.502725114363432,0.9607225159764288,1.5213924054324626,-6.761460466080903,4.709046290481091,-5.317698412817716
1757088842174890000,1.444889892578125,0.4124947786331177,-0.8611353635787964,0.4905122220516205,0.1719137329757213,0.2833689055964351,0.5172983652412891,-6.738909611576795,4.689088959601521,-5.363761075812578
1757088842184845300,1.45484521484375,0.4124624133110046,-0.6014918684959412,0.1995249837636947,1.419211549374461,-0.5221165791779756,0.0335538945555686,-6.715484896847605,4.68832674305737,-5.393722498834133
1757088842194799000,1.464799072265625,0.3593142330646515,-0.3299860954284668,-0.0227597467601299,2.211680023926496,-0.867867414407432,-0.2898907085806131,-6.694672994965314,4.703677749185264,-5.406214316138625
1757088842204754200,1.474754150390625,0.3055078387260437,-0.2247426956892013,-0.1450237482786178,2.107572583720088,-0.8417430853307246,-0.7149293077975512,-6.675858988901973,4.727682017368078,-5.408540713259577
1757088842214709000,1.484708984375,0.2797603905200958,-0.3052644431591034,-0.1426894813776016,1.609940457457304,-0.779960290634632,-0.6552005230218172,-6.654972268217802,4.753437220871448,-5.41170648381412
1757088842224664300,1.494664306640625,0.27761110663414,-0.5102263689041138,-0.0687264502048492,0.7609598220884799,-0.7218520927980542,-0.1249438920080661,-6.62795099030137,4.775684416253864,-5.4252644690454
1757088842234619100,1.504619140625,0.2907916307449341,-0.7478016018867493,0.0182244274765253,-0.0128010293841361,-0.515327065168321,0.4423357709765434,-6.592950988590717,4.792568623298406,-5.452950932872295
1757088842244573200,1.5145732421875,0.3235362470149994,-0.9569491744041444,0.1140241846442222,-0.5485509971171617,-0.3748936353445052,0.8889595945358276,-6.5492094620198005,4.805064532256126,-5.494505763053894
1757088842254528000,1.524528076171875,0.3535623252391815,-1.0342999696731567,0.235483780503273,-0.9302420375168324,-0.4131345186725259,1.1326222204267975,-6.502556431916355,4.8123301393449305,-5.54333964432776
1757088842264483300,1.5344833984375,0.3594747483730316,-1.0788674354553225,0.3209070265293121,-1.3904875591933727,-0.1176587034359574,0.9616688569158316,-6.457255985465645,4.8141842427790165,-5.594448484796286
1757088842274438100,1.544438232421875,0.3504429161548614,-1.0888484716415403,0.3388689756393432,-1.3540227456271647,0.0899865603953599,0.4115478340029716,-6.41261780231595,4.812590251585841,-5.646918676745892
1757088842284393000,1.55439306640625,0.3078470826148987,-1.030120611190796,0.3071106076240539,-0.8635632874727248,0.0139753338605165,-0.1700502771914005,-6.367973189425468,4.810789924165606,-5.698736542266607
1757088842294348000,1.56434814453125,0.2488098740577697,-0.9394935965538024,0.2568903267383575,-0.0954383960604667,-0.201064424136281,-0.8146697849661111,-6.325660818874836,4.808555881503224,-5.74753769031465
1757088842304302000,1.574302001953125,0.2228626459836959,-0.914439618587494,0.1692933142185211,0.4035340388953685,-0.2733084070920944,-1.1678496011525392,-6.283094765824079,4.808375264239311,-5.794189551374316
1757088842314257200,1.584257080078125,0.2502774894237518,-0.95716655254364,0.0751492232084274,0.9111772715628148,-0.1594675083786249,-0.7920026106059551,-6.234834300523996,4.814394086137414,-5.841133088856935
1757088842324212000,1.5942119140625,0.3215847909450531,-1.0651888847351074,0.0189494267106056,1.1026970377624037,-0.0464911175400018,-0.1713835716217756,-6.178254919689893,4.828160745683312,-5.88968756866753
1757088842334167000,1.6041669921875,0.4173736274242401,-1.2149163484573364,-0.0335430763661861,0.865123960918188,0.0820820708811283,0.3860521582186222,-6.110670160716772,4.850272624248266,-5.9417971106112
1757088842344122000,1.6141220703125,0.5443191528320312,-1.223399996757507,-0.0801645293831825,0.705173637458682,0.2358507830962538,0.7436369313657283,-6.0348155860483645,4.882054248434305,-5.993073124340176
1757088842354076200,1.624076171875,0.7194949388504028,-1.0784262418746948,-0.1286750733852386,0.2483931615442037,0.1858352908223867,0.9286696736335752,-5.960359187740087,4.926233581900596,-6.031311377319693
1757088842364031000,1.634031005859375,0.8587715029716492,-0.8720021843910217,-0.1856279373168945,-0.0197264447331428,0.2847393171668052,1.1485966191500423,-5.893951655852795,4.983102885591984,-6.049826692697406
1757088842373986000,1.643986083984375,0.9193632006645204,-0.6634950637817383,-0.1978374719619751,0.1049602576434612,0.3627858489215373,1.0334832162827252,-5.838025770491361,5.048558815842867,-6.049784607121348
1757088842383941000,1.653941162109375,0.8277873396873474,-0.5978038907051086,-0.1948450952768325,-0.013217208969593,0.2701601721942425,0.7355033092707395,-5.790925581142306,5.1132022606670855,-6.0407549129694695
1757088842393896200,1.663896240234375,0.5642038583755493,-0.7037425637245178,-0.1733890771865844,-0.0485942272990942,0.0496627333134412,-0.2793102778553962,-5.742829366493225,5.166254636418819,-6.041531158038974
1757088842403850000,1.67385009765625,0.3142575323581695,-0.9454975724220276,-0.0400719046592712,-0.0254758020401,-0.2077729818642139,-1.603454018047452,-5.687837547111511,5.198935255271196,-6.065473174640536
1757088842413805000,1.68380517578125,0.1788477748632431,-1.3321548700332642,0.1694850623607635,-0.8397013503700494,-0.3892787190496921,-1.7079291225224733,-5.622398567995429,5.210003761774301,-6.116770815679431
1757088842423760100,1.693760009765625,0.1255533099174499,-1.710826754570007,0.3678880631923675,-1.5160300016164778,-0.2999076602041721,-1.0984048935264348,-5.542824680542946,5.203980848222971,-6.194034088101983
1757088842433715200,1.703715087890625,0.1920021176338195,-1.9422059059143064,0.4632742404937744,-1.5884037484318017,-0.0099129067271947,-0.722751379725337,-5.4505491324275726,5.189917836079001,-6.287022168400883
1757088842443670000,1.713669921875,0.2678659856319427,-1.928365707397461,0.4218809902667999,-1.2092729139089584,-0.008442834174633,-0.4128028025001287,-5.350539775189757,5.180516970527171,-6.379996220174432
1757088842453625000,1.723625,0.2549429833889007,-1.5922410488128662,0.2596161663532257,-0.6539128212988377,-0.1336269646793604,-0.5229764108777046,-5.254527963155508,5.1792573258548975,-6.460311281383037
1757088842463579100,1.7335791015625,0.1956899613142013,-0.8636493682861328,0.137929618358612,-0.0506067361652851,0.191058578428626,-1.1196978569239378,-5.184164971640706,5.183774511018395,-6.513316310861707
1757088842473534200,1.7435341796875,0.2369689643383026,-0.4030489921569824,-0.1526060700416565,-0.314755100724101,0.3231576028883457,-1.4965373656392096,-5.144921925532818,5.197122652891278,-6.5337640556067225
1757088842483489000,1.753489013671875,0.264595091342926,0.0490060225129127,-0.4804688394069671,1.1473901659697294,0.7114701072543859,-0.851996183797717,-5.115480142471194,5.230339278316498,-6.53037441316843
1757088842493444000,1.763444091796875,0.2946043908596039,0.5630467534065247,-0.6029180288314819,2.119788506692648,0.3031500031262636,-0.3717699503660202,-5.106704130819439,5.276686603471637,-6.499888089489937
1757088842503399200,1.773399169921875,0.2783591151237488,0.8990396857261658,-0.6327131986618042,1.1587053407102823,-0.078865446922183,-0.0585755230873823,-5.121857860809564,5.327105708110333,-6.446620609682798
1757088842513353200,1.783353271484375,0.2087070494890213,1.0355710983276367,-0.5964319109916687,1.1303916848957538,0.1605348453491926,0.1423807644993066,-5.151453373128176,5.374410480120778,-6.383465942111611
1757088842523308000,1.79330810546875,0.1312622427940368,1.0219333171844482,-0.4808843731880188,0.94654669110775,0.3814765208661556,0.2983621843278408,-5.187725294470787,5.413239684730768,-6.320976460450887
1757088842533263000,1.80326318359375,0.0713954493403434,0.907917022705078,-0.3138572871685028,0.5463029259294271,0.4152057719886303,0.6321984176188707,-5.226817533931136,5.440113078609109,-6.265455064237117
1757088842543218200,1.81321826171875,0.0480793379247188,0.7223337292671204,-0.1563484817743301,0.4303659317195415,0.3598778525203466,1.044490932509303,-5.265156324675679,5.455787617602944,-6.2195578209370375
1757088842553173000,1.823173095703125,0.0323019698262214,0.5500112175941467,-0.0429287068545818,0.3973761007875204,0.2291857722491025,1.284905370259285,-5.298755811938643,5.4636272251874205,-6.184040517354012
1757088842563127000,1.833126953125,-0.0206512100994586,0.4015308320522308,0.0257057771086692,0.214712425738573,0.1491869373828172,1.1482342155784369,-5.327978983813524,5.46416849245727,-6.158400464662909
1757088842573082000,1.84308203125,-0.0713463500142097,0.3225324153900146,0.0369847938418388,-0.0918973624527454,0.1389747554481029,0.6662514938682317,-5.351319527390599,5.459716189223528,-6.142089965853095
1757088842583037200,1.853037109375,-0.099908709526062,0.3473343551158905,0.0168588086962699,-0.0464917020618915,0.0696592271596193,0.3836591256022453,-5.373083030909299,5.4527165395945305,-6.129294197165966
1757088842592992000,1.862991943359375,-0.1010914146900177,0.4471794664859772,-0.0297033656388521,-0.0225005856215953,-0.013588380369544,0.1693833377152681,-5.3966246500164265,5.446929188364744,-6.113736562550067
1757088842602947000,1.872947021484375,-0.1059594079852104,0.5552273988723755,-0.0697213560342788,0.1434656371265649,-0.0418669648706912,0.0204243638694286,-5.424625586619973,5.443335547786951,-6.092119774025679
1757088842612901000,1.882901123046875,-0.1001944616436958,0.6284486055374146,-0.1109348386526107,0.1198912847936153,-0.1672656149089336,-0.1906710404157638,-5.455518737533688,5.4419905629187815,-6.065676588258147
1757088842622856200,1.892856201171875,-0.0621178336441516,0.6869766712188721,-0.1465534716844558,0.185659349733591,-0.3056424044638872,-0.2030921305716037,-5.488217476564645,5.444048079970479,-6.034252106946706
1757088842632811000,1.90281103515625,-0.0103060295805335,0.6985480785369873,-0.1760181486606598,0.1560550695866346,-0.4149743013203144,-0.0627121845006942,-5.521161714789271,5.450727996125817,-5.998059096059203
1757088842642766000,1.91276611328125,0.0334183722734451,0.6398988962173462,-0.188722938299179,0.2035305219888687,-0.5938257246047258,0.009833996272087,-5.551279205155372,5.461686612513661,-5.960173309779167
1757088842652721200,1.92272119140625,0.0672828629612922,0.5094761848449707,-0.1744332164525985,0.2492284433245658,-0.7835112611144781,-0.0701712683349847,-5.575578949153423,5.47479977658689,-5.925358601507544
1757088842662676000,1.932676025390625,0.0749856978654861,0.3310914933681488,-0.137595385313034,0.2590565943777561,-0.830531955486536,-0.1926467244029045,-5.591991739293933,5.487852734905481,-5.897753386223316
1757088842672630000,1.942630126953125,0.07267327606678,0.1068778485059738,-0.1026067808270454,0.1493675546467304,-0.5975391921699047,-0.3877437645673751,-5.598420895558595,5.498918903321028,-5.881323644948005
1757088842682585000,1.952585205078125,0.0869714766740799,-0.1718224585056305,-0.0683777555823326,-0.1292880586922168,-0.134604869800806,-0.4850386021494865,-5.591956667980552,5.508240858417749,-5.878749410545826
1757088842692540200,1.9625400390625,0.1244440153241157,-0.4240554869174957,-0.0114966295659542,-0.5206868386358022,0.3085995007038116,-0.4845528644591569,-5.571957251524925,5.516791829141974,-5.889709195977449
1757088842702495000,1.972494873046875,0.1581098884344101,-0.609275758266449,0.0628679394721984,-0.9785749835312366,0.5926496665626764,-0.4462596664220094,-5.542931648048758,5.523637749513983,-5.910645016500354
1757088842712450000,1.982449951171875,0.1756278872489929,-0.6900014877319336,0.1050100624561309,-1.306235158535838,0.6873714387863874,-0.5016618201702833,-5.509008920180797,5.528723674476146,-5.937542960298061
1757088842722404000,1.992404052734375,0.1844395697116851,-0.6728464365005493,0.1059984415769577,-1.3218921618729829,0.6050824471563101,-0.6339432154595852,-5.474198303562402,5.533500387358665,-5.965224163427949
1757088842732359200,2.002359130859375,0.2032311111688614,-0.5738891959190369,0.0797194316983223,-1.1989981881320475,0.470348982539773,-0.6998118181645869,-5.44206830433011,5.539845372471213,-5.988689794689416
1757088842742314000,2.01231396484375,0.2042888700962066,-0.4796380996704101,-0.0298369266092777,-0.939537689128518,0.3567822245925665,-0.5718038624107837,-5.412129093140363,5.550460874509811,-6.005965339139103
1757088842752269000,2.02226904296875,0.2015186548233032,-0.3485192358493805,-0.1311422437429428,-0.0804845725566148,0.1047474916756153,-0.4320183751016855,-5.382784340712428,5.56711624123454,-6.016913434132933
1757088842762224000,2.03222412109375,0.1929704844951629,-0.2760144174098968,-0.1603525429964065,0.406246804985404,-0.0257131179273128,-0.1691214719086885,-5.355958877629042,5.587143714740872,-6.022283436733484
1757088842772179200,2.04217919921875,0.1693066954612732,-0.3038502931594848,-0.1266475766897201,0.2831552628457546,-0.0088075758337974,0.022773557344079,-5.330730328348278,5.60585250686407,-6.027281683412194
1757088842782133000,2.052133056640625,0.1461589485406875,-0.3761340975761413,-0.0525489412248134,0.1013923360288143,0.0353255804032087,0.2714835297524929,-5.305189644378423,5.620227653697133,-6.036421852201223
1757088842792088000,2.062088134765625,0.1297922283411026,-0.5001023411750793,0.0310213193297386,-0.0251619137853384,0.0256669406980276,0.5132914676874876,-5.278293454146385,5.629137520861625,-6.051677873522043
1757088842802043100,2.072043212890625,0.1299506276845932,-0.7471259236335754,0.0648689791560173,-0.0537257449686527,-0.0546212325036525,0.5727689080506563,-5.244193616145849,5.6340089262902735,-6.076739249542356
1757088842811998200,2.081998291015625,0.1788398772478103,-1.040719747543335,0.0285248178988695,0.2005541365265846,-0.1997825676321983,0.576408141335845,-5.192613651034236,5.640606424859166,-6.11479513169229
1757088842821953000,2.091953125,0.2471540421247482,-1.291610836982727,-0.0291767325252294,0.5701917510390281,-0.3637567397803068,0.8607932382375001,-5.121120778706669,5.653596254813671,-6.162903036779165
1757088842831907000,2.101906982421875,0.3110139966011047,-1.522621989250183,-0.1097315028309822,0.5507260030686855,-0.3632441140830517,0.9799731598913668,-5.030726222032309,5.674181946724653,-6.218187117105722
1757088842841862100,2.111862060546875,0.3829110860824585,-1.7760456800460815,-0.1925741732120514,0.4842512511640787,-0.3018763299286365,0.962242272889614,-4.919658879685402,5.703344328323007,-6.280063435304164
1757088842851817200,2.121817138671875,0.4331896901130676,-1.979048609733581,-0.2334835231304168,0.2861301870033145,-0.3706733873009681,0.9956079513967035,-4.7888750294774765,5.739670025679469,-6.347695540550351
1757088842861772000,2.13177197265625,0.470818430185318,-2.136101484298706,-0.2455994486808776,-0.2252379114061594,-0.4009042749136686,0.7460989375650883,-4.6445685576125975,5.779478304454684,-6.418411583286524
1757088842871727000,2.14172705078125,0.5585048794746399,-2.3035149574279785,-0.298889547586441,-0.4342530022859573,-0.3749935885876417,0.5829343282341957,-4.48613039228171,5.824645479914546,-6.489878736650943
1757088842881681200,2.15168115234375,0.6477251648902893,-2.396106719970703,-0.3430768549442291,-0.2413084639802575,-0.5576075792759656,0.8855296200871468,-4.314707657693326,5.878121634036302,-6.557542406079173
1757088842891636200,2.16163623046875,0.6844162940979004,-2.462752103805542,-0.362137883901596,-0.4977262342870235,-0.6978630221843719,0.8531652275770902,-4.134455719961226,5.936974805021285,-6.6203481140822165
1757088842901591000,2.171591064453125,0.6973007321357727,-2.5380258560180664,-0.3689375221729278,-0.6604752485543489,-0.7333242116659879,0.4894599257230758,-3.947316068542004,5.9974266433745616,-6.679818540182709
1757088842911546000,2.181546142578125,0.7215679883956909,-2.643552780151367,-0.4295918047428131,-0.8469459146708249,-0.8143617419302464,0.2107861922055482,-3.750669753108919,6.05975830412507,-6.736631729772687
1757088842921501200,2.191501220703125,0.7610703706741333,-2.5830962657928467,-0.5156667232513428,-0.7225064650535583,-0.8740583780020474,0.0603834492921829,-3.545008648832142,6.126936820384859,-6.787042651104927
1757088842931456000,2.2014560546875,0.8066295981407166,-2.3703649044036865,-0.6211822628974915,-0.6443436134427786,-0.8403431554049253,-0.0083083941400051,-3.3424510635286566,6.199314658853411,-6.823994955927133
1757088842941410000,2.21141015625,0.8288341760635376,-2.025263547897339,-0.7440288066864014,-0.6995531672284007,-0.6385059933304786,-0.4721107315152883,-3.149275054554641,6.277448868891597,-6.844419319796562
1757088842951365000,2.221365234375,0.8226466178894043,-1.5546720027923584,-0.8382533192634583,-0.7381260589897632,-0.4993652336657047,-1.0185919366210698,-2.9778245551764964,6.357677420860528,-6.84710870501101
1757088842961320200,2.2313203125,0.8913606405258179,-1.196476936340332,-0.967585027217865,-0.6985624026253819,-0.3203735251277685,-1.4491525141298771,-2.8274975078478453,6.44174803521037,-6.832240806224942
1757088842971275000,2.24127490234375,1.007918119430542,-0.9436022639274596,-1.1045585870742798,0.1602121892660856,-0.1988946788817644,-1.1079863763421771,-2.6883397970482705,6.534550822070241,-6.800211344757676
1757088842981230000,2.25122998046875,1.1192727088928225,-0.7646124958992004,-1.2360936403274536,0.8032870979472995,-0.3337573228359222,-0.6918447848081588,-2.5544959747478364,6.63694152148664,-6.752475780114531
1757088842991184000,2.261183837890625,1.220011591911316,-0.7518026828765869,-1.317853927612305,1.0561581355579197,-0.5432213265269994,-0.5420031829088926,-2.419057430601865,6.7470461562812325,-6.692973789831996
1757088843001139200,2.27113916015625,0.8356683850288391,-1.328978180885315,-0.8354434967041016,1.2625450698912144,-0.8115858474761247,-0.2144885538548231,-2.275442009741068,6.845722219088673,-6.642953913643956
1757088843011094000,2.281093994140625,0.8318792581558228,-1.5721503496170044,-0.372677206993103,-2.0830647499293087,2.8320313518851994,-1.872184449699521,-2.139109731625765,6.909975203290581,-6.621694852516055
1757088843021049000,2.291049072265625,1.1446460485458374,-1.6489607095718384,-0.326657623052597,-3.079402769166231,1.34394149659574,-0.4968833537220954,-2.009771842442453,6.982194051805138,-6.58636225785017
1757088843031004200,2.301004150390625,1.2233766317367554,-1.6794400215148926,-0.3409079313278198,0.7993880446821451,-0.6556184561729431,0.5662076498389244,-1.877377196037024,7.066841589260101,-6.534952388608455
1757088843040958200,2.310958251953125,1.3342876434326172,-1.6378703117370603,-0.3529594540596008,0.6366466291993856,1.538473304092884,-0.9048340400159358,-1.7454611269287763,7.155022561538219,-6.475292577415704
1757088843050913000,2.3209130859375,1.585040807723999,-1.5999159812927246,-0.3958030641078949,0.6627291649609803,1.2557944265872238,-0.2716471958816051,-1.614873237684369,7.254395958960056,-6.398149716502427
1757088843060868000,2.3308681640625,2.029019594192505,-1.9072338342666624,-0.1541944295167923,1.1040830852933228,0.9230839824557304,0.684295100080967,-1.483713686031848,7.372375272652507,-6.29420828051269
1757088843070823200,2.3408232421875,2.6010611057281494,-2.351577043533325,0.2281769067049026,-0.4276118107058108,0.4885194300025701,2.2353297795832154,-1.355470167956501,7.513801512905955,-6.154339206573367
1757088843080778200,2.3507783203125,2.990260601043701,-1.767020583152771,-0.1577706038951873,-1.209114508476853,-2.237591294774413,3.098178781306744,-1.2296787192083896,7.68469993135929,-5.96688128298521
1757088843090733000,2.360733154296875,2.606274127960205,-0.1790801435708999,-0.2565009295940399,3.630664778807759,-3.0572306848466395,2.581610483905673,-1.1562572169058023,7.854163348573445,-5.757219710895419
1757088843100687000,2.37068701171875,1.8090524673461916,0.1575732678174972,-0.4774327576160431,-0.0489097960542887,1.904963852751255,0.139095751479268,-1.1332269813869147,7.981891318342089,-5.583509742152691
1757088843110642200,2.38064208984375,1.430262804031372,-0.2935196161270141,-0.6505611538887024,-2.038534118807316,1.3429694366931917,-4.080812684839963,-1.0824573097448795,8.075818725317717,-5.457087594285607
1757088843120597200,2.39059716796875,1.2932051420211792,-0.2638979256153106,-0.6119884252548218,-3.3382138643503185,-0.8051070068508386,-2.0762486401736737,-1.0150435234244912,8.155754431819915,-5.3501154122978445
1757088843130551600,2.400551513671875,1.1260862350463867,-0.0600278638303279,-0.7448663115501404,-4.020082614067197,0.1350467683494091,-0.3274550078213215,-0.9520755375318228,8.225804119601845,-5.253578699606657
1757088843140506600,2.410506591796875,1.1237493753433228,0.1119796484708786,-0.90435129404068,-0.7397177120953797,0.9789403097122908,-0.512718051713705,-0.885047316462919,8.29110924320519,-5.161839158064127
1757088843150460400,2.42046044921875,1.1590007543563845,0.1602206826210022,-0.9149996638298036,0.6788122847557068,0.3997060050398111,0.7528747153103351,-0.8166280794270336,8.357236204585433,-5.06558009327054
1757088843160415500,2.43041552734375,1.0813087224960327,-0.0580606907606124,-0.8052858710289001,0.4757295795995742,-0.308462722581625,1.3002981697022915,-0.7471724120154977,8.420167000272869,-4.971207865136861
1757088843170370600,2.44037060546875,1.074629545211792,-0.20427967607975,-0.5753280520439148,0.9312561099302024,-0.7617705539494752,0.4091717525213956,-0.6816603676632046,8.47738584805429,-4.882588501441479
1757088843180325600,2.45032568359375,1.2041609287261963,-0.1735969930887222,-0.3827356398105621,0.9696790718268604,-1.6141063449651003,0.5038225053355098,-0.6325454044256359,8.53514596310556,-4.787648118031025
1757088843190280400,2.460280517578125,1.2799092531204224,-0.1042530685663223,-0.2899346053600311,1.463110312333703,-2.506737321490049,1.2659662765115498,-0.5979053586011752,8.59609113793373,-4.681894079661369
1757088843200234500,2.470234375,1.3009670972824097,-0.0120636336505413,-0.235094353556633,1.70491357409358,-3.0225773046165703,0.943780733525753,-0.5729050651183352,8.657181274190545,-4.571145594005286
1757088843210189600,2.480189453125,1.2917901277542114,0.0868658721446991,-0.1983517855405807,0.9121008892137557,-3.893534209471941,0.7063090712293982,-0.5553649514483288,8.716801922416687,-4.458621330848336
1757088843220144400,2.490144287109375,1.2004828453063965,0.1402237713336944,-0.0860459953546524,0.3370540262937546,-4.8887739120781415,0.3691276191636919,-0.5477438819853588,8.772617917662858,-4.348739983415603
1757088843230099500,2.500099365234375,1.0873134136199951,0.1240154951810836,-0.0215817857533693,-0.3962439549524337,-5.654293004906177,-0.3831435772955417,-0.5505132005682215,8.821673332732916,-4.247991205987334
1757088843240054300,2.51005419921875,0.9781002998352052,0.2237749546766281,-0.2288859784603119,-0.1579740549504756,-5.2422804760009045,-0.4003638844266534,-0.547267752373591,8.86560541343987,-4.1559515124544495
1757088843250009600,2.520009521484375,0.796922504901886,0.3505411744117737,-0.5081368088722229,1.4651257438093424,-4.009529655870795,-0.1599593835487961,-0.52659854689762,8.904175674852729,-4.07538335326761
1757088843259963400,2.52996337890625,0.5615460276603699,0.3773831129074096,-0.6811700463294983,1.2312070978194474,-3.891659063249826,-0.6129065649107098,-0.4879574852708727,8.934595363035797,-4.0131396630615
1757088843269918500,2.53991845703125,0.3536868095397949,0.3218138515949249,-0.8270252346992493,0.5193032753229141,-3.09866977969408,-1.2127151633173228,-0.4340100238429382,8.956233778870105,-3.9708810685247182
1757088843279873300,2.549873291015625,0.1694968044757843,0.3884831368923187,-1.0072932243347168,0.4377829299777745,-1.6580080305337903,-1.0484545754432677,-0.3667047759309411,8.969900485172868,-3.9467476210042833
1757088843289828600,2.55982861328125,0.1145504564046859,0.4836690425872803,-1.1696789264678955,0.3231208145419135,0.0183802908211946,-0.618434096160531,-0.2870582981662825,8.978729103794693,-3.933242242743075
1757088843299783400,2.569783447265625,0.2621811926364898,0.5824066400527954,-1.5142978429794312,-0.0250800624544732,4.308430184859037,-0.0482636801704764,-0.189350660265889,8.988815613523125,-3.916085063976049
1757088843309737500,2.579737548828125,-0.1823440492153167,1.2055240869522097,-1.4981484413146973,1.560377677386999,6.7080550391078,1.1693369171008468,-0.073578172435332,8.995064152523875,-3.905609847190976
1757088843319692300,2.5896923828125,-0.9006803631782532,0.8756222724914551,-0.8627821803092957,0.1742652645379304,-0.6746949125647544,-2.772992595200241,-0.006671249933337,8.974344605100155,-3.953666606612504
1757088843329647600,2.599647705078125,-1.2503314018249512,0.6074967980384827,-0.2124174535274505,-3.2303988017976284,-1.577383172723651,-6.190502406844496,0.0093004259682144,8.929677195855975,-4.053538308945298
1757088843339602400,2.6096025390625,-1.089497208595276,0.5052982568740845,0.1006559133529663,-1.2568670242547988,5.89205722040832,-1.94778504960686,-0.0093662680208391,8.88136237002015,-4.158326424892247
1757088843349557500,2.6195576171875,-0.9676036238670348,0.6712955236434937,0.1029869839549064,-0.8835855002820491,7.732788547223806,1.574059288997948,-0.0441675334306433,8.838677659025787,-4.248082975924015
1757088843359511300,2.62951123046875,-0.9534004330635072,0.7274061441421509,-0.0246337838470935,0.4912590840995311,7.39570061866045,0.6113762866035104,-0.0781097149177454,8.797781000491977,-4.331666099017858
1757088843369466600,2.639466552734375,-0.8282403945922852,0.6896853446960449,-0.2108950018882751,1.3774720102757214,6.844804519721865,-0.532427545312047,-0.0995667280368506,8.758207114994525,-4.410700765027106
1757088843379421400,2.64942138671875,-0.1665525436401367,-0.1119006499648094,-0.4773339629173279,1.2569798369795084,6.035723933064937,-0.0828513016879558,-0.0878611292066052,8.734554436728358,-4.457602216933667
1757088843389376500,2.65937646484375,0.1775228083133697,-0.8170886635780334,-0.7437901496887207,-0.3133949182868004,4.002338283061981,1.7959955285102127,-0.0098224051573488,8.737358388233185,-4.452960820868611
1757088843399331600,2.66933154296875,0.5382269024848938,-0.9101263880729676,-0.8711534142494202,-2.1561726562380787,-0.2238876658409833,0.3251590058386325,0.0998522121810354,8.754726287141441,-4.417597246542573
1757088843409286400,2.679286376953125,0.5227220058441162,-0.9257948398590088,-0.7157161831855774,-0.9349111983716488,-4.559316916784644,0.8395625264212488,0.2112633995295502,8.77640328142047,-4.370410840214789
1757088843419240400,2.689240478515625,0.5913437008857727,-0.7439442873001099,-0.3465804755687713,-0.4587912312150001,-1.3699182338953018,-0.2365893265038728,0.2949382377611473,8.799275622963904,-4.319277157565951
1757088843429195500,2.699195556640625,0.5809206366539001,-0.3857850730419159,0.0706788003444671,-0.1633095707595348,-0.5560433986991643,0.1237999826699495,0.3313522709881886,8.824118972319363,-4.265619217136502
1757088843439150600,2.709150634765625,0.4723107814788818,-0.1569574773311615,0.3825408220291137,0.4461854686746374,-0.054665071645379,-0.221286543431878,0.3204074639299884,8.847521475216746,-4.217713556623458
1757088843449105400,2.71910546875,0.4084319472312927,0.0243026055395603,0.4739237427711487,0.5750608549127355,-0.0054243631362915,-1.095101760327816,0.2841577726854942,8.86681478922963,-4.179624356725812
1757088843459060500,2.729060546875,0.3753548562526703,0.0290803667157888,0.4193432331085205,0.0907691986730322,-0.0125970312446355,-0.6758049196332693,0.2426227249165996,8.8844597515136,-4.14462026336193
1757088843469014500,2.7390146484375,0.2390888929367065,0.1540417522192001,0.131349503993988,0.0522644402444362,0.2992114946335554,0.0426426254183053,0.2122949710669927,8.8976652700454,-4.117873126211762
1757088843478969600,2.748969482421875,0.2646436691284179,-0.1526418626308441,-0.0862758383154869,0.2631985164880752,-1.0133850156277415,-0.655021659323573,0.2113022337025962,8.907516801974177,-4.096570810464025
1757088843488924400,2.75892431640625,0.3505775034427643,-0.3446554839611053,-0.1223632767796516,0.2935679357886314,-0.686939477109909,0.1198749181807041,0.2321086739584803,8.919850213846564,-4.068512006193399
1757088843498879500,2.76887939453125,0.3999243378639221,-0.3590410351753235,-0.0368139743804931,-0.3663584467113018,-0.1760883883118629,0.7746326658710837,0.2541295497717336,8.934826249182224,-4.034188588570058
1757088843508834300,2.778834228515625,0.1625975221395492,-0.1570413261651992,0.1382132470607757,-0.3378127357065677,-0.0649725306481122,0.5700009046420454,0.2611977893912233,8.947909018117189,-4.004632823739946
1757088843518788600,2.78878857421875,-0.2080935835838318,0.0771333277225494,0.2702052295207977,-0.1137829945137724,0.4882148940980434,0.1741322858080267,0.2435189248376525,8.947035742413997,-4.007698641051352
1757088843528743400,2.798743408203125,-0.5056219696998596,0.0721068829298019,0.1877638697624206,0.3175695736229419,0.9687935942292212,-0.0068660863772034,0.2178335899664089,8.933325196969509,-4.039633994494379
1757088843538698500,2.808698486328125,-0.6646875739097595,-0.2219426035881042,-0.1111696511507034,0.4722001633644104,-0.4254483490616083,0.8864937889441847,0.2162819583439268,8.90900265661776,-4.093077999912202
1757088843548653300,2.8186533203125,-0.567359209060669,-0.643515408039093,-0.3795715272426605,0.1116519007692113,-2.89411634439826,1.5959966877788303,0.2564561660883948,8.882464778304099,-4.148066604423523
1757088843558608600,2.828608642578125,-0.0828526690602302,-1.056115746498108,-0.4487726986408233,-0.6586135463356971,-4.016823320010304,1.3797995764404534,0.3295609305920079,8.866279951700568,-4.177424800854921
1757088843568562400,2.8385625,0.5982864499092102,-1.2979966402053833,-0.3343081772327423,-1.082843167257309,-3.2332483460098502,0.9434010865584016,0.4145613000726327,8.876082383790612,-4.1489378343001
1757088843578517500,2.848517578125,1.079554557800293,-1.1322609186172483,-0.1383072435855865,-1.134557060946897,-2.3487340404450894,1.3805512715905903,0.4864761241393163,8.909743245851994,-4.068191980458796
1757088843588472300,2.858472412109375,1.3856964111328125,-0.7642621397972107,0.1292959600687027,-0.599146700431779,-3.4701772797316317,2.2955948631927368,0.5252255049787461,8.959332329407333,-3.9528307403102514
1757088843598427600,2.868427734375,1.593719482421875,-0.3638525307178497,0.3532101809978485,0.2169955682396888,-4.638931720769405,2.3842583582907912,0.5246082863958552,9.018375470006465,-3.816290226271749
1757088843608382500,2.878382568359375,1.7504675388336182,0.1479854583740234,0.4619017839431762,0.4903192459661513,-5.37983425873518,2.31687935102284,0.4917521648460999,9.083066845625638,-3.664216627536714
1757088843618337300,2.888337158203125,1.67395281791687,0.5438677668571472,0.5153026580810547,0.3097229517757892,-4.474656519848108,2.1690295074626804,0.4345738682707771,9.147090697246789,-3.508884611527621
1757088843628291300,2.898291259765625,1.38754403591156,0.7704353928565979,0.4845260679721832,0.2952770777940749,-1.9033155010223388,0.2167921546220779,0.3646242067972198,9.201889624404906,-3.3708535666704176
1757088843638246700,2.90824658203125,1.0041333436965942,0.5752280354499817,0.2534078359603882,0.626593437218666,0.711177261787653,-0.6975763141974807,0.3066964070288464,9.242566502708195,-3.2636303325310347
1757088843648201500,2.918201416015625,0.8284062743186951,0.0197094213217496,-0.1753256767988205,1.2579846301078796,3.520260284283757,-1.4235489940568804,0.2921112707069143,9.271509104076028,-3.181847244596481
1757088843658156300,2.92815625,0.8758544325828552,-0.5986930727958679,-0.5088241100311279,1.2485925323843956,4.257074091631174,-0.7036030271410941,0.3347231721933931,9.296800781720876,-3.102878337299824
1757088843668111600,2.938111572265625,1.069779396057129,-0.9136167168617249,-0.6094269156455994,0.3124864982049912,4.766540448072552,0.5268368856981397,0.4107117850376293,9.323933703318238,-3.010970161192119
1757088843678065700,2.948065673828125,1.369990348815918,-1.0052330493927002,-0.4988473355770111,-0.9602746991436928,4.658831183981895,0.9712284201607108,0.4923582775130867,9.35712577882409,-2.8934733703196045
1757088843688020500,2.9580205078125,1.6881989240646362,-0.7811373472213745,-0.2494524121284485,-1.1504910545945166,3.4293104318141934,1.6457333631113171,0.5528379171887412,9.398224097409845,-2.7455697507455943
1757088843697975300,2.967975341796875,1.9067095518112185,-0.502587616443634,-0.1064222976565361,-0.5365408989150077,1.045434935361147,1.5874235052227974,0.5854721761487424,9.445057744777202,-2.5726371961161494
1757088843707930600,2.9779306640625,1.9270390272140503,-1.2604707479476929,0.3567541539669037,0.6950339362382888,-0.1607785909771919,0.8063600756518542,0.6005278891244903,9.493227024662492,-2.3850365030564364
1757088843717885400,2.987885498046875,1.97499418258667,-0.3144108057022095,0.0581729151308536,1.3139058392941951,-2.112572583964467,1.0827744859352708,0.5924765019528567,9.539384964725375,-2.1953297776281837
1757088843727839500,2.997839599609375,1.9806528091430664,0.6058729887008667,-0.2126002609729766,1.317414139676094,-3.285105374497175,1.227981413771212,0.5989941036859527,9.580060089462997,-2.008491008851677
1757088843737794300,3.007794189453125,1.796717405319214,1.1070327758789062,-0.3323007822036743,0.8707167394239455,-1.5874936478495596,-0.653452364180237,0.6096477823104709,9.614953708189724,-1.830681788096577
1757088843747749600,3.01774951171875,1.5574009418487549,1.4152934551239014,-0.5195838809013367,0.3344026350021362,-4.0490187856942415,-0.6354666256345808,0.6280662131849676,9.64157458861172,-1.678080366095155
1757088843757704400,3.027704345703125,1.3335460424423218,1.6909377574920654,-0.3652685582637787,0.6956558675289154,-3.0409979274481533,-0.8726981955647468,0.6483885049194097,9.661564068195224,-1.55053330585137
1757088843767659500,3.037659423828125,1.427682876586914,1.8823002576828003,-0.2059444189071655,-0.400133290541172,-0.5683230345577002,-0.8370860533051192,0.6491307015888392,9.680056002697349,-1.4302229188628497
1757088843777614300,3.0476142578125,1.434109449386597,1.676316738128662,-0.2827834784984588,-0.2661095085639506,0.2927320694863796,0.3077339699156582,0.6461889490485191,9.69842051142752,-1.3013275127500294
1757088843787568600,3.057568603515625,1.2268036603927612,1.0292134284973145,-0.4618009030818939,0.7201789719540626,1.399476336812973,0.1531760070189833,0.666362479962036,9.712314012223482,-1.182084243536368
1757088843797523500,3.0675234375,1.2461570501327517,0.7686724066734314,-0.1712631732225418,-0.1162660069685429,0.9250625890523194,0.2612109959326684,0.6895279592331498,9.72389865155518,-1.0680571746010332
1757088843807478500,3.077478515625,0.9027570486068726,0.2589220702648163,-0.2355934381484985,-2.1821710208475587,-1.9242939916431905,1.183870177105069,0.6995617889262735,9.733880531865358,-0.9656986969538032
1757088843817433300,3.087433349609375,0.3029458522796631,-0.7291874289512634,-0.6664787530899048,-0.3311305545289069,-5.405758389064669,-0.0374375310558825,0.744429396917671,9.736718385639788,-0.9013888679981232
1757088843827388400,3.097388427734375,-0.1575623750686645,-1.901678681373596,-0.808128297328949,0.8789302218221128,-5.5238627904415125,-0.6000348083779216,0.8312776592873037,9.730772628977894,-0.889607463985309
1757088843837342500,3.107342529296875,0.3691046833992004,-2.6736257076263428,-0.5061646699905396,-1.5532675531208515,-0.8962930061638354,-3.063643474498391,0.9177566499531268,9.725210903197526,-0.8650919583447277
1757088843847297500,3.117297607421875,1.7330902814865112,-2.5860259532928467,-0.2869918048381805,-2.8350469003140923,5.333836477670073,-0.4346656016748398,0.9749016287807376,9.729880648574232,-0.7411866156041622
1757088843857252400,3.12725244140625,3.0610251426696777,-1.593684196472168,-0.3645552098751068,0.3290810015879571,12.44870764608383,4.887171445317566,1.0185548194810747,9.741649412301182,-0.4828876711932942
1757088843867207400,3.13720751953125,3.4869461059570312,-0.8359729647636414,-0.4011347889900207,2.316024195498228,10.402527980959414,6.449162110859155,1.0608475354831666,9.747971016538145,-0.1485211030183825
1757088843877162500,3.14716259765625,3.379755735397339,-0.7831116914749146,-0.362464964389801,2.094329071265459,4.046729797974229,2.6629852833002805,1.0972916715875267,9.743122991985082,0.1946441452978178
1757088843887116500,3.157116455078125,3.0765490531921387,-1.0531433820724487,-0.4294370710849762,1.4326046994328498,2.7132436444193124,0.1224704510992392,1.132033826079592,9.72732745696008,0.51767918125242
1757088843897071400,3.1670712890625,2.6796343326568604,-1.470633625984192,-0.519447922706604,1.2144235746704042,3.410833694881201,-1.4237372101053594,1.1693032340269536,9.70280617916584,0.8115694808632135
1757088843907026400,3.1770263671875,2.178070545196533,-1.60533607006073,-0.5014804005622864,0.7518389425218105,3.886469093391299,-4.07123354011178,1.2051210549265146,9.673840196922422,1.065313209655136
1757088843916981500,3.1869814453125,1.6833122968673706,-1.2039319276809692,-0.3002951443195343,0.2061937498487532,3.51383872680366,-6.594532120302319,1.227184710435569,9.646640055307746,1.267583064058423
1757088843926936300,3.196936279296875,1.3353172540664673,-0.5942575931549072,-0.0904329866170883,-0.2239385192453861,2.281016595003009,-7.221640521305799,1.2338427070200442,9.624151160123944,1.4225845329388975
1757088843936890400,3.206890380859375,1.102913498878479,-0.1656002104282379,0.0490477606654167,-0.1163080194793641,2.3325737637609243,-5.720947205030917,1.229611645321548,9.606113983651996,1.5430654541887343
1757088843946845400,3.216845458984375,0.9204397797584534,-0.1313889771699905,-0.0175941176712512,0.1100163719892501,1.9791782589972016,-3.06323606274128,1.2247509804826229,9.590501988500357,1.6409307851351798
1757088843956800500,3.226800537109375,0.6850135922431946,-0.4947855472564697,-0.308381050825119,0.6295604703307152,0.8328589371293783,-0.3073569532968104,1.2344755980961024,9.57518459238112,1.7211328874886034
1757088843966755300,3.23675537109375,0.426017701625824,-1.0004905462265017,-0.5950596332550049,1.1224318119324743,0.3049573448091745,0.9130247991256416,1.2650357176631688,9.559752629971504,1.783594896620512
1757088843976710700,3.246710693359375,0.1971400678157806,-1.2455010414123535,-0.7184143662452698,0.7476108034327625,0.0328396088063716,1.212184271311015,1.3081110354103147,9.545615383547544,1.8277039413295688
1757088843986665500,3.25666552734375,0.0091983899474143,-1.1946961879730225,-0.7159078121185303,0.203665108153969,0.1118932717770338,1.0990420223861932,1.3539131477728483,9.534196748432516,1.853756958735734
1757088843996619500,3.26661962890625,-0.1617152094841003,-0.982744574546814,-0.7161803841590881,0.2452105859853327,0.4174123421221971,0.4071884697496891,1.4014023364394903,9.525857959154248,1.8613181877702476
1757088844006574300,3.27657421875,-0.3034182786941528,-0.8003960847854614,-0.7492712140083313,0.3590624444842338,0.7365601248472928,-0.2672206116110086,1.4543959677413103,9.519750874450802,1.851882981557399
1757088844016529700,3.28652978515625,-0.4218441843986511,-0.7299304008483887,-0.7665175199508667,0.1668868447244167,1.0077157378196715,-0.6249145442210138,1.5123457601457833,9.515249471378326,1.8284500835217532
1757088844026484500,3.296484375,-0.5253143310546875,-0.7528769969940186,-0.759313702583313,-0.0552059005238115,0.5988076046705245,-0.6229468974098563,1.5716336692862212,9.5120544747293,1.7947588263221084
1757088844036439300,3.306439208984375,-0.572701632976532,-0.7767267227172852,-0.6685145497322083,-0.1678232487916946,0.040537762093544,-0.3105836602583527,1.6263409726381302,9.510381573081016,1.754437191197276
1757088844046393300,3.316393310546875,-0.552226722240448,-0.7699761390686035,-0.5316061973571777,-0.181954503866285,-0.61634735301435,0.0391568291291594,1.6695016305811703,9.51035877672732,1.7135488621003925
1757088844056348700,3.3263486328125,-0.5329793095588684,-0.7395713925361633,-0.4540875852108001,0.0475567009449005,-1.14640057041049,0.3149722506061196,1.7029045723587273,9.511292258185147,1.675058534055948
1757088844066303500,3.336303466796875,-0.5120575428009033,-0.7464290261268616,-0.4718556702136993,0.154822459051758,-1.4484750532597304,0.3699994335621595,1.7340530132077634,9.51214741370976,1.637838079816848
1757088844076258300,3.34625830078125,-0.4812335669994354,-0.873643159866333,-0.5529302358627319,0.0991372505784034,-1.2639455843389034,0.3305935981079936,1.7690879401013253,9.511222115558386,1.605417427074909
1757088844086213600,3.356213623046875,-0.4798676073551178,-1.0639430284500122,-0.667011559009552,0.050860418665409,-1.058420673662424,0.2902979742072522,1.8115293438591065,9.508007829687,1.576880045507103
1757088844096167700,3.366167724609375,-0.4057598412036896,-1.3422929048538208,-0.7651676535606384,0.3967965473338961,-1.4149679204553365,0.2302417110428214,1.8609348875410852,9.501831771400571,1.5564311317183075
1757088844106122500,3.37612255859375,-0.2684754729270935,-1.50716233253479,-0.7741624712944031,0.6131539638005197,-1.1341934152662754,0.726735919316858,1.91198089190647,9.492500463953611,1.551496451795101
1757088844116077300,3.386077392578125,-0.1067148074507713,-1.4666690826416016,-0.7167745232582092,0.3457823994114994,-1.1209288600236176,0.9645281918697058,1.959535254763812,9.481033313521742,1.5622523852176964
1757088844126032400,3.396032470703125,0.0663792118430137,-1.281391143798828,-0.5786986947059631,0.1171525074794888,-1.4718454074531793,0.6601281886823475,1.999471836093813,9.468480121418834,1.5875784035235645
1757088844135987200,3.4059873046875,0.162564992904663,-1.038627028465271,-0.4314380288124084,-0.0425599155709147,-1.6178589754968882,0.4008623354680836,2.028251794245839,9.45647637989223,1.6222379212334752
1757088844145941200,3.415941162109375,0.2200748920440673,-0.7918921113014221,-0.3025255799293518,0.0417500604927539,-1.2979846320629118,-0.0374421341657638,2.047639946935326,9.44590179438591,1.6590651383712889
1757088844155896300,3.425896240234375,0.2367183119058609,-0.6530066132545471,-0.2326650172472,0.0127260644517838,-0.7799737346380948,-0.1301321083009242,2.060503081770241,9.436658165222406,1.6953414436280727
1757088844165851400,3.435851318359375,0.2436031103134155,-0.6288365721702576,-0.2360344529151916,0.0228406312309205,-0.2065291192829609,-0.1401217335261404,2.071337194995582,9.427796813374757,1.7310684444390236
1757088844175806200,3.44580615234375,0.2439054399728775,-0.6707064509391785,-0.2514426708221435,0.0476084311321377,-0.1868406684726476,0.2226164768613874,2.0830822855859994,9.418434526267648,1.76756394540444
1757088844185761500,3.455761474609375,0.2365148961544037,-0.6610594391822815,-0.2786540389060974,-0.1655737162992358,-0.7500204949229955,0.8782966000936925,2.096048004012555,9.408651383399963,1.8039578856915237
1757088844195715300,3.46571533203125,0.2411789745092392,-0.6570911407470703,-0.299068421125412,-0.2227235904976725,-0.6875310132622718,1.3290521166302265,2.1111501499459147,9.398236372369528,1.840272477132082
1757088844205670400,3.47567041015625,0.2682793140411377,-0.6762712597846985,-0.2577638328075409,-0.1127940200090408,-0.6299959391385317,1.2502594426833094,2.1254199367083606,9.387536699178815,1.8780641553878783
1757088844215625200,3.485625244140625,0.2714219391345978,-0.6802955865859985,-0.1693150997161865,0.1408630534127354,-0.9039367989152668,1.3155480535432695,2.1319825100943444,9.377914884352684,1.918270347439497
1757088844225580500,3.49558056640625,0.2543561160564422,-0.5752599835395813,-0.0548348613083362,0.4236430532053112,-0.5740104325443506,1.2982500050008297,2.13067098910436,9.370308501002192,1.956518098899722
1757088844235535400,3.505535400390625,0.1975183635950088,-0.3861925601959228,0.0814981609582901,0.338774566476047,0.0800754072338342,0.7754074496358633,2.1199201702483,9.36609643626511,1.988099816599488
1757088844245490400,3.515490478515625,0.1109211519360542,-0.0872527211904525,0.2035092860460281,0.0971747183337807,0.2817056485593319,0.1443120248228311,2.101599792920798,9.366029800769686,2.007776430841535
1757088844255444200,3.5254443359375,0.0338257439434528,0.2205335646867752,0.2893977463245392,-0.0809372847601771,0.5451876581639051,-0.0604081453420221,2.079796541913599,9.369801136001945,2.012879891460389
1757088844265399600,3.535399658203125,-0.0266525130718946,0.3366101086139679,0.3123933374881744,-0.1190802606716752,0.717519908812642,-0.1006182829163968,2.0573361421719194,9.37598420855105,2.0071509924195707
1757088844275354400,3.545354248046875,-0.0671950131654739,0.3445413112640381,0.3372958898544311,-0.1406710379719734,0.3280921366810798,0.2431556992821395,2.0340351999528705,9.383537984931468,1.995572782828659
1757088844285309400,3.555309326171875,-0.0747919455170631,0.2656489014625549,0.3666473627090454,-0.4288227939307689,0.1162210718482732,0.6184992703512311,2.007349583731592,9.392051546254754,1.9825014120705424
1757088844295264300,3.56526416015625,-0.0848562121391296,0.1746066063642501,0.3909967541694641,-0.6441501366972923,0.2270101817756891,0.7798910247907042,1.976074740023911,9.40112215693891,1.9708971912555395
1757088844305218600,3.575218505859375,-0.0855832546949386,0.0969597473740577,0.4261353015899658,-0.7368740131020546,0.0915560016691684,0.8023141612619161,1.9405588977456087,9.410731112283468,1.960295133220404
1757088844315173400,3.58517333984375,-0.0875918492674827,0.0101074129343032,0.4536225497722626,-0.4834127545133233,0.0823351688593626,0.7976156281821429,1.9001812946498395,9.420848017150163,1.9512268606238063
1757088844325128200,3.595128173828125,-0.0948556214570999,-0.0385863557457923,0.4596239924430847,0.0219499660015106,0.3385170845836401,0.6515545677348971,1.8568997868061063,9.431173011809587,1.9430119899861515
1757088844335083300,3.605083251953125,-0.0943099856376648,-0.0568731389939785,0.4561823010444641,0.2477671386003494,0.0728852034687995,0.5012428641058504,1.8127431035630404,9.441373503306508,1.935156454180181
1757088844345038300,3.615038330078125,-0.0870946794748306,-0.0712747126817703,0.4403623342514038,0.3390741339445114,-0.3949059112817049,0.5821380632899701,1.7693198491610589,9.45112332842648,1.9277337568335235
1757088844354992400,3.624992431640625,-0.0904047712683677,-0.0852800831198692,0.4074584245681762,0.5181609734199941,-0.5299748914629221,0.362386474340409,1.7278997512750327,9.460196861720084,1.92078379156515
1757088844364947200,3.634947265625,-0.0912154391407966,-0.053344253450632,0.3606760203838348,0.5183784155629575,-0.4873837039709091,-0.0571700402036309,1.6902730543226003,9.468481290462613,1.9134240764521064
1757088844374902300,3.64490234375,-0.0803770795464515,-0.0200792159885168,0.3095710873603821,0.3775673845984041,-0.4367056561350822,-0.386766736228764,1.65795308547616,9.475715917891264,1.9058879818588492
1757088844384857300,3.654857421875,-0.0628039389848709,-0.0141805801540613,0.2609199285507202,0.2685444075606763,-0.2010609170049428,-0.7046537052378058,1.6308054047010838,9.481734155267477,1.8993600413948295
1757088844394812400,3.6648125,-0.0391643941402435,-0.044721744954586,0.223237007856369,0.1111525364123284,0.0239665665209293,-0.8220528809547424,1.6075842497199773,9.486549446594717,1.8951038452550768
1757088844404766200,3.67476611328125,-0.0306931491941213,-0.1056210547685623,0.1975356489419937,-0.0163959851361811,0.3585924888849258,-0.8997187428288161,1.5860945947065948,9.490554006060956,1.8931625019289555
1757088844414721300,3.68472119140625,-0.0242306347936391,-0.1852978318929672,0.1496704667806625,-0.1255892041742801,0.5317664510548115,-0.9586727438397704,1.5668981651969254,9.493803363245725,1.892860596372932
1757088844424676400,3.69467626953125,0.0036476021632552,-0.2658208906650543,0.1205631867051124,-0.2378760053135454,0.4317793056488037,-0.7344387487791478,1.5500481526829302,9.496075984352826,1.8953272787474091
1757088844434631400,3.70463134765625,0.0503944307565689,-0.3410736620426178,0.1127671226859092,-0.3537364271558821,0.0761427439600229,-0.3366162193983793,1.533329511463642,9.497371284860373,1.9024239590100944
1757088844444586200,3.714586181640625,0.0897836461663246,-0.3910990059375763,0.1024881228804588,-0.3252982681788504,-0.1167021333634853,0.0194883981935679,1.516113880507648,9.497632566145064,1.914876467217505
1757088844454540300,3.724540283203125,0.1048956215381622,-0.4206601977348327,0.0976538211107254,-0.2998094605267047,0.0737263304680585,-0.0163112294621765,1.498856017845124,9.49724444361031,1.9303258191533383
1757088844464495400,3.734495361328125,0.1134369075298309,-0.422697514295578,0.107114166021347,-0.3908757789827883,0.2622638659864664,-0.3711328215062618,1.4809849917203186,9.496650569370388,1.946966280569881
1757088844474450400,3.744450439453125,0.0788502618670463,-0.4430757761001587,0.0862867385149002,-0.5482255645550788,0.1939332570821046,-0.1403220784038305,1.4632586347632108,9.496148465067147,1.9627578700721264
1757088844484405200,3.7544052734375,0.0458704680204391,-0.4325698614120483,0.0725520178675651,-0.3095626466475427,0.2869692681759596,-0.0829901256367564,1.4474074240282178,9.496039159473776,1.9750081337057053
1757088844494360300,3.7643603515625,0.0353385098278522,-0.3989475071430206,0.0933036878705024,-0.236323222913593,0.602643237310648,-0.1552799935609102,1.4316292785294351,9.496399224957823,1.9847497755192216
1757088844504315400,3.7743154296875,0.0593817941844463,-0.3158041536808014,0.1504812240600586,-0.2250223689593374,0.5476835666328669,-0.091847678092122,1.413144796681404,9.49718891403079,1.9941906808204948
1757088844514269400,3.78426953125,0.083430714905262,-0.2403170764446258,0.1890531629323959,-0.1828456074871122,0.0286661225140094,0.1211702186882495,1.3913193338423966,9.498160973933338,2.0048805632695554
1757088844524224300,3.794224365234375,0.1005441844463348,-0.1620944440364837,0.1969265341758728,-0.0456558357596397,0.0537543865412473,0.2678752761274576,1.3689013119377196,9.49896059987843,2.0164925289995965
1757088844534179300,3.804179443359375,0.1146064326167106,-0.1025226414203643,0.1995155960321426,-0.2327519402980804,0.3591302490234375,-0.0736968121126294,1.3475516499169171,9.4994439994812,2.028562321499735
1757088844544134400,3.814134521484375,0.1380947232246399,-0.0388826802372932,0.1946553289890289,-0.4640377535663544,0.2713648718088865,-0.2679040638305247,1.3274461427383124,9.4995234944582,2.041409089721739
1757088844554089200,3.824089111328125,0.2041937559843063,-0.0173500571399927,0.2003842443227768,-0.55907297565341,0.2549900755912065,-0.2952994357563555,1.3083077270261942,9.498687628155944,2.057581641365588
1757088844564043300,3.834043212890625,0.289445549249649,-0.0002357847988605,0.1840446889400482,-0.5715912425734102,0.1669862134456634,-0.0094273151673376,1.2897018107555809,9.496160155504942,2.0808605178833006
1757088844573998300,3.843998291015625,0.350803017616272,0.010800639167428,0.1510503888130188,-0.4785281973421573,0.1925520318567752,0.3103030897513031,1.2741510442718862,9.491544770663976,2.1112821057625117
1757088844583953400,3.853953369140625,0.4008563458919525,-0.0028853453695774,0.1326194554567337,-0.5178127445042133,0.241094821229577,0.0132446814984083,1.260913230905682,9.485349423155188,2.146773982643336
1757088844593908200,3.863908203125,0.4476549029350281,-0.000408251886256,0.1239981651306152,-0.5846598368525505,0.1138397296696901,-0.2516680915616452,1.2487515223383905,9.477781618249416,2.186931220986694
1757088844603863300,3.87386328125,0.4819612205028534,0.0074731069616973,0.1194942221045494,-0.5981951718606054,0.1438046598225832,-0.3465905009239912,1.2374464306004345,9.46906405878663,2.230677423732728
1757088844613817300,3.8838173828125,0.463966429233551,0.008328222669661,0.1077442690730094,-0.5723847310386597,0.2673036137193441,-0.5555222974345088,1.2266010653287172,9.459889403206107,2.275158224363625
1757088844623772400,3.8937724609375,0.3955857753753662,0.0419951044023036,0.0850352272391319,-0.4829587271355092,0.4628559964358806,-0.9817683727450668,1.218128347472474,9.45108533450365,2.315937832389027
1757088844633727200,3.903727294921875,0.2886871695518493,0.0263313651084899,0.0580386407673358,-0.5344096590399742,0.7654869441241026,-1.3635777788273988,1.2122685885936022,9.443987485197184,2.3477441526249048
1757088844643682300,3.913682373046875,0.1667913347482681,-0.015204626135528,0.0245560482144355,-0.5105646730720996,1.2499375172525644,-1.586920524136722,1.2086242407418786,9.439125432118772,2.3690761328585443
1757088844653637400,3.923637451171875,0.0652109161019325,-0.0795939639210701,0.0224710553884506,-0.5388312018092721,1.6850357381910084,-1.3353088389374317,1.2056162910975514,9.436627770084142,2.380526770547032
1757088844663591400,3.93359130859375,-0.0628445148468017,-0.0744873508810997,0.0848856940865516,-0.706994496210292,1.8554764760047195,-0.6946366074837744,1.1990022797852753,9.437074344807863,2.382099865082651
1757088844673546200,3.943546142578125,-0.215126559138298,0.0050258226692676,0.1868977397680282,-0.9248691853720694,1.4475959323376415,-0.5128820101037621,1.1853877420611678,9.441980821549892,2.3694354676902294
1757088844683501300,3.953501220703125,-0.3532295525074005,0.0837608501315116,0.2802953124046325,-0.9226667068917304,1.0818524026542902,-0.5765916812092066,1.1643312908332797,9.451437216681242,2.342016276497393
1757088844693456400,3.963456298828125,-0.5011808276176453,0.1583978682756424,0.3730626404285431,-0.8243770861186087,1.1586550718277693,-0.494571569648385,1.1363717091534289,9.46501507565677,2.3005475171640515
1757088844703411500,3.973411376953125,-0.6810840368270874,0.2583998143672943,0.4670946002006531,-0.8123018867909908,1.1638602392554285,-0.6206048643283546,1.1015518863152711,9.483004905855656,2.2426767813451587
1757088844713366300,3.9833662109375,-0.9175610542297364,0.4271488487720489,0.5761398673057556,-0.7921427497290074,1.1122329278707503,-0.6942983154401182,1.059695296708122,9.506052603965998,2.1638893680952487
1757088844723320300,3.9933203125,-1.2678087949752808,0.5872802138328552,0.6046513915061951,-0.5429131373606622,1.0462047506898642,-0.6527953615762293,1.013823114784062,9.534970655414462,2.055947756553441
1757088844733275400,4.003275390625,-1.682330846786499,0.6485117077827454,0.5159056186676025,-0.0006441431224346,0.6319324601590633,-0.7005928855396807,0.9720915397960692,9.569760813766717,1.909215664976835
1757088844743230500,4.01323046875,-1.92966890335083,0.7442635297775269,0.3371894061565399,0.472678302270174,0.1927899322658777,-0.3619992285884916,0.9443894400086252,9.606677462753654,1.72923801414147
1757088844753185300,4.023185302734375,-2.022446155548096,0.6607536673545837,0.2876934111118316,0.5693257087942213,-0.2291927865117788,0.0584342149205505,0.9267514919873326,9.641848729377983,1.5317651847563682
1757088844763140400,4.033140380859375,-1.3125970363616943,0.657901406288147,0.4792042374610901,0.5210322180073708,-0.932999227270484,0.4305640846401453,0.9024706718854606,9.670936876696349,1.352367964157462
1757088844773094400,4.043094482421875,0.0304175689816474,1.0608861446380615,0.6299280524253845,0.0197054750103503,-2.134247824677825,1.700239006411284,0.85627320352979,9.68361574100554,1.2902687969885769
1757088844783049500,4.053049560546875,0.444486916065216,1.2838231325149536,0.4762572348117828,-0.2650058581709861,-4.776321252852678,2.0319585398092865,0.8183652784831822,9.684883568984269,1.3052595915019511
1757088844793004300,4.06300439453125,0.6457870006561279,0.9986106157302856,0.3383227884769439,0.4863396748106926,-3.942396147796512,0.0518960453234612,0.7945579211119562,9.680847445335983,1.3491605464182794
1757088844802959400,4.07295947265625,0.7372846603393555,0.5068225264549255,0.2545194923877716,0.6261573838889598,-1.138174009335041,-0.3246770675405859,0.7771436257787049,9.673502927792072,1.4105974502861498
1757088844812914400,4.08291455078125,0.8192667365074158,0.0431340597569942,0.2309669256210327,0.4650747684638946,0.0227115980237722,-0.7738036677010357,0.7576140187919139,9.664227149924637,1.4829358335271476
1757088844822868200,4.0928681640625,0.9277370572090148,-0.0957236886024475,0.1891803294420242,0.353938452534005,-0.0962035352140665,-0.7863209117077291,0.7366205497976392,9.652509239602088,1.5674292033337056
1757088844832823300,4.1028232421875,0.870787501335144,-0.0781795755028724,0.0995329469442367,0.2305412785112857,0.4425409381598233,-0.5104540523044765,0.7214533758040517,9.638843702343106,1.656079838950187
1757088844842778400,4.1127783203125,0.6422432661056519,-0.0741158574819564,0.0217108577489852,0.5000887986999005,1.349727094259858,-0.9196279967829584,0.7145193387571722,9.62648983220458,1.7293170707270502
1757088844852733400,4.1227333984375,0.4391564726829529,-0.0668810084462165,-0.0281128566712141,0.8411820173818617,1.3070885604947804,-1.278583327630907,0.7137025424815714,9.617056233426927,1.7813656762637198
1757088844862688300,4.132688232421875,0.2708953022956848,-0.0546341985464096,-0.0602875687181949,0.8262859884798526,1.359535371568799,-0.4358057846859097,0.7170756721764803,9.610397360059618,1.8156144212156533
1757088844872642300,4.142642333984375,0.1386754214763641,-0.0828616768121719,-0.0820184648036956,0.5690017375368625,0.9795587338715792,0.1600502767026424,0.7226704965088516,9.6062554379493,1.8352175318300723
1757088844882597400,4.152597412109375,0.0725746899843216,-0.055089171975851,-0.1136919781565666,0.4567956004183739,0.1408738670676946,0.4463943987175822,0.7304298053987324,9.603675358328225,1.8456044858098029
1757088844892552400,4.162552490234375,0.0546412356197834,0.0452902354300022,-0.1392527371644973,0.3802442025922238,-0.1331529174268245,0.8426607846975326,0.7426353531077504,9.601620179364083,1.8514143411323427
1757088844902507300,4.17250732421875,0.0897909700870513,0.0172956194728612,-0.0531199797987937,0.1970784963052719,-0.1853694268763065,0.8470242406040429,0.7537189841147511,9.59951940769255,1.8578247926965357
1757088844912462300,4.18246240234375,0.1038685664534568,0.0337582342326641,0.1070897951722145,-0.0058347705680876,0.0094739307880401,0.6218681622624397,0.7505813436761498,9.59785819648206,1.867652359227836
1757088844922416400,4.19241650390625,0.0702600106596946,0.2054439783096313,0.157624065876007,-0.329835107890889,0.5479781656652689,0.5466837419405579,0.7395425016589462,9.59730290068686,1.8749023303560912
1757088844932371500,4.202371337890625,0.1001048609614372,0.2063017934560775,0.1594804227352142,-0.5038297387938946,0.2107353388011455,0.2713474822826683,0.728286802020669,9.596962708947062,1.8810402485892173
1757088844942326300,4.212326171875,0.1390895545482635,0.0451091788709163,0.1615406423807144,-0.4547977045994251,-0.0863169319719076,0.4659187450073659,0.7154664103489369,9.595787819948791,1.8919212696962056
1757088844952281300,4.22228125,0.1264122724533081,-0.1054372861981391,0.182492196559906,-0.4095592905342579,0.2120253786116838,0.6202141114450991,0.6983605233777314,9.594474983784556,1.904920598131418
1757088844962236400,4.232236328125,0.1324129104614257,-0.1319503933191299,0.2047248035669326,-0.4139210659403353,-0.0294692555904388,0.3646075113907456,0.677432666965574,9.593406477770207,1.9178145664960145
1757088844972190500,4.2421904296875,0.1493816375732422,-0.0467933192849159,0.1961737722158432,-0.4132476967234164,-0.0526069700717926,0.3173622144825756,0.6562585076421499,9.59200362523496,1.9321397367075084
1757088844982145300,4.252145263671875,0.1351904571056366,0.0847447365522384,0.1392439156770706,-0.6144377200007438,-0.094997666555643,0.1263315469741821,0.6403249523859471,9.59040145073533,1.9454013693407175
1757088844992100400,4.262100341796875,0.1654553711414337,0.1212607100605964,0.0938649401068687,-0.8989712854623794,-0.4874631989479064,-0.2465485565908253,0.6311201939281076,9.588272622013092,1.9588516564138232
1757088845002055400,4.272055419921875,0.1449271887540817,0.0039484654553234,0.0542578697204589,-1.079788528927043,0.8082464739203452,0.1130655304268002,0.6259383343107998,9.585580314189196,1.9736305617421863
1757088845012010200,4.28201025390625,0.0893240198493003,-0.1718204170465469,0.1165454164147377,-0.8392940116781741,0.6598907266646623,-0.0491397323526442,0.6163333975542337,9.583700491791962,1.985749600211531
1757088845021964300,4.29196435546875,0.0213734693825244,-0.1337665021419525,0.1948260962963104,-0.4703168703684583,-0.9256389276355504,-0.1019553767390549,0.5972093756936491,9.583670681175589,1.9917282362297173
1757088845031919400,4.30191943359375,0.027412861585617,0.0127792349085211,0.2392522692680359,0.0648292862525209,-1.9586656323224303,0.1155691838108003,0.5748722370054572,9.584496610605717,1.9943204446800047
1757088845041874400,4.31187451171875,0.0573630407452583,0.1991283446550369,0.1402154266834259,0.5226385572254657,-0.354246568635106,0.5709171427041292,0.5581942931227386,9.584642156556248,1.998360367720574
1757088845051829200,4.321829345703125,0.012978034093976,0.2619985044002533,0.0469896681606769,0.7994892400342971,0.2927987049818039,0.2315126077614724,0.5544319814471528,9.584481413036585,2.0001830531030893
1757088845061784300,4.331784423828125,0.0143005596473813,0.1716987192630767,0.0326647907495498,0.3497124323368072,0.1696983950138092,-0.3185639914877712,0.5552964527893811,9.584428806066512,2.000191382540017
1757088845071738400,4.34173828125,0.0181072372943162,0.0770382732152938,0.043101143091917,0.0985632135501131,0.3740215286850929,-0.4433776812449097,0.5537068089777604,9.58436041700542,2.0009553526498376
1757088845081693400,4.351693359375,0.023315580561757,-0.0002479986287653,0.0209159459918737,0.2759528571862727,0.2950771713078022,-0.8166064521171152,0.5507957073040306,9.584148235559462,2.002783883251249
1757088845091648300,4.361648193359375,0.0229489114135503,-0.0850581973791122,-0.0089202057570219,0.4375917547872289,0.3953413800895214,-0.974419763547927,0.5491183486763388,9.58369055491984,2.0054225611917675
1757088845101603300,4.371603271484375,-0.0049082869663834,-0.1303724199533462,-0.032496903091669,0.4014262529611587,0.2908715363115072,-1.0819307285875082,0.5487728597069159,9.583414660587906,2.006840611296147
1757088845111558400,4.381558349609375,-0.0156244942918419,-0.189779594540596,-0.0262532979249954,0.2246796564688906,0.0945838250577449,-1.1075370251394807,0.5487977018872275,9.583377251186969,2.007008661339432
1757088845121513500,4.391513427734375,-0.049990989267826,-0.2060323357582092,-0.0042364103719592,0.1057926168143749,0.1145686284661293,-0.8497888830117881,0.5466270798498765,9.58389338401556,2.005140675510466
1757088845131467300,4.40146728515625,-0.0619093440473079,-0.2420366555452346,0.0188271850347518,-0.1200491057038307,-0.0963935048282146,-0.6174700734339654,0.541727434707433,9.585063596838712,2.0008694279320536
1757088845141422300,4.41142236328125,-0.0579883754253387,-0.2821800708770752,0.0249023865908384,-0.1789479424614459,-0.254095757099986,-0.2709634514011442,0.5344866697989404,9.586393384137748,1.9964343680940568
1757088845151377400,4.42137744140625,-0.047669194638729,-0.2795405089855194,0.0225475672632455,-0.1649614296197891,-0.3086065149664879,0.0425055550351738,0.5266362120268866,9.587634324109551,1.9925660022281109
1757088845161332500,4.43133251953125,-0.0372575633227825,-0.2474818974733352,0.023917231708765,-0.1780336771607399,-0.3937590793341398,0.2773186656467616,0.5193564668148756,9.588690555164217,1.9893919022366404
1757088845171287300,4.441287353515625,-0.0212722569704055,-0.2029943913221359,0.0259483829140663,-0.1381704898605123,-0.3920183731466531,0.4184831862241029,0.5127139965930954,9.589493103718755,1.9872404232911764
1757088845181241300,4.451241455078125,-0.0066893184557557,-0.1369069814682006,0.0280956905335187,-0.0095324195096269,-0.3062093906968832,0.4857056877560913,0.5069279605375603,9.590025603160262,1.98615745036006
1757088845191196400,4.461196533203125,0.0111025935038924,-0.0807462632656097,0.0320740565657615,0.0863256267350167,-0.2247019048333167,0.5030662801407277,0.5020497965745627,9.590219664427638,1.9864543874800205
1757088845201151500,4.4711513671875,0.0196223109960556,-0.0188938155770301,0.0307805575430393,0.1785807896494865,-0.0730728349953889,0.5150098159126937,0.4980807102805003,9.59017407172024,1.9876789608389136
1757088845211106300,4.481106201171875,0.0360707081854343,0.0229258518666028,0.0321456044912338,0.2167348714768886,0.0049076457858085,0.5124269598126411,0.4950905154885724,9.589855507290364,1.989962833992392
1757088845221061000,4.49106103515625,0.05382626876235,0.0296039953827857,0.0355211570858955,0.2311597757358104,-0.0143055887281894,0.4221269495539367,0.4924884797640144,9.58916810954809,1.9939222391426563
1757088845231015400,4.501015380859375,0.0586023777723312,0.0606912672519683,0.0365989431738853,0.2369254996556788,0.0297264452219009,0.3526042082555591,0.4897145215386524,9.588231705480814,1.9991008108243344
1757088845240970500,4.510970458984375,0.0593715012073516,0.0892858877778053,0.0538647510111331,0.1670843400578945,0.008601239606738,0.3314437851965427,0.4874306849177926,9.587208207651972,2.004548408705741
1757088845250925300,4.52092529296875,0.0434291511774063,0.0194644462317228,0.0743350088596344,0.1103354844084009,-0.008836217406392,0.3279246711596846,0.4822296456759795,9.586390461528302,2.009713828644901
1757088845260880100,4.530880126953125,0.0487115308642387,-0.0270125083625316,0.0433869436383247,0.1783948751559481,-0.1478846226125955,0.3123061001367866,0.4756717119324952,9.585826982426642,2.013959795651585
1757088845270835500,4.54083544921875,0.0919351726770401,0.0332711860537529,-0.0052458457648754,0.1268120970327407,-0.2202513551652431,0.3862194776095449,0.4745814324777573,9.584274492287635,2.0215997890107333
1757088845280789200,4.550789306640625,0.0757290348410606,-0.0114291720092296,-0.01511419005692,-0.1529167715609073,-0.1785591623395681,0.1215444588281214,0.4762831948943435,9.582235095414518,2.030842687521875
1757088845290744300,4.560744384765625,0.0623812265694141,-0.0885181650519371,-0.020343080163002,-0.1289759605357423,-0.2140606838315725,-0.249251385808736,0.4777807399757206,9.580476269048452,2.0387673430413007
1757088845300699100,4.57069921875,0.1134928837418556,-0.1319868117570877,-0.0413088127970695,-0.1015139165818691,-0.1683580863207578,-0.2483295947887003,0.4793489391405135,9.57816857662797,2.0492184482984244
1757088845310654500,4.580654541015625,0.1277767121791839,-0.1961900293827057,-0.0885192453861236,-0.2447335065254941,0.0609328998684883,-0.2913045209012925,0.4828063495853915,9.57512964732349,2.062564836605638
1757088845320609300,4.590609375,0.0873584374785423,-0.1878458112478256,-0.1027362644672393,-0.2108510010700672,0.1347767192363738,-0.6778355486780404,0.4885782475177198,9.5722158057034,2.0747033104278145
1757088845330563300,4.600563232421875,0.0539846010506153,-0.3846601843833923,-0.1478703767061233,-0.2393335837107151,0.3278933992385864,-0.7899703741259873,0.4943155490607023,9.570186345702409,2.082690217528492
1757088845340518100,4.61051806640625,0.0762350484728813,-0.6642612218856812,-0.293051540851593,-0.0026992490213364,0.216793908187747,-0.3094963034130633,0.5044343170909211,9.567860533103346,2.0909322684340177
1757088845350473500,4.620473388671875,0.1241358444094657,-0.9047136306762696,-0.4806665480136871,0.0090811320781707,-0.0850987883538007,0.2640544026650488,0.5245271474510431,9.563593523308636,2.10545705287084
1757088845360428300,4.63042822265625,0.1993347406387329,-1.226620078086853,-0.7127395272254944,-0.1952921974103897,-0.3006511720478534,0.1719505578547716,0.5584624425396323,9.557084287545084,2.1261843452095985
1757088845370383400,4.64038330078125,0.3272635042667389,-1.3240410089492798,-0.7274166345596313,-0.0710649292390793,-0.4470002556562423,-0.0675927961491048,0.601979549237527,9.547062659746407,2.159078314551711
1757088845380338400,4.65033837890625,0.163645252585411,-0.8046757578849792,-0.4714010655879974,-0.4878104780156165,0.0731482383191585,-0.4475480987973511,0.636550402283296,9.537924244523047,2.1893296604305506
1757088845390292500,4.66029248046875,0.1120262816548347,-0.2028454691171646,-0.0406084097921848,-1.0305214438676833,-0.0410907198011875,-0.787565797202289,0.649693815364316,9.53365138950944,2.2040353543922304
1757088845400247300,4.670247314453125,0.0384934768080711,0.1826271265745163,0.1431755274534225,-0.6652841101408005,0.1965893245488405,0.5269602198168635,0.6429880341153591,9.53239875909984,2.2114080751173195
1757088845410202400,4.680202392578125,0.0177890919148921,0.2555908858776092,0.1307826042175293,0.4180453793287277,0.4533364729404449,0.3496383441872894,0.634954803654924,9.532729013967511,2.212307069783657
1757088845420157400,4.690157470703125,-0.0153638012707233,0.3255084455013275,0.1311748772859573,0.6895102043807506,0.3249778040528297,0.4095880782373249,0.6286467895518988,9.53344680684805,2.2110154225379226
1757088845430112300,4.7001123046875,-0.043524295091629,0.3016134202480316,0.1463221907615661,-0.0278056332271546,0.5392284574985504,0.3254860458359122,0.6226154004331678,9.53512438467145,2.205484822548181
1757088845440066300,4.71006640625,-0.0306329987943172,0.2818538248538971,0.160511776804924,-0.2102058350343257,-0.0597381371259689,0.3780900932982564,0.6143772950503975,9.536885549125074,2.2001655272215603
1757088845450021400,4.720021484375,-0.0177462790161371,0.3334841132164001,0.1924198865890503,-0.1746680731851607,-0.2380401098340749,0.6275920928671955,0.6044267597265541,9.538464927271008,2.196069343949109
1757088845459976400,4.7299765625,-0.0471734106540679,0.4359585642814636,0.2516725659370422,-0.1088695400416851,0.0857645587861537,0.2957005639031529,0.5919003825653344,9.540422491079568,2.1909772815071045
1757088845469931300,4.73993115234375,-0.0778297558426857,0.5750732421875,0.335794448852539,-0.092431651992537,0.2534305711895227,-0.1968026750385761,0.5751624521236867,9.543492400044205,2.1820443257279694
1757088845479886300,4.74988623046875,-0.0936473309993743,0.682377278804779,0.3860317766666412,0.0030371757388114,0.387466116669774,-0.4929920453719794,0.5540630750695243,9.547423894274234,2.170279945915192
1757088845489840400,4.75984033203125,-0.0945853888988494,0.6019793748855591,0.3166020214557647,0.2019640033245086,0.5592711285740137,-0.7857208999879658,0.5339530743788927,9.551442482265829,2.157598451257497
1757088845499795500,4.76979541015625,-0.0774197205901146,0.2823939621448517,0.148421511054039,0.4581026644289493,0.4888257194727659,-1.042921052844077,0.5211257780423387,9.554550969675184,2.146947293383628
1757088845509750300,4.779750244140625,-0.0651288330554962,-0.0401641353964805,-0.0167686343193054,0.4611573758244514,0.1789092909514903,-1.1505727415286005,0.5177719375697896,9.5563635720551,2.139677448511124
1757088845519705300,4.789705322265625,-0.0692034736275672,-0.2497229725122451,-0.0817606821656227,0.1228114830892533,-0.1605506274402141,-1.1006031342230738,0.5197323874551802,9.557491699302195,2.134150063391775
1757088845529660400,4.799660400390625,-0.0723714828491211,-0.4087938964366913,-0.0910931006073951,0.004667991811037,-0.2752075187116861,-1.0260101039230822,0.5210090197948739,9.558574818363786,2.128988735105842
1757088845539614500,4.809614501953125,-0.0805884003639221,-0.4506569504737854,-0.078165590763092,0.3434088752131909,-0.1315244394421577,-0.8724613180689513,0.5198499859528616,9.55973977048993,2.124030235915631
1757088845549569300,4.8195693359375,-0.1164792031049728,-0.4198831021785736,-0.0716303661465644,0.4743932164292782,0.0707400081336498,-0.7313961662128567,0.5178534418407827,9.561431376838684,2.116890447163582
1757088845559524400,4.8295244140625,-0.1576415598392486,-0.35642209649086,-0.0579707473516464,0.53829672960639,0.0860123960673809,-0.6846320769503712,0.5159006638051942,9.563967032796144,2.105890183591097
1757088845569479200,4.839479248046875,-0.2076333314180374,-0.2661099731922149,-0.0454552248120307,0.4807996128728612,0.0881166748702526,-0.5048401579454541,0.5142901598686352,9.567548398414251,2.0899510023117065
1757088845579434500,4.8494345703125,-0.2264914512634277,-0.1878527253866195,-0.0251685958355665,0.4792635989446193,-0.0473310754954814,-0.3152431765019893,0.512983168923296,9.571915361452104,2.07019357791841
1757088845589388300,4.85938818359375,-0.2125486880540847,-0.1035761684179306,-0.00881221704185,0.4170797491669654,0.1252583647847175,0.1440405144050717,0.5115712562987581,9.576346037375927,2.049946031920612
1757088845599343400,4.86934326171875,-0.2014790028333664,-0.0165832079946994,0.001809534151107,0.3189946379899978,0.2143260567694902,0.3280975435085594,0.5107456556621939,9.580502572533488,2.0306398584261536
1757088845609298200,4.879298095703125,-0.1903691589832306,0.0724319815635681,0.0148315019905567,0.1999240219295024,0.0512812744259834,0.1993767633102834,0.5105555399175733,9.584482582080364,2.0118182535782454
1757088845619253500,4.88925341796875,-0.1774837225675583,0.1254776120185852,0.0431315824389457,0.0268914775243028,0.0034334815800189,0.2080734261155128,0.509858497564122,9.588336334899068,1.9935441996105012
1757088845629208300,4.899208251953125,-0.141898900270462,0.0424447506666183,0.0381104163825511,-0.0538064455220475,-0.0477115992456674,0.2424986966781318,0.5075079158499837,9.59174702012539,1.9776742841750383
1757088845639162400,4.909162353515625,-0.0970528498291969,-0.0389811322093009,0.0012341560795903,0.337666568701528,-0.2174532488793134,0.0680444854393601,0.5055416207456961,9.594193828755616,1.966278737674653
1757088845649117200,4.9191171875,-0.0439060628414154,-0.1081773564219474,-0.0451706647872924,0.4603085769753903,-0.3402437622457742,-0.1455856980204582,0.506350818236731,9.595478023347258,1.959791859873384
1757088845659072500,4.929072509765625,-0.0010613943450152,-0.1902253478765487,-0.0789352878928184,0.4922936147790402,-0.3023363486558199,-0.3341182651028037,0.5096799261268228,9.595578561112283,1.9584338693931695
1757088845669027300,4.93902734375,0.0303383897989988,-0.2346430718898773,-0.0934092625975608,0.5072118555128574,-0.1625356637775898,-0.4919651865422725,0.5142148296101019,9.594792379170656,1.9611071802556517
1757088845678982100,4.948982177734375,0.044992696493864,-0.268659383058548,-0.1016940847039222,0.4195206395130604,-0.0180628954350948,-0.5626758224509656,0.5187070629954338,9.593521628582478,1.966126761983335
1757088845688936200,4.958936279296875,0.0520164258778095,-0.2941003441810608,-0.1064013093709945,0.4153833935778588,0.0795259566575288,-0.6042267071098089,0.5231434745403006,9.592000118103623,1.9723630260244007
1757088845698891500,4.9688916015625,0.0463817082345485,-0.3113856017589569,-0.1179783344268798,0.2785959555735811,0.0739081167757511,-0.4359175744973123,0.5279505825610831,9.59043652204871,1.978680976999551
1757088845708846300,4.978846435546875,0.0540017262101173,-0.2850418388843536,-0.107572391629219,0.2014741739809513,0.078132456472516,-0.3664366265140473,0.5327971458094194,9.588755437093972,1.9855152069337665
1757088845718801200,4.98880126953125,0.0367090217769146,-0.2900373935699463,-0.0736695528030395,-0.0496552441267296,0.005206920993328,-0.1569080331541597,0.5365754222391173,9.587310498982667,1.9914644707269968
1757088845728756500,4.998756591796875,0.0394004508852958,-0.3307103216648102,-0.0351628586649894,-0.306038125783205,-0.19052900159657,0.0293520589515566,0.536630075035803,9.586274141672254,1.9964419668786224
1757088845738710500,5.00871044921875,0.0369623303413391,-0.3776559829711914,0.0026476357597857,-0.4291290103357285,-0.2991343377441167,0.3076215955823659,0.5319304459774866,9.5854949739933,2.001436560295522
1757088845748665300,5.018665283203125,0.0438857115805149,-0.4966440796852112,-0.0103779342025518,-0.4486720978586003,-0.3164852855175733,0.5035125626035034,0.5242392338877544,9.584887071228026,2.0063586729981004
1757088845758620200,5.0286201171875,0.0762143582105636,-0.5992357134819031,-0.0355466678738594,-0.1041687419395893,-0.4009142117857933,0.927118644799292,0.5159716832147911,9.58357598862946,2.0147569373786447
1757088845768575500,5.038575439453125,0.0314739532768726,-0.5451065301895142,-0.0300377383828163,-0.0951625017285346,-0.4495627996206283,1.5239944046244025,0.5077138502182439,9.582245032286645,2.023165138631314
1757088845778530300,5.0485302734375,0.030005220323801,-0.5368083715438843,-0.0032199723646044,-0.4940869279365986,-0.2726566651850938,1.4969975304968657,0.4984267107065767,9.581613164123892,2.0284648524746296
1757088845788484400,5.058484375,0.0549966394901275,-0.4694622457027435,0.0020019910298287,-0.3572667201738804,0.0253249953925609,1.544421252711862,0.4884987890733405,9.580662147009372,2.035359434293956
1757088845798439200,5.068439208984375,-0.00907848123461,-0.1699770092964172,0.1245739832520484,-0.2661889304757118,0.6948030500918626,0.3670326927110552,0.4761307808116078,9.580511924883725,2.0389904842726887
1757088845808394500,5.07839453125,-0.0449865944683551,0.2453024238348007,0.1976333558559417,-0.2502957802951335,0.4902759182810783,-1.6153718348562716,0.460836327176541,9.581831190788746,2.036302706493437
1757088845818349300,5.088349365234375,-0.0522197410464286,0.4660800695419311,0.1591637283563614,-0.0042880525827407,-0.0707516985714435,-0.6998397290848195,0.4512552827522158,9.583663082391023,2.029818459040672
1757088845828304400,5.098304443359375,-0.0741291642189025,0.3189407289028168,0.0985402092337608,0.2372048280537128,-0.3233580938965082,1.3180816636741162,0.4472377542065456,9.585476269292831,2.022129073581844
1757088845838258200,5.108258056640625,-0.0827271789312362,0.1277878433465957,0.056051068007946,0.3590261675944551,-0.0468383235424757,0.8171114790298044,0.4445273992693051,9.587432079535722,2.013433433689922
1757088845848213500,5.118213623046875,-0.0777052193880081,0.1320283114910125,0.0531780980527401,0.0536217000722885,0.1218950258314609,0.0935974443688988,0.4416788414377718,9.58928559844792,2.005219439835101
1757088845858168300,5.128168212890625,-0.0717772841453552,0.1978424787521362,0.0622594766318798,-0.2560942374408245,0.1514905381500721,-0.1469260067135095,0.4395493551284074,9.590964929836987,1.9976437438838184
1757088845868123400,5.138123291015625,-0.0778373926877975,0.2289200574159622,0.0778543204069137,-0.4510089067757129,0.1213940905719995,-0.1293057404793798,0.4370929384196176,9.592779870304463,1.9894510850779712
1757088845878078500,5.148078369140625,-0.0751715749502182,0.0925438404083252,0.0379053056240081,-0.464658661943674,-0.0895364785403013,0.0266777251757681,0.434582124642469,9.594516484838724,1.9816084087535737
1757088845888032500,5.158032470703125,-0.0539955422282218,0.0793323218822479,0.0369712561368942,-0.0745441131243482,-0.0911269626021385,-0.2109375833749771,0.4327763903947547,9.595956746774911,1.975015001837909
1757088845897987300,5.1679873046875,-0.0369611606001853,0.0772795602679252,0.0299138762056827,-0.211068552810885,-0.1982721630692482,-0.1363525902509689,0.4308864119296893,9.597008886176347,1.9703106235392391
1757088845907942400,5.1779423828125,-0.0248190090060234,0.0041380496695637,-0.0067874155938625,-0.3456125958025455,-0.2315297050267457,0.076629358433187,0.4306065720750018,9.597646599557995,1.9672709635823964
1757088845917897500,5.1878974609375,-0.0169938430190086,-0.0550219416618347,-0.0244811922311782,-0.1738122600734233,-0.1012257472902536,0.0216058287389576,0.4316374860253185,9.597975685381888,1.9654317654564972
1757088845927852300,5.197852294921875,-0.0165599212050437,-0.0884603038430213,-0.0300913210958242,-0.2804816962549463,0.0694634123265743,-0.0849151023499667,0.4328130326107144,9.598172084736824,1.9642136218383908
1757088845937806300,5.207806396484375,-0.0241786930710077,-0.1031444370746612,-0.0347425304353237,-0.3053215384790673,0.1368079328030347,-0.2282563824445009,0.4338603862391784,9.598464345681666,1.9625559177592395
1757088845947761400,5.217761474609375,-0.0133402040228247,-0.0756875053048133,-0.0234989747405052,-0.2306733439257368,0.0937199017047882,-0.239977799898386,0.434629617046006,9.59875777567029,1.9609603191308675
1757088845957716200,5.22771630859375,-0.01166214607656,-0.1097179129719734,-0.0267091486603021,-0.377696965794824,0.0096171386510133,-0.0003382920436561,0.4348588957572356,9.598913843014836,1.9601422807462512
1757088845967671300,5.23767138671875,-0.0121380575001239,-0.1373115330934524,-0.0264311116188764,-0.4327157097160816,-0.0191103586614131,0.1377684483982622,0.4349602737724781,9.599059388965369,1.959402276033908
1757088845977626400,5.24762646484375,-0.007351292297244,-0.1220833137631416,-0.0145571418106555,-0.4315876555342227,0.0183241767197847,0.1217345745727419,0.4341317139938473,9.599182723084091,1.9589757211849093
1757088845987580400,5.257580322265625,-0.0061020031571388,-0.0992480441927909,-0.0072518237866461,-0.550104071778059,-0.0013584288716316,0.2000434105254709,0.4318901821447536,9.599263971626758,1.9590774279937144
1757088845997535200,5.26753515625,-0.0052801519632339,-0.0786716639995575,-0.0068648667074739,-0.5240110146224498,-0.0443728102117776,0.2768497329607606,0.429888888792321,9.59933177616596,1.9591851261518896
1757088846007490300,5.277490234375,-0.0083444705232977,-0.0716136991977691,-0.0104762054979801,-0.4758533886423334,-0.0851753607213497,0.3757875154443085,0.4278200831616297,9.599583705100416,1.95840975786522
1757088846017445400,5.2874453125,-0.0071021057665348,-0.0579303726553916,-0.0100192064419388,-0.4591723760196939,-0.0823269855529069,0.4269380030974745,0.4259525357240811,9.60002618817091,1.9566390949308872
1757088846027400200,5.297400146484375,-0.0086756823584437,-0.0441839881241321,-0.0117640178650617,-0.4613584513545036,-0.1100572885215282,0.4613508525699377,0.424997025097534,9.600373394173385,1.955147102807462
1757088846037354200,5.307354248046875,-0.0132358130067586,-0.0308793671429157,-0.0111879762262105,-0.4116611947169527,-0.0978694225996732,0.4359256116732954,0.4239315878231078,9.600606618407369,1.9542361254423852
1757088846047309300,5.317309326171875,-0.0134645216166973,-0.0056755924597382,-0.0165677890181541,-0.3317196795284748,-0.0483674328058958,0.4674824871927499,0.4232985140839591,9.600782559496164,1.9535044501669705
1757088846057264400,5.327264404296875,-0.0137156583368778,0.0107667641714215,-0.0256097540259361,-0.272781131814979,0.0442670117497444,0.4833884968549012,0.4237662777261808,9.600925182837248,1.952711984615028
1757088846067219200,5.33721923828125,-0.0138334212824702,0.0173971615731716,-0.0334469452500343,-0.2711351912388577,0.0434387442320585,0.429311161969602,0.4251127969643101,9.601003508770466,1.9520215181328355
1757088846077174500,5.347174560546875,-0.0100261662155389,0.0104247406125068,-0.0304551515728235,-0.2972270428180694,-0.0181914902508258,0.3499409803956747,0.4266640815269201,9.600983635026216,1.95178464063704
1757088846087128300,5.35712841796875,-0.0049736611545085,0.0106769483536481,-0.0250985138118267,-0.2526572487294674,-0.0613777210265398,0.2543973703950643,0.4275829499375075,9.6007749607116,1.9526075013272464
1757088846097083400,5.36708349609375,-0.0021222142968326,0.0169598776847124,-0.0264695081859827,-0.1581902915170416,-0.0467746106564998,0.1469349206723272,0.4279871833568439,9.600388591742515,1.954426241187006
1757088846107038200,5.3770380859375,-0.0055899657309055,0.0184525083750486,-0.0253736600279808,-0.0972200187802314,-0.0044651627153158,-0.0005645020149648,0.4285170159172266,9.599976503810286,1.956327837024629
1757088846116993500,5.38699365234375,-0.0096283834427595,0.0046299034729599,-0.0223485752940177,-0.103026659232378,0.013207856619358,-0.1494119783103465,0.4289372506232932,9.599661446511744,1.957782419747114
1757088846126948400,5.3969482421875,-0.0103205731138587,-0.0202939622104167,-0.0206668376922607,-0.0959258507838472,0.0177595285743474,-0.2544784728072583,0.4294683252926916,9.599449849587678,1.958701726549119
1757088846136903700,5.406903564453125,-0.0130396606400609,-0.0430232435464859,-0.018742436543107,-0.0814227301895618,0.0296633168578147,-0.3390307331942022,0.4299290016070008,9.599366847479343,1.9590075776278968
1757088846146857700,5.416857666015625,-0.0130235068500041,-0.0693582072854042,-0.0173374433070421,-0.0391805022656917,0.0474585012674331,-0.3804017312414944,0.4300346174059435,9.599378537917136,1.958928521042317
1757088846156812800,5.426812744140625,-0.0140592101961374,-0.0963661223649978,-0.0164460837841033,-0.0368014616420492,0.106169048911333,-0.4014484647929668,0.4294513741578906,9.599476153072716,1.95857751564756
1757088846166767900,5.436767822265625,-0.0145578030496835,-0.117742583155632,-0.023247305303812,0.0179903781881555,0.1801116524785757,-0.3840487094417214,0.4288280546277761,9.599602994322776,1.9580862249992788
1757088846176722700,5.44672265625,-0.0226181279867887,-0.1278655230998993,-0.0306596811860799,0.093371526658535,0.1857160483568906,-0.3531637418344616,0.4287140728592872,9.59983504951298,1.956979578931629
1757088846186678000,5.456677978515625,-0.0313525907695293,-0.1354138553142547,-0.0353951230645179,0.080079498887062,0.1741091971933841,-0.2670858793154358,0.4291372667074203,9.600219080394506,1.954997757464647
1757088846196631800,5.4666318359375,-0.0423847362399101,-0.1288992315530777,-0.0461516305804252,0.0709737803569063,0.1613613593012094,-0.170670454916358,0.4303128132928162,9.60084568786025,1.951657068734616
1757088846206587000,5.4765869140625,-0.0529260523617267,-0.1204909607768058,-0.0549605786800384,0.0362707522988319,0.1258458092838525,-0.0540125990860164,0.4325444082697853,9.60164648284912,1.9472277079850435
1757088846216541700,5.486541748046875,-0.0614545568823814,-0.1089964881539344,-0.0638443529605865,0.0151660049498081,0.0998112043172121,0.0361332435242831,0.4358420615756884,9.60269102346599,1.941327544030547
1757088846226497000,5.4964970703125,-0.067480444908142,-0.0942947417497634,-0.0673500970005989,0.0316787483334541,0.0671732555627822,0.1413971602894365,0.4399787229890003,9.60390507543087,1.9343758251965044
1757088846236451800,5.506451904296875,-0.0703012645244598,-0.0771160200238227,-0.0689349398016929,0.0438601845145225,0.039023265877366,0.1968573278352618,0.4447068474894389,9.605269349521398,1.926500269515812
1757088846246406000,5.516406005859375,-0.0702500939369201,-0.0576747246086597,-0.0679836124181747,0.0189198410579934,0.0356792161464691,0.2147805225387215,0.4498946253908797,9.606669279447198,1.9183036651872096
1757088846256360700,5.526360595703125,-0.0696804448962211,-0.0421165376901626,-0.068615049123764,0.0128945894191041,-0.0153378543853759,0.1968450528755783,0.4557702759586274,9.60800725005269,1.9102024840570984
1757088846266316000,5.53631591796875,-0.068814031779766,-0.0245412476360797,-0.0726440623402595,-0.0077777213294059,-0.0328512992441654,0.1810809359021484,0.4620779247354716,9.609208442535996,1.9026222580611705
1757088846276270800,5.546270751953125,-0.0667250454425811,-0.0210205484181642,-0.0767692923545837,-0.0427472548365592,-0.0526052165061235,0.1675616752460599,0.4689156252684071,9.610258243849874,1.895641459263116
1757088846286226000,5.556225830078125,-0.0617880262434482,-0.0219163615256547,-0.0796832889318466,-0.0722481476742774,-0.0842968243211507,0.1502306012168526,0.475970037291944,9.61112275172472,1.8894791372410955
1757088846296179700,5.5661796875,-0.0542470179498195,-0.0159250479191541,-0.0800558626651763,-0.1120738890409469,-0.0966144541025161,0.1608880427010357,0.4831755482239648,9.611769817456604,1.8843587254874408
1757088846306135000,5.576135009765625,-0.0481777191162109,-0.0136424452066421,-0.0761903300881385,-0.1705002859812229,-0.0889747530043125,0.1778438536770641,0.4902757356179877,9.612211716005206,1.8802723329566415
1757088846316089900,5.58608984375,-0.0422607064247131,-0.0150866787880659,-0.0729095786809921,-0.1895580376725643,-0.1151268468707799,0.2017807557120919,0.4970633499315008,9.612477088943123,1.877134619452804
1757088846326044700,5.596044677734375,-0.0367502346634864,0.0007297361153177,-0.0639692097902298,-0.1707271535396576,-0.1199485679388046,0.2211626247912645,0.5033721677521243,9.612658875250816,1.874512015864253
1757088846335999700,5.605999755859375,-0.0347201079130172,0.0115746604278683,-0.0534396097064018,-0.2160603697488084,-0.089440032428503,0.2511968207880855,0.5089011237740516,9.612825463989376,1.8721607765629888
1757088846345954000,5.6159541015625,-0.0311322081834077,0.0220523606985807,-0.0415226742625236,-0.2296550702612847,-0.0761550189197063,0.2599783853977918,0.5135170566042885,9.613009003862738,1.8699634126491844
1757088846355908900,5.625908935546875,-0.0254197269678115,0.0314336121082305,-0.0269533153623342,-0.2083143221992999,-0.0368336468786001,0.2682784501008689,0.5168672803476453,9.61319020564854,1.8680971803858877
1757088846365863700,5.63586376953125,-0.0189219713211059,0.0372323542833328,-0.0146208386868238,-0.2241547923445701,-0.0311748904645442,0.2525553957901895,0.5189406525555997,9.613369069346785,1.866612494786084
1757088846375818800,5.64581884765625,-0.0116352951154112,0.0366192944347858,0.0010036616586148,-0.2429997050028294,-0.0404319636315107,0.2089455327749252,0.5195296314246952,9.613498833206297,1.8657802817456424
1757088846385773800,5.65577392578125,-0.0013206081930547,0.0310647003352642,0.0124730989336967,-0.2620715582847595,-0.0615314502835273,0.2221381918251514,0.5185501188680529,9.613498248684406,1.8660545686423775
1757088846395728000,5.665727783203125,0.0124119818210601,0.0262579601258039,0.0227670166641473,-0.2234907024126499,-0.0893424172729253,0.2287272148266434,0.5163309449812397,9.613328152814509,1.8675462685048576
1757088846405682700,5.6756826171875,0.0251171234995126,0.0325776450335979,0.0319820865988731,-0.1861363561281934,-0.1366752463340759,0.1975689832359552,0.513394526203163,9.612924248188731,1.8704227007240053
1757088846415637800,5.6856376953125,0.0312945917248725,0.0407306440174579,0.0382676795125007,-0.1294949794411659,-0.1389794316232204,0.1305013800047338,0.509724386323057,9.61238648805022,1.874193889825791
1757088846425592800,5.6955927734375,0.0329364761710166,0.0494085475802421,0.0450111143290996,-0.0856382289927452,-0.1252215399056672,0.0135207219608128,0.5055211990121752,9.611797874507308,1.8783479407653207
1757088846435548000,5.7055478515625,0.0323359332978725,0.0574518255889415,0.048655916005373,-0.0743477137694135,-0.098311905670166,-0.0764842508740723,0.5011143423553556,9.611222704967856,1.8824604906506837
1757088846445501700,5.715501708984375,0.0291705857962369,0.0598962940275669,0.047062374651432,-0.0473930348157882,-0.0633966596335172,-0.1726965539164841,0.4966048290416598,9.610724107795953,1.88619675456956
1757088846455456800,5.725456787109375,0.02216487377882,0.0598291829228401,0.0461254715919494,0.0126747726559638,-0.0116992056220769,-0.267471663762629,0.4922021005706861,9.610352936396,1.8892438671804963
