time,seconds_elapsed,z,y,x
1757088840745129700,0.015129638671875,0.03237977623939514,-0.9041381478309631,-0.18229816854000092
1757088840755084800,0.025084716796875,-0.03394624963402748,-0.9038947224617004,-0.10935338586568832
1757088840765039600,0.03503955078125,-0.11714553087949753,-0.9033882021903992,-0.02046319656074047
1757088840774994700,0.04499462890625,-0.17154379189014435,-0.8851441740989685,0.08457134664058685
1757088840784949800,0.05494970703125,0.03608423471450806,-0.8612663149833679,0.15047818422317505
1757088840794904800,0.06490478515625,0.12059139460325241,-0.7143633961677551,0.21598529815673828
1757088840804858600,0.074858642578125,0.10468220710754395,-0.7182191014289856,0.2289668768644333
1757088840814813700,0.084813720703125,0.03194461762905121,-0.9777529835700989,0.14482536911964417
1757088840824768800,0.094768798828125,-0.04081667214632034,-1.351693034172058,0.05434020236134529
1757088840834723600,0.1047236328125,-0.23832175135612488,-1.5606735944747925,0.15632356703281403
1757088840844678700,0.1146787109375,-0.39885178208351135,-1.1160919666290283,0.21071143448352814
1757088840854632700,0.1246328125,-0.45868581533432007,-0.1214020624756813,0.29984423518180847
1757088840864587800,0.134587890625,-0.4048635959625244,0.6828595399856567,0.47804778814315796
1757088840874542600,0.14454248046875,-0.2340090274810791,1.2806888818740845,0.7159211039543152
1757088840884497700,0.15449755859375,0.12533316016197205,1.586253046989441,0.7191752195358276
1757088840894452700,0.16445263671875,0.7522122263908386,1.5505403280258179,0.5439407825469971
1757088840904406800,0.17440673828125,1.4016541242599487,1.7588024139404297,0.5596185326576233
1757088840914361600,0.184361572265625,1.9262909889221191,1.7990965843200684,0.8080099821090698
1757088840924316700,0.194316650390625,2.2565245628356934,1.3545851707458496,1.1734603643417358
1757088840934271700,0.204271728515625,2.253368854522705,0.7151330709457397,1.5837345123291016
1757088840944226800,0.214226806640625,1.8531219959259033,0.05055558681488037,1.907317042350769
1757088840954181600,0.224181640625,1.2088066339492798,-0.4083999991416931,2.092839002609253
1757088840964135700,0.2341357421875,0.5650346279144287,-0.7153828740119934,2.126161575317383
1757088840974090800,0.2440908203125,0.23260022699832916,-0.8293325901031494,1.9815704822540283
1757088840984045800,0.2540458984375,0.3754143714904785,-0.7392423748970032,1.6669074296951294
1757088840994000600,0.264000732421875,0.8412116169929504,-0.5199004411697388,1.2743228673934937
1757088841003955700,0.273955810546875,1.5108346939086914,-0.25344106554985046,0.9737890958786011
1757088841013909800,0.28390966796875,2.29852032661438,0.1648091971874237,0.8463160991668701
1757088841023864800,0.29386474609375,2.942906379699707,0.6012954115867615,0.803887665271759
1757088841033819600,0.303819580078125,3.0168776512145996,0.7843358516693115,0.6824414134025574
1757088841043774700,0.313774658203125,2.243151903152466,0.4063328802585602,0.3658791780471802
1757088841053729800,0.323729736328125,1.1793127059936523,-0.12034531682729721,0.11638866364955902
1757088841063683800,0.333683837890625,0.4652704894542694,-0.8178378343582153,-0.034757714718580246
1757088841073638700,0.343638671875,0.3332429528236389,-1.6249005794525146,-0.11902252584695816
1757088841083593700,0.35359375,0.8929251432418823,-1.8609751462936401,-0.07169948518276215
1757088841093548800,0.363548828125,1.675162434577942,-1.6572779417037964,-0.009129582904279232
1757088841103503600,0.373503662109375,2.087083578109741,-1.528637409210205,-0.1390441656112671
1757088841113457700,0.383457763671875,2.07686185836792,-1.3747212886810303,-0.4913550913333893
1757088841123412700,0.393412841796875,1.9116220474243164,-0.9194539785385132,-0.8356482982635498
1757088841133367800,0.403367919921875,1.9329196214675903,-0.5604215264320374,-1.0135293006896973
1757088841143323000,0.413322998046875,2.1749932765960693,-0.10192263871431351,-1.1800000667572021
1757088841153278000,0.42327783203125,2.3790721893310547,0.1776685267686844,-1.3530967235565186
1757088841163232800,0.433232666015625,2.395284652709961,0.06048091873526573,-1.5152992010116577
1757088841173186800,0.443186767578125,2.310563564300537,-0.3641952574253082,-1.6477166414260864
1757088841183142000,0.453141845703125,2.2325243949890137,-0.9006528258323669,-1.753761887550354
1757088841193097000,0.463096923828125,2.1964733600616455,-1.5194945335388184,-1.8680636882781982
1757088841203051800,0.4730517578125,2.194633960723877,-1.9414422512054443,-1.944899559020996
1757088841213006800,0.4830068359375,2.158796548843384,-1.9790202379226685,-1.8866291046142578
1757088841222961000,0.4929609375,2.056361198425293,-1.7086490392684937,-1.6608327627182007
1757088841232916000,0.502916015625,1.8766728639602661,-1.446142554283142,-1.299053430557251
1757088841242870800,0.512870849609375,1.6831276416778564,-1.3031731843948364,-0.8699948191642761
1757088841252825900,0.522825927734375,1.5565882921218872,-1.2641050815582275,-0.40301990509033203
1757088841262781000,0.532781005859375,1.5339783430099487,-1.4606764316558838,-0.01955346204340458
1757088841272735000,0.54273486328125,1.5765959024429321,-1.8689712285995483,0.19038937985897064
1757088841282689800,0.552689697265625,1.6536136865615845,-2.3823320865631104,0.22720065712928772
1757088841292644900,0.562644775390625,1.768248438835144,-2.886040449142456,0.184794619679451
1757088841302600000,0.572599853515625,1.9351258277893066,-3.2943079471588135,0.21737439930438995
1757088841312554800,0.5825546875,2.145638942718506,-3.4656288623809814,0.36887869238853455
1757088841322510000,0.592510009765625,2.390167236328125,-3.5402307510375977,0.6131566166877747
1757088841332463900,0.6024638671875,2.55769419670105,-3.2636802196502686,0.8455848097801208
1757088841342419000,0.6124189453125,2.451399803161621,-2.65635347366333,0.8741799592971802
1757088841352373800,0.622373779296875,2.116183042526245,-1.8686118125915527,0.6684616804122925
1757088841362328800,0.632328857421875,1.7410482168197632,-0.9707991480827332,0.3353676199913025
1757088841372284000,0.642283935546875,1.4213745594024658,-0.05258890986442566,-0.06374888867139816
1757088841382238000,0.652238037109375,1.1831157207489014,0.7234285473823547,-0.4747859537601471
1757088841392192800,0.66219287109375,1.0635528564453125,1.2960883378982544,-0.8207145929336548
1757088841402147800,0.67214794921875,1.0500383377075195,1.6446274518966675,-1.078850269317627
1757088841412103000,0.68210302734375,1.0769668817520142,1.7030701637268066,-1.2606067657470703
1757088841422058000,0.69205810546875,1.1436634063720703,1.4213203191757202,-1.288509726524353
1757088841432011800,0.70201171875,1.2195477485656738,1.0546703338623047,-1.0631003379821777
1757088841441966800,0.711966796875,1.2464901208877563,0.6782402992248535,-0.6639329791069031
1757088841451922000,0.721921875,1.2584456205368042,0.17448684573173523,-0.2695142924785614
1757088841461877000,0.731876953125,1.2800017595291138,-0.3343883752822876,0.0529702752828598
1757088841471831800,0.741831787109375,1.3284707069396973,-0.5891546010971069,0.2624287009239197
1757088841481787000,0.751786865234375,1.4570492506027222,-0.5959200859069824,0.28047001361846924
1757088841491741000,0.761740966796875,1.672105312347412,-0.5323845148086548,0.13429975509643555
1757088841501695700,0.77169580078125,1.748523473739624,-0.20591667294502258,-0.0940529927611351
1757088841511650800,0.78165087890625,1.6706815958023071,0.2777802050113678,-0.41389837861061096
1757088841521606000,0.79160595703125,1.5079281330108643,0.6751587390899658,-0.7499815821647644
1757088841531561000,0.80156103515625,1.2321761846542358,0.9390859603881836,-1.0052293539047241
1757088841541514800,0.8115146484375,0.8913155198097229,1.0421154499053955,-1.1044059991836548
1757088841551469800,0.8214697265625,0.6158336400985718,1.0726085901260376,-1.0326939821243286
1757088841561425000,0.8314248046875,0.4397906959056854,0.9987807273864746,-0.851101279258728
1757088841571380000,0.8413798828125,0.27503901720046997,0.9116737842559814,-0.5943006277084351
1757088841581334800,0.851334716796875,0.1059354841709137,0.8994266986846924,-0.26594778895378113
1757088841591288800,0.861288818359375,-0.031000526621937752,0.7898427248001099,0.03674602881073952
1757088841601244000,0.871243896484375,-0.08324748277664185,0.6136519908905029,0.23506444692611694
1757088841611199000,0.881198974609375,-0.09442716836929321,0.5058067440986633,0.3573192358016968
1757088841621153800,0.89115380859375,-0.11890401691198349,0.46039503812789917,0.4185703694820404
1757088841631109000,0.901109130859375,-0.15606071054935455,0.4659527838230133,0.44138219952583313
1757088841641063000,0.91106298828125,-0.17926828563213348,0.49258679151535034,0.43785616755485535
1757088841651018000,0.92101806640625,-0.15123559534549713,0.4966934025287628,0.41821563243865967
1757088841660972800,0.930972900390625,-0.12019964307546616,0.4540969133377075,0.371868371963501
1757088841670928100,0.94092822265625,-0.12432727962732315,0.3668099641799927,0.2934318780899048
1757088841680883000,0.950883056640625,-0.1465364396572113,0.2561225891113281,0.20017144083976746
1757088841690837000,0.9608369140625,-0.14410391449928284,0.10405503213405609,0.12645994126796722
1757088841700791800,0.970791748046875,-0.11444375663995743,-0.09104175865650177,0.06734468787908554
1757088841710747000,0.980746826171875,-0.05846996605396271,-0.2915114760398865,0.027640148997306824
1757088841720702000,0.990701904296875,0.019839750602841377,-0.48054370284080505,0.011664645746350288
1757088841730656800,1.00065673828125,0.1141047328710556,-0.6427453756332397,0.03068068064749241
1757088841740611800,1.01061181640625,0.22994877398014069,-0.7631037831306458,0.08140351623296738
1757088841750566000,1.02056591796875,0.3727107346057892,-0.8391825556755066,0.1519690304994583
1757088841760521000,1.03052099609375,0.5367023348808289,-0.8882736563682556,0.2211395800113678
1757088841770475800,1.040475830078125,0.7277236580848694,-0.9048689007759094,0.2877633273601532
1757088841780430800,1.050430908203125,0.9472906589508057,-0.8902260065078735,0.357970654964447
1757088841790386000,1.060385986328125,1.208849549293518,-0.840197741985321,0.456039160490036
1757088841800340000,1.070340087890625,1.5502524375915527,-0.8498205542564392,0.5784372687339783
1757088841810294800,1.080294677734375,1.9764442443847656,-0.9928964972496033,0.6981391310691833
1757088841820249900,1.090249755859375,2.446411609649658,-1.2200663089752197,0.8557290434837341
1757088841830205000,1.100204833984375,2.8303983211517334,-1.4956408739089966,1.044763445854187
1757088841840160000,1.110159912109375,3.0338804721832275,-1.7274749279022217,1.222906470298767
1757088841850113800,1.12011376953125,3.0827741622924805,-1.9134098291397095,1.3402677774429321
1757088841860068900,1.13006884765625,2.9950528144836426,-1.9089024066925049,1.3489235639572144
1757088841870024000,1.14002392578125,2.8579959869384766,-1.7386771440505981,1.2808747291564941
1757088841879979000,1.14997900390625,2.6922190189361572,-1.4234734773635864,1.1489551067352295
1757088841889933800,1.159933837890625,2.490540027618408,-1.0750046968460083,0.9983117580413818
1757088841899887900,1.169887939453125,2.252455234527588,-0.6956376433372498,0.8631672263145447
1757088841909843000,1.179843017578125,1.984194278717041,-0.33679720759391785,0.7569944858551025
1757088841919798000,1.189798095703125,1.7119944095611572,-0.08593355119228363,0.6668123602867126
1757088841929752800,1.1997529296875,1.4566742181777954,0.06996177136898041,0.5870131850242615
1757088841939708000,1.2097080078125,1.2385027408599854,0.15187367796897888,0.5373358726501465
1757088841949663000,1.2196630859375,1.084359884262085,0.27703773975372314,0.4684196710586548
1757088841959617000,1.229616943359375,1.0400952100753784,0.49127066135406494,0.3710174858570099
1757088841969571800,1.23957177734375,1.1402864456176758,0.6571485996246338,0.2987869679927826
1757088841979527000,1.24952685546875,1.3557302951812744,0.7792598605155945,0.28534865379333496
1757088841989482000,1.25948193359375,1.6122838258743286,0.8479526042938232,0.3517114222049713
1757088841999436800,1.269436767578125,1.8505507707595825,0.7995089292526245,0.5062323212623596
1757088842009390800,1.279390869140625,1.9935792684555054,0.5779557824134827,0.7433990240097046
1757088842019346000,1.289345947265625,2.0359833240509033,0.21136976778507233,0.9694952964782715
1757088842029301000,1.299301025390625,1.9699079990386963,-0.16954615712165833,1.1566132307052612
1757088842039255800,1.309255859375,1.7830220460891724,-0.5383998155593872,1.2819325923919678
1757088842049211000,1.3192109375,1.5428869724273682,-0.7801229953765869,1.4015095233917236
1757088842059165000,1.3291650390625,1.19810152053833,-0.8379079699516296,1.4564827680587769
1757088842069120000,1.3391201171875,0.6449853777885437,-1.1976810693740845,1.0992854833602905
1757088842079074800,1.34907470703125,0.2219981700181961,-1.3012346029281616,0.6698846220970154
1757088842089030000,1.35902978515625,0.09782722592353821,-0.8632162809371948,0.5450981855392456
1757088842098985000,1.36898486328125,0.0247799139469862,-0.60872483253479,0.48128753900527954
1757088842108939000,1.37893896484375,-0.14325223863124847,-0.8302556276321411,0.40644925832748413
1757088842118893800,1.388893798828125,-0.17707836627960205,-1.2196124792099,0.4086223840713501
1757088842128849200,1.39884912109375,-0.04721811041235924,-1.351733684539795,0.5552501678466797
1757088842138804200,1.40880419921875,0.1381126046180725,-1.2985578775405884,0.7296667098999023
1757088842148759000,1.418759033203125,0.32941436767578125,-1.180544376373291,0.854397714138031
1757088842158714000,1.428714111328125,0.3902082145214081,-1.1302112340927124,0.8202371001243591
1757088842168668000,1.43866796875,0.3976325988769531,-0.9947322010993958,0.6453494429588318
1757088842178623200,1.448623291015625,0.4143098294734955,-0.774142861366272,0.3740241825580597
1757088842188578000,1.458578125,0.39517396688461304,-0.49045172333717346,0.099905826151371
1757088842198533000,1.468533203125,0.33588212728500366,-0.275666743516922,-0.09108170866966248
1757088842208488000,1.478488037109375,0.29294344782829285,-0.23698937892913818,-0.16261979937553406
1757088842218442200,1.488442138671875,0.27478015422821045,-0.37557363510131836,-0.12667059898376465
1757088842228397000,1.49839697265625,0.27636662125587463,-0.5921695828437805,-0.04013969749212265
1757088842238352100,1.50835205078125,0.29830944538116455,-0.8394355773925781,0.04537733644247055
1757088842248307000,1.518306884765625,0.33274465799331665,-0.997775137424469,0.15237516164779663
1757088842258262300,1.52826220703125,0.35914352536201477,-1.0563037395477295,0.2661861479282379
1757088842268216000,1.538216064453125,0.353188157081604,-1.0840895175933838,0.33245038986206055
1757088842278171100,1.548171142578125,0.33760493993759155,-1.0779885053634644,0.32270240783691406
1757088842288126000,1.5581259765625,0.28079864382743835,-0.9928594827651978,0.2874259054660797
1757088842298081300,1.568081298828125,0.23245801031589508,-0.920227587223053,0.22503817081451416
1757088842308036000,1.5780361328125,0.22503338754177094,-0.9258612394332886,0.1260783076286316
1757088842317991000,1.587990966796875,0.27048954367637634,-0.9911254644393921,0.04680106043815613
1757088842327945000,1.597945068359375,0.3523934781551361,-1.1240249872207642,-0.005850166082382202
1757088842337900300,1.607900390625,0.45543915033340454,-1.2403990030288696,-0.056707222014665604
1757088842347855000,1.617855224609375,0.6098886728286743,-1.1849913597106934,-0.10233409702777863
1757088842357810000,1.627809814453125,0.7745745182037354,-1.0027374029159546,-0.15436187386512756
1757088842367765200,1.63776513671875,0.8925911784172058,-0.7931705713272095,-0.20251502096652985
1757088842377719000,1.647718994140625,0.9065245985984802,-0.6153731942176819,-0.19936823844909668
1757088842387674000,1.657674072265625,0.7404221892356873,-0.6164789199829102,-0.1989929974079132
1757088842397629000,1.66762890625,0.45961764454841614,-0.7771782875061035,-0.14377261698246002
1757088842407584300,1.677584228515625,0.24652323126792908,-1.0801653861999512,0.02846759371459484
1757088842417539000,1.6875390625,0.1485077142715454,-1.4889086484909058,0.24519670009613037
1757088842427493000,1.6974931640625,0.12468653917312622,-1.8188495635986328,0.41256600618362427
1757088842437448000,1.707447998046875,0.2275245040655136,-1.9741520881652832,0.45830684900283813
1757088842447403300,1.7174033203125,0.26985251903533936,-1.8422414064407349,0.3674038350582123
1757088842457358000,1.727358154296875,0.23017381131649017,-1.357403039932251,0.19292470812797546
1757088842467313200,1.737313232421875,0.2027195543050766,-0.6480890512466431,0.05753359943628311
1757088842477268000,1.74726806640625,0.24498365819454193,-0.25509461760520935,-0.3060094714164734
1757088842487222300,1.75722216796875,0.27591973543167114,0.24718981981277466,-0.5528197884559631
1757088842497177000,1.767177001953125,0.29597094655036926,0.7144941687583923,-0.6263808012008667
1757088842507132200,1.777132080078125,0.2523464858531952,0.9733635187149048,-0.6323790550231934
1757088842517087000,1.7870869140625,0.17819903790950775,1.0427247285842896,-0.5693356394767761
1757088842527042000,1.7970419921875,0.10155165940523148,0.9857720136642456,-0.42696651816368103
1757088842536996000,1.80699609375,0.05686115100979805,0.8459744453430176,-0.25172412395477295
1757088842546951200,1.816951171875,0.04337064176797867,0.6493201851844788,-0.11689519137144089
1757088842556906000,1.826906005859375,0.010003099218010902,0.49990808963775635,-0.011483018286526203
1757088842566861000,1.836861083984375,-0.04115462675690651,0.35403209924697876,0.026159964501857758
1757088842576816000,1.846816162109375,-0.09007902443408966,0.3238137662410736,0.030472422018647194
1757088842586771000,1.85677099609375,-0.10463692992925644,0.3759528696537018,-0.006856308318674564
1757088842596725000,1.86672509765625,-0.1050875335931778,0.4950864315032959,-0.04987328499555588
1757088842606680000,1.87668017578125,-0.10907801985740662,0.5834104418754578,-0.09275097399950027
1757088842616635100,1.88663525390625,-0.09226015210151672,0.6507346034049988,-0.13067439198493958
1757088842626590000,1.89658984375,-0.0468926727771759,0.6988565921783447,-0.16356736421585083
1757088842636545300,1.906545166015625,0.0059897154569625854,0.686577320098877,-0.19180671870708466
1757088842646499000,1.9164990234375,0.043839626014232635,0.5971108078956604,-0.19086502492427826
1757088842656454100,1.9264541015625,0.07261188328266144,0.4486832618713379,-0.16620229184627533
1757088842666409000,1.936408935546875,0.0720832496881485,0.2509384751319885,-0.12934574484825134
1757088842676364300,1.9463642578125,0.07085446268320084,0.006179599091410637,-0.0954974964261055
1757088842686319000,1.956319091796875,0.09937266260385513,-0.27442675828933716,-0.05748086795210838
1757088842696273200,1.966273193359375,0.1376739740371704,-0.5007768273353577,0.014701714739203453
1757088842706228000,1.97622802734375,0.1651863008737564,-0.6533812880516052,0.07943303883075714
1757088842716183300,1.986183349609375,0.17329642176628113,-0.6947438716888428,0.10270240902900696
1757088842726138000,1.99613818359375,0.18706949055194855,-0.6450471878051758,0.09530707448720932
1757088842736093000,2.006093017578125,0.20304499566555023,-0.5412992238998413,0.04217221960425377
1757088842746047000,2.016046875,0.20070780813694,-0.430070161819458,-0.07999816536903381
1757088842756002300,2.026002197265625,0.19747446477413177,-0.3123895823955536,-0.15923865139484406
1757088842765957000,2.03595703125,0.18372482061386108,-0.27666276693344116,-0.15822133421897888
1757088842775912000,2.045911865234375,0.15984000265598297,-0.332379013299942,-0.1090543121099472
1757088842785867300,2.0558671875,0.1353626251220703,-0.4197285771369934,-0.028267590329051018
1757088842795822000,2.065822021484375,0.12526896595954895,-0.576822817325592,0.04903438687324524
1757088842805776100,2.075776123046875,0.14052541553974152,-0.8609403371810913,0.051059190183877945
1757088842815731000,2.08573095703125,0.2019890546798706,-1.1418812274932861,0.0032887374982237816
1757088842825686000,2.09568603515625,0.26753583550453186,-1.3733806610107422,-0.0626886785030365
1757088842835641000,2.10564111328125,0.335663765668869,-1.6135733127593994,-0.14753060042858124
1757088842845596200,2.11559619140625,0.4042811691761017,-1.8644769191741943,-0.22012917697429657
1757088842855550000,2.125550048828125,0.44210872054100037,-2.0361056327819824,-0.24181689321994781
1757088842865505000,2.135505126953125,0.49488961696624756,-2.2039997577667236,-0.26718670129776
1757088842875460000,2.145460205078125,0.5938958525657654,-2.3422906398773193,-0.3214813470840454
1757088842885415200,2.155415283203125,0.6654211282730103,-2.4231600761413574,-0.36077550053596497
1757088842895370000,2.165369873046875,0.6887357831001282,-2.489175319671631,-0.36881211400032043
1757088842905324000,2.175323974609375,0.6985530257225037,-2.575484037399292,-0.3858507573604584
1757088842915279000,2.185279052734375,0.735665500164032,-2.650843858718872,-0.46762630343437195
1757088842925234200,2.195234130859375,0.7725294828414917,-2.5079421997070312,-0.5538440346717834
1757088842935189000,2.20518896484375,0.8199577331542969,-2.2694661617279053,-0.6788296103477478
1757088842945144000,2.21514404296875,0.81920325756073,-1.844407320022583,-0.783555269241333
1757088842955099100,2.22509912109375,0.8364307284355164,-1.4036014080047607,-0.8874691128730774
1757088842965053200,2.23505322265625,0.9308182001113892,-1.090869426727295,-1.023868203163147
1757088842975008000,2.245008056640625,1.0496058464050293,-0.8623707294464111,-1.160439133644104
1757088842984963000,2.254963134765625,1.1578377485275269,-0.7396490573883057,-1.2814403772354126
1757088842994918100,2.264918212890625,1.1902731657028198,-0.8483659625053406,-1.293131947517395
1757088843004873000,2.274873046875,0.7330886125564575,-1.4782447814941406,-0.5929344296455383
1757088843014827000,2.284826904296875,0.9485796093940735,-1.5974353551864624,-0.34111496806144714
1757088843024782000,2.294781982421875,1.198974847793579,-1.6667017936706543,-0.34018978476524353
1757088843034737200,2.304737060546875,1.2398346662521362,-1.673455834388733,-0.34211233258247375
1757088843044692000,2.31469189453125,1.4115328788757324,-1.612464427947998,-0.3849274516105652
1757088843054647300,2.324647216796875,1.7222718000411987,-1.6649811267852783,-0.3611893653869629
1757088843064601000,2.33460107421875,2.205202579498291,-2.0902597904205322,0.017641577869653702
1757088843074556200,2.34455615234375,2.8253555297851562,-2.2591731548309326,0.09127745032310486
1757088843084511000,2.354510986328125,2.9572043418884277,-1.1783849000930786,-0.2291804552078247
1757088843094466300,2.36446630859375,2.2779626846313477,0.13339348137378693,-0.31765440106391907
1757088843104421000,2.374421142578125,1.61143958568573,-0.01506949681788683,-0.5846922397613525
1757088843114376200,2.384376220703125,1.3774516582489014,-0.3425544202327728,-0.6388468146324158
1757088843124329500,2.39432958984375,1.2197357416152954,-0.18741543591022491,-0.6446881890296936
1757088843134284500,2.404284423828125,1.0987513065338135,0.005988384131342173,-0.8234747052192688
1757088843144239400,2.4142392578125,1.1434524059295654,0.15721172094345093,-0.930898904800415
1757088843154194400,2.4241943359375,1.1367439031600952,0.09734892100095749,-0.8942476511001587
1757088843164149500,2.4341494140625,1.0547436475753784,-0.14179015159606934,-0.7325431704521179
1757088843174103600,2.444103515625,1.1130084991455078,-0.2027544379234314,-0.4939330220222473
1757088843184058400,2.454058349609375,1.2460243701934814,-0.14655588567256927,-0.34315869212150574
1757088843194013400,2.464013427734375,1.2902120351791382,-0.06822699308395386,-0.2723931670188904
1757088843203968500,2.473968505859375,1.2984577417373657,0.01449824869632721,-0.23149926960468292
1757088843213923300,2.48392333984375,1.270508885383606,0.12250194698572159,-0.17356780171394348
1757088843223877400,2.49387744140625,1.1531466245651245,0.1314789354801178,-0.028536569327116013
1757088843233832400,2.50383251953125,1.0483797788619995,0.14501124620437622,-0.08345893770456314
1757088843243787500,2.51378759765625,0.9172430038452148,0.28116270899772644,-0.3372073173522949
1757088843253742300,2.523742431640625,0.7061414122581482,0.37285372614860535,-0.5948401689529419
1757088843263697400,2.533697509765625,0.4785921573638916,0.34300848841667175,-0.7442605495452881
1757088843273652500,2.543652587890625,0.27105653285980225,0.3360365927219391,-0.8837617635726929
1757088843283606500,2.5536064453125,0.130903422832489,0.4405406415462494,-1.0754480361938477
1757088843293561300,2.563561279296875,0.14274144172668457,0.5211646556854248,-1.2788571119308472
1757088843303516400,2.573516357421875,0.22487492859363556,0.6384734511375427,-1.7310211658477783
1757088843313471500,2.583471435546875,-0.4541454017162323,1.0588605403900146,-1.2609556913375854
1757088843323426600,2.593426513671875,-1.1182259321212769,0.8213106393814087,-0.5927909016609192
1757088843333380400,2.60338037109375,-1.2183421850204468,0.5094504356384277,-0.053030725568532944
1757088843343335400,2.61333544921875,-1.0290851593017578,0.5666359663009644,0.12261167168617249
1757088843353290500,2.62329052734375,-0.957499623298645,0.7095473408699036,0.05542410910129547
1757088843363245600,2.63324560546875,-0.9459761381149292,0.7330145835876465,-0.09179170429706573
1757088843373200400,2.643200439453125,-0.6671258211135864,0.5338668823242188,-0.2802516222000122
1757088843383154400,2.653154541015625,0.06414489448070526,-0.5065630674362183,-0.6097174286842346
1757088843393109500,2.663109619140625,0.38251274824142456,-0.8824993968009949,-0.8069186210632324
1757088843403064600,2.673064697265625,0.5207294821739197,-0.9335748553276062,-0.8524962067604065
1757088843413019400,2.683019287109375,0.5512778162956238,-0.8758103251457214,-0.5985379815101624
1757088843422974500,2.692974365234375,0.5941213965415955,-0.6258884072303772,-0.19321393966674805
1757088843432929500,2.702929443359375,0.5536677241325378,-0.24212288856506348,0.20478270947933197
1757088843442883600,2.712883544921875,0.42567914724349976,-0.08735674619674683,0.4357813000679016
1757088843452838400,2.72283837890625,0.40270376205444336,0.0452905148267746,0.46008503437042236
1757088843462793500,2.73279345703125,0.32458874583244324,0.10659994930028915,0.3358134329319
1757088843472748500,2.74274853515625,0.22385546565055847,0.04747643694281578,0.018787803128361702
1757088843482703400,2.752703369140625,0.29785165190696716,-0.24756371974945068,-0.1254175752401352
1757088843492657400,2.762657470703125,0.3692169189453125,-0.3695625960826874,-0.104632668197155
1757088843502612500,2.772612548828125,0.3905046284198761,-0.3212975859642029,0.010291253216564655
1757088843512567600,2.782567626953125,-0.0026181535795331,-0.05794399231672287,0.19817407429218292
1757088843522522400,2.7925224609375,-0.3203737437725067,0.10876749455928802,0.2647525668144226
1757088843532477400,2.8024775390625,-0.6004975438117981,-0.006910103838890791,0.08236730843782425
1757088843542431200,2.81243115234375,-0.6612607836723328,-0.3743283152580261,-0.23344391584396362
1757088843552386600,2.822386474609375,-0.4547416865825653,-0.807765007019043,-0.4343908727169037
1757088843562341400,2.83234130859375,0.1941833198070526,-1.1929174661636353,-0.42538750171661377
1757088843572296400,2.84229638671875,0.7952364087104797,-1.2708401679992676,-0.277533620595932
1757088843582251500,2.85225146484375,1.209765911102295,-1.0022753477096558,-0.05011989176273346
1757088843592205600,2.86220556640625,1.4668936729431152,-0.6120409965515137,0.22416625916957855
1757088843602160400,2.872160400390625,1.666428804397583,-0.19361340999603271,0.39974740147590637
1757088843612115500,2.882115478515625,1.7524936199188232,0.33512312173843384,0.47267380356788635
1757088843622070500,2.892070556640625,1.5822840929031372,0.6513758897781372,0.5216948986053467
1757088843632025600,2.902025634765625,1.238519310951233,0.7460299730300903,0.40977421402931213
1757088843641980400,2.91198046875,0.9007084965705872,0.4031431972980499,0.10456742346286774
1757088843651934500,2.9219345703125,0.8268281817436218,-0.23296880722045898,-0.33795833587646484
1757088843661889500,2.9318896484375,0.9223946332931519,-0.7446954846382141,-0.5679558515548706
1757088843671844600,2.9418447265625,1.174404263496399,-0.9763244390487671,-0.6047537922859192
1757088843681799400,2.95179931640625,1.4941166639328003,-0.9597254991531372,-0.4111068546772003
1757088843691754500,2.96175439453125,1.7836267948150635,-0.6474818587303162,-0.18742448091506958
1757088843701708500,2.97170849609375,1.950513243675232,-0.6771851181983948,-0.05113295838236809
1757088843711663400,2.981663330078125,1.9383114576339722,-0.9682795405387878,0.39769917726516724
1757088843721618400,2.991618408203125,1.968790054321289,0.11085008829832077,-0.11705391854047775
1757088843731573500,3.001573486328125,1.9558262825012207,0.742314875125885,-0.26858431100845337
1757088843741528600,3.011528564453125,1.6984515190124512,1.3274779319763184,-0.4154174327850342
1757088843751482400,3.021482421875,1.445692777633667,1.4715368747711182,-0.5209004282951355
1757088843761437400,3.0314375,1.3444299697875977,1.7675096988677979,-0.30223602056503296
1757088843771392500,3.041392578125,1.4735435247421265,1.8555617332458496,-0.19921617209911346
1757088843781347600,3.05134765625,1.3510932922363281,1.4901392459869385,-0.373740553855896
1757088843791302400,3.061302490234375,1.2242506742477417,0.8293525576591492,-0.40767189860343933
1757088843801257500,3.071257568359375,1.1658120155334473,0.7175418734550476,-0.12785570323467255
1757088843811211500,3.08121142578125,0.7652798295021057,-0.011606855317950249,-0.38916000723838806
1757088843821166600,3.09116650390625,0.017718011513352394,-1.2030798196792603,-0.7946667671203613
1757088843831121400,3.101121337890625,-0.07772169262170792,-2.248782157897949,-0.7489604949951172
1757088843841076500,3.111076416015625,0.805831253528595,-2.788637161254883,-0.3670712113380432
1757088843851031600,3.121031494140625,2.3122596740722656,-2.288757801055908,-0.2980756461620331
1757088843860985600,3.130985595703125,3.3109421730041504,-1.2155178785324097,-0.40975821018218994
1757088843870940400,3.1409404296875,3.4762561321258545,-0.7429316639900208,-0.38578951358795166
1757088843880895500,3.1508955078125,3.265989065170288,-0.8480548858642578,-0.38438335061073303
1757088843890850600,3.1608505859375,2.944295644760132,-1.2192904949188232,-0.46563851833343506
1757088843900805400,3.170805419921875,2.504678249359131,-1.5705057382583618,-0.5408715009689331
1757088843910759400,3.180759521484375,1.9746620655059814,-1.5191110372543335,-0.43658238649368286
1757088843920714500,3.190714599609375,1.5344958305358887,-0.9772037863731384,-0.2248767912387848
1757088843930669600,3.200669677734375,1.2323178052902222,-0.40233147144317627,-0.026705380529165268
1757088843940624400,3.210624267578125,1.0270198583602905,-0.09223592281341553,0.043712858110666275
1757088843950579500,3.220579345703125,0.8315504789352417,-0.23673264682292938,-0.11442537605762482
1757088843960533500,3.230533447265625,0.5909780859947205,-0.6912112236022949,-0.4342923164367676
1757088843970488600,3.240488525390625,0.3344919681549072,-1.1339167356491089,-0.670221209526062
1757088843980443400,3.250443359375,0.12199035286903381,-1.2558774948120117,-0.7307154536247253
1757088843990398500,3.2603984375,-0.06096508353948593,-1.1218464374542236,-0.7157764434814453
1757088844000353500,3.270353515625,-0.2185472548007965,-0.9039130806922913,-0.7319743633270264
1757088844010308600,3.28030859375,-0.35460522770881653,-0.7569854259490967,-0.7613682150840759
1757088844020262400,3.290262451171875,-0.46681085228919983,-0.7377185225486755,-0.7765849828720093
1757088844030217500,3.300217529296875,-0.5554727911949158,-0.7580687999725342,-0.7416626811027527
1757088844040172500,3.310172607421875,-0.5750784873962402,-0.7818984985351562,-0.6192917227745056
1757088844050127600,3.320127685546875,-0.5438787341117859,-0.7648886442184448,-0.49959036707878113
1757088844060082400,3.33008251953125,-0.5334658026695251,-0.7260184288024902,-0.4544447362422943
1757088844070036500,3.340036376953125,-0.49507632851600647,-0.7924001216888428,-0.49902260303497314
1757088844079991600,3.349991455078125,-0.48815181851387024,-0.9342312812805176,-0.6010477542877197
1757088844089946600,3.359946533203125,-0.4664260149002075,-1.163638710975647,-0.7167235016822815
1757088844099901400,3.3699013671875,-0.3581365644931793,-1.4261568784713745,-0.7825541496276855
1757088844109856300,3.379856201171875,-0.21787799894809723,-1.5204706192016602,-0.7658534646034241
1757088844119810600,3.389810546875,-0.040762610733509064,-1.399093508720398,-0.6780695915222168
1757088844129765400,3.399765380859375,0.11327995359897614,-1.1994004249572754,-0.5262475609779358
1757088844139720400,3.409720458984375,0.1878114491701126,-0.941510796546936,-0.3838302195072174
1757088844149675300,3.41967529296875,0.22896288335323334,-0.7214849591255188,-0.2744901478290558
1757088844159630300,3.42963037109375,0.23703411221504211,-0.6339130401611328,-0.23168835043907166
1757088844169584400,3.43958447265625,0.2442406266927719,-0.6406116485595703,-0.25102582573890686
1757088844179539500,3.44953955078125,0.23981845378875732,-0.6702417135238647,-0.2660132944583893
1757088844189494300,3.459494384765625,0.23885226249694824,-0.6621819734573364,-0.2915130853652954
1757088844199449300,3.469449462890625,0.2493232786655426,-0.6562958359718323,-0.29916858673095703
1757088844209404200,3.479404052734375,0.2710815668106079,-0.7200769186019897,-0.22553272545337677
1757088844219358500,3.4893583984375,0.2695167064666748,-0.6423984169960022,-0.13903218507766724
1757088844229313300,3.499313232421875,0.2347555160522461,-0.5142952799797058,-0.008806274272501469
1757088844239268400,3.509268310546875,0.16525952517986298,-0.28647544980049133,0.12513262033462524
1757088844249223200,3.51922314453125,0.07646734267473221,0.04140336439013481,0.23683224618434906
1757088844259178500,3.529178466796875,0.007046990562230349,0.2890640199184418,0.2979571223258972
1757088844269133300,3.53913330078125,-0.049359824508428574,0.34618669748306274,0.3132993280887604
1757088844279087400,3.54908740234375,-0.07642446458339691,0.32691341638565063,0.3417096734046936
1757088844289042200,3.559042236328125,-0.07914142310619354,0.22447039186954498,0.37240099906921387
1757088844298997500,3.56899755859375,-0.08813198655843735,0.14613190293312073,0.3971361815929413
1757088844308952300,3.578952392578125,-0.0878816545009613,0.0636380985379219,0.4352492094039917
1757088844318907100,3.5889072265625,-0.09316403418779373,-0.01648390106856823,0.45211261510849
1757088844328861200,3.598861083984375,-0.09663200378417969,-0.049732137471437454,0.4574626386165619
1757088844338816500,3.60881640625,-0.09323140978813171,-0.05951925367116928,0.44546961784362793
1757088844348771300,3.618771240234375,-0.0900001972913742,-0.08132175356149673,0.42321863770484924
1757088844358726100,3.62872607421875,-0.09486286342144012,-0.08225465565919876,0.3861487805843353
1757088844368681500,3.638681396484375,-0.09117171913385391,-0.041259024292230606,0.3367719054222107
1757088844378635500,3.648635498046875,-0.07685483247041702,-0.01443859376013279,0.2848581075668335
1757088844388590300,3.65859033203125,-0.0537836030125618,-0.020062390714883804,0.23805464804172516
1757088844398545200,3.668545166015625,-0.03429006412625313,-0.06360027939081192,0.2112102508544922
1757088844408500500,3.67850048828125,-0.03008067049086094,-0.1377464085817337,0.17502401769161224
1757088844418455300,3.688455322265625,-0.017254354432225227,-0.2166534811258316,0.12828606367111206
1757088844428410400,3.698410400390625,0.015202654525637627,-0.298938512802124,0.11096859723329544
1757088844438364200,3.7083642578125,0.07034367322921753,-0.3542709946632385,0.10577436536550522
1757088844448319500,3.718319580078125,0.09481732547283173,-0.4133785367012024,0.09412489831447601
1757088844458274300,3.7282744140625,0.10469525307416916,-0.423195481300354,0.09608578681945801
1757088844468229400,3.7382294921875,0.10620739310979843,-0.43329283595085144,0.09666235744953156
1757088844478184400,3.748184326171875,0.06315180659294128,-0.4412112236022949,0.07028215378522873
1757088844488138500,3.758138427734375,0.036677852272987366,-0.42350438237190247,0.06995085626840591
1757088844498093300,3.76809326171875,0.040161266922950745,-0.37361592054367065,0.10520551353693008
1757088844508048400,3.77804833984375,0.06856947392225266,-0.284970760345459,0.16430611908435822
1757088844518003500,3.78800341796875,0.08963987231254578,-0.2147218883037567,0.18822211027145386
1757088844527958300,3.797958251953125,0.1084606945514679,-0.1354004293680191,0.19136357307434082
1757088844537912300,3.807912353515625,0.12052854150533676,-0.07728413492441177,0.1935817152261734
1757088844547867400,3.817867431640625,0.15150482952594757,-0.024403609335422516,0.1901100128889084
1757088844557822200,3.827822265625,0.2295903116464615,-0.013748303055763245,0.1925145834684372
1757088844567777300,3.83777734375,0.3153829872608185,0.01110378373414278,0.16363313794136047
1757088844577732400,3.847732421875,0.36528077721595764,0.0034964641090482473,0.13674932718276978
1757088844587686400,3.857686279296875,0.41631731390953064,-0.007845672778785229,0.12267931550741196
1757088844597641200,3.86764111328125,0.45631399750709534,0.0017395768081769347,0.11420833319425583
1757088844607596300,3.87759619140625,0.4729345142841339,-0.0028660940006375313,0.11303707212209702
1757088844617551400,3.88755126953125,0.4506995379924774,0.028309136629104614,0.09548977017402649
1757088844627506200,3.897506103515625,0.35312265157699585,0.03617265075445175,0.06879957020282745
1757088844637460200,3.907460205078125,0.24367444217205048,0.016200274229049683,0.039151132106781006
1757088844647415300,3.917415283203125,0.1254040002822876,-0.038057371973991394,0.011635350994765759
1757088844657370400,3.927370361328125,0.023519441485404968,-0.09488576650619507,0.03105352260172367
1757088844667325200,3.9373251953125,-0.12115811556577682,-0.04579092562198639,0.11702835559844971
1757088844677280500,3.947280517578125,-0.2716219127178192,0.03320988640189171,0.21985433995723724
1757088844687234300,3.957234375,-0.4083248972892761,0.11377876251935959,0.31129691004753113
1757088844697189400,3.967189453125,-0.5681079030036926,0.18658585846424103,0.39902886748313904
1757088844707144200,3.977144287109375,-0.7646430730819702,0.31134748458862305,0.5009666681289673
1757088844717099500,3.987099609375,-1.0334018468856812,0.4986755847930908,0.595054030418396
1757088844727054300,3.997054443359375,-1.4301451444625854,0.6218686103820801,0.5805041193962097
1757088844737009400,4.007009521484375,-1.7986023426055908,0.6909390091896057,0.43998056650161743
1757088844746963200,4.016963134765625,-1.9958163499832153,0.7266672253608704,0.2990351617336273
1757088844756918500,4.02691845703125,-1.983604907989502,0.6113286018371582,0.2931690216064453
1757088844766873300,4.036873291015625,-0.6888332962989807,0.7547052502632141,0.5984333157539368
1757088844776828400,4.046828369140625,0.22955650091171265,1.2171556949615479,0.5739389061927795
1757088844786783500,4.056783447265625,0.5306944847106934,1.2181980609893799,0.41584542393684387
1757088844796737500,4.066737548828125,0.6928695440292358,0.8370371460914612,0.2879766523838043
1757088844806692400,4.0766923828125,0.7556557059288025,0.3040972948074341,0.23856011033058167
1757088844816647200,4.086647216796875,0.8609799742698669,-0.045041508972644806,0.21149787306785583
1757088844826602500,4.0966025390625,0.9374403953552246,-0.08189326524734497,0.15040868520736694
1757088844836557300,4.106557373046875,0.7878064513206482,-0.07642899453639984,0.06235551834106445
1757088844846511400,4.116511474609375,0.5574060082435608,-0.07424280792474747,-0.004525509662926197
1757088844856466200,4.126466064453125,0.37005528807640076,-0.0568544939160347,-0.048477254807949066
1757088844866421500,4.13642138671875,0.21056309342384338,-0.06422532349824905,-0.07425212860107422
1757088844876376300,4.146376220703125,0.10609208047389984,-0.08741799741983414,-0.09740911424160004
1757088844886331400,4.156331298828125,0.059119779616594315,-0.01871643029153347,-0.13218280673027039
1757088844896285200,4.16628515625,0.06327058374881744,0.05836717039346695,-0.132902130484581
1757088844906240500,4.176240478515625,0.1042662188410759,-0.016521185636520386,0.013626329600811005
1757088844916195300,4.1861953125,0.08701372891664505,0.09699791669845581,0.1343916356563568
1757088844926150400,4.196150390625,0.06995031982660294,0.23069393634796143,0.15661518275737762
1757088844936105200,4.206105224609375,0.11835327744483948,0.15572302043437958,0.15291790664196014
1757088844946059300,4.216059326171875,0.1340629905462265,-0.023554328829050064,0.16362488269805908
1757088844956014300,4.226014404296875,0.12056316435337067,-0.12999208271503448,0.18615496158599854
1757088844965969400,4.235969482421875,0.14138615131378174,-0.10917602479457855,0.20151287317276
1757088844975924200,4.24592431640625,0.13910941779613495,-0.0012181298807263374,0.1769111305475235
1757088844985879300,4.25587939453125,0.1398734748363495,0.11451698839664459,0.11942572891712189
1757088844995833300,4.265833251953125,0.16666088998317719,0.0929938554763794,0.06551828980445862
1757088845005788400,4.275788330078125,0.12740376591682434,-0.0695580393075943,0.061945393681526184
1757088845015743200,4.2857431640625,0.052377987653017044,-0.19904784858226776,0.1507066935300827
1757088845025698300,4.2956982421875,0.016746755689382553,-0.07034233957529068,0.20948557555675507
1757088845035653400,4.3056533203125,0.04302576556801796,0.07851318269968033,0.2081388235092163
1757088845045608200,4.315608154296875,0.033181387931108475,0.25041303038597107,0.0931355357170105
1757088845055562200,4.325562255859375,0.007476292084902525,0.2372695356607437,0.025711487978696823
1757088845065517300,4.335517333984375,0.01293470710515976,0.13238254189491272,0.03247351944446564
1757088845075472400,4.345472412109375,0.019116969779133797,0.04674273729324341,0.03280828148126602
1757088845085427200,4.35542724609375,0.025435052812099457,-0.031195469200611115,0.0037523938808590174
1757088845095382500,4.365382568359375,0.009212939068675041,-0.10670487582683563,-0.024149810895323753
1757088845105336300,4.37533642578125,-0.01305321790277958,-0.14893116056919098,-0.04026459902524948
1757088845115291400,4.38529150390625,-0.03259842470288277,-0.19889073073863983,-0.024102672934532166
1757088845125246200,4.39524609375,-0.059834569692611694,-0.2165064662694931,0.0010058758780360222
1757088845135201500,4.405201416015625,-0.06234593316912651,-0.26244068145751953,0.017299894243478775
1757088845145156400,4.41515625,-0.05841697007417679,-0.28701499104499817,0.018496984615921974
1757088845155110400,4.4251103515625,-0.04783516749739647,-0.2725020945072174,0.017071660608053207
1757088845165065200,4.435065185546875,-0.03380323573946953,-0.23167957365512848,0.020679978653788567
1757088845175020500,4.4450205078125,-0.018099108710885048,-0.18271201848983765,0.022517560049891472
1757088845184975400,4.454975341796875,-0.0019238675013184547,-0.11343494802713394,0.022908510640263557
1757088845194930400,4.464930419921875,0.011317369528114796,-0.05964282527565956,0.027095267549157143
1757088845204884200,4.47488427734375,0.020976655185222626,-0.00040506679215468466,0.02582200989127159
1757088845214839600,4.484839599609375,0.03850584849715233,0.029694246128201485,0.026319755241274834
1757088845224794400,4.49479443359375,0.053700778633356094,0.03188416361808777,0.0317603275179863
1757088845234749400,4.50474951171875,0.0578414611518383,0.07956433296203613,0.028377845883369446
1757088845244704300,4.514704345703125,0.05471277981996536,0.06804429739713669,0.059540290385484695
1757088845254658600,4.524658447265625,0.03130412846803665,-0.023331422358751297,0.06816893070936203
1757088845264613400,4.53461328125,0.06703069806098938,-0.012461995705962181,0.00885048322379589
1757088845274568200,4.544568115234375,0.09047184139490128,0.040337301790714264,-0.01245081052184105
1757088845284523300,4.554523193359375,0.05819619446992874,-0.05227705463767052,-0.023783359676599503
1757088845294478300,4.564478271484375,0.07742128521203995,-0.10381507873535156,-0.029618345201015472
1757088845304432400,4.574432373046875,0.1207921952009201,-0.16463927924633026,-0.06256777048110962
1757088845314387200,4.58438720703125,0.11876580119132996,-0.20391690731048584,-0.10808145999908447
1757088845324342300,4.59434228515625,0.06352358311414719,-0.22099736332893372,-0.11007829755544662
1757088845334297300,4.60429736328125,0.04361299052834511,-0.49744465947151184,-0.20601601898670197
1757088845344252400,4.61425244140625,0.10207363963127136,-0.7616129517555237,-0.3610319495201111
1757088845354206200,4.624206298828125,0.1409219652414322,-0.9934967756271362,-0.5669073462486267
1757088845364161300,4.634161376953125,0.2427431344985962,-1.3740230798721313,-0.7952436208724976
1757088845374116400,4.644116455078125,0.2741471230983734,-1.1262487173080444,-0.6445465087890625
1757088845384071400,4.654071533203125,0.10816268622875214,-0.5874472856521606,-0.31917959451675415
1757088845394026200,4.664026123046875,0.09297361969947815,0.0013366405619308352,0.0689748078584671
1757088845403981600,4.673981689453125,0.02081260457634926,0.2184271514415741,0.13213087618350983
1757088845413935400,4.683935302734375,0.012573049403727055,0.2849441170692444,0.13107839226722717
1757088845423890400,4.693890380859375,-0.04360766336321831,0.32234421372413635,0.12671959400177002
1757088845433845200,4.70384521484375,-0.04089976102113724,0.28640246391296387,0.14612604677677155
1757088845443800600,4.713800537109375,-0.02833416871726513,0.2917277216911316,0.1630437821149826
1757088845453755400,4.72375537109375,-0.02516154572367668,0.3600013256072998,0.20362795889377594
1757088845463709400,4.73370947265625,-0.0626697689294815,0.4833291172981262,0.2728847861289978
1757088845473664300,4.743664306640625,-0.08666086196899414,0.6257467269897461,0.3603525757789612
1757088845483619300,4.753619384765625,-0.09824028611183167,0.6883887648582458,0.3740934431552887
1757088845493574400,4.763574462890625,-0.09188411384820938,0.4960595667362213,0.2550203204154968
1757088845503529200,4.773529296875,-0.07300363481044769,0.14549382030963898,0.07111385464668274
1757088845513483300,4.783483154296875,-0.06739262491464615,-0.12457388639450073,-0.05555194243788719
1757088845523438300,4.793438232421875,-0.07560528069734573,-0.31611642241477966,-0.09363141655921936
1757088845533393400,4.803393310546875,-0.07639996707439423,-0.4431276321411133,-0.09454567730426788
1757088845543348200,4.81334814453125,-0.09635529667139053,-0.44142186641693115,-0.08213455229997635
1757088845553303300,4.82330322265625,-0.13461986184120178,-0.4003109335899353,-0.07410219311714172
1757088845563257300,4.83325732421875,-0.1798965334892273,-0.3228968381881714,-0.05782255157828331
1757088845573212400,4.84321240234375,-0.2206122726202011,-0.23996572196483612,-0.04429449513554573
1757088845583167200,4.853167236328125,-0.22513245046138763,-0.15625591576099396,-0.02346830815076828
1757088845593122300,4.863122314453125,-0.20849356055259705,-0.07124435156583786,-0.010244115255773067
1757088845603077400,4.873077392578125,-0.20107798278331757,0.019583821296691895,0.0008263788768090308
1757088845613031400,4.883031494140625,-0.189801886677742,0.10074205696582794,0.01931936852633953
1757088845622986200,4.892986328125,-0.16923722624778748,0.09960035979747772,0.041131991893053055
1757088845632941300,4.90294140625,-0.12597577273845673,0.007702927105128765,0.02069675549864769
1757088845642896400,4.912896484375,-0.08169752359390259,-0.06377711147069931,-0.023083215579390526
1757088845652851500,4.9228515625,-0.028903020545840263,-0.13372264802455902,-0.06654973328113556
1757088845662805200,4.93280517578125,0.007814779877662659,-0.22067725658416748,-0.09371211379766464
1757088845672760300,4.94276025390625,0.035477567464113235,-0.24559538066387177,-0.10323211550712585
1757088845682715400,4.95271533203125,0.048707619309425354,-0.2809957265853882,-0.1097741648554802
1757088845692670500,4.96267041015625,0.047755271196365356,-0.3062555193901062,-0.11758068948984146
1757088845702625300,4.972625244140625,0.045526470988988876,-0.2992410361766815,-0.12239781767129898
1757088845712579300,4.982579345703125,0.044736843556165695,-0.28394463658332825,-0.10285820811986923
1757088845722534400,4.992534423828125,0.03225407749414444,-0.29699546098709106,-0.06475502997636795
1757088845732489500,5.002489501953125,0.03501257672905922,-0.3582039475440979,-0.027458256110548973
1757088845742444300,5.0124443359375,0.030408238992094994,-0.39250972867012024,0.000330231967382133
1757088845752399400,5.0223994140625,0.059607669711112976,-0.5759269595146179,-0.034626152366399765
1757088845762353400,5.032353515625,0.066984623670578,-0.5700783729553223,-0.03699183836579323
1757088845772308200,5.04230810546875,0.021405156701803207,-0.5367297530174255,-0.024697089567780495
1757088845782263300,5.05226318359375,0.03942330554127693,-0.5324063897132874,-0.014124607667326927
1757088845792218400,5.06221826171875,0.027589816600084305,-0.3950178921222687,0.03092462569475174
1757088845802173400,5.07217333984375,-0.023360183462500572,-0.001407214323990047,0.16406084597110748
1757088845812127200,5.082127197265625,-0.05373752862215042,0.3563775420188904,0.18036630749702454
1757088845822082300,5.092082275390625,-0.057913634926080704,0.4473963975906372,0.13140542805194855
1757088845832037400,5.102037353515625,-0.08581903576850891,0.2179911881685257,0.06672842800617218
1757088845841992400,5.111992431640625,-0.08176543563604355,0.11606907844543457,0.049734532833099365
1757088845851947300,5.121947265625,-0.07154262810945511,0.1588122844696045,0.04868045449256897
1757088845861901300,5.1319013671875,-0.07949136197566986,0.22007271647453308,0.06338723003864288
1757088845871856400,5.1418564453125,-0.07638851553201675,0.18491818010807037,0.06281491369009018
1757088845881811500,5.1518115234375,-0.0724869817495346,0.06016746535897255,0.023874972015619278
1757088845891766300,5.161766357421875,-0.049847450107336044,0.08699268847703934,0.03504214063286781
1757088845901721300,5.171721435546875,-0.03395264223217964,0.0515872947871685,0.009703493677079678
1757088845911675400,5.18167529296875,-0.022608106955885887,-0.021981198340654373,-0.02107146382331848
1757088845921630500,5.19163037109375,-0.017595238983631134,-0.07245901972055435,-0.032874591648578644
1757088845931585300,5.201585205078125,-0.023017168045043945,-0.09509482234716415,-0.03669995814561844
1757088845941540400,5.211540283203125,-0.024816133081912994,-0.09394247084856033,-0.03629782050848007
1757088845951495400,5.221495361328125,-0.01576804369688034,-0.08041255176067352,-0.026700586080551147
1757088845961449500,5.231449462890625,-0.012733638286590576,-0.12556324899196625,-0.03370869532227516
1757088845971404300,5.241404296875,-0.009724798612296581,-0.13273754715919495,-0.026153041049838066
1757088845981359400,5.251359375,-0.012743225321173668,-0.11658067256212234,-0.01877208985388279
1757088845991314400,5.261314453125,-0.0070826769806444645,-0.08872241526842117,-0.011574896983802319
1757088846001269200,5.271269287109375,-0.009273126721382141,-0.07596374303102493,-0.015262043103575706
1757088846011223300,5.281223388671875,-0.011913384310901165,-0.06881581246852875,-0.015786953270435333
1757088846021178400,5.291178466796875,-0.009006277658045292,-0.053711965680122375,-0.015957394614815712
1757088846031133400,5.301133544921875,-0.013214604929089546,-0.04037165641784668,-0.01606498658657074
1757088846041088300,5.311088134765625,-0.016209330409765244,-0.022578811272978783,-0.019355054944753647
1757088846051043300,5.321043212890625,-0.015245798043906689,0.002435460686683655,-0.024396419525146484
1757088846060997000,5.3309970703125,-0.01635606959462166,0.01623702608048916,-0.035480763763189316
1757088846070952400,5.340952392578125,-0.015051919966936111,0.016116652637720108,-0.038844335824251175
1757088846080907300,5.3509072265625,-0.010506702587008476,0.009800166822969913,-0.0335925817489624
1757088846090862300,5.3608623046875,-0.006006493698805571,0.011267834343016148,-0.031983498483896255
1757088846100817400,5.3708173828125,-0.006764162797480822,0.019178221002221107,-0.03248417377471924
1757088846110771500,5.380771484375,-0.009590309113264084,0.014336861670017242,-0.031375765800476074
1757088846120726300,5.390726318359375,-0.012662265449762344,-0.004027232062071562,-0.02744707092642784
1757088846130681900,5.400681884765625,-0.01489585917443037,-0.029764020815491676,-0.026150643825531006
1757088846140637000,5.410636962890625,-0.013456420041620731,-0.05293245613574982,-0.02460654266178608
1757088846150591700,5.420591796875,-0.015845542773604393,-0.0794610008597374,-0.021799039095640182
1757088846160545800,5.4305458984375,-0.017609354108572006,-0.1072273850440979,-0.025184715166687965
1757088846170500900,5.4405009765625,-0.02190982550382614,-0.1221243143081665,-0.03080265410244465
1757088846180456000,5.4504560546875,-0.026857979595661163,-0.13277216255664825,-0.03900438919663429
1757088846190410800,5.46041064453125,-0.039272572845220566,-0.13410533964633942,-0.046112366020679474
1757088846200365800,5.47036572265625,-0.0473795011639595,-0.1269528865814209,-0.05560999736189842
1757088846210320000,5.48031982421875,-0.05897250771522522,-0.11663953214883804,-0.06466154754161835
1757088846220275000,5.49027490234375,-0.06567221879959106,-0.10644575208425522,-0.07006936520338058
1757088846230229800,5.500229736328125,-0.06968586891889572,-0.08787206560373306,-0.07462390512228012
1757088846240184800,5.510184814453125,-0.07299431413412094,-0.07016364485025406,-0.07315410673618317
1757088846250140000,5.520139892578125,-0.07434932887554169,-0.05061816796660423,-0.07287713885307312
1757088846260094000,5.530093994140625,-0.07366622984409332,-0.03586319088935852,-0.07545028626918793
1757088846270048800,5.540048828125,-0.07028748095035553,-0.022944197058677673,-0.07935873419046402
1757088846280003800,5.55000390625,-0.06787172704935074,-0.022029934450984,-0.08340807259082794
1757088846289959000,5.559958984375,-0.06023644283413887,-0.020309532061219215,-0.08636285364627838
1757088846299914000,5.5699140625,-0.05427682027220726,-0.015546469017863274,-0.08431195467710495
1757088846309868800,5.579868896484375,-0.04818696901202202,-0.015090269967913628,-0.08066102117300034
1757088846319822800,5.58982275390625,-0.042512305080890656,-0.009638512507081032,-0.0759994238615036
1757088846329778000,5.59977783203125,-0.037636060267686844,0.004257062915712595,-0.0647992342710495
1757088846339733000,5.60973291015625,-0.03584295138716698,0.015247662551701069,-0.054178815335035324
1757088846349687800,5.619687744140625,-0.031024495139718056,0.026333335787057877,-0.04217461869120598
1757088846359642600,5.629642578125,-0.026727750897407532,0.03500192612409592,-0.0283456202596426
1757088846369597000,5.639596923828125,-0.019419237971305847,0.035768914967775345,-0.013688648119568825
1757088846379552000,5.649552001953125,-0.009075254201889038,0.0347401387989521,-0.0010002832859754562
1757088846389506800,5.6595068359375,0.0013054815353825688,0.027764786034822464,0.010981012135744095
1757088846399461600,5.669461669921875,0.016348080709576607,0.02756238542497158,0.020016318187117577
1757088846409417000,5.6794169921875,0.024755945429205894,0.03347859904170036,0.02888251468539238
1757088846419371000,5.68937109375,0.031614918261766434,0.04463963955640793,0.035480763763189316
1757088846429325800,5.699325927734375,0.030494259670376778,0.05055878311395645,0.0404808484017849
1757088846439280600,5.70928076171875,0.028357604518532753,0.05754851549863815,0.04457998648285866
1757088846449236000,5.719236083984375,0.02347230352461338,0.061704378575086594,0.041916292160749435
1757088846459190800,5.729190673828125,0.01877262257039547,0.05642199516296387,0.03548821806907654
1757088846469144800,5.739144775390625,0.015390674583613873,0.04957660660147667,0.027102191001176834
1757088846479099600,5.749099609375,0.014063088223338127,0.03492123261094093,0.01942669413983822
1757088846489055000,5.759054931640625,0.013362943194806576,0.019153455272316933,0.009017995558679104
1757088846499009800,5.769009765625,0.013937653042376041,0.002549710450693965,-0.00019361180602572858
1757088846508964900,5.77896484375,0.010026002302765846,-0.01335655152797699,-0.00854635052382946
1757088846518918700,5.788918701171875,0.0041763694025576115,-0.022313294932246208,-0.020063189789652824
1757088846528874000,5.7988740234375,0.0010807107901200652,-0.03611912205815315,-0.02894110418856144
1757088846538828800,5.808828857421875,-0.006322344299405813,-0.056660883128643036,-0.0339806042611599
1757088846548783900,5.818783935546875,-0.009583118371665478,-0.07624390721321106,-0.03947363793849945
1757088846558739000,5.828739013671875,-0.01326973270624876,-0.09012988954782486,-0.042457710951566696
1757088846568693000,5.83869287109375,-0.015384549275040627,-0.10325847566127777,-0.044685181230306625
1757088846578647800,5.848647705078125,-0.01870604418218136,-0.10416767746210098,-0.04447532072663307
1757088846588603000,5.858602783203125,-0.02165869064629078,-0.09604796767234802,-0.04406226798892021
1757088846598558000,5.868557861328125,-0.019964121282100677,-0.07993610948324203,-0.041123468428850174
1757088846608512800,5.8785126953125,-0.016270847991108894,-0.05631333962082863,-0.04303907975554466
1757088846618466800,5.888466796875,-0.01338877622038126,-0.033250629901885986,-0.04272695630788803
1757088846628422000,5.898421875,-0.004963066894561052,-0.00824780948460102,-0.042157307267189026
1757088846638377000,5.908376953125,-0.000035420041967881843,0.019534818828105927,-0.03892742469906807
1757088846648331800,5.918331787109375,0.003335609333589673,0.054001182317733765,-0.03062075935304165
1757088846658286800,5.928286865234375,0.004553206264972687,0.08307624608278275,-0.017916150391101837
1757088846668241000,5.938240966796875,-0.000358461489668116,0.11887525767087936,-0.0023015039041638374
1757088846678196000,5.948196044921875,-0.006130596622824669,0.1560298204421997,0.005385976750403643
1757088846688150800,5.95815087890625,-0.00959616806358099,0.183282732963562,0.00911520142108202
1757088846698105900,5.96810595703125,-0.011542672291398048,0.19391220808029175,0.007926366291940212
1757088846708060700,5.978060791015625,-0.007245395798236132,0.18515707552433014,0.003156911116093397
1757088846718015000,5.988014892578125,-0.003145459573715925,0.1603337526321411,-0.0015211976133286953
1757088846727969800,5.9979697265625,0.004135889001190662,0.12227264791727066,-0.00759853096678853
1757088846737924900,6.0079248046875,0.01296240370720625,0.08529199659824371,-0.014026070013642311
1757088846747879700,6.017879638671875,0.018865566700696945,0.05227332562208176,-0.01835131086409092
1757088846757835000,6.0278349609375,0.022840866819024086,0.021044565364718437,-0.018205368891358376
1757088846767788800,6.037788818359375,0.018137725070118904,-0.006569219287484884,-0.017780328169465065
1757088846777744000,6.047743896484375,0.018854115158319473,-0.029830599203705788,-0.015629826113581657
1757088846787698700,6.05769873046875,0.01464845146983862,-0.04301218315958977,-0.01564367488026619
1757088846797654000,6.067654052734375,0.011810853146016598,-0.05344405025243759,-0.01617763750255108
1757088846807608800,6.07760888671875,0.00917379092425108,-0.05928302928805351,-0.017222130671143532
1757088846817563000,6.08756298828125,0.006132461130619049,-0.06160690635442734,-0.01601039245724678
1757088846827517700,6.097517578125,0.0003201119543518871,-0.059852682054042816,-0.017769142985343933
1757088846837473000,6.10747314453125,-0.006048571318387985,-0.03868933767080307,-0.014105166308581829
1757088846847427800,6.117427734375,-0.012516590766608715,-0.020473849028348923,-0.01375442836433649
1757088846857382700,6.127382568359375,-0.017601896077394485,-0.001329716295003891,-0.015531289391219616
1757088846867336700,6.137336669921875,-0.018014952540397644,0.021621406078338623,-0.014740330167114735
1757088846877292000,6.1472919921875,-0.017780860885977745,0.04105342552065849,-0.01486549898982048
1757088846887246800,6.157246826171875,-0.01613742485642433,0.060258012264966965,-0.014757374301552773
1757088846897201700,6.16720166015625,-0.015208779834210873,0.07701888680458069,-0.013201023451983929
1757088846907157000,6.177156982421875,-0.015207715332508087,0.09313100576400757,-0.01245081052184105
1757088846917111000,6.187111083984375,-0.013564012013375759,0.1100415512919426,-0.00857511255890131
1757088846927065900,6.19706591796875,-0.014361095614731312,0.11869841814041138,-0.006193980108946562
1757088846937020700,6.207020751953125,-0.018009893596172333,0.12239169329404831,-0.00714606000110507
1757088846946976000,6.21697607421875,-0.0201039370149374,0.12137036770582199,-0.0035121769178658724
1757088846956930800,6.226930908203125,-0.021873872727155685,0.11595509946346283,-0.0046421559527516365
1757088846966884900,6.236884765625,-0.02412424422800541,0.10493094474077225,-0.0013044163351878524
1757088846976839700,6.246839599609375,-0.025130653753876686,0.09544636309146881,0.0033449302427470684
1757088846986795000,6.256794921875,-0.022456306964159012,0.08786913752555847,0.0073287528939545155
1757088846996749800,6.266749755859375,-0.024398550391197205,0.08909685164690018,0.010100038722157478
1757088847006705000,6.276704833984375,-0.02262674830853939,0.09286282956600189,0.01113201305270195
1757088847016658700,6.28665869140625,-0.02400599978864193,0.09369772672653198,0.007656854577362537
1757088847026614000,6.296614013671875,-0.029027391225099564,0.08882094919681549,0.003988882526755333
1757088847036568800,6.30656884765625,-0.028733644634485245,0.07767455279827118,0.0026136261876672506
1757088847046524000,6.31652392578125,-0.025983396917581558,0.06394169479608536,-0.0012319782981649041
1757088847056478700,6.326478759765625,-0.016582172363996506,0.05246454104781151,-0.0026517093647271395
1757088847066433000,6.33643310546875,-0.004655472002923489,0.0436239093542099,-0.0015933692920953035
1757088847076387800,6.346387939453125,0.009312807582318783,0.045219141989946365,-0.000030360035452758893
1757088847086343000,6.356343017578125,0.021736720576882362,0.04664260149002075,-0.00697774812579155
1757088847096297700,6.366297607421875,0.031451933085918427,0.048759281635284424,-0.009585781954228878
1757088847106252800,6.376252685546875,0.03978549689054489,0.044193025678396225,-0.012121111154556274
1757088847116206800,6.386206787109375,0.044263601303100586,0.03597797453403473,-0.013643108308315277
1757088847126162000,6.396161865234375,0.044625524431467056,0.028987709432840347,-0.013044695369899273
1757088847136117200,6.4061171875,0.037038177251815796,0.02257535047829151,-0.011347196996212006
1757088847146072000,6.416072021484375,0.028623389080166817,0.02002590522170067,-0.004964132327586412
1757088847156027100,6.426027099609375,0.018670091405510902,0.014607705175876617,-0.0006982808117754757
1757088847165981000,6.43598095703125,0.00939137116074562,0.004745486658066511,-0.00031878036679700017
1757088847175936300,6.445936279296875,0.006645385641604662,-0.000025566347176209092,0.0003968109958805144
1757088847185891000,6.45589111328125,0.004290086217224598,-0.0015712650492787361,-0.0004799016169272363
1757088847195846100,6.46584619140625,0.0044022053480148315,-0.005382781382650137,-0.003858920419588685
1757088847205801200,6.47580126953125,0.0052110073156654835,-0.011469968594610691,-0.008286958560347557
1757088847215755300,6.48575537109375,0.011812451295554638,-0.0208877045661211,-0.016033828258514404
1757088847225710000,6.4957099609375,0.01677791401743889,-0.02851632982492447,-0.01978888548910618
1757088847235665200,6.5056650390625,0.01726260967552662,-0.030792534351348877,-0.023446470499038696
1757088847245620200,6.5156201171875,0.0163643267005682,-0.03185513615608215,-0.024710405617952347
1757088847255575300,6.5255751953125,0.013933658599853516,-0.030224215239286423,-0.024351146072149277
1757088847265529000,6.535529052734375,0.01016635075211525,-0.026514964178204536,-0.02468270994722843
1757088847275484200,6.545484130859375,0.006424609571695328,-0.024599086493253708,-0.025789253413677216
1757088847285439200,6.555439208984375,0.0037681066896766424,-0.027828168123960495,-0.02564064785838127
1757088847295394300,6.565394287109375,0.0025955168530344963,-0.03618543595075607,-0.023486949503421783
1757088847305349000,6.57534912109375,0.0006119944155216217,-0.03827574849128723,-0.021889053285121918
1757088847315303200,6.58530322265625,0.0031766186002641916,-0.0365297831594944,-0.019785422831773758
1757088847325258200,6.59525830078125,0.0035143073182553053,-0.03099014051258564,-0.01998143084347248
1757088847335213300,6.60521337890625,0.005465605296194553,-0.022126873955130577,-0.018794992938637733
1757088847345168100,6.615168212890625,0.00759906368330121,-0.012414058670401573,-0.014539261348545551
1757088847355123000,6.625123046875,0.007993478327989578,-0.004997687879949808,-0.009697901085019112
1757088847365077000,6.635076904296875,0.011018296703696251,-0.003768905531615019,-0.005143363028764725
1757088847375032000,6.645031982421875,0.01429132092744112,-0.002862099092453718,-0.00105354655534029
1757088847384987100,6.654987060546875,0.015872972086071968,-0.002380067016929388,0.0017952368361875415
1757088847394942000,6.66494189453125,0.01661732606589794,-0.003611512714996934,0.002111886627972126
1757088847404897300,6.674897216796875,0.018726283684372902,-0.0023989754263311625,0.0030831415206193924
1757088847414851000,6.68485107421875,0.01619787886738777,-0.002855974016711116,0.00010439591278554872
1757088847424806100,6.69480615234375,0.01398479100316763,-0.005167065188288689,-0.003013632958754897
1757088847434761000,6.704760986328125,0.011027084663510323,-0.00717615382745862,-0.007226221263408661
1757088847444716300,6.71471630859375,0.007446997333317995,-0.00933118350803852,-0.008947156369686127
1757088847454671000,6.724671142578125,0.003082609036937356,-0.008070177398622036,-0.009869941510260105
1757088847464625200,6.734625244140625,0.0022599585354328156,-0.00839534867554903,-0.01215493306517601
1757088847474580000,6.744580078125,0.00361817074008286,-0.004846420604735613,-0.014670821838080883
1757088847484535300,6.754535400390625,0.002519616624340415,2.6631610694494157e-7,-0.01648390106856823
1757088847494490000,6.764489990234375,0.0021017666440457106,0.007637945935130119,-0.014794658869504929
1757088847504445200,6.774445068359375,0.0022897860035300255,0.012312326580286026,-0.012406868860125542
1757088847514399000,6.78439892578125,0.0022189458832144737,0.017414942383766174,-0.011026285588741302
1757088847524354300,6.794354248046875,0.001871403306722641,0.021033646538853645,-0.009505621157586575
1757088847534309000,6.80430908203125,-0.000050333743274677545,0.024442758411169052,-0.007694937754422426
1757088847544264200,6.81426416015625,0.0012602078495547175,0.01872122287750244,-0.0049217878840863705
1757088847554219300,6.82421923828125,0.0036485306918621063,0.014208762906491756,-0.007666441611945629
1757088847564173300,6.83417333984375,0.00541260838508606,0.009272594004869461,-0.01034664735198021
1757088847574128000,6.844128173828125,0.010708037763834,0.007471498567610979,-0.011869975365698338
1757088847584083200,6.854083251953125,0.011626562103629112,0.004444282967597246,-0.016167251393198967
1757088847594038300,6.864038330078125,0.012376242317259312,-0.00669438811019063,-0.013742976821959019
1757088847603993000,6.8739931640625,0.01600346714258194,-0.017704162746667862,-0.007081345189362764
1757088847613947100,6.883947021484375,0.020774520933628082,-0.015629027038812637,-0.0022208099253475666
1757088847623902200,6.893902099609375,0.02581828087568283,-0.004220843780785799,0.005875732284039259
1757088847633857300,6.903857177734375,0.029946180060505867,0.006041114684194326,0.011661449447274208
1757088847643812000,6.91381201171875,0.0374981053173542,0.017076987773180008,0.012178368866443634
1757088847653767200,6.92376708984375,0.04388223588466644,0.0128734540194273,0.00911413598805666
1757088847663721000,6.933720947265625,0.04704607278108597,0.0032322786282747984,0.005685582756996155
1757088847673676300,6.94367626953125,0.05113908275961876,-0.006741259712725878,0.0007861651247367263
1757088847683631000,6.953631103515625,0.050582483410835266,-0.016524381935596466,-0.0038695731200277805
1757088847693586200,6.963586181640625,0.04712356999516487,-0.02653121016919613,-0.008549013175070286
1757088847703541000,6.973541015625,0.038831017911434174,-0.031325966119766235,-0.01185133308172226
1757088847713495300,6.983495361328125,0.031097466126084328,-0.032461803406476974,-0.013484117574989796
1757088847723450000,6.9934501953125,0.021091969683766365,-0.027530960738658905,-0.010574613697826862
1757088847733405200,7.0034052734375,0.013318468816578388,-0.013892645947635174,-0.009169530123472214
1757088847743360000,7.013360107421875,0.007125287316739559,-0.00020346550445538014,-0.002590989461168647
1757088847753315300,7.0233154296875,0.0010207896120846272,0.017793377861380577,0.005062136333435774
1757088847763269000,7.03326904296875,-0.00449861166998744,0.03417980670928955,0.011095527559518814
1757088847773224200,7.04322412109375,-0.006469084415584803,0.04307423159480095,0.014852449297904968
1757088847783179000,7.053178955078125,-0.007878429256379604,0.048527587205171585,0.012619122862815857
1757088847793134300,7.06313427734375,-0.007351389620453119,0.04905782267451286,0.00917219277471304
1757088847803089200,7.073089111328125,-0.006365753710269928,0.043536290526390076,0.0009105347562581301
1757088847813043200,7.083043212890625,-0.005861883983016014,0.030490797013044357,-0.005815810989588499
1757088847822998000,7.092998046875,-0.006172674708068371,0.013172793202102184,-0.01022893562912941
1757088847832953000,7.102953125,-0.005907690152525902,0.0002335592289455235,-0.014973622746765614
1757088847842908200,7.112908203125,-0.003855990944430232,-0.009149289689958096,-0.017343835905194283
1757088847852863000,7.122863037109375,-0.00618252856656909,-0.01648123934864998,-0.017960624769330025
1757088847862818300,7.132818359375,-0.0022011026740074158,-0.020171048119664192,-0.014616759493947029
1757088847872772000,7.142772216796875,0.0014359764754772186,-0.025073660537600517,-0.010453173890709877
1757088847882727200,7.15272705078125,0.001671666163019836,-0.0287000872194767,-0.007044327445328236
1757088847892682000,7.162681884765625,0.0020295949652791023,-0.03301920369267464,-0.003549993736669421
1757088847902637300,7.17263720703125,0.005403553601354361,-0.04123585298657417,0.0024205471854656935
1757088847912592100,7.182592041015625,0.00227860058657825,-0.05277452990412712,0.0054818508215248585
1757088847922546200,7.192546142578125,0.0011323761427775025,-0.0642721951007843,0.009498164057731628
1757088847932501000,7.2025009765625,-0.0004500742070376873,-0.07486891746520996,0.009438242763280869
1757088847942456300,7.212456298828125,-0.004895688965916634,-0.07840399444103241,0.012429505586624146
1757088847952411100,7.2224111328125,-0.00902571901679039,-0.08275799453258514,0.013115535490214825
1757088847962366200,7.2323662109375,-0.012778645381331444,-0.08529279381036758,0.016294019296765327
1757088847972320000,7.242320068359375,-0.01768285594880581,-0.08426374942064285,0.013736318796873093
1757088847982275300,7.252275390625,-0.020245350897312164,-0.08044131100177765,0.00908670574426651
1757088847992230100,7.262230224609375,-0.020554278045892715,-0.07592006772756577,0.00666322885081172
1757088848002185200,7.272185302734375,-0.019584354013204575,-0.07250509411096573,0.0011382350930944085
1757088848012140000,7.28214013671875,-0.015569638460874557,-0.07017482817173004,-0.004619252867996693
1757088848022094300,7.29209423828125,-0.006542321294546127,-0.06864244490861893,-0.008787632919847965
1757088848032049200,7.302049072265625,-0.0037177728954702616,-0.0663212314248085,-0.01393072959035635
1757088848042004200,7.312004150390625,0.002457298804074526,-0.06756918877363205,-0.010697118937969208
1757088848051959000,7.321958984375,0.004247475415468216,-0.06934472173452377,-0.009852897375822067
1757088848061914000,7.3319140625,0.004644286818802357,-0.06739582121372223,-0.008043278940021992
1757088848071868200,7.3418681640625,0.002388855442404747,-0.06706079095602036,-0.004591023549437523
1757088848081823200,7.3518232421875,0.0018849853659048676,-0.06827998906373978,0.00007084008393576369
1757088848091778000,7.361778076171875,-0.002511627273634076,-0.06933459639549255,0.005230714567005634
1757088848101733000,7.371733154296875,-0.004002198576927185,-0.06720513850450516,0.006590524688363075
1757088848111688200,7.381688232421875,-0.006731405854225159,-0.06318163126707077,0.010176471434533596
1757088848121642200,7.391642333984375,-0.0054693338461220264,-0.06297949701547623,0.008836101740598679
1757088848131597300,7.401597412109375,-0.003442401997745037,-0.05697060748934746,0.006970291491597891
1757088848141552000,7.41155224609375,-0.0003837615076918155,-0.05182617902755737,0.005763879511505365
1757088848151507200,7.421507080078125,0.003438939806073904,-0.043712593615055084,0.00352868833579123
1757088848161462300,7.431462158203125,0.0038831550627946854,-0.037521008402109146,0.0027478495612740517
1757088848171416300,7.441416259765625,0.005879194475710392,-0.02971714921295643,0.0028511802665889263
1757088848181371100,7.45137109375,0.004322843160480261,-0.021990252658724785,0.00421258807182312
1757088848191326200,7.461326171875,0.004144144710153341,-0.018093517050147057,0.0057319216430187225
1757088848201281300,7.47128125,0.0031819448340684175,-0.014422615058720112,0.009459281340241432
1757088848211236400,7.481236328125,-0.0005342300864867866,-0.012388226576149464,0.016643425449728966
1757088848221190100,7.491190185546875,-0.0007416903390549123,-0.008402273058891296,0.01835903339087963
1757088848231145200,7.501145263671875,-0.0001328917423961684,-0.0030743530951440334,0.02033722959458828
1757088848241100300,7.511100341796875,-0.0010844392236322165,-0.0008988168556243181,0.02335459180176258
1757088848251055400,7.521055419921875,-0.0012114719720557332,0.0006391586503013968,0.0267714262008667
1757088848261010200,7.53101025390625,0.0009890979854390025,0.0007874967413954437,0.030307039618492126
1757088848270964200,7.540964111328125,0.0013499563792720437,0.0036253612488508224,0.03214781731367111
1757088848280919300,7.550919189453125,0.0020098877139389515,0.005615008994936943,0.030967237427830696
1757088848290874400,7.560874267578125,0.002231995342299342,0.00836818479001522,0.030823426321148872
1757088848300829200,7.5708291015625,0.002689526416361332,0.010546118021011353,0.029689718037843704
1757088848310784000,7.580783935546875,0.00023142869758885354,0.009692841209471226,0.02900848165154457
1757088848320738300,7.59073828125,-0.000743820914067328,0.012694490142166615,0.02870967611670494
1757088848330693000,7.600693115234375,-0.0018471685471013188,0.014831677079200745,0.02888038381934166
1757088848340648200,7.610648193359375,-0.00307675008662045,0.016047941520810127,0.02923618257045746
1757088848350603000,7.62060302734375,-0.004303668159991503,0.018863169476389885,0.027872910723090172
1757088848360558300,7.630558349609375,-0.008553540334105492,0.01774703897535801,0.026583673432469368
1757088848370512100,7.64051220703125,-0.011291802860796452,0.017712684348225594,0.026080070063471794
1757088848380467200,7.65046728515625,-0.016116918995976448,0.015960590913891792,0.02539803460240364
1757088848390422000,7.660422119140625,-0.018638931214809418,0.013880928047001362,0.027249198406934738
1757088848400377300,7.67037744140625,-0.022517826408147812,0.012695289216935635,0.029391711577773094
1757088848410332200,7.680332275390625,-0.02538898028433323,0.007496532052755356,0.026972228661179543
1757088848420286200,7.6902861328125,-0.02696477249264717,0.002332396572455764,0.02395406924188137
1757088848430241000,7.700240966796875,-0.02863430790603161,-0.003879426745697856,0.020125241950154305
1757088848440196400,7.7101962890625,-0.031189078465104103,-0.01637045107781887,0.016941167414188385
1757088848450151200,7.720151123046875,-0.03188256546854973,-0.028809810057282448,0.011093663983047009
1757088848460106200,7.730106201171875,-0.026520824059844017,-0.03682699054479599,0.0038666436448693275
1757088848470060000,7.74006005859375,-0.022065620869398117,-0.037043239921331406,-0.006990265101194382
1757088848480015400,7.750015380859375,-0.01495285052806139,-0.023269370198249817,-0.023843014612793922
1757088848489970200,7.75997021484375,-0.011832957156002522,0.01804265007376671,-0.05940660089254379
1757088848499925200,7.76992529296875,0.0008138620178215206,0.05710722878575325,-0.09436458349227905
1757088848509880300,7.77988037109375,0.01563861407339573,0.05477083846926689,-0.10165685415267944
1757088848519834400,7.78983447265625,0.01599840819835663,-0.0062768044881522655,-0.09139090031385422
1757088848529789200,7.7997890625,0.014319018460810184,-0.023369237780570984,-0.07453761994838715
1757088848539744300,7.809744140625,0.005803294479846954,-0.0006564692012034357,-0.041671015322208405
1757088848549699300,7.81969921875,0.006225405260920525,0.025559155270457268,-0.005212338641285896
1757088848559654100,7.829654052734375,0.005287706386297941,0.022947393357753754,0.022355372086167336
1757088848569608200,7.839608154296875,0.014758972451090813,-0.0018522285390645266,0.03212091699242592
1757088848579563300,7.849563232421875,0.026202309876680374,-0.01991645060479641,0.03061996027827263
1757088848589518300,7.859518310546875,0.03652871772646904,-0.010155964642763138,0.02630244381725788
1757088848599473200,7.86947314453125,0.038668833673000336,0.009528257884085178,0.0282734502106905
1757088848609428200,7.87942822265625,0.029017802327871323,0.021332984790205956,0.032163795083761215
1757088848619382000,7.889382080078125,0.014704111032187939,0.03251560032367706,0.03128841519355774
1757088848629337300,7.89933740234375,0.0029379993211477995,0.03137337043881416,0.026487533003091812
1757088848639292200,7.909292236328125,-0.01041269302368164,0.01817074790596962,0.02317269705235958
1757088848649247200,7.919247314453125,-0.01577203907072544,0.03545386344194412,0.01636272855103016
1757088848659202300,7.929202392578125,-0.03443387523293495,0.020412597805261612,0.011758655309677124
1757088848669156400,7.93915625,-0.05102936178445816,-0.00962493009865284,0.0009350358741357923
1757088848679111200,7.949111083984375,-0.06408897042274475,-0.020553478971123695,-0.008259527385234833
1757088848689066200,7.959066162109375,-0.0788162499666214,-0.010493121109902859,-0.013965616934001446
1757088848699021000,7.96902099609375,-0.0872369036078453,0.015092399902641773,-0.02316524088382721
1757088848708976400,7.978976318359375,-0.10007280111312866,0.019122827798128128,-0.03729703649878502
1757088848718930200,7.98893017578125,-0.1153380423784256,-0.011780492961406708,-0.02454182878136635
1757088848728885200,7.99888525390625,-0.1371631771326065,-0.03483414649963379,-0.011146394535899162
1757088848738840000,8.008840087890626,-0.15776114165782928,-0.00253399764187634,-0.0005550027708522975
1757088848748795400,8.01879541015625,-0.17904751002788544,0.056300025433301926,0.016109993681311607
1757088848758750200,8.028750244140625,-0.17012938857078552,0.07190561294555664,0.035471174865961075
1757088848768704300,8.038704345703126,-0.16393594443798065,0.05492503568530083,0.05870752036571503
1757088848778659000,8.0486591796875,-0.13699033856391907,0.018315358087420464,0.07257992774248123
1757088848788614400,8.058614501953125,-0.11273027956485748,0.010440923273563385,0.0815420001745224
1757088848798569200,8.0685693359375,-0.09435579925775528,-0.01338717807084322,0.08314681798219681
1757088848808524000,8.07852392578125,-0.08696606010198593,0.013484383001923561,0.08114705234766006
1757088848818478000,8.08847802734375,-0.07867670059204102,0.06682883203029633,0.08148819953203201
1757088848828433200,8.09843310546875,-0.0670594573020935,0.11202027648687363,0.08079018443822861
1757088848838388200,8.10838818359375,-0.06027798727154732,0.1543906331062317,0.08075263351202011
1757088848848343000,8.118343017578125,-0.0578976534307003,0.19461315870285034,0.08921589702367783
1757088848858298400,8.12829833984375,-0.05997492000460625,0.20410360395908356,0.09942459315061569
1757088848868252200,8.138252197265626,-0.06059543788433075,0.22510288655757904,0.10469178855419159
1757088848878207200,8.148207275390625,-0.058274492621421814,0.25530552864074707,0.10509952157735825
1757088848888162000,8.158162109375,-0.058280881494283676,0.29479700326919556,0.10455916821956635
1757088848898117400,8.168117431640624,-0.06004149839282036,0.3255655765533447,0.10265394300222397
1757088848908072200,8.178072265625,-0.06315606832504272,0.33728668093681335,0.1056625097990036
1757088848918026200,8.188026123046875,-0.06777691841125488,0.33177927136421204,0.10262171924114227
1757088848927981000,8.19798095703125,-0.06439044326543808,0.304805189371109,0.1019015982747078
1757088848937936400,8.207936279296876,-0.05620921030640602,0.2813216745853424,0.10408538579940796
1757088848947891200,8.21789111328125,-0.038062430918216705,0.22272415459156036,0.10222464054822922
1757088848957846300,8.22784619140625,-0.016035424545407295,0.1891358345746994,0.09790738672018051
1757088848967800000,8.237800048828126,0.010230799205601215,0.15811799466609955,0.09181007742881775
1757088848977755400,8.24775537109375,0.02528085559606552,0.14357420802116394,0.08283762633800507
1757088848987710200,8.257710205078125,0.029917152598500252,0.11714233458042145,0.07004353404045105
1757088848997665300,8.267665283203126,0.028552282601594925,0.0841473713517189,0.04890362545847893
1757088849007620400,8.277620361328125,0.04489343985915184,0.09339971840381622,0.03740649297833443
1757088849017574400,8.287574462890625,0.047195740044116974,0.15478958189487457,0.035170238465070724
1757088849027529200,8.297529296875,0.055565256625413895,0.19778551161289215,0.029573604464530945
1757088849037484300,8.307484375,0.06602908670902252,0.23626765608787537,0.04718641936779022
1757088849047439400,8.317439453125,0.0771871954202652,0.29362842440605164,0.08537987619638443
1757088849057393400,8.327393310546874,0.07349365949630737,0.3517338037490845,0.1294701099395752
1757088849067348200,8.33734814453125,0.0537380613386631,0.3909997045993805,0.18015006184577942
1757088849077303300,8.34730322265625,0.0401839055120945,0.4110858142375946,0.22168898582458496
1757088849087258400,8.35725830078125,0.02961301989853382,0.440382719039917,0.26094478368759155
1757088849097213200,8.367213134765626,0.02221023105084896,0.44432365894317627,0.2832415699958801
1757088849107167200,8.377167236328125,0.010970093309879303,0.3905200660228729,0.278772234916687
1757088849117122000,8.3871220703125,0.014900919049978256,0.35244807600975037,0.27895042300224304
1757088849127077000,8.3970771484375,0.01095571182668209,0.34783998131752014,0.2952928841114044
1757088849137031700,8.40703173828125,-0.0022128205746412277,0.3224334418773651,0.28517580032348633
1757088849146986800,8.41698681640625,-0.01722053252160549,0.2407313883304596,0.2595415711402893
1757088849156940800,8.42694091796875,-0.005958556663244963,0.22267942130565643,0.2590762972831726
1757088849166895900,8.436895751953125,-0.002159024588763714,0.1916077882051468,0.2478683888912201
1757088849176850700,8.4468505859375,-0.0020959076937288046,0.12284789234399796,0.23441356420516968
1757088849186805800,8.4568056640625,0.02335192821919918,0.1269419640302658,0.2524202764034271
1757088849196760600,8.466760498046876,0.0326349101960659,0.1248556524515152,0.26007047295570374
1757088849206715000,8.47671484375,0.035478897392749786,0.08429091423749924,0.2521001398563385
1757088849216669700,8.486669677734374,0.052261874079704285,0.0729312002658844,0.26961204409599304
1757088849226624800,8.496624755859376,0.07949642091989517,0.047148071229457855,0.2911919057369232
1757088849236579600,8.50657958984375,0.11117925494909286,0.037398237735033035,0.3151262700557709
1757088849246535000,8.516534912109375,0.12028166651725769,-0.004080495331436396,0.3222334384918213
1757088849256488700,8.52648876953125,0.1361123025417328,-0.07887137681245804,0.3317560851573944
1757088849266443800,8.53644384765625,0.1684177666902542,-0.10876776278018951,0.35473358631134033
1757088849276398600,8.546398681640625,0.2025163620710373,-0.10672911256551743,0.36139094829559326
1757088849286354000,8.55635400390625,0.23681920766830444,-0.12914173305034637,0.3489377498626709
1757088849296308700,8.566308837890626,0.2644393742084503,-0.1617548167705536,0.3355364501476288
1757088849306262800,8.5762626953125,0.28511881828308105,-0.20608419179916382,0.3172709047794342
1757088849316217600,8.586217529296874,0.28477180004119873,-0.247685968875885,0.300443172454834
1757088849326173000,8.5961728515625,0.3186027407646179,-0.21851742267608643,0.321064293384552
1757088849336127700,8.606127685546875,0.3298266530036926,-0.17891515791416168,0.33560171723365784
1757088849346082600,8.61608251953125,0.3223665952682495,-0.16413594782352448,0.3358403146266937
1757088849356036600,8.62603662109375,0.311642050743103,-0.16775943338871002,0.32370802760124207
1757088849365992000,8.635991943359375,0.31619977951049805,-0.24304886162281036,0.3325377404689789
1757088849375946800,8.64594677734375,0.2988237142562866,-0.26279327273368835,0.31863629817962646
1757088849385901600,8.655901611328124,0.2998596727848053,-0.2725503146648407,0.30502834916114807
1757088849395857000,8.66585693359375,0.3171353340148926,-0.2803264558315277,0.28132542967796326
1757088849405811000,8.67581103515625,0.32148030400276184,-0.2647477686405182,0.26063185930252075
1757088849415765800,8.685765869140624,0.31537100672721863,-0.23449745774269104,0.26146408915519714
1757088849425720600,8.695720458984376,0.30636417865753174,-0.21143421530723572,0.2575415372848511
1757088849435676000,8.705676025390625,0.3042951822280884,-0.14987897872924805,0.2667243778705597
1757088849445630700,8.715630615234375,0.3140482008457184,0.017068199813365936,0.28959667682647705
1757088849455584800,8.725584716796876,0.27028900384902954,0.0657273456454277,0.2725966274738312
1757088849465539600,8.73553955078125,0.23931404948234558,0.08256864547729492,0.2669065296649933
1757088849475495000,8.745494873046875,0.2143554389476776,0.15784262120723724,0.27068236470222473
1757088849485449700,8.75544970703125,0.2303469181060791,0.30073532462120056,0.2945251166820526
1757088849495404800,8.76540478515625,0.16945481300354004,0.3112335205078125,0.2719748020172119
1757088849505358600,8.775358642578125,0.11386451870203018,0.27669844031333923,0.24191516637802124
1757088849515314000,8.78531396484375,0.06588847190141678,0.31438323855400085,0.21631471812725067
1757088849525268700,8.795268798828126,0.02113085240125656,0.3590705394744873,0.17752791941165924
1757088849535223800,8.805223876953125,0.02245071344077587,0.43748360872268677,0.16339851915836334
1757088849545178600,8.8151787109375,-0.03298511356115341,0.4386191666126251,0.09886132925748825
1757088849555133000,8.8251328125,-0.07033780962228775,0.4248732626438141,0.03773965686559677
1757088849565087700,8.835087646484375,-0.11254838109016418,0.4124602675437927,-0.030792267993092537
1757088849575042800,8.845042724609375,-0.15772971510887146,0.3777504861354828,-0.11388422548770905
1757088849584997600,8.85499755859375,-0.15744927525520325,0.3658677339553833,-0.20495794713497162
1757088849594952000,8.864951904296875,-0.14914873242378235,0.35458046197891235,-0.32823699712753296
1757088849604906800,8.87490673828125,-0.14750024676322937,0.30270928144454956,-0.4579412043094635
1757088849614861800,8.88486181640625,-0.15144944190979004,0.20982512831687927,-0.5774348378181458
1757088849624816600,8.894816650390625,-0.16556259989738464,0.09780831634998322,-0.7053259611129761
1757088849634771700,8.904771728515625,-0.1818382441997528,-0.023124227300286293,-0.850348949432373
1757088849644725800,8.914725830078124,-0.20571240782737732,-0.12987038493156433,-1.010411024093628
1757088849654680800,8.924680908203126,-0.2549707889556885,-0.18260283768177032,-1.1731168031692505
1757088849664635600,8.9346357421875,-0.31715425848960876,-0.15206623077392578,-1.309220314025879
1757088849674590700,8.9445908203125,-0.40344467759132385,-0.036545492708683014,-1.4184867143630981
1757088849684545800,8.9545458984375,-0.4940131902694702,0.13452479243278503,-1.5450901985168457
1757088849694499800,8.964499755859375,-0.5827486515045166,0.4320265054702759,-1.6569123268127441
1757088849704454700,8.97445458984375,-0.6272290349006653,0.7957032322883606,-1.7471500635147095
1757088849714409700,8.98440966796875,-0.633750855922699,1.1148335933685303,-1.8341197967529297
1757088849724364800,8.99436474609375,-0.6190531253814697,1.218799352645874,-1.8525047302246094
1757088849734319600,9.004319580078125,-0.581452488899231,1.2111515998840332,-1.7721352577209473
1757088849744273700,9.014273681640624,-0.557015597820282,1.2526867389678955,-1.610917091369629
1757088849754228700,9.024228759765625,-0.5767919421195984,1.3424925804138184,-1.4137986898422241
1757088849764183800,9.034183837890625,-0.6523684859275818,1.371976375579834,-1.2072490453720093
1757088849774138600,9.044138671875,-0.8359151482582092,1.2005796432495117,-1.0557055473327637
1757088849784094000,9.054093994140626,-0.9596503973007202,0.9233930706977844,-1.0452512502670288
1757088849794047700,9.0640478515625,-0.9670963287353516,0.7876312136650085,-1.0557053089141846
1757088849804002800,9.0740029296875,-1.083991527557373,0.6191855072975159,-1.0702069997787476
1757088849813957600,9.08395751953125,-1.2914224863052368,0.4348300099372864,-1.0554884672164917
1757088849823913000,9.093912841796875,-1.4613957405090332,0.18621034920215607,-1.090516209602356
1757088849833867800,9.10386767578125,-1.5673272609710693,-0.24009887874126434,-1.1862201690673828
1757088849843821800,9.11382177734375,-1.5990614891052246,-0.5557894706726074,-1.2224924564361572
1757088849853776600,9.123776611328125,-1.6175720691680908,-0.72437584400177,-1.208550214767456
1757088849863732000,9.13373193359375,-1.6038650274276733,-0.8769645690917969,-1.1568467617034912
1757088849873686800,9.143686767578124,-1.569959044456482,-0.9688881039619446,-1.0844972133636475
1757088849883640800,9.153640869140625,-1.5029722452163696,-1.1064643859863281,-1.0457251071929932
1757088849893595600,9.163595703125,-1.4305803775787354,-1.3091641664505005,-1.067344069480896
1757088849903551000,9.173551025390625,-1.334669828414917,-1.4554084539413452,-1.121371865272522
1757088849913505800,9.183505859375,-1.2192127704620361,-1.4904083013534546,-1.1431679725646973
1757088849923460600,9.193460693359375,-1.1388283967971802,-1.5806771516799927,-1.1388963460922241
1757088849933414700,9.20341455078125,-1.0412906408309937,-1.5695289373397827,-1.0891647338867188
1757088849943370000,9.213369873046876,-0.9498310685157776,-1.4907768964767456,-0.9780203104019165
1757088849953324800,9.22332470703125,-0.8432499766349792,-1.4363404512405396,-0.8912819623947144
1757088849963279600,9.233279541015625,-0.7133881449699402,-1.3816964626312256,-0.8208876848220825
1757088849973234700,9.243234619140624,-0.5977813601493835,-1.2884725332260132,-0.7220732569694519
1757088849983189000,9.25318896484375,-0.4914504289627075,-1.1462197303771973,-0.5853297710418701
1757088849993143800,9.263143798828125,-0.3951007127761841,-1.041581153869629,-0.45100659132003784
1757088850003098600,9.2730986328125,-0.31725066900253296,-0.9103246331214905,-0.31237760186195374
1757088850013053700,9.2830537109375,-0.28934791684150696,-0.6547264456748962,-0.11411858350038528
1757088850023008800,9.2930087890625,-0.17227376997470856,-0.8106422424316406,-0.04122999310493469
1757088850032962800,9.302962890625,-0.06000234931707382,-0.6975029110908508,0.03189002349972725
1757088850042917600,9.312917724609376,0.017467673867940903,-0.4836446940898895,0.12970899045467377
1757088850052872700,9.322872802734375,0.11555323004722595,-0.3406659662723541,0.23095811903476715
1757088850062827800,9.332827880859375,0.21055030822753906,-0.2545899450778961,0.3383796513080597
1757088850072782800,9.342782958984374,0.3070685863494873,-0.16110233962535858,0.42739421129226685
1757088850082736600,9.352736572265625,0.399104505777359,-0.06841208040714264,0.49855974316596985
1757088850092691700,9.362691650390625,0.4735364019870758,-0.023811589926481247,0.5410494208335876
1757088850102646800,9.372646728515624,0.5472636222839355,0.002082858234643936,0.5792726874351501
1757088850112601900,9.382601806640626,0.623288631439209,-0.057979680597782135,0.6134706139564514
1757088850122555600,9.3925556640625,0.6763083934783936,-0.23795770108699799,0.6933715343475342
1757088850132510700,9.4025107421875,0.6834299564361572,-0.4849832057952881,0.8384802937507629
1757088850142465500,9.412465576171876,0.620457649230957,-0.7081637978553772,0.992388904094696
1757088850152420600,9.422420654296875,0.5308364629745483,-0.8660834431648254,1.032973289489746
1757088850162375700,9.432375732421875,0.4581545293331146,-0.7995904088020325,0.8424539566040039
1757088850172329700,9.442329833984376,0.34561440348625183,-0.48788124322891235,0.44122055172920227
1757088850182284500,9.452284423828125,0.1814933568239212,-0.08478385955095291,-0.05368772894144058
1757088850192239600,9.462239501953125,-0.019535617902874947,0.22943346202373505,-0.48492300510406494
1757088850202194700,9.472194580078124,-0.24242834746837616,0.2374117523431778,-0.7300004363059998
1757088850212149500,9.4821494140625,-0.4247291684150696,-0.04405054822564125,-0.8026455640792847
1757088850222103600,9.492103515625,-0.5621522665023804,-0.47503337264060974,-0.7986289858818054
1757088850232058600,9.50205859375,-0.6410806775093079,-0.916706383228302,-0.7938464879989624
1757088850242013700,9.512013671875,-0.6882960796356201,-1.1285456418991089,-0.7961200475692749
1757088850251968500,9.521968505859375,-0.6889554858207703,-1.0186705589294434,-0.7555723786354065
1757088850261923600,9.531923583984375,-0.6260199546813965,-0.8173829913139343,-0.5149935483932495
1757088850271877600,9.541877685546876,-0.5017299652099609,-0.8483747243881226,-0.16534608602523804
1757088850281832700,9.551832763671875,-0.32635974884033203,-0.9902855157852173,-0.06259892880916595
1757088850291787500,9.56178759765625,-0.18289977312088013,-0.9346973896026611,-0.10332825034856796
1757088850301742600,9.57174267578125,-0.10058332979679108,-0.7046287655830383,-0.059480901807546616
1757088850311696600,9.581696533203125,-0.0896822139620781,-0.38929182291030884,0.14026150107383728
1757088850321651700,9.591651611328125,-0.05507443845272064,-0.1223623976111412,0.4711478054523468
1757088850331606500,9.6016064453125,0.06097200885415077,0.11311616748571396,0.8383921384811401
1757088850341561600,9.6115615234375,0.25179627537727356,0.2300848662853241,1.091399073600769
1757088850351516700,9.6215166015625,0.4342750310897827,0.27346721291542053,1.081979751586914
1757088850361470700,9.631470703125,0.42814895510673523,0.3491281569004059,0.846321702003479
1757088850371425500,9.641425537109376,0.3213740289211273,0.4262029826641083,0.6014501452445984
1757088850381380600,9.651380615234375,0.26479145884513855,0.39478886127471924,0.43736615777015686
1757088850391335700,9.661335693359375,0.29215168952941895,0.3198813199996948,0.34264469146728516
1757088850401290800,9.671290771484376,0.39442241191864014,0.4466360807418823,0.30225440859794617
1757088850411244500,9.68124462890625,0.5175054669380188,0.824212908744812,0.3027856945991516
1757088850421199600,9.69119970703125,0.6112048029899597,1.0908914804458618,0.3820728063583374
1757088850431154700,9.70115478515625,0.6810871958732605,1.0357272624969482,0.5204538702964783
1757088850441109800,9.71110986328125,0.7519805431365967,0.7227587699890137,0.67656010389328
1757088850451064600,9.721064697265625,0.7734887599945068,0.3764583170413971,0.8254345059394836
1757088850461018600,9.7310185546875,0.737464427947998,0.09595795720815659,0.9835189580917358
1757088850470973700,9.7409736328125,0.7084434628486633,-0.05445178970694542,1.1520097255706787
1757088850480928800,9.7509287109375,0.6949931383132935,-0.07326382398605347,1.2944403886795044
1757088850490883600,9.760883544921874,0.6280431747436523,-0.014344317838549614,1.3541138172149658
1757088850500838400,9.77083837890625,0.5345675349235535,0.11734739691019058,1.2749528884887695
1757088850510792700,9.780792724609375,0.4332560896873474,0.3221926987171173,1.1165425777435303
1757088850520747800,9.790747802734375,0.3644416034221649,0.5712730884552002,0.9472371339797974
1757088850530702600,9.80070263671875,0.3473648726940155,0.7802897095680237,0.863885760307312
1757088850540657400,9.810657470703125,0.35172608494758606,0.9636059999465942,0.8743892908096313
1757088850550611700,9.82061181640625,0.3890462815761566,1.0914952754974365,0.9569499492645264
1757088850560566800,9.83056689453125,0.4293913245201111,1.0627504587173462,1.042824149131775
1757088850570521600,9.840521484375,0.4580354690551758,1.1114023923873901,1.0779527425765991
1757088850580476400,9.850476318359375,0.4079374074935913,0.9017785787582397,1.1211079359054565
1757088850590431700,9.860431640625,0.35182061791419983,0.7121873497962952,1.0835531949996948
1757088850600385800,9.8703857421875,0.2822932004928589,0.6818858981132507,0.9993477463722229
1757088850610340600,9.880340576171875,0.22262455523014069,0.574885368347168,0.9870172739028931
1757088850620295400,9.89029541015625,0.18101665377616882,0.39710262417793274,1.0540159940719604
1757088850630250800,9.900250732421876,0.20924696326255798,0.3383522033691406,1.0528926849365234
1757088850640205600,9.91020556640625,0.23104573786258698,0.3527231812477112,1.0053797960281372
1757088850650159600,9.92015966796875,0.27480387687683105,0.3650466799736023,0.9483668208122253
1757088850660114400,9.930114501953126,0.31237974762916565,0.3345036804676056,0.8918255567550659
1757088850670069800,9.94006982421875,0.3424058258533478,0.25672340393066406,0.8478618264198303
1757088850680024600,9.950024658203125,0.324611097574234,0.11233612895011902,0.8144481778144836
1757088850689979600,9.959979736328124,0.3595706820487976,0.062011972069740295,0.8432063460350037
1757088850699933400,9.969933349609375,0.34495553374290466,-0.01683730259537697,0.878680944442749
1757088850709888800,9.979888671875,0.3759549856185913,-0.08953201025724411,0.8215335011482239
1757088850719843600,9.989843505859374,0.3723171055316925,0.0021113541442900896,0.820164680480957
1757088850729798700,9.999798583984376,0.41460224986076355,0.006777478381991386,0.8149283528327942
1757088850739753700,10.009753662109375,0.4440469443798065,-0.05829766020178795,0.7793716788291931
1757088850749707800,10.019707763671875,0.4768216907978058,-0.10674295574426651,0.7471112012863159
1757088850759662600,10.02966259765625,0.5212938189506531,-0.09485460817813873,0.7312095165252686
1757088850769617700,10.03961767578125,0.551188588142395,-0.08744276314973831,0.7123615145683289
1757088850779572700,10.04957275390625,0.571669340133667,-0.08149512857198715,0.7108229994773865
1757088850789526800,10.05952685546875,0.5879737734794617,-0.09512065351009369,0.7294597625732422
1757088850799481600,10.069481689453125,0.6147356033325195,-0.12641039490699768,0.731855034828186
1757088850809436700,10.079436767578125,0.6352952122688293,-0.18856698274612427,0.7106093764305115
1757088850819391700,10.089391845703124,0.6613286733627319,-0.2423734962940216,0.6789031624794006
1757088850829346600,10.0993466796875,0.6781761050224304,-0.27069541811943054,0.6208276152610779
1757088850839300600,10.109300537109375,0.7023586630821228,-0.2011629343032837,0.5826905965805054
1757088850849255700,10.119255615234374,0.6583272814750671,-0.18529263138771057,0.5338157415390015
1757088850859210800,10.129210693359376,0.5834940671920776,-0.16745956242084503,0.47346794605255127
1757088850869165600,10.13916552734375,0.5018202662467957,-0.06921608746051788,0.4032835364341736
1757088850879120600,10.14912060546875,0.4156310260295868,0.03235900402069092,0.3234395682811737
1757088850889074700,10.15907470703125,0.3470120131969452,0.13240358233451843,0.24859356880187988
1757088850899029800,10.16902978515625,0.30230820178985596,0.21734324097633362,0.18117643892765045
1757088850908984600,10.178984619140625,0.2563822567462921,0.27845826745033264,0.13497592508792877
1757088850918939600,10.188939697265624,0.18895527720451355,0.35251864790916443,0.11456385999917984
1757088850928893400,10.1988935546875,0.1229725256562233,0.48671185970306396,0.10982796549797058
1757088850938848800,10.208848876953125,0.08600412309169769,0.6787114143371582,0.12010829895734787
1757088850948803600,10.218803466796874,0.0661071166396141,0.833992063999176,0.13034069538116455
1757088850958758700,10.228758544921876,0.03003619611263275,0.8735043406486511,0.16347281634807587
1757088850968713500,10.23871337890625,-0.0037798245903104544,0.8520030379295349,0.15435095131397247
1757088850978667800,10.248667724609374,-0.017738251015543938,0.9244921207427979,0.04597308486700058
1757088850988622600,10.25862255859375,-0.00443975580856204,1.0841691493988037,-0.09069288522005081
1757088850998577700,10.26857763671875,0.020563066005706787,1.1551676988601685,-0.24040700495243073
1757088851008532500,10.278532470703125,0.00481313094496727,1.1183090209960938,-0.42476886510849
1757088851018487800,10.28848779296875,-0.0499555766582489,1.0193240642547607,-0.5881069302558899
1757088851028441600,10.298441650390625,-0.098057322204113,0.8819196224212646,-0.746357262134552
1757088851038396700,10.308396728515625,-0.17210732400417328,0.7011018991470337,-0.9569443464279175
1757088851048351500,10.3183515625,-0.2064509093761444,0.5649185180664062,-1.2138975858688354
1757088851058306800,10.328306884765626,-0.2735559046268463,0.4007181227207184,-1.4552103281021118
1757088851068261600,10.33826171875,-0.40697628259658813,0.2770036458969116,-1.6031739711761475
1757088851078215700,10.348215576171874,-0.5991334915161133,0.20249345898628235,-1.6992863416671753
1757088851088170500,10.35817041015625,-0.7541161179542542,0.2724730670452118,-1.821318507194519
1757088851098125800,10.368125732421875,-0.8582934141159058,0.4632371664047241,-2.0110669136047363
1757088851108080600,10.37808056640625,-0.8674429655075073,0.6839911341667175,-2.136247396469116
1757088851118034700,10.38803466796875,-0.7627511620521545,0.8105405569076538,-2.104856014251709
1757088851127989500,10.397989501953125,-0.6256369948387146,0.8409661054611206,-1.9597326517105103
1757088851137944600,10.407944580078125,-0.515104353427887,0.8798817992210388,-1.7990734577178955
1757088851147899600,10.417899658203124,-0.4430557191371918,0.8021782040596008,-1.7115228176116943
1757088851157854700,10.427854736328126,-0.44699347019195557,0.8052818775177002,-1.6407299041748047
1757088851167808800,10.437808837890625,-0.4652252197265625,0.892869770526886,-1.5638116598129272
1757088851177763600,10.447763671875,-0.5601807236671448,0.7516106367111206,-1.5115255117416382
1757088851187718700,10.45771875,-0.6228436231613159,0.5749301314353943,-1.5453338623046875
1757088851197673700,10.467673828125,-0.7246565222740173,0.49477165937423706,-1.5856982469558716
1757088851207628800,10.47762890625,-0.9032440781593323,0.38739752769470215,-1.6634929180145264
1757088851217582600,10.48758251953125,-1.0856735706329346,0.14774125814437866,-1.7134219408035278
1757088851227537700,10.49753759765625,-1.1845612525939941,-0.13029249012470245,-1.7004629373550415
1757088851237492700,10.50749267578125,-1.2168341875076294,-0.41618284583091736,-1.653053641319275
1757088851247447800,10.51744775390625,-1.2739745378494263,-0.6818536520004272,-1.5599151849746704
1757088851257401600,10.527401611328125,-1.283721923828125,-0.8406584858894348,-1.4499708414077759
1757088851267356700,10.537356689453125,-1.3238682746887207,-0.966475248336792,-1.350157380104065
1757088851277311700,10.547311767578124,-1.3430246114730835,-0.9702731966972351,-1.2493959665298462
1757088851287266800,10.557266845703126,-1.3036946058273315,-1.104684829711914,-1.1979260444641113
1757088851297221600,10.5672216796875,-1.2716349363327026,-1.323326826095581,-1.1483139991760254
1757088851307175700,10.57717578125,-1.2414839267730713,-1.4987990856170654,-1.0730539560317993
1757088851317130800,10.587130859375,-1.2005058526992798,-1.7360438108444214,-1.0294747352600098
1757088851327085800,10.5970859375,-1.1164720058441162,-1.8399255275726318,-1.0526580810546875
1757088851337040600,10.60704052734375,-1.0699843168258667,-1.7869411706924438,-0.9904791116714478
1757088851346995700,10.61699560546875,-1.0320154428482056,-1.6213372945785522,-0.8826330900192261
1757088851356949800,10.62694970703125,-0.9416506290435791,-1.462460994720459,-0.708319365978241
1757088851366904800,10.63690478515625,-0.8203364610671997,-1.353814721107483,-0.49976933002471924
1757088851376859600,10.646859619140624,-0.6975820064544678,-1.2590587139129639,-0.2821613848209381
1757088851386814700,10.656814697265625,-0.5918135046958923,-1.189135193824768,-0.060379453003406525
1757088851396768800,10.666768798828125,-0.4719443619251251,-1.1094294786453247,0.14560726284980774
1757088851406723800,10.676723876953124,-0.33715617656707764,-1.0400232076644897,0.30092281103134155
1757088851416678700,10.6866787109375,-0.21848253905773163,-0.9734644889831543,0.42317628860473633
1757088851426633700,10.6966337890625,-0.1171407401561737,-0.8391016125679016,0.5357673168182373
1757088851436588800,10.7065888671875,-0.023788686841726303,-0.6940022110939026,0.6525591611862183
1757088851446542800,10.71654296875,0.05020458251237869,-0.5647611021995544,0.7782797813415527
1757088851456497700,10.72649755859375,0.09637420624494553,-0.4993456304073334,0.9096479415893555
1757088851466452700,10.73645263671875,0.15671850740909576,-0.430635541677475,1.0164990425109863
1757088851476407800,10.74640771484375,0.21783486008644104,-0.3054957389831543,1.093572735786438
1757088851486362600,10.756362548828125,0.30349624156951904,-0.1287638396024704,1.1408121585845947
1757088851496316700,10.766316650390625,0.3596670925617218,-0.0135067543014884,1.1305041313171387
1757088851506271700,10.776271728515624,0.35259878635406494,-0.07287420332431793,1.0445767641067505
1757088851516226800,10.786226806640625,0.29378315806388855,-0.2467155009508133,0.9008563160896301
1757088851526181600,10.796181640625,0.22114357352256775,-0.5054463744163513,0.6934407949447632
1757088851536135700,10.8061357421875,0.11231669038534164,-0.8033822178840637,0.4135209918022156
1757088851546090500,10.816090576171876,-0.0032583775464445353,-0.9665918946266174,0.018882079049944878
1757088851556045800,10.8260458984375,-0.13453863561153412,-0.8973193764686584,-0.4371746778488159
1757088851566000600,10.836000732421875,-0.2966790795326233,-0.6202411651611328,-0.7963725328445435
1757088851575955700,10.845955810546876,-0.39663177728652954,-0.24389894306659698,-0.9855365753173828
1757088851585909500,10.855909423828125,-0.4426165819168091,0.036856550723314285,-1.006068229675293
1757088851595864800,10.86586474609375,-0.4701182246208191,0.09018395841121674,-0.8879160284996033
1757088851605819600,10.875819580078126,-0.4543512463569641,-0.10013619065284729,-0.6838153600692749
1757088851615774700,10.885774658203125,-0.41097235679626465,-0.34040579199790955,-0.4379701614379883
1757088851625729800,10.895729736328125,-0.37871456146240234,-0.4504989981651306,-0.09276509284973145
1757088851635683800,10.905683837890624,-0.35737836360931396,-0.5013219714164734,0.30668458342552185
1757088851645638700,10.915638671875,-0.30567604303359985,-0.7577950358390808,0.5236845016479492
1757088851655593700,10.92559375,-0.24338442087173462,-0.7639884948730469,0.5235313773155212
1757088851665548800,10.935548828125,-0.152274489402771,-0.468811959028244,0.5153341889381409
1757088851675502800,10.9455029296875,-0.09185907989740372,-0.07077723741531372,0.6979807019233704
1757088851685457700,10.955457763671875,0.02477964758872986,0.28110143542289734,0.9211122989654541
1757088851695412700,10.965412841796875,0.20185615122318268,0.5417969226837158,1.06284761428833
1757088851705367800,10.975367919921876,0.39917829632759094,0.5494974851608276,1.0707974433898926
1757088851715322600,10.985322509765625,0.6095978617668152,0.34247317910194397,0.8507643938064575
1757088851725276700,10.995276611328125,0.7532463669776917,0.06478139013051987,0.39216938614845276
1757088851735231700,11.005231689453124,0.643757164478302,-0.03122689574956894,-0.059482499957084656
1757088851745186800,11.015186767578125,0.288629412651062,0.0845167487859726,-0.22129936516284943
1757088851755141600,11.0251416015625,0.3092252314090729,0.27764785289764404,-0.22226449847221375
1757088851765096700,11.0350966796875,0.38276389241218567,0.6805638670921326,-0.15211470425128937
1757088851775050800,11.04505078125,0.41600146889686584,0.9468400478363037,-0.033726803958415985
1757088851785005800,11.055005859375,0.48370489478111267,0.9869033098220825,0.1922307014465332
1757088851794960600,11.064960693359374,0.5836136341094971,0.8274558782577515,0.5644452571868896
1757088851804915700,11.074915771484376,0.6639284491539001,0.596918523311615,1.011067271232605
1757088851814869800,11.084869873046875,0.6983159780502319,0.4274043142795563,1.3568483591079712
1757088851824824800,11.094824951171875,0.6908314228057861,0.3243035078048706,1.5475986003875732
1757088851834779600,11.104779541015626,0.611717164516449,0.18365584313869476,1.6232941150665283
1757088851844734700,11.114734619140625,0.4681432247161865,0.013015134260058403,1.6818711757659912
1757088851854689800,11.124689697265625,0.2846037745475769,-0.043891556560993195,1.7350460290908813
1757088851864643800,11.134643798828124,0.09160102158784866,0.06108812242746353,1.678006649017334
1757088851874598700,11.1445986328125,-0.06618301570415497,0.45084014534950256,1.406785011291504
1757088851884553700,11.1545537109375,-0.05649363622069359,0.7643139362335205,1.167539119720459
1757088851894508800,11.1645087890625,0.02485102042555809,0.9270828366279602,1.143570899963379
1757088851904462800,11.174462890625,0.0457746796309948,1.0072360038757324,1.274437665939331
1757088851914417700,11.184417724609375,0.10610326379537582,0.9388465881347656,1.3124444484710693
1757088851924372700,11.194372802734375,0.24383743107318878,0.7810721397399902,1.186885118484497
1757088851934327600,11.20432763671875,0.3581749200820923,0.5431812405586243,1.0118623971939087
1757088851944283000,11.214282958984375,0.4359181821346283,0.12389211356639862,0.9599624872207642
1757088851954236700,11.224236572265625,0.43560659885406494,-0.09259651601314545,0.9767076373100281
1757088851964191700,11.234191650390626,0.3819772005081177,-0.06495929509401321,0.984932541847229
1757088851974146600,11.244146484375,0.2864948809146881,0.025608157739043236,1.046842336654663
1757088851984102000,11.254101806640625,0.22919750213623047,0.17753244936466217,1.0904240608215332
1757088851994056700,11.264056640625,0.21299642324447632,0.3049103617668152,1.039673089981079
1757088852004010800,11.2740107421875,0.1777620017528534,0.3693375587463379,0.9419960379600525
1757088852013965600,11.283965576171875,0.15490995347499847,0.42313873767852783,0.861646831035614
1757088852023921000,11.2939208984375,0.1674547791481018,0.3881421387195587,0.8150452375411987
1757088852033875700,11.303875732421876,0.20307455956935883,0.2883649468421936,0.7942089438438416
1757088852043829800,11.313829833984375,0.2465919405221939,0.2032143622636795,0.7779229283332825
1757088852053784600,11.32378466796875,0.2671011984348297,0.1089499220252037,0.740673303604126
1757088852063740000,11.333739990234376,0.3151816427707672,0.09332701563835144,0.7175061702728271
1757088852073694700,11.34369482421875,0.33937567472457886,0.11345145851373672,0.7044132947921753
1757088852083649500,11.3536494140625,0.3626237213611603,0.13029755651950836,0.6954408288002014
1757088852093603600,11.363603515625,0.40924957394599915,0.16091564297676086,0.7005128264427185
1757088852103558700,11.37355859375,0.45161646604537964,0.1624927669763565,0.7051219344139099
1757088852113513700,11.383513671875,0.5323371291160583,0.16448162496089935,0.7298762798309326
1757088852123468500,11.393468505859374,0.5576198697090149,0.11609278619289398,0.7285862565040588
1757088852133424000,11.403424072265626,0.5871077179908752,0.012110991403460503,0.7313109636306763
1757088852143379000,11.41337890625,0.6165106296539307,-0.031246069818735123,0.7678926587104797
1757088852153334000,11.423333984375,0.6617489457130432,-0.03418859839439392,0.7862762212753296
1757088852163289000,11.4332890625,0.6526933908462524,-0.04181349277496338,0.736495852470398
1757088852173244000,11.443243896484375,0.6133632659912109,-0.03248364105820656,0.6613595485687256
1757088852183198000,11.453197998046875,0.5989958047866821,0.0589035302400589,0.6238276362419128
1757088852193153000,11.463153076171874,0.5363255143165588,0.19037766754627228,0.5792460441589355
1757088852203108000,11.473108154296876,0.4275161921977997,0.15419995784759521,0.45726609230041504
1757088852213063000,11.48306298828125,0.3552134931087494,0.1766035258769989,0.33105143904685974
1757088852223017000,11.493016845703124,0.308956503868103,0.25033366680145264,0.20620962977409363
1757088852232972000,11.502971923828126,0.2799277901649475,0.2828175723552704,0.09658992290496826
1757088852242927000,11.512927001953125,0.2755029499530792,0.24528458714485168,0.045512355864048004
1757088852252882000,11.5228818359375,0.2865641117095947,0.29595229029655457,0.053633932024240494
1757088852262837000,11.5328369140625,0.2261311411857605,0.2507813572883606,0.04679706692695618
1757088852272790800,11.542790771484375,0.18468596041202545,0.2988269031047821,0.07684711366891861
1757088852282746000,11.55274609375,0.18020598590373993,0.450101375579834,0.0914289802312851
1757088852292701000,11.562700927734374,0.17881076037883759,0.6202659010887146,0.08651065826416016
1757088852302656000,11.572656005859375,0.1672116219997406,0.6962842345237732,0.08958687633275986
1757088852312610800,11.58261083984375,0.16338999569416046,0.7151064276695251,0.04132027551531792
1757088852322565000,11.592565185546874,0.1884431540966034,0.8113448023796082,-0.08675460517406464
1757088852332520000,11.60252001953125,0.20220103859901428,0.9542745351791382,-0.22406452894210815
1757088852342475000,11.61247509765625,0.15858937799930573,0.9778144955635071,-0.39782166481018066
1757088852352429800,11.622429931640625,0.07398181408643723,0.9152432680130005,-0.5674818158149719
1757088852362384100,11.632384033203126,-0.014693192206323147,0.8359652161598206,-0.7029589414596558
1757088852372339000,11.6423388671875,-0.14954474568367004,0.7368127703666687,-0.8629810810089111
1757088852382294000,11.6522939453125,-0.2933080494403839,0.6552478671073914,-1.0510066747665405
1757088852392248800,11.662248779296876,-0.42707011103630066,0.587876558303833,-1.2483969926834106
1757088852402204200,11.6722041015625,-0.5834229588508606,0.4870801866054535,-1.426199197769165
1757088852412158000,11.682157958984375,-0.7742794752120972,0.35297349095344543,-1.544257640838623
1757088852422113000,11.692113037109374,-0.9637777805328369,0.22004207968711853,-1.5961732864379883
1757088852432067800,11.70206787109375,-1.1126154661178589,0.1927497386932373,-1.6887434720993042
1757088852442023000,11.71202294921875,-1.204286813735962,0.3358736038208008,-1.8378099203109741
1757088852451977000,11.72197705078125,-1.2171772718429565,0.5758286714553833,-1.9439626932144165
1757088852461932000,11.73193212890625,-1.2125705480575562,0.728937566280365,-1.8708616495132446
1757088852471886800,11.741886962890625,-1.1571013927459717,0.724078357219696,-1.6999425888061523
1757088852481842000,11.751842041015625,-1.0667757987976074,0.6847876310348511,-1.5370761156082153
1757088852491797000,11.761796875,-0.9872862696647644,0.7194702625274658,-1.3936502933502197
1757088852501751000,11.7717509765625,-0.9381355047225952,0.772064745426178,-1.247563362121582
1757088852511705900,11.781705810546875,-0.8726856708526611,0.8405953645706177,-1.1817289590835571
1757088852521661000,11.791660888671874,-0.841837465763092,0.7165290713310242,-1.2038567066192627
1757088852531616000,11.801615966796875,-0.8632162809371948,0.49193379282951355,-1.2756240367889404
1757088852541570800,11.81157080078125,-0.9858489632606506,0.24199426174163818,-1.3724504709243774
1757088852551524900,11.82152490234375,-1.0257694721221924,0.0621991902589798,-1.462526798248291
1757088852561480000,11.83147998046875,-1.0062909126281738,-0.12095198780298233,-1.5640028715133667
1757088852571435000,11.84143505859375,-1.044390082359314,-0.482521653175354,-1.6688437461853027
1757088852581389800,11.851389892578124,-1.0551347732543945,-0.7579383254051208,-1.6738494634628296
1757088852591343900,11.86134375,-1.0572876930236816,-0.9551131725311279,-1.6397101879119873
1757088852601299000,11.871298828125,-1.1059753894805908,-1.057396411895752,-1.5686652660369873
1757088852611254000,11.88125390625,-1.1295573711395264,-1.0281175374984741,-1.487186074256897
1757088852621208800,11.891208740234376,-1.1570696830749512,-1.0169326066970825,-1.4142378568649292
1757088852631164200,11.9011640625,-1.163207769393921,-0.9027551412582397,-1.351860523223877
1757088852641118000,11.911117919921875,-1.1500067710876465,-0.8497641086578369,-1.319812536239624
1757088852651073000,11.921072998046874,-1.133692979812622,-0.997699499130249,-1.2996947765350342
1757088852661027800,11.93102783203125,-1.120069146156311,-1.2373172044754028,-1.2985501289367676
1757088852670983200,11.940983154296875,-1.141532063484192,-1.456559181213379,-1.2735768556594849
1757088852680937000,11.95093701171875,-1.118721842765808,-1.5894887447357178,-1.1961462497711182
1757088852690892000,11.96089208984375,-1.0201137065887451,-1.5704107284545898,-1.0345523357391357
1757088852700846800,11.970846923828125,-0.900047779083252,-1.4350768327713013,-0.7450336813926697
1757088852710802200,11.98080224609375,-0.7956454753875732,-1.1238733530044556,-0.38698258996009827
1757088852720757000,11.990757080078126,-0.5729066729545593,-1.0522165298461914,-0.15214958786964417
1757088852730711000,12.0007109375,-0.3765890896320343,-1.0322543382644653,-0.019591277465224266
1757088852740665900,12.010665771484375,-0.27755704522132874,-0.9930773377418518,0.1507815271615982
1757088852750621200,12.02062109375,-0.17486129701137543,-0.9761976599693298,0.34284016489982605
1757088852760576000,12.030575927734375,-0.04792012274265289,-0.9280072450637817,0.5221705436706543
1757088852770530000,12.040530029296875,0.043225500732660294,-0.8781571388244629,0.6961987614631653
1757088852780484900,12.05048486328125,0.11008922010660172,-0.8167933821678162,0.8497925996780396
1757088852790440200,12.060440185546875,0.15689587593078613,-0.6919257044792175,0.9640592336654663
1757088852800395000,12.07039501953125,0.24469336867332458,-0.5207515954971313,1.01960027217865
1757088852810349800,12.080349853515624,0.3448444604873657,-0.2619253396987915,1.0746917724609375
1757088852820304000,12.090303955078125,0.47587892413139343,0.05038034915924072,1.1153265237808228
1757088852830259200,12.10025927734375,0.6231133937835693,0.35942235589027405,1.1267637014389038
1757088852840214000,12.110214111328125,0.7690514326095581,0.578469455242157,1.123532772064209
1757088852850168800,12.1201689453125,0.868432343006134,0.5641579031944275,1.0897871255874634
1757088852860123000,12.130122802734375,0.8822357654571533,0.13723215460777283,1.0846378803253174
1757088852870078200,12.140078125,0.8189427852630615,-0.49602147936820984,1.0870115756988525
1757088852880033000,12.150032958984376,0.6871482729911804,-0.8617315292358398,0.7696236968040466
1757088852889987800,12.15998779296875,0.41437986493110657,-1.0900161266326904,0.06713376194238663
1757088852899943000,12.16994287109375,0.06961316615343094,-1.2693496942520142,-0.6089621186256409
1757088852909897200,12.179897216796874,-0.2254357784986496,-1.0594840049743652,-0.9836968779563904
1757088852919852000,12.18985205078125,-0.547909677028656,-0.803436815738678,-1.0596318244934082
1757088852929806800,12.199806884765625,-0.8154652714729309,-0.6821604371070862,-0.9600141644477844
1757088852939762000,12.209761962890624,-0.9613111019134521,-0.5255705714225769,-0.8191513419151306
1757088852949717000,12.219717041015626,-0.9512664675712585,-0.17986616492271423,-0.6843815445899963
