time,seconds_elapsed,z,y,x
1757088417483662300,0.089662353515625,7.347455978393555,-3.5822811126708984,-5.417797088623047
1757088417493215500,0.099215576171875,7.3608551025390625,-3.5727388858795166,-5.405142784118652
1757088417502768400,0.108768310546875,7.38783597946167,-3.551682949066162,-5.379055976867676
1757088417512321300,0.1183212890625,7.435825824737549,-3.5285420417785645,-5.3169050216674805
1757088417521874400,0.12787451171875,7.500164985656738,-3.5073599815368652,-5.216628074645996
1757088417531427300,0.13742724609375,7.576147079467773,-3.4722349643707275,-5.097818851470947
1757088417540980500,0.14698046875,7.662921905517578,-3.4213929176330566,-4.960054874420166
1757088417550533400,0.156533447265625,7.759735107421875,-3.3531789779663086,-4.801673889160156
1757088417560086500,0.16608642578125,7.8656158447265625,-3.266026020050049,-4.6202287673950195
1757088417569639700,0.1756396484375,7.979062080383301,-3.158850908279419,-4.413078784942627
1757088417579192600,0.185192626953125,8.097991943359375,-3.031135082244873,-4.178170204162598
1757088417588745700,0.194745849609375,8.21847152709961,-2.899419069290161,-3.8939220905303955
1757088417598298600,0.204298583984375,8.335516929626465,-2.76475191116333,-3.5614709854125977
1757088417607851800,0.213851806640625,8.449883460998535,-2.6113109588623047,-3.2028610706329346
1757088417617405000,0.223405029296875,8.560012817382812,-2.44016695022583,-2.820827007293701
1757088417626957800,0.232957763671875,8.658716201782227,-2.270220994949341,-2.397902011871338
1757088417636511000,0.242510986328125,8.743863105773926,-2.1039769649505615,-1.9386329650878906
1757088417646063900,0.25206396484375,8.814092636108398,-1.9450780153274536,-1.4474689960479736
1757088417655617000,0.261616943359375,8.868349075317383,-1.7972170114517212,-0.9282280206680298
1757088417665170200,0.271170166015625,8.905370712280273,-1.6616979837417603,-0.38349300622940063
1757088417674723000,0.28072314453125,8.9393949508667,-1.5253889560699463,0.16573700308799744
1757088417684276200,0.290276123046875,8.956440925598145,-1.3981330394744873,0.7074810266494751
1757088417693829400,0.299829345703125,8.955245018005371,-1.2813760042190552,1.2423650026321411
1757088417703382300,0.30938232421875,8.927886962890625,-1.1649609804153442,1.7482800483703613
1757088417712935200,0.31893505859375,8.879295349121094,-1.0443739891052246,2.222620964050293
1757088417722488300,0.32848828125,8.814950942993164,-0.9354150295257568,2.683811902999878
1757088417732041500,0.33804150390625,8.737114906311035,-0.8401100039482117,3.129554033279419
1757088417741594600,0.3475947265625,8.648246765136719,-0.7606239914894104,3.5560290813446045
1757088417751147500,0.3571474609375,8.534058570861816,-0.7103689908981323,3.976773977279663
1757088417760700700,0.36670068359375,8.39730453491211,-0.6930519938468933,4.3855671882629395
1757088417770253600,0.376253662109375,8.256596565246582,-0.6967869997024536,4.764986991882324
1757088417779806700,0.385806640625,8.115157127380371,-0.7048559784889221,5.094189167022705
1757088417789359900,0.39535986328125,7.976922035217285,-0.7156270146369934,5.375462055206299
1757088417798912800,0.404912841796875,7.823362827301025,-0.7544400095939636,5.646302223205566
1757088417808466000,0.4144658203125,7.653909206390381,-0.8189280033111572,5.909698963165283
1757088417818018800,0.424018798828125,7.473804950714111,-0.8892549872398376,6.147952079772949
1757088417827572000,0.433572021484375,7.305628776550293,-0.9561870098114014,6.3509907722473145
1757088417837125000,0.443125,7.151725769042969,-1.016827940940857,6.522383213043213
1757088417846678300,0.45267822265625,7.014439105987549,-1.0692750215530396,6.6646342277526855
1757088417856231200,0.462231201171875,6.895474910736084,-1.1135629415512085,6.779674053192139
1757088417865784300,0.471784423828125,6.761168003082275,-1.1737960577011108,6.899419784545898
1757088417875337500,0.48133740234375,6.618928909301758,-1.2491320371627808,7.017486095428467
1757088417884890400,0.490890380859375,6.47226619720459,-1.3415950536727905,7.129615783691406
1757088417894443500,0.500443603515625,6.32227897644043,-1.45530104637146,7.232794761657715
1757088417903996400,0.509996337890625,6.166075229644775,-1.5947070121765137,7.326173782348633
1757088417913549600,0.519549560546875,6.000095844268799,-1.7605650424957275,7.410366058349609
1757088417923102500,0.5291025390625,5.834546089172363,-1.9318979978561401,7.490518093109131
1757088417932655400,0.5386552734375,5.656146049499512,-2.122596025466919,7.566826820373535
1757088417942208500,0.54820849609375,5.484682083129883,-2.3183751106262207,7.621316909790039
1757088417951762000,0.557761962890625,5.320929050445557,-2.5155770778656006,7.656393051147461
1757088417961314800,0.567314697265625,5.154252052307129,-2.7156870365142822,7.691458225250244
1757088417970867700,0.57686767578125,4.972623825073242,-2.928689956665039,7.7246599197387695
1757088417980420900,0.5864208984375,4.778188228607178,-3.153959035873413,7.754284858703613
1757088417989974000,0.59597412109375,4.59318208694458,-3.3790090084075928,7.7646379470825195
1757088417999527000,0.60552685546875,4.427361011505127,-3.600250005722046,7.756070137023926
1757088418009080000,0.615080078125,4.273437976837158,-3.826535940170288,7.725622177124023
1757088418018633000,0.624633056640625,4.109665870666504,-4.0624680519104,7.689453125
1757088418028186000,0.63418603515625,3.9345510005950928,-4.30569314956665,7.649363040924072
1757088418037739000,0.643739013671875,3.7440578937530518,-4.555898189544678,7.605352878570557
1757088418047292200,0.653292236328125,3.542151927947998,-4.809051990509033,7.55872917175293
1757088418056845300,0.66284521484375,3.3469860553741455,-5.055200099945068,7.497276782989502
1757088418066398500,0.6723984375,3.150693893432617,-5.295709133148193,7.425293922424316
1757088418075951400,0.681951416015625,2.950355052947998,-5.529527187347412,7.344298839569092
1757088418085504500,0.69150439453125,2.746196985244751,-5.75357723236084,7.255253791809082
1757088418095057400,0.701057373046875,2.53369402885437,-5.969015121459961,7.152098178863525
1757088418104610600,0.710610595703125,2.340240001678467,-6.167434215545654,7.042688846588135
1757088418114163500,0.72016357421875,2.162564992904663,-6.367410182952881,6.925405025482178
1757088418123716600,0.729716552734375,2.0098509788513184,-6.553668022155762,6.802909851074219
1757088418133269500,0.73926953125,1.8716200590133667,-6.727919101715088,6.678773880004883
1757088418142822700,0.74882275390625,1.7401249408721924,-6.890561103820801,6.556056976318359
1757088418152375800,0.758375732421875,1.6070359945297241,-7.0520172119140625,6.43189001083374
1757088418161929000,0.767928955078125,1.485705018043518,-7.202157020568848,6.307730197906494
1757088418171481900,0.77748193359375,1.3770179748535156,-7.342061996459961,6.183950901031494
1757088418181034800,0.78703466796875,1.2790460586547852,-7.474775791168213,6.0601677894592285
1757088418190588200,0.796588134765625,1.1865290403366089,-7.6055450439453125,5.934570789337158
1757088418200141000,0.80614111328125,1.1101059913635254,-7.7270731925964355,5.808689117431641
1757088418209694200,0.815694091796875,1.051416039466858,-7.842229843139648,5.679121017456055
1757088418219247000,0.8252470703125,1.0104990005493164,-7.953588962554932,5.542574882507324
1757088418228800300,0.83480029296875,0.9904680252075195,-8.060482025146484,5.3976640701293945
1757088418238353400,0.844353515625,0.9864190220832825,-8.165942192077637,5.2418131828308105
1757088418247906600,0.853906494140625,0.998170018196106,-8.269068717956543,5.074994087219238
1757088418257459500,0.86345947265625,1.0261080265045166,-8.368703842163086,4.897850036621094
1757088418267012600,0.8730126953125,1.061640977859497,-8.46689224243164,4.706292152404785
1757088418276565500,0.8825654296875,1.1099989414215088,-8.558961868286133,4.510503768920898
1757088418286118700,0.89211865234375,1.1745339632034302,-8.639569282531738,4.319793224334717
1757088418295671600,0.901671630859375,1.2294570207595825,-8.716229438781738,4.12716817855835
1757088418305225000,0.911224853515625,1.2680859565734863,-8.790260314941406,3.932332992553711
1757088418314777900,0.92077783203125,1.294268012046814,-8.861729621887207,3.736851930618286
1757088418324330800,0.930330810546875,1.3141059875488281,-8.93079662322998,3.5420069694519043
1757088418333884000,0.9398837890625,1.3329060077667236,-8.997785568237305,3.348284959793091
1757088418343437000,0.94943701171875,1.3526190519332886,-9.063031196594238,3.1560709476470947
1757088418352990000,0.958989990234375,1.3725440502166748,-9.126755714416504,2.9658091068267822
1757088418362543000,0.968543212890625,1.391077995300293,-9.189022064208984,2.7777209281921387
1757088418372096000,0.978095947265625,1.4063589572906494,-9.249723434448242,2.5919759273529053
1757088418381649200,0.987649169921875,1.4167759418487549,-9.308480262756348,2.4090778827667236
1757088418391202000,0.9972021484375,1.4215699434280396,-9.364676475524902,2.2298669815063477
1757088418400755200,1.006755126953125,1.4208929538726807,-9.417586326599121,2.0553529262542725
1757088418410308400,1.016308349609375,1.4153790473937988,-9.466252326965332,1.8872660398483276
1757088418419861200,1.025861328125,1.398900032043457,-9.511320114135742,1.718356966972351
1757088418429414400,1.035414306640625,1.3727010488510132,-9.551773071289062,1.5535609722137451
1757088418438967600,1.044967529296875,1.3430759906768799,-9.586469650268555,1.4017850160598755
1757088418448520400,1.0545205078125,1.3106889724731445,-9.61568832397461,1.2646420001983643
1757088418458073600,1.064073486328125,1.2844879627227783,-9.636908531188965,1.1486389636993408
1757088418467626800,1.073626708984375,1.2581160068511963,-9.65449333190918,1.046138048171997
1757088418477179600,1.0831796875,1.2305279970169067,-9.669242858886719,0.9523429870605469
1757088418486732500,1.092732666015625,1.2041289806365967,-9.681222915649414,0.8652229905128479
1757088418496285700,1.10228564453125,1.1778839826583862,-9.691129684448242,0.7819229960441589
1757088418505839000,1.111839111328125,1.14936101436615,-9.699775695800781,0.7020630240440369
1757088418515391700,1.121391845703125,1.1177090406417847,-9.707737922668457,0.6241750121116638
1757088418524945000,1.13094482421875,1.0834009647369385,-9.715280532836914,0.5464010238647461
1757088418534497800,1.140497802734375,1.0474770069122314,-9.72249984741211,0.4679189920425415
1757088418544051000,1.150051025390625,1.0104939937591553,-9.72945499420166,0.3885689973831177
1757088418553604000,1.15960400390625,0.9722560048103333,-9.73617935180664,0.30840298533439636
1757088418563157200,1.1691572265625,0.9319999814033508,-9.742685317993164,0.22782200574874878
1757088418572710100,1.178710205078125,0.8890219926834106,-9.748953819274902,0.14738799631595612
1757088418582263300,1.18826318359375,0.8430129885673523,-9.754938125610352,0.06777100265026093
1757088418591816200,1.197816162109375,0.7939329743385315,-9.760586738586426,-0.010204999707639217
1757088418601369300,1.207369384765625,0.7419059872627258,-9.765859603881836,-0.08600399643182755
1757088418610922500,1.216922607421875,0.6927750110626221,-9.769283294677734,-0.14969199895858765
1757088418620475400,1.226475341796875,0.6458709836006165,-9.771513938903809,-0.20428499579429626
1757088418630028300,1.2360283203125,0.5963770151138306,-9.773576736450195,-0.25714701414108276
1757088418639581400,1.24558154296875,0.5443260073661804,-9.775524139404297,-0.30896100401878357
1757088418649134600,1.255134521484375,0.4899410009384155,-9.77739143371582,-0.360601007938385
1757088418658687700,1.264687744140625,0.4336479902267456,-9.779179573059082,-0.4129140079021454
1757088418668240600,1.27424072265625,0.38054201006889343,-9.78029727935791,-0.4627540111541748
1757088418677793800,1.283793701171875,0.3297080099582672,-9.780924797058105,-0.5082560181617737
1757088418687346700,1.2933466796875,0.28074899315834045,-9.781221389770508,-0.5477240085601807
1757088418696899800,1.30289990234375,0.23476099967956543,-9.781180381774902,-0.5829629898071289
1757088418706453000,1.312452880859375,0.19247299432754517,-9.780797958374023,-0.6152889728546143
1757088418716006100,1.322006103515625,0.15391400456428528,-9.780122756958008,-0.6452580094337463
1757088418725559000,1.33155908203125,0.11858999729156494,-9.779220581054688,-0.6735510230064392
1757088418735112000,1.34111181640625,0.08602400124073029,-9.77812671661377,-0.7008439898490906
1757088418744665000,1.3506650390625,0.05596200004220009,-9.776869773864746,-0.727226972579956
1757088418754218200,1.36021826171875,0.028456000611186028,-9.775470733642578,-0.7526429891586304
1757088418763771100,1.369771240234375,0.003425000002607703,-9.77394962310791,-0.7770860195159912
1757088418773324300,1.37932421875,-0.01939699985086918,-9.772339820861816,-0.800478994846344
1757088418782877200,1.388877197265625,-0.04033400118350983,-9.770665168762207,-0.8228930234909058
1757088418792430000,1.39843017578125,-0.05955199897289276,-9.768960952758789,-0.8442270159721375
1757088418801983500,1.4079833984375,-0.07701899856328964,-9.76723575592041,-0.8645200133323669
1757088418811536400,1.417536376953125,-0.09277399629354477,-9.765504837036133,-0.8838080167770386
1757088418821089500,1.427089599609375,-0.10686399787664413,-9.763763427734375,-0.9023000001907349
1757088418830642400,1.436642333984375,-0.11930300295352936,-9.762008666992188,-0.9202060103416443
1757088418840195600,1.446195556640625,-0.1300159990787506,-9.760223388671875,-0.9378290176391602
1757088418849748700,1.455748779296875,-0.1391340047121048,-9.758418083190918,-0.9552389979362488
1757088418859302000,1.465302001953125,-0.14695200324058533,-9.756584167480469,-0.9725620150566101
1757088418868854800,1.474854736328125,-0.15379799902439117,-9.75471305847168,-0.989952027797699
1757088418878408000,1.484407958984375,-0.15981900691986084,-9.752805709838867,-1.0074549913406372
1757088418887960800,1.4939609375,-0.16504299640655518,-9.750870704650879,-1.025061011314392
1757088418897513700,1.503513671875,-0.16942599415779114,-9.748899459838867,-1.0428440570831299
1757088418907067000,1.51306689453125,-0.17297400534152985,-9.746912002563477,-1.0606609582901
1757088418916620000,1.5226201171875,-0.1757729947566986,-9.7449312210083,-1.078341007232666
1757088418926173200,1.532173095703125,-0.1779319941997528,-9.742982864379883,-1.0956319570541382
1757088418935726000,1.54172607421875,-0.17954899370670319,-9.741094589233398,-1.112360954284668
1757088418945279200,1.551279296875,-0.180526003241539,-9.739289283752441,-1.1283320188522339
1757088418954832100,1.56083203125,-0.18071399629116058,-9.737582206726074,-1.143435001373291
1757088418964385300,1.57038525390625,-0.18025299906730652,-9.735980033874512,-1.1575939655303955
1757088418973938400,1.5799384765625,-0.17937199771404266,-9.734495162963867,-1.1707069873809814
1757088418983491300,1.5894912109375,-0.17833399772644043,-9.73310661315918,-1.1828739643096924
1757088418993044200,1.599044189453125,-0.1773259937763214,-9.731820106506348,-1.1940549612045288
1757088419002597400,1.608597412109375,-0.17652399837970734,-9.730639457702637,-1.2042020559310913
1757088419012150500,1.618150634765625,-0.1760849952697754,-9.729574203491211,-1.2132420539855957
1757088419021703400,1.627703369140625,-0.17610299587249756,-9.728628158569336,-1.2211339473724365
1757088419031256600,1.637256591796875,-0.1766899973154068,-9.727802276611328,-1.2278460264205933
1757088419040809700,1.646809814453125,-0.17782799899578094,-9.727090835571289,-1.2334710359573364
1757088419050362600,1.656362548828125,-0.17945200204849243,-9.726491928100586,-1.238049030303955
1757088419059915800,1.665915771484375,-0.18146400153636932,-9.726022720336914,-1.2414649724960327
1757088419069469000,1.675468994140625,-0.18382400274276733,-9.725679397583008,-1.2438030242919922
1757088419079021800,1.685021728515625,-0.18655399978160858,-9.725446701049805,-1.2451790571212769
1757088419088574700,1.69457470703125,-0.1897979974746704,-9.72532844543457,-1.2455389499664307
1757088419098128100,1.704128173828125,-0.19371899962425232,-9.725305557250977,-1.245041012763977
1757088419107681000,1.713680908203125,-0.19831399619579315,-9.725348472595215,-1.2439039945602417
1757088419117234200,1.723234130859375,-0.20341500639915466,-9.725442886352539,-1.2422549724578857
1757088419126787000,1.732787109375,-0.20878300070762634,-9.725577354431152,-1.2402360439300537
1757088419136340200,1.74234033203125,-0.21432900428771973,-9.72574234008789,-1.2379399538040161
1757088419145893400,1.751893310546875,-0.21999900043010712,-9.725927352905273,-1.235448956489563
1757088419155446300,1.7614462890625,-0.22564099729061127,-9.726157188415527,-1.232627034187317
1757088419164999400,1.77099951171875,-0.23118799924850464,-9.726434707641602,-1.2294219732284546
1757088419174552300,1.78055224609375,-0.23650500178337097,-9.726757049560547,-1.2258960008621216
1757088419184105500,1.79010546875,-0.24158699810504913,-9.72709846496582,-1.2222620248794556
1757088419193658400,1.799658447265625,-0.24652999639511108,-9.727410316467285,-1.218858003616333
1757088419203211500,1.80921142578125,-0.25141099095344543,-9.727665901184082,-1.2158910036087036
1757088419212764700,1.8187646484375,-0.25617000460624695,-9.727872848510742,-1.213297963142395
1757088419222317600,1.828317626953125,-0.26046499609947205,-9.728062629699707,-1.210927963256836
1757088419231870700,1.83787060546875,-0.26416200399398804,-9.728257179260254,-1.2086230516433716
1757088419241423600,1.847423583984375,-0.2674489915370941,-9.728476524353027,-1.2061779499053955
1757088419250976800,1.856976806640625,-0.270550012588501,-9.728710174560547,-1.2036470174789429
1757088419260529700,1.86652978515625,-0.2735379934310913,-9.728937149047852,-1.2011690139770508
1757088419270082800,1.876082763671875,-0.2763969898223877,-9.729151725769043,-1.1988099813461304
1757088419279636000,1.885635986328125,-0.2791360020637512,-9.729337692260742,-1.196694016456604
1757088419289188900,1.89518896484375,-0.2817789912223816,-9.729487419128418,-1.1948729753494263
1757088419298742000,1.904741943359375,-0.28423699736595154,-9.729597091674805,-1.1934059858322144
1757088419308295000,1.914294921875,-0.28644099831581116,-9.72965145111084,-1.1924409866333008
1757088419317848000,1.92384814453125,-0.28830501437187195,-9.729649543762207,-1.1919989585876465
1757088419327401200,1.933401123046875,-0.2899610102176666,-9.729583740234375,-1.1921390295028687
1757088419336954000,1.9429541015625,-0.2916559875011444,-9.729464530944824,-1.1926850080490112
1757088419346507000,1.952507080078125,-0.2934210002422333,-9.729291915893555,-1.193673014640808
1757088419356060400,1.962060302734375,-0.2952449917793274,-9.72905158996582,-1.1951849460601807
1757088419365613300,1.97161328125,-0.29719600081443787,-9.728771209716797,-1.196998953819275
1757088419375166500,1.98116650390625,-0.29920899868011475,-9.728486061096191,-1.1988359689712524
1757088419384719400,1.99071923828125,-0.3010289967060089,-9.728231430053711,-1.2004660367965698
1757088419394272500,2.0002724609375,-0.3023270070552826,-9.728022575378418,-1.2018389701843262
1757088419403825700,2.00982568359375,-0.3032059967517853,-9.727842330932617,-1.2030739784240723
1757088419413378800,2.01937890625,-0.304067999124527,-9.727668762207031,-1.2042549848556519
1757088419422931700,2.028931640625,-0.3050349950790405,-9.72746467590332,-1.205659031867981
1757088419432484600,2.038484619140625,-0.3058289885520935,-9.727205276489258,-1.2075350284576416
1757088419442037800,2.048037841796875,-0.3062190115451813,-9.726906776428223,-1.209831953048706
1757088419451591000,2.0575908203125,-0.3062739968299866,-9.726581573486328,-1.2124249935150146
1757088419461144000,2.06714404296875,-0.30623701214790344,-9.726234436035156,-1.2152090072631836
1757088419470697000,2.076697021484375,-0.3060309886932373,-9.725868225097656,-1.2181810140609741
1757088419480249900,2.086249755859375,-0.3055349886417389,-9.725489616394043,-1.221318006515503
1757088419489803000,2.095802978515625,-0.30482399463653564,-9.72508716583252,-1.2246819734573364
1757088419499356200,2.105356201171875,-0.3038710057735443,-9.724652290344238,-1.228337049484253
1757088419508909300,2.114909423828125,-0.3027400076389313,-9.724180221557617,-1.2322829961776733
1757088419518462200,2.124462158203125,-0.30160799622535706,-9.723684310913086,-1.2364139556884766
1757088419528015400,2.134015380859375,-0.3003920018672943,-9.723161697387695,-1.2407499551773071
1757088419537568300,2.143568359375,-0.2990019917488098,-9.722610473632812,-1.245332956314087
1757088419547121400,2.153121337890625,-0.29742199182510376,-9.722047805786133,-1.2500410079956055
1757088419556674600,2.162674560546875,-0.2956480085849762,-9.721468925476074,-1.2549079656600952
1757088419566227500,2.1722275390625,-0.29376500844955444,-9.720867156982422,-1.2599740028381348
1757088419575780600,2.181780517578125,-0.29176199436187744,-9.720251083374023,-1.2651599645614624
1757088419585333500,2.19133349609375,-0.2897160053253174,-9.71964168548584,-1.2702950239181519
1757088419594886400,2.200886474609375,-0.28766098618507385,-9.719063758850098,-1.2751890420913696
1757088419604439600,2.210439453125,-0.2856360077857971,-9.718526840209961,-1.2797579765319824
1757088419613992700,2.21999267578125,-0.28372499346733093,-9.718049049377441,-1.2838599681854248
1757088419623545900,2.2295458984375,-0.28213199973106384,-9.717626571655273,-1.2874560356140137
1757088419633098800,2.2390986328125,-0.28106099367141724,-9.717239379882812,-1.2906570434570312
1757088419642651600,2.248651611328125,-0.28063100576400757,-9.716870307922363,-1.2935839891433716
1757088419652204800,2.258204833984375,-0.280784010887146,-9.716509819030762,-1.2963030338287354
1757088419661758000,2.267758056640625,-0.28155800700187683,-9.716175079345703,-1.2986780405044556
1757088419671311000,2.27731103515625,-0.2829029858112335,-9.715896606445312,-1.3004770278930664
1757088419680864000,2.286864013671875,-0.28470098972320557,-9.715691566467285,-1.3015999794006348
1757088419690417000,2.2964169921875,-0.2870219945907593,-9.715583801269531,-1.3018369674682617
1757088419699970000,2.305969970703125,-0.28991299867630005,-9.715568542480469,-1.3012330532073975
1757088419709523200,2.315523193359375,-0.2931729853153229,-9.715625762939453,-1.2999839782714844
1757088419719076400,2.325076416015625,-0.29663199186325073,-9.715737342834473,-1.2982759475708008
1757088419728629200,2.334629150390625,-0.3004100024700165,-9.71589183807373,-1.2961690425872803
1757088419738182100,2.34418212890625,-0.3044910132884979,-9.71607780456543,-1.293766975402832
1757088419747735300,2.3537353515625,-0.3087199926376343,-9.716276168823242,-1.291232943534851
1757088419757288400,2.363288330078125,-0.31284499168395996,-9.716510772705078,-1.288457989692688
1757088419766841600,2.372841552734375,-0.3171460032463074,-9.71678352355957,-1.285364031791687
1757088419776394500,2.38239453125,-0.32203200459480286,-9.717035293579102,-1.282263994216919
1757088419785947400,2.391947509765625,-0.3277449905872345,-9.71721076965332,-1.2795289754867554
1757088419795500500,2.40150048828125,-0.3348050117492676,-9.71727180480957,-1.277217984199524
1757088419805053700,2.4110537109375,-0.34384000301361084,-9.717187881469727,-1.2753360271453857
1757088419814606800,2.42060693359375,-0.3550969958305359,-9.71691608428955,-1.274021029472351
1757088419824159700,2.43015966796875,-0.3683989942073822,-9.716421127319336,-1.2734899520874023
1757088419833713000,2.439712890625,-0.38315901160240173,-9.715682029724121,-1.274042010307312
1757088419843265800,2.449265869140625,-0.39886000752449036,-9.714712142944336,-1.2757359743118286
1757088419852818700,2.458818603515625,-0.41505300998687744,-9.713499069213867,-1.2788079977035522
1757088419862371800,2.468371826171875,-0.43143001198768616,-9.712020874023438,-1.2835520505905151
1757088419871925000,2.477925048828125,-0.44808900356292725,-9.710287094116211,-1.28985595703125
1757088419881478100,2.48747802734375,-0.46530601382255554,-9.708295822143555,-1.297597050666809
1757088419891031000,2.497031005859375,-0.4835059940814972,-9.705995559692383,-1.3068879842758179
1757088419900584000,2.506583984375,-0.5031219720840454,-9.703323364257812,-1.3178980350494385
1757088419910137000,2.51613720703125,-0.5244600176811218,-9.700261116027832,-1.3305399417877197
1757088419919690200,2.525690185546875,-0.5475130081176758,-9.696744918823242,-1.3451379537582397
1757088419929243400,2.535243408203125,-0.5723909735679626,-9.692752838134766,-1.36170494556427
1757088419938796300,2.54479638671875,-0.5997650027275085,-9.688207626342773,-1.380213975906372
1757088419948349400,2.554349365234375,-0.6310520172119141,-9.682930946350098,-1.4008619785308838
1757088419957902300,2.56390234375,-0.6678779721260071,-9.67671012878418,-1.4234930276870728
1757088419967455500,2.57345556640625,-0.7118080258369446,-9.669322967529297,-1.447571039199829
1757088419977008600,2.583008544921875,-0.7636640071868896,-9.660601615905762,-1.4723559617996216
1757088419986561500,2.5925615234375,-0.8229889869689941,-9.650300979614258,-1.4983099699020386
1757088419996114400,2.602114501953125,-0.8883029818534851,-9.638364791870117,-1.5257569551467896
1757088420005667600,2.61166748046875,-0.9590259790420532,-9.624811172485352,-1.55417799949646
1757088420015220700,2.621220703125,-1.035377025604248,-9.609515190124512,-1.58331298828125
1757088420024774000,2.63077392578125,-1.1178900003433228,-9.592377662658691,-1.612597942352295
1757088420034326800,2.640326904296875,-1.2066190242767334,-9.572552680969238,-1.6456639766693115
1757088420043880000,2.6498798828125,-1.3009430170059204,-9.54991626739502,-1.6832770109176636
1757088420053432800,2.659432861328125,-1.400136947631836,-9.524454116821289,-1.7258670330047607
1757088420062986000,2.668986083984375,-1.5033730268478394,-9.496426582336426,-1.7727760076522827
1757088420072539100,2.6785390625,-1.610556960105896,-9.466156005859375,-1.8223340511322021
1757088420082092000,2.688092041015625,-1.722208023071289,-9.433920860290527,-1.8721519708633423
1757088420091645000,2.69764501953125,-1.8389619588851929,-9.399868965148926,-1.920130968093872
1757088420101198000,2.707197998046875,-1.9624860286712646,-9.363840103149414,-1.9640849828720093
1757088420110751200,2.716751220703125,-2.0933730602264404,-9.325874328613281,-2.0022220611572266
1757088420120304400,2.726304443359375,-2.2313530445098877,-9.28599739074707,-2.0338571071624756
1757088420129857300,2.735857177734375,-2.3769290447235107,-9.243799209594727,-2.0579659938812256
1757088420139410200,2.74541015625,-2.5291121006011963,-9.198779106140137,-2.0754079818725586
1757088420148963300,2.75496337890625,-2.6862549781799316,-9.150209426879883,-2.088632106781006
1757088420158516500,2.7645166015625,-2.84529709815979,-9.097951889038086,-2.100774049758911
1757088420168069400,2.7740693359375,-3.00622296333313,-9.041172981262207,-2.1128571033477783
1757088420177622500,2.78362255859375,-3.1695749759674072,-8.979562759399414,-2.123764991760254
1757088420187175700,2.79317578125,-3.336113929748535,-8.913009643554688,-2.1323840618133545
1757088420196728600,2.802728515625,-3.5027899742126465,-8.842924118041992,-2.140532970428467
1757088420206281500,2.812281494140625,-3.6700849533081055,-8.769206047058105,-2.146665096282959
1757088420215834600,2.821834716796875,-3.8359649181365967,-8.693056106567383,-2.1511590480804443
1757088420225387800,2.8313876953125,-3.9994659423828125,-8.616456985473633,-2.1489479541778564
1757088420234940700,2.840940673828125,-4.161549091339111,-8.539419174194336,-2.139324903488159
1757088420244493800,2.850493896484375,-4.323790073394775,-8.461739540100098,-2.1206390857696533
1757088420254046700,2.860046630859375,-4.486433982849121,-8.383855819702148,-2.0920729637145996
1757088420263599900,2.869599853515625,-4.650150775909424,-8.304620742797852,-2.0556459426879883
1757088420273153000,2.879153076171875,-4.815464973449707,-8.222517967224121,-2.013200044631958
1757088420282706000,2.888705810546875,-4.981863021850586,-8.136531829833984,-1.967628002166748
1757088420292259000,2.898259033203125,-5.146499156951904,-8.047389030456543,-1.9216010570526123
1757088420301812000,2.90781201171875,-5.307840824127197,-7.955699920654297,-1.8770389556884766
1757088420311365000,2.917365234375,-5.465073108673096,-7.8621649742126465,-1.8349640369415283
1757088420320918000,2.92691796875,-5.6161789894104,-7.767920970916748,-1.797050952911377
1757088420330471200,2.93647119140625,-5.762146949768066,-7.671858787536621,-1.7643959522247314
1757088420340024300,2.9460244140625,-5.904078006744385,-7.572915077209473,-1.7368299961090088
1757088420349577200,2.9555771484375,-6.042367935180664,-7.471452236175537,-1.7136319875717163
1757088420359130400,2.96513037109375,-6.175113201141357,-7.368477821350098,-1.6962419748306274
1757088420368683500,2.97468359375,-6.30242919921875,-7.263298988342285,-1.6851439476013184
1757088420378236400,2.984236328125,-6.424933910369873,-7.155407905578613,-1.6794430017471313
1757088420387789600,2.99378955078125,-6.546782970428467,-7.042864799499512,-1.6743930578231812
1757088420397342500,3.003342529296875,-6.667174816131592,-6.927104949951172,-1.667173981666565
1757088420406895600,3.0128955078125,-6.786985874176025,-6.809368133544922,-1.6537050008773804
1757088420416448800,3.02244873046875,-6.906415939331055,-6.690347194671631,-1.633239984512329
1757088420426001700,3.032001708984375,-7.0246782302856445,-6.571046829223633,-1.6053739786148071
1757088420435554800,3.041554931640625,-7.141106128692627,-6.451138019561768,-1.5729930400848389
1757088420445107700,3.051107666015625,-7.256758213043213,-6.328304767608643,-1.5401250123977661
1757088420454660600,3.06066064453125,-7.371057033538818,-6.202201843261719,-1.5090670585632324
1757088420464213800,3.0702138671875,-7.48236608505249,-6.0738091468811035,-1.4819090366363525
1757088420473767000,3.079766845703125,-7.589921951293945,-5.944001197814941,-1.458556056022644
1757088420483320000,3.089320068359375,-7.694347858428955,-5.812490940093994,-1.4394810199737549
1757088420492873000,3.098873046875,-7.796582221984863,-5.678343772888184,-1.424612045288086
1757088420502426000,3.108426025390625,-7.897014141082764,-5.5415239334106445,-1.4144530296325684
1757088420511979000,3.11797900390625,-7.9966139793396,-5.401155948638916,-1.4076600074768066
1757088420521532200,3.1275322265625,-8.093711853027344,-5.260150909423828,-1.400473952293396
1757088420531085300,3.137085205078125,-8.186842918395996,-5.120872974395752,-1.3900330066680908
1757088420540638200,3.14663818359375,-8.276527404785156,-4.9839091300964355,-1.373129963874817
1757088420550191000,3.156191162109375,-8.363036155700684,-4.850650787353516,-1.3463109731674194
1757088420559744300,3.165744140625,-8.44526195526123,-4.723319053649902,-1.3089220523834229
1757088420569297400,3.17529736328125,-8.52290153503418,-4.601515769958496,-1.263535976409912
1757088420578850600,3.1848505859375,-8.595071792602539,-4.485529899597168,-1.2141040563583374
1757088420588403500,3.194403564453125,-8.661836624145508,-4.374262809753418,-1.165194034576416
1757088420597956600,3.20395654296875,-8.72414779663086,-4.265602111816406,-1.120602011680603
1757088420607509500,3.213509521484375,-8.783316612243652,-4.157043933868408,-1.0824249982833862
1757088420617062700,3.223062744140625,-8.84032917022705,-4.0468831062316895,-1.0518059730529785
1757088420626615600,3.232615478515625,-8.895455360412598,-3.93511700630188,-1.027258038520813
1757088420636168700,3.242168701171875,-8.947351455688477,-3.8257219791412354,-1.007112979888916
1757088420645721600,3.2517216796875,-8.995580673217773,-3.7204959392547607,-0.9891279935836792
1757088420655274800,3.261274658203125,-9.040459632873535,-3.6192779541015625,-0.9717940092086792
1757088420664827600,3.27082763671875,-9.082529067993164,-3.521294116973877,-0.9532189965248108
1757088420674380800,3.280380859375,-9.121925354003906,-3.4271459579467773,-0.9325339794158936
1757088420683933700,3.28993359375,-9.158809661865234,-3.336729049682617,-0.9088190197944641
1757088420693486800,3.29948681640625,-9.193719863891602,-3.24944806098938,-0.8813409805297852
1757088420703040000,3.3090400390625,-9.226510047912598,-3.1658411026000977,-0.8505319952964783
1757088420712593000,3.318593017578125,-9.25750732421875,-3.0849499702453613,-0.8182029724121094
1757088420722146300,3.328146240234375,-9.286856651306152,-3.0062789916992188,-0.7852380275726318
1757088420731699200,3.33769921875,-9.314717292785645,-2.929244041442871,-0.7525039911270142
1757088420741252000,3.347252197265625,-9.341455459594727,-2.852742910385132,-0.7212550044059753
1757088420750805200,3.35680517578125,-9.367280006408691,-2.776315927505493,-0.692255973815918
1757088420760358100,3.366358154296875,-9.391833305358887,-2.701323986053467,-0.6645600199699402
1757088420769911000,3.3759111328125,-9.415035247802734,-2.628519058227539,-0.637116014957428
1757088420779464200,3.385464111328125,-9.436909675598145,-2.558072090148926,-0.6099780201911926
1757088420789017300,3.395017333984375,-9.457551002502441,-2.489582061767578,-0.5847949981689453
1757088420798570500,3.404570556640625,-9.476791381835938,-2.4233460426330566,-0.5629950165748596
1757088420808123400,3.414123291015625,-9.494476318359375,-2.3602209091186523,-0.5436949729919434
1757088420817676500,3.423676513671875,-9.510480880737305,-2.3009140491485596,-0.5266749858856201
1757088420827229400,3.4332294921875,-9.525636672973633,-2.243316888809204,-0.5109090209007263
1757088420836782600,3.442782470703125,-9.540101051330566,-2.1873810291290283,-0.4954639971256256
1757088420846335700,3.452335693359375,-9.553680419921875,-2.134028911590576,-0.4801509976387024
1757088420855888600,3.461888671875,-9.566076278686523,-2.084212064743042,-0.4657230079174042
1757088420865441800,3.47144189453125,-9.577615737915039,-2.0368850231170654,-0.4519670009613037
1757088420874994700,3.48099462890625,-9.588205337524414,-1.9922759532928467,-0.43940600752830505
1757088420884547800,3.4905478515625,-9.597919464111328,-1.950348973274231,-0.42735299468040466
1757088420894100700,3.500100830078125,-9.606847763061523,-1.9109519720077515,-0.4156630039215088
1757088420903654000,3.50965380859375,-9.615119934082031,-1.873568058013916,-0.40429699420928955
1757088420913206800,3.519206787109375,-9.622900009155273,-1.8373440504074097,-0.39294201135635376
1757088420922760000,3.528760009765625,-9.63043212890625,-1.8008110523223877,-0.3812069892883301
1757088420932312800,3.538312744140625,-9.637922286987305,-1.7625889778137207,-0.36917799711227417
1757088420941866000,3.547865966796875,-9.645488739013672,-1.7217849493026733,-0.35738199949264526
1757088420951419100,3.557419189453125,-9.653193473815918,-1.677564024925232,-0.3467470109462738
1757088420960972000,3.566971923828125,-9.66098690032959,-1.6300239562988281,-0.3386000096797943
1757088420970525200,3.576525146484375,-9.66881275177002,-1.5797840356826782,-0.33229300379753113
1757088420980078000,3.586078125,-9.676532745361328,-1.5282939672470093,-0.32649898529052734
1757088420989631000,3.595630859375,-9.684064865112305,-1.4767329692840576,-0.3187040090560913
1757088420999184100,3.60518408203125,-9.69137191772461,-1.4257429838180542,-0.30790698528289795
1757088421008737300,3.6147373046875,-9.698417663574219,-1.375946044921875,-0.29463499784469604
1757088421018290200,3.624290283203125,-9.705201148986816,-1.327517032623291,-0.2802810072898865
1757088421027843300,3.63384326171875,-9.711809158325195,-1.2797470092773438,-0.2658660113811493
1757088421037396200,3.643396240234375,-9.718354225158691,-1.2318929433822632,-0.2508470118045807
1757088421046949400,3.652949462890625,-9.724859237670898,-1.1837430000305176,-0.23494400084018707
1757088421056502500,3.66250244140625,-9.73129653930664,-1.1353909969329834,-0.21791300177574158
1757088421066055400,3.672055419921875,-9.737611770629883,-1.087162971496582,-0.19983899593353271
1757088421075608600,3.681608642578125,-9.743764877319336,-1.0393249988555908,-0.18139499425888062
1757088421085161700,3.69116162109375,-9.749750137329102,-0.9920070171356201,-0.162555992603302
1757088421094714600,3.700714599609375,-9.755504608154297,-0.9456459879875183,-0.14256800711154938
1757088421104267500,3.710267578125,-9.760826110839844,-0.9015870094299316,-0.12118999660015106
1757088421113820700,3.719820556640625,-9.765434265136719,-0.8616880178451538,-0.0989300012588501
1757088421123373800,3.729373779296875,-9.769174575805664,-0.8274530172348022,-0.07669399678707123
1757088421132926700,3.7389267578125,-9.772043228149414,-0.7995110154151917,-0.054531000554561615
1757088421142480000,3.74847998046875,-9.774054527282715,-0.7783960103988647,-0.03161599859595299
1757088421152032800,3.75803271484375,-9.775374412536621,-0.7633240222930908,-0.007259000092744827
1757088421161586000,3.7675859375,-9.776165008544922,-0.753184974193573,0.01772500015795231
1757088421171138800,3.777138916015625,-9.776627540588379,-0.7463930249214172,0.043014999479055405
1757088421180692000,3.78669189453125,-9.776885986328125,-0.7414849996566772,0.06743600219488144
1757088421190245000,3.7962451171875,-9.777037620544434,-0.7373149991035461,0.08991900086402893
1757088421199798000,3.805798095703125,-9.777170181274414,-0.7330780029296875,0.1109820008277893
1757088421209351200,3.81535107421875,-9.777318954467773,-0.7285259962081909,0.13190600275993347
1757088421218904000,3.824904052734375,-9.777467727661133,-0.7238140106201172,0.15315699577331543
1757088421228457200,3.834457275390625,-9.777580261230469,-0.719107985496521,0.1746249943971634
1757088421238010000,3.844010009765625,-9.777610778808594,-0.7148600220680237,0.19612500071525574
1757088421247563300,3.853563232421875,-9.777527809143066,-0.7113710045814514,0.21758100390434265
1757088421257116400,3.863116455078125,-9.77734088897705,-0.7084439992904663,0.2392289936542511
1757088421266669600,3.872669677734375,-9.777048110961914,-0.7058560252189636,0.26162201166152954
1757088421276222500,3.882222412109375,-9.776683807373047,-0.7031090259552002,0.2843729853630066
1757088421285775600,3.891775634765625,-9.776276588439941,-0.69999098777771,0.3064579963684082
1757088421295328500,3.90132861328125,-9.775880813598633,-0.6959779858589172,0.32720398902893066
1757088421304881700,3.910881591796875,-9.775553703308105,-0.6907250285148621,0.34612900018692017
1757088421314434600,3.9204345703125,-9.775313377380371,-0.6838420033454895,0.3640750050544739
1757088421323987700,3.92998779296875,-9.775172233581543,-0.6752619743347168,0.3813750147819519
1757088421333540600,3.93954052734375,-9.775126457214355,-0.6652089953422546,0.39792099595069885
1757088421343093800,3.94909375,-9.77515697479248,-0.6543430089950562,0.41350001096725464
1757088421352646700,3.958646728515625,-9.775205612182617,-0.6450740098953247,0.42700299620628357
1757088421362199800,3.96819970703125,-9.775028228759766,-0.638979971408844,0.4408459961414337
1757088421371753000,3.9777529296875,-9.774548530578613,-0.6345279812812805,0.45757800340652466
1757088421381305900,3.987305908203125,-9.773773193359375,-0.6319159865379333,0.47664400935173035
1757088421390859000,3.99685888671875,-9.772706031799316,-0.6320109963417053,0.49706000089645386
1757088421400412000,4.006411865234375,-9.771400451660156,-0.6353830099105835,0.5173010230064392
1757088421409965000,4.015965087890625,-9.769832611083984,-0.642096996307373,0.5373650193214417
1757088421419518000,4.02551806640625,-9.768067359924316,-0.6515030264854431,0.5567740201950073
1757088421429071000,4.035071044921875,-9.766310691833496,-0.6613669991493225,0.5751209855079651
1757088421438624000,4.0446240234375,-9.764764785766602,-0.6697070002555847,0.5918750166893005
1757088421448177200,4.05417724609375,-9.763525009155273,-0.6755579710006714,0.6066179871559143
1757088421457730000,4.06372998046875,-9.762557029724121,-0.6792269945144653,0.619172990322113
1757088421467283200,4.073283203125,-9.761754989624023,-0.6817269921302795,0.6300079822540283
1757088421476836400,4.08283642578125,-9.761041641235352,-0.6837090253829956,0.6396809816360474
1757088421486389200,4.09238916015625,-9.760408401489258,-0.6852279901504517,0.6483830213546753
1757088421495942400,4.1019423828125,-9.759862899780273,-0.6856759786605835,0.6565830111503601
1757088421505495600,4.11149560546875,-9.759422302246094,-0.6849269866943359,0.664089024066925
1757088421515048400,4.12104833984375,-9.75908374786377,-0.6838420033454895,0.6702759861946106
1757088421524601600,4.1306015625,-9.758806228637695,-0.683555006980896,0.6748359799385071
1757088421534154500,4.140154541015625,-9.758566856384277,-0.6843770146369934,0.6778659820556641
1757088421543707400,4.149707275390625,-9.758404731750488,-0.6841670274734497,0.6807519793510437
1757088421553260800,4.1592607421875,-9.758530616760254,-0.6814789772033691,0.6814960241317749
1757088421562813700,4.168813720703125,-9.75898265838623,-0.6780539751052856,0.6777999997138977
1757088421572366800,4.178366943359375,-9.759725570678711,-0.6736090183258057,0.6706399917602539
1757088421581919700,4.187919677734375,-9.760770797729492,-0.6668639779090881,0.6613280177116394
1757088421591472600,4.19747265625,-9.762075424194336,-0.6569560170173645,0.65140700340271
1757088421601025800,4.20702587890625,-9.763666152954102,-0.6437680125236511,0.6408600211143494
1757088421610578700,4.21657861328125,-9.765482902526855,-0.6282449960708618,0.6295250058174133
1757088421620131800,4.2261318359375,-9.767327308654785,-0.6127219796180725,0.6175540089607239
1757088421629685000,4.23568505859375,-9.76899528503418,-0.599141001701355,0.6055949926376343
1757088421639238000,4.24523779296875,-9.770383834838867,-0.5883899927139282,0.5943260192871094
1757088421648791000,4.254791015625,-9.7715425491333,-0.5800139904022217,0.5838549733161926
1757088421658344000,4.264343994140625,-9.772577285766602,-0.5729479789733887,0.573872983455658
1757088421667897000,4.27389697265625,-9.773571968078613,-0.5663740038871765,0.5639219880104065
1757088421677450200,4.2834501953125,-9.774534225463867,-0.5603190064430237,0.5538510084152222
1757088421687003100,4.293003173828125,-9.775430679321289,-0.55560702085495,0.543412983417511
1757088421696556000,4.30255615234375,-9.776247024536133,-0.5525019764900208,0.5327770113945007
1757088421706109200,4.312109130859375,-9.77698802947998,-0.5499979853630066,0.5227050185203552
1757088421715662000,4.321662109375,-9.77769660949707,-0.5467919707298279,0.5136070251464844
1757088421725215200,4.33121533203125,-9.778390884399414,-0.542140007019043,0.5058910250663757
1757088421734768400,4.340768310546875,-9.779067039489746,-0.5360109806060791,0.49975600838661194
1757088421744321300,4.3503212890625,-9.779704093933105,-0.5286409854888916,0.4954090118408203
1757088421753874400,4.35987451171875,-9.780294418334961,-0.5204560160636902,0.4926519989967346
1757088421763427300,4.36942724609375,-9.7808198928833,-0.5120559930801392,0.49115198850631714
1757088421772980200,4.378980224609375,-9.781274795532227,-0.5038040280342102,0.4906559884548187
1757088421782533400,4.388533447265625,-9.781664848327637,-0.49566400051116943,0.49104800820350647
1757088421792086500,4.39808642578125,-9.782002449035645,-0.48765701055526733,0.49214300513267517
1757088421801639700,4.4076396484375,-9.782280921936035,-0.4797089993953705,0.4941850006580353
1757088421811192600,4.417192626953125,-9.782524108886719,-0.4714930057525635,0.4971359968185425
1757088421820745500,4.426745361328125,-9.782743453979492,-0.46277299523353577,0.5009750127792358
1757088421830299000,4.436298828125,-9.782940864562988,-0.45373499393463135,0.5053830146789551
1757088421839851800,4.445851806640625,-9.783136367797852,-0.4445059895515442,0.5098329782485962
1757088421849404700,4.45540478515625,-9.78331184387207,-0.43553999066352844,0.5142319798469543
1757088421858957800,4.464957763671875,-9.783446311950684,-0.42715200781822205,0.5187259912490845
1757088421868510700,4.4745107421875,-9.78352165222168,-0.41962099075317383,0.5234469771385193
1757088421878063600,4.484063720703125,-9.783540725708008,-0.4129680097103119,0.528423011302948
1757088421887616800,4.49361669921875,-9.783506393432617,-0.4069859981536865,0.5337499976158142
1757088421897170000,4.503169921875,-9.783422470092773,-0.4014410078525543,0.5395410060882568
1757088421906722800,4.512722900390625,-9.783287048339844,-0.39657801389694214,0.545628011226654
1757088421916276000,4.52227587890625,-9.783100128173828,-0.3926819860935211,0.5518779754638672
1757088421925829000,4.5318291015625,-9.782873153686523,-0.38977399468421936,0.5580450296401978
1757088421935382000,4.541382080078125,-9.782625198364258,-0.38786399364471436,0.5638459920883179
1757088421944935200,4.55093505859375,-9.782329559326172,-0.3868429958820343,0.569703996181488
1757088421954488000,4.560488037109375,-9.781988143920898,-0.38675400614738464,0.5756170153617859
1757088421964041200,4.570041259765625,-9.781597137451172,-0.38776499032974243,0.5815100073814392
1757088421973594000,4.579593994140625,-9.781142234802246,-0.3899790048599243,0.5875269770622253
1757088421983147000,4.58914697265625,-9.780619621276855,-0.3934130072593689,0.5937209725379944
1757088421992700200,4.5987001953125,-9.780050277709961,-0.398050993680954,0.5997830033302307
1757088422002253300,4.60825341796875,-9.779460906982422,-0.4036549925804138,0.605400025844574
1757088422011806200,4.61780615234375,-9.778885841369629,-0.41032400727272034,0.6099550127983093
1757088422021359400,4.627359375,-9.77834701538086,-0.41794198751449585,0.613165020942688
1757088422030912300,4.636912353515625,-9.777844429016113,-0.4263319969177246,0.6151710152626038
1757088422040465400,4.64646533203125,-9.77737045288086,-0.4353879988193512,0.6161329746246338
1757088422050018300,4.656018310546875,-9.776915550231934,-0.44495999813079834,0.6163150072097778
1757088422059571500,4.665571533203125,-9.776469230651855,-0.45511800050735474,0.6157730221748352
1757088422069124600,4.67512451171875,-9.776045799255371,-0.465364009141922,0.6146600246429443
1757088422078677500,4.684677490234375,-9.775663375854492,-0.4756999909877777,0.6126829981803894
1757088422088230400,4.69423046875,-9.775334358215332,-0.4863699972629547,0.6094499826431274
1757088422097783600,4.703783447265625,-9.775064468383789,-0.4970490038394928,0.6050339937210083
1757088422107336700,4.713336669921875,-9.774873733520508,-0.5072429776191711,0.5995230078697205
1757088422116889900,4.722889892578125,-9.774754524230957,-0.5168269872665405,0.5931119918823242
1757088422126442800,4.73244287109375,-9.774698257446289,-0.525767982006073,0.5860059857368469
1757088422135995600,4.74199560546875,-9.77471923828125,-0.5341669917106628,0.5778430104255676
1757088422145548800,4.751548828125,-9.774820327758789,-0.5419020056724548,0.5687459707260132
1757088422155101700,4.761101806640625,-9.774991035461426,-0.5488079786300659,0.5589799880981445
1757088422164654800,4.77065478515625,-9.775243759155273,-0.5548610091209412,0.5484769940376282
1757088422174208000,4.7802080078125,-9.7755765914917,-0.5600489974021912,0.5372490286827087
1757088422183761000,4.789760986328125,-9.77597713470459,-0.5642489790916443,0.5256310105323792
1757088422193313800,4.799313720703125,-9.77641773223877,-0.5676429867744446,0.513949990272522
1757088422202867000,4.808866943359375,-9.776885986328125,-0.5700640082359314,0.5024809837341309
1757088422212420000,4.818420166015625,-9.777381896972656,-0.5714750289916992,0.49135199189186096
1757088422221973200,4.82797314453125,-9.77786922454834,-0.5723599791526794,0.48070400953292847
1757088422231526100,4.837526123046875,-9.778358459472656,-0.572704017162323,0.4704830050468445
1757088422241079000,4.8470791015625,-9.778868675231934,-0.5723729729652405,0.4604929983615875
1757088422250632200,4.856632080078125,-9.779417037963867,-0.571025013923645,0.450778990983963
1757088422260185300,4.866185302734375,-9.779995918273926,-0.5689520239830017,0.44121599197387695
1757088422269738200,4.87573828125,-9.780583381652832,-0.5662959814071655,0.43202799558639526
1757088422279291400,4.88529150390625,-9.78115177154541,-0.5631920099258423,0.42366498708724976
1757088422288844300,4.89484423828125,-9.781686782836914,-0.5598070025444031,0.41624799370765686
1757088422298397200,4.904397216796875,-9.782169342041016,-0.5564010143280029,0.4099160134792328
1757088422307950300,4.913950439453125,-9.782583236694336,-0.5532870292663574,0.40470200777053833
1757088422317503500,4.92350341796875,-9.782918930053711,-0.550570011138916,0.4006890058517456
1757088422327056600,4.933056640625,-9.783173561096191,-0.5483030080795288,0.39793500304222107
1757088422336609500,4.942609619140625,-9.783344268798828,-0.5465390086174011,0.39638298749923706
1757088422346162400,4.952162353515625,-9.78343391418457,-0.5453479886054993,0.3959290087223053
1757088422355715600,4.961715576171875,-9.78344440460205,-0.5447630286216736,0.396463006734848
1757088422365268500,4.9712685546875,-9.783367156982422,-0.5448279976844788,0.39808499813079834
1757088422374821600,4.980821533203125,-9.783197402954102,-0.5456240177154541,0.40083399415016174
1757088422384374800,4.990374755859375,-9.782937049865723,-0.5470229983329773,0.4047420024871826
1757088422393927700,4.999927734375,-9.782583236694336,-0.5491589903831482,0.4096980094909668
1757088422403480600,5.00948046875,-9.782126426696777,-0.5521519780158997,0.41572898626327515
1757088422413033700,5.01903369140625,-9.781595230102539,-0.5556460022926331,0.4226360023021698
1757088422422587000,5.0285869140625,-9.780996322631836,-0.5595899820327759,0.4303320050239563
1757088422432140000,5.03814013671875,-9.780316352844238,-0.5642399787902832,0.4387440085411072
1757088422441693000,5.04769287109375,-9.779568672180176,-0.569582998752594,0.44765299558639526
1757088422451246000,5.05724609375,-9.778764724731445,-0.5754650235176086,0.45701900124549866
1757088422460799000,5.066799072265625,-9.777921676635742,-0.5817670226097107,0.46667400002479553
1757088422470352100,5.07635205078125,-9.777059555053711,-0.5883070230484009,0.476377010345459
1757088422479905000,5.085905029296875,-9.776193618774414,-0.5949550271034241,0.4859749972820282
1757088422489458000,5.0954580078125,-9.775346755981445,-0.6015380024909973,0.4952540099620819
1757088422499011000,5.105010986328125,-9.774532318115234,-0.6078739762306213,0.5040720105171204
1757088422508564000,5.11456396484375,-9.77376937866211,-0.6137629747390747,0.5123159885406494
1757088422518117000,5.1241171875,-9.773065567016602,-0.6191390156745911,0.5198990106582642
1757088422527670000,5.133669921875,-9.77242374420166,-0.6240079998970032,0.5268049836158752
1757088422537223200,5.14322314453125,-9.77185344696045,-0.628279983997345,0.5329499840736389
1757088422546776300,5.1527763671875,-9.771355628967285,-0.6319850087165833,0.5382739901542664
1757088422556329200,5.1623291015625,-9.770940780639648,-0.6350740194320679,0.5426459908485413
1757088422565882400,5.17188232421875,-9.77061939239502,-0.6375060081481934,0.5459740161895752
1757088422575435300,5.181435302734375,-9.770391464233398,-0.6393359899520874,0.548160970211029
1757088422584988200,5.19098828125,-9.770254135131836,-0.6405349969863892,0.5493280291557312
1757088422594541600,5.20054150390625,-9.770207405090332,-0.6411849856376648,0.5494269728660583
1757088422604094500,5.210094482421875,-9.77025032043457,-0.6412839889526367,0.5485010147094727
1757088422613647400,5.2196474609375,-9.770383834838867,-0.6407920122146606,0.5465840101242065
1757088422623200300,5.2292001953125,-9.77060317993164,-0.6397510170936584,0.5437120199203491
1757088422632753400,5.23875341796875,-9.770895004272461,-0.6382820010185242,0.5400339961051941
1757088422642306600,5.248306640625,-9.771238327026367,-0.636493980884552,0.5357080101966858
1757088422651859700,5.257859619140625,-9.771627426147461,-0.6344910264015198,0.5308120250701904
1757088422661412600,5.26741259765625,-9.772047996520996,-0.6323620080947876,0.5254619717597961
1757088422670965500,5.276965576171875,-9.772485733032227,-0.6301509737968445,0.5198670029640198
1757088422680518700,5.2865185546875,-9.772934913635254,-0.6278409957885742,0.5141329765319824
1757088422690071600,5.296071533203125,-9.773388862609863,-0.6254680156707764,0.5083299875259399
1757088422699624700,5.305624755859375,-9.773832321166992,-0.623242974281311,0.5025650262832642
1757088422709177900,5.315177734375,-9.774258613586426,-0.6211060285568237,0.4969339966773987
1757088422718730800,5.324730712890625,-9.774667739868164,-0.6190829873085022,0.4915190041065216
1757088422728284000,5.334283935546875,-9.775047302246094,-0.6172670125961304,0.48638299107551575
1757088422737836800,5.3438369140625,-9.775389671325684,-0.6156870126724243,0.4816400110721588
1757088422747390000,5.353389892578125,-9.775693893432617,-0.6143969893455505,0.4772860109806061
1757088422756943000,5.362943115234375,-9.775956153869629,-0.6134089827537537,0.4733549952507019
1757088422766496000,5.37249609375,-9.776174545288086,-0.6127390265464783,0.46985098719596863
1757088422776049200,5.382049072265625,-9.776357650756836,-0.612330973148346,0.4667620062828064
1757088422785602000,5.39160205078125,-9.776501655578613,-0.6121000051498413,0.4641740024089813
1757088422795155200,5.4011552734375,-9.776603698730469,-0.6120679974555969,0.4621509909629822
1757088422804708000,5.4107080078125,-9.776663780212402,-0.6122639775276184,0.46065598726272583
1757088422814261200,5.42026123046875,-9.77668571472168,-0.6126409769058228,0.45973700284957886
1757088422823814100,5.429814208984375,-9.776667594909668,-0.6131830215454102,0.4594070017337799
1757088422833367000,5.439366943359375,-9.776613235473633,-0.61387699842453,0.4596090018749237
1757088422842920200,5.448920166015625,-9.776519775390625,-0.6147220134735107,0.4604189991950989
1757088422852473300,5.458473388671875,-9.776397705078125,-0.6156560182571411,0.4617359936237335
1757088422862026200,5.468026123046875,-9.776251792907715,-0.6165969967842102,0.4635089933872223
1757088422871579400,5.477579345703125,-9.776079177856445,-0.6176940202713013,0.46563899517059326
1757088422881132300,5.48713232421875,-9.775882720947266,-0.6189500093460083,0.4680440127849579
1757088422890685200,5.496685302734375,-9.775676727294922,-0.6201940178871155,0.47066399455070496
1757088422900238300,5.50623828125,-9.77546215057373,-0.6214810013771057,0.4733920097351074
1757088422909791200,5.515791259765625,-9.775247573852539,-0.6227570176124573,0.47614800930023193
1757088422919344400,5.525344482421875,-9.775036811828613,-0.6240180134773254,0.4788169860839844
1757088422928897500,5.5348974609375,-9.774840354919434,-0.6251360177993774,0.48136600852012634
1757088422938450400,5.544450439453125,-9.774667739868164,-0.6260370016098022,0.4837520122528076
1757088422948003300,5.55400341796875,-9.774519920349121,-0.626721978187561,0.4858720004558563
1757088422957556500,5.563556396484375,-9.774394035339355,-0.6272349953651428,0.48777198791503906
1757088422967109400,5.573109375,-9.774286270141602,-0.6276980042457581,0.48939499258995056
1757088422976662500,5.58266259765625,-9.77419662475586,-0.6280750036239624,0.49073100090026855
1757088422986215700,5.592215576171875,-9.774131774902344,-0.6283119916915894,0.49176499247550964
1757088422995768800,5.601768798828125,-9.774093627929688,-0.6283519864082336,0.4924890100955963
1757088423005321700,5.61132177734375,-9.774084091186523,-0.6282140016555786,0.4928790032863617
1757088423014874600,5.62087451171875,-9.774102210998535,-0.6279529929161072,0.49285200238227844
1757088423024427800,5.630427734375,-9.77414608001709,-0.6275950074195862,0.49242401123046875
1757088423033981000,5.63998095703125,-9.774222373962402,-0.6270660161972046,0.49154001474380493
1757088423043533800,5.649533935546875,-9.774321556091309,-0.6264449954032898,0.4903140068054199
1757088423053086700,5.659086669921875,-9.774432182312012,-0.6258080005645752,0.48889198899269104
1757088423062639600,5.6686396484375,-9.774559020996094,-0.6250550150871277,0.4873029887676239
1757088423072192800,5.67819287109375,-9.774699211120605,-0.6241400241851807,0.48562300205230713
1757088423081746000,5.687745849609375,-9.77485466003418,-0.6231160163879395,0.483814001083374
1757088423091298800,5.697298828125,-9.775015830993652,-0.6220380067825317,0.4819450080394745
1757088423100852000,5.70685205078125,-9.775178909301758,-0.6209549903869629,0.4800589978694916
1757088423110404900,5.71640478515625,-9.775346755981445,-0.6197929978370667,0.4781619906425476
1757088423119958000,5.7259580078125,-9.775498390197754,-0.6188200116157532,0.47634801268577576
1757088423129511000,5.735510986328125,-9.775628089904785,-0.6180909872055054,0.4746600091457367
1757088423139064000,5.74506396484375,-9.775734901428223,-0.6175500154495239,0.47318699955940247
1757088423148617200,5.7546171875,-9.775824546813965,-0.6171349883079529,0.47189998626708984
1757088423158170000,5.764170166015625,-9.775897979736328,-0.6167839765548706,0.47087499499320984
1757088423167723000,5.773722900390625,-9.775948524475098,-0.616562008857727,0.47011199593544006
1757088423177276200,5.783276123046875,-9.775979995727539,-0.6165030002593994,0.46957099437713623
1757088423186829300,5.792829345703125,-9.775982856750488,-0.6166750192642212,0.4693169891834259
1757088423196382200,5.80238232421875,-9.775960922241211,-0.6170160174369812,0.4693160057067871
1757088423205935400,5.811935302734375,-9.775918960571289,-0.6174039840698242,0.46964699029922485
1757088423215488300,5.82148828125,-9.775856018066406,-0.617883026599884,0.470319002866745
1757088423225041200,5.831041259765625,-9.775766372680664,-0.6185269951820374,0.4712910056114197
1757088423234594300,5.84059423828125,-9.775664329528809,-0.6192240118980408,0.47248199582099915
1757088423244147200,5.850147216796875,-9.775556564331055,-0.619953989982605,0.47375598549842834
1757088423253700600,5.85970068359375,-9.77543830871582,-0.6207910180091858,0.47507500648498535
1757088423263253500,5.86925341796875,-9.775317192077637,-0.6216880083084106,0.47638198733329773
1757088423272806400,5.878806396484375,-9.77519416809082,-0.6226099729537964,0.4776970148086548
1757088423282359600,5.888359619140625,-9.775071144104004,-0.6235550045967102,0.4789679944515228
1757088423291912400,5.897912353515625,-9.774956703186035,-0.6244639754295349,0.48013800382614136
1757088423301465600,5.907465576171875,-9.774842262268066,-0.6253820061683655,0.48128899931907654
1757088423311018500,5.9170185546875,-9.774744033813477,-0.626147985458374,0.4823020100593567
1757088423320571600,5.926571533203125,-9.774662971496582,-0.6267319917678833,0.48320698738098145
1757088423330124500,5.93612451171875,-9.774593353271484,-0.6272410154342651,0.4839619994163513
1757088423339677700,5.945677734375,-9.774541854858398,-0.6275929808616638,0.4845620095729828
1757088423349230600,5.955230712890625,-9.774505615234375,-0.6278570294380188,0.4849799871444702
1757088423358783700,5.96478369140625,-9.774481773376465,-0.6280199885368347,0.4852589964866638
1757088423368336600,5.974336669921875,-9.774470329284668,-0.6280869841575623,0.4854069948196411
1757088423377889800,5.983889892578125,-9.774479866027832,-0.628009021282196,0.48533499240875244
1757088423387442700,5.993442626953125,-9.77450180053711,-0.6278359889984131,0.4850910007953644
1757088423396995800,6.002995849609375,-9.774532318115234,-0.627655029296875,0.48471298813819885
1757088423406549000,6.012549072265625,-9.774575233459473,-0.6273900270462036,0.4841820001602173
1757088423416102000,6.022101806640625,-9.774629592895508,-0.6270470023155212,0.48350998759269714
1757088423425655000,6.031655029296875,-9.774690628051758,-0.6266800165176392,0.48276200890541077
1757088423435208000,6.0412080078125,-9.774754524230957,-0.6263039708137512,0.4819439947605133
1757088423444761000,6.050760986328125,-9.774825096130371,-0.6258749961853027,0.48106899857521057
1757088423454314000,6.06031396484375,-9.774900436401367,-0.625423014163971,0.48015499114990234
1757088423463867100,6.0698671875,-9.77497673034668,-0.6249610185623169,0.4792200028896332
1757088423473420000,6.079419921875,-9.775053024291992,-0.6244959831237793,0.4782460033893585
1757088423482973200,6.08897314453125,-9.775126457214355,-0.624081015586853,0.47732698917388916
1757088423492526300,6.0985263671875,-9.77519416809082,-0.6236870288848877,0.47643300890922546
1757088423502079500,6.10807958984375,-9.775259017944336,-0.6233350038528442,0.4755699932575226
1757088423511632400,6.11763232421875,-9.775321006774902,-0.6229900121688843,0.47474101185798645
1757088423521185300,6.127185302734375,-9.775382995605469,-0.6226189732551575,0.47394999861717224
1757088423530738200,6.13673828125,-9.775439262390137,-0.6222869753837585,0.47321000695228577
1757088423540291000,6.146291015625,-9.775495529174805,-0.6219329833984375,0.4725460112094879
1757088423549844200,6.15584423828125,-9.775551795959473,-0.621533989906311,0.4718959927558899
1757088423559397400,6.1653974609375,-9.775606155395508,-0.6211109757423401,0.47130998969078064
1757088423568950500,6.174950439453125,-9.77565860748291,-0.6207110285758972,0.470768004655838
1757088423578503400,6.18450341796875,-9.775703430175781,-0.6203340291976929,0.47032400965690613
1757088423588056300,6.194056396484375,-9.775742530822754,-0.6199589967727661,0.47000300884246826
1757088423597609500,6.203609375,-9.775772094726562,-0.6196630001068115,0.46977099776268005
1757088423607162400,6.213162353515625,-9.775797843933105,-0.6193680167198181,0.4696449935436249
1757088423616715500,6.222715576171875,-9.775818824768066,-0.6190729737281799,0.4696269929409027
1757088423626268400,6.232268310546875,-9.775835990905762,-0.6187819838523865,0.46963900327682495
1757088423635821600,6.241821533203125,-9.775850296020508,-0.6184870004653931,0.4697270095348358
1757088423645374500,6.25137451171875,-9.775858879089355,-0.6182050108909607,0.4698989987373352
1757088423654927600,6.260927734375,-9.775858879089355,-0.6179779767990112,0.47019198536872864
1757088423664480500,6.27048046875,-9.775854110717773,-0.6178119778633118,0.47053098678588867
1757088423674033700,6.28003369140625,-9.775845527648926,-0.6176819801330566,0.4708699882030487
1757088423683586600,6.289586669921875,-9.77583122253418,-0.6176170110702515,0.47121500968933105
1757088423693139700,6.2991396484375,-9.775813102722168,-0.6176090240478516,0.4716010093688965
1757088423702692600,6.308692626953125,-9.775787353515625,-0.617680013179779,0.4720250070095062
1757088423712245500,6.31824560546875,-9.775761604309082,-0.6177499890327454,0.47247201204299927
1757088423721798700,6.327798583984375,-9.775735855102539,-0.6178100109100342,0.47293800115585327
1757088423731351600,6.3373515625,-9.775707244873047,-0.617920994758606,0.4733540117740631
1757088423740905000,6.346905029296875,-9.775676727294922,-0.6181020140647888,0.47375598549842834
1757088423750457900,6.356457763671875,-9.775649070739746,-0.6182799935340881,0.4741069972515106
1757088423760010800,6.3660107421875,-9.775617599487305,-0.6184960007667542,0.4744870066642761
1757088423769564000,6.37556396484375,-9.775581359863281,-0.6187610030174255,0.47488999366760254
1757088423779116800,6.38511669921875,-9.775545120239258,-0.6190890073776245,0.4752059876918793
1757088423788669700,6.394669677734375,-9.775510787963867,-0.6194270253181458,0.47547999024391174
1757088423798222800,6.404222900390625,-9.775477409362793,-0.6198019981384277,0.4756760001182556
1757088423807776000,6.41377587890625,-9.775445938110352,-0.6202260255813599,0.4757699966430664
1757088423817329000,6.423328857421875,-9.775419235229492,-0.620635986328125,0.4757640063762665
1757088423826881800,6.4328818359375,-9.775404930114746,-0.6210349798202515,0.4755620062351227
1757088423836435000,6.44243505859375,-9.775400161743164,-0.6213449835777283,0.47524699568748474
1757088423845988000,6.451988037109375,-9.775402069091797,-0.6215689778327942,0.4749009907245636
1757088423855541000,6.461541015625,-9.775408744812012,-0.6216850280761719,0.4746359884738922
1757088423865094100,6.47109423828125,-9.775418281555176,-0.6216769814491272,0.4744519889354706
1757088423874647000,6.48064697265625,-9.775426864624023,-0.6216099858283997,0.4743489921092987
1757088423884200000,6.490199951171875,-9.775439262390137,-0.6214770078659058,0.47427400946617126
1757088423893753000,6.499753173828125,-9.775453567504883,-0.6212930083274841,0.47422099113464355
1757088423903306200,6.50930615234375,-9.775465965270996,-0.621159017086029,0.47415098547935486
1757088423912859100,6.518859130859375,-9.775476455688477,-0.6210929751396179,0.4740520119667053
1757088423922412300,6.528412353515625,-9.775484085083008,-0.6210190057754517,0.4739589989185333
1757088423931965200,6.537965087890625,-9.775489807128906,-0.6209800243377686,0.47387999296188354
1757088423941518300,6.547518310546875,-9.775491714477539,-0.6210190057754517,0.4738059937953949
1757088423951071500,6.557071533203125,-9.775491714477539,-0.6210839748382568,0.47374001145362854
1757088423960624400,6.566624267578125,-9.775491714477539,-0.6211569905281067,0.4736500084400177
1757088423970177300,6.57617724609375,-9.775491714477539,-0.6212019920349121,0.47360000014305115
1757088423979730400,6.58573046875,-9.775490760803223,-0.6212210059165955,0.4735809862613678
1757088423989283300,6.595283447265625,-9.77548885345459,-0.621222972869873,0.4736349880695343
1757088423998836500,6.60483642578125,-9.775487899780273,-0.6211389899253845,0.47374698519706726
1757088424008389600,6.6143896484375,-9.775484085083008,-0.6210259795188904,0.47397100925445557
1757088424017942500,6.623942626953125,-9.775470733642578,-0.620943009853363,0.4743500053882599
1757088424027495400,6.633495361328125,-9.775445938110352,-0.6209650039672852,0.4748530089855194
1757088424037048600,6.643048583984375,-9.775416374206543,-0.6210500001907349,0.4753499925136566
1757088424046601500,6.6526015625,-9.775382041931152,-0.621213972568512,0.47582700848579407
1757088424056154600,6.662154541015625,-9.775345802307129,-0.6214479804039001,0.4762740135192871
1757088424065707800,6.671707763671875,-9.775311470031738,-0.6216949820518494,0.4766800105571747
1757088424075260700,6.6812607421875,-9.775276184082031,-0.6219480037689209,0.4770680069923401
1757088424084813800,6.690813720703125,-9.775247573852539,-0.6221439838409424,0.4773789942264557
1757088424094366500,6.700366455078125,-9.775222778320312,-0.6223049759864807,0.4776979982852936
1757088424103919600,6.709919677734375,-9.775197982788086,-0.6224259734153748,0.47805801033973694
1757088424113472800,6.71947265625,-9.775171279907227,-0.6225039958953857,0.47846901416778564
1757088424123025700,6.729025634765625,-9.775150299072266,-0.6225360035896301,0.47888800501823425
1757088424132578800,6.738578857421875,-9.775131225585938,-0.6225280165672302,0.47926899790763855
1757088424142131700,6.748131591796875,-9.775116920471191,-0.6224769949913025,0.4796369969844818
1757088424151684900,6.757684814453125,-9.775107383728027,-0.6223949790000916,0.4799250066280365
1757088424161237800,6.76723779296875,-9.775103569030762,-0.6222839951515198,0.48014000058174133
1757088424170790700,6.776790771484375,-9.775102615356445,-0.6221659779548645,0.4803130030632019
1757088424180343800,6.78634375,-9.775105476379395,-0.6220030188560486,0.4804590046405792
1757088424189897000,6.79589697265625,-9.775106430053711,-0.6218649744987488,0.48060598969459534
1757088424199449900,6.805449951171875,-9.775106430053711,-0.6217489838600159,0.48074400424957275
1757088424209003000,6.8150029296875,-9.775106430053711,-0.6216719746589661,0.4808480143547058
1757088424218556000,6.824555908203125,-9.775110244750977,-0.6215919852256775,0.4808819890022278
1757088424228109000,6.834109130859375,-9.775114059448242,-0.6215450167655945,0.48086801171302795
1757088424237662000,6.843661865234375,-9.77511978149414,-0.6214799880981445,0.4808340072631836
1757088424247215000,6.853215087890625,-9.775129318237305,-0.6214020252227783,0.4807240068912506
1757088424256768000,6.86276806640625,-9.775140762329102,-0.6213369965553284,0.48057299852371216
1757088424266321000,6.87232080078125,-9.775154113769531,-0.6212900280952454,0.4803740084171295
1757088424275874000,6.8818740234375,-9.775163650512695,-0.6213080286979675,0.48016199469566345
1757088424285427000,6.891427001953125,-9.775174140930176,-0.6213269829750061,0.4799000024795532
1757088424294980000,6.90097998046875,-9.775186538696289,-0.6213330030441284,0.47962498664855957
1757088424304533200,6.910533203125,-9.775200843811035,-0.6213549971580505,0.479328989982605
1757088424314086100,6.920086181640625,-9.775213241577148,-0.6213549971580505,0.47908100485801697
1757088424323639000,6.92963916015625,-9.775222778320312,-0.6213080286979675,0.47893598675727844
1757088424333192200,6.939192138671875,-9.77523136138916,-0.6212790012359619,0.4787989854812622
1757088424342745000,6.9487451171875,-9.775238037109375,-0.6212409734725952,0.4787229895591736
1757088424352298200,6.95829833984375,-9.775240898132324,-0.6212220191955566,0.4786759912967682
1757088424361851400,6.967851318359375,-9.775243759155273,-0.6212040185928345,0.478657990694046
1757088424371404300,6.977404296875,-9.77524471282959,-0.6212080121040344,0.47861000895500183
1757088424380957200,6.986957275390625,-9.775250434875488,-0.6211619973182678,0.4785679876804352
1757088424390510000,6.996510009765625,-9.775254249572754,-0.6211100220680237,0.4785439968109131
1757088424400063200,7.006063232421875,-9.775262832641602,-0.6209750175476074,0.4785729944705963
1757088424409616100,7.0156162109375,-9.775264739990234,-0.6208339929580688,0.47870200872421265
1757088424419169500,7.02516943359375,-9.7752685546875,-0.6206790208816528,0.47884199023246765
1757088424428722400,7.034722412109375,-9.775270462036133,-0.6205310225486755,0.4789949953556061
1757088424438275300,7.044275390625,-9.7752685546875,-0.6203770041465759,0.47923600673675537
1757088424447828200,7.053828125,-9.775262832641602,-0.6202300190925598,0.47953298687934875
1757088424457381400,7.06338134765625,-9.775256156921387,-0.6200460195541382,0.47989198565483093
1757088424466934500,7.0729345703125,-9.775248527526855,-0.619858980178833,0.48028600215911865
1757088424476487400,7.0824873046875,-9.775239944458008,-0.6196770071983337,0.4806790053844452
1757088424486040300,7.092040283203125,-9.775230407714844,-0.6195070147514343,0.48110300302505493
1757088424495593500,7.101593505859375,-9.775217056274414,-0.6193580031394958,0.4815720021724701
1757088424505146600,7.111146728515625,-9.775196075439453,-0.6192830204963684,0.48206499218940735
1757088424514699500,7.120699462890625,-9.775171279907227,-0.6192700266838074,0.48259299993515015
1757088424524252400,7.13025244140625,-9.775140762329102,-0.6192330121994019,0.48326200246810913
1757088424533805600,7.1398056640625,-9.775106430053711,-0.6192150115966797,0.4839850068092346
1757088424543358700,7.149358642578125,-9.77507495880127,-0.6190980076789856,0.48477301001548767
1757088424552911600,7.15891162109375,-9.775049209594727,-0.6188709735870361,0.4855769872665405
1757088424562464500,7.168464599609375,-9.775026321411133,-0.6185680031776428,0.48642298579216003
1757088424572017700,7.178017578125,-9.775001525878906,-0.6183599829673767,0.48719900846481323
1757088424581570600,7.187570556640625,-9.77497386932373,-0.6181660294532776,0.48798900842666626
1757088424591123700,7.197123779296875,-9.774948120117188,-0.6179879903793335,0.48872798681259155
1757088424600676600,7.206676513671875,-9.774935722351074,-0.6177030205726624,0.4893360137939453
1757088424610229800,7.216229736328125,-9.77492904663086,-0.6173840165138245,0.4898749887943268
1757088424619782700,7.22578271484375,-9.77492618560791,-0.6170809864997864,0.4903300106525421
1757088424629335800,7.235335693359375,-9.774930953979492,-0.6167500019073486,0.49063199758529663
1757088424638889000,7.244888916015625,-9.774947166442871,-0.6163550019264221,0.490803986787796
1757088424648441900,7.25444189453125,-9.77496337890625,-0.6160290241241455,0.4909070134162903
1757088424657994800,7.263994873046875,-9.774969100952148,-0.6157640218734741,0.4911139905452728
1757088424667547600,7.273547607421875,-9.7749662399292,-0.6155070066452026,0.4914869964122772
1757088424677100800,7.283100830078125,-9.774956703186035,-0.6152210235595703,0.4920549988746643
1757088424686654000,7.292654052734375,-9.77493667602539,-0.6148679852485657,0.4928840100765228
1757088424696206800,7.302206787109375,-9.774914741516113,-0.6143659949302673,0.493925005197525
1757088424705760000,7.311760009765625,-9.774898529052734,-0.613752007484436,0.4949840009212494
1757088424715313000,7.32131298828125,-9.77490234375,-0.6129879951477051,0.4958699941635132
1757088424724865800,7.33086572265625,-9.774923324584961,-0.6120240092277527,0.4966219961643219
1757088424734419000,7.3404189453125,-9.774946212768555,-0.6111639738082886,0.49722999334335327
1757088424743972000,7.34997216796875,-9.774958610534668,-0.610427975654602,0.49787798523902893
1757088424753525000,7.35952490234375,-9.774956703186035,-0.609794020652771,0.49869099259376526
1757088424763078100,7.369078125,-9.774938583374023,-0.6092640161514282,0.499675989151001
1757088424772631000,7.378631103515625,-9.774910926818848,-0.6088100075721741,0.5007500052452087
1757088424782184200,7.38818408203125,-9.774869918823242,-0.6084420084953308,0.5019739866256714
1757088424791737000,7.397737060546875,-9.77481746673584,-0.6082860231399536,0.5032100081443787
1757088424801290200,7.407290283203125,-9.774765014648438,-0.6081529855728149,0.5043609738349915
1757088424810843100,7.416843017578125,-9.774730682373047,-0.6079559922218323,0.5052629709243774
1757088424820396000,7.42639599609375,-9.7747220993042,-0.6077960133552551,0.5056300163269043
1757088424829949200,7.43594921875,-9.77474594116211,-0.6075260043144226,0.5054810047149658
1757088424839502300,7.44550244140625,-9.774825096130371,-0.6069290041923523,0.5046169757843018
1757088424849055200,7.45505517578125,-9.77497673034668,-0.6058440208435059,0.5028690099716187
1757088424858608400,7.4646083984375,-9.775186538696289,-0.6045209765434265,0.5001760125160217
1757088424868161300,7.474161376953125,-9.775430679321289,-0.6033080220222473,0.49657100439071655
1757088424877714200,7.483714111328125,-9.775693893432617,-0.602292001247406,0.49229198694229126
1757088424887267300,7.493267333984375,-9.775972366333008,-0.6013810038566589,0.4875589907169342
1757088424896820200,7.5028203125,-9.776252746582031,-0.6006019711494446,0.48260200023651123
1757088424906373400,7.512373291015625,-9.776522636413574,-0.600051999092102,0.4775640070438385
1757088424915926500,7.521926513671875,-9.776777267456055,-0.5997639894485474,0.4724609851837158
1757088424925479400,7.5314794921875,-9.777021408081055,-0.5997750163078308,0.4671509861946106
1757088424935032300,7.5410322265625,-9.777261734008789,-0.6001629829406738,0.46145299077033997
1757088424944585200,7.550585205078125,-9.777498245239258,-0.6009179949760437,0.45527100563049316
1757088424954138400,7.560138427734375,-9.777745246887207,-0.6018490195274353,0.44861599802970886
1757088424963691300,7.569691162109375,-9.778006553649902,-0.6028739809989929,0.4414849877357483
1757088424973244700,7.57924462890625,-9.778289794921875,-0.6038600206375122,0.433898001909256
1757088424982797300,7.58879736328125,-9.778597831726074,-0.6045209765434265,0.42615699768066406
1757088424992350500,7.5983505859375,-9.778943061828613,-0.6045429706573486,0.4184739887714386
1757088425001903400,7.6079033203125,-9.779302597045898,-0.6040890216827393,0.41105198860168457
1757088425011456500,7.61745654296875,-9.779653549194336,-0.6033200025558472,0.4041469991207123
1757088425021009400,7.627009521484375,-9.779989242553711,-0.6022999882698059,0.39780399203300476
1757088425030562600,7.6365625,-9.780305862426758,-0.6009050011634827,0.392316997051239
1757088425040115500,7.646115478515625,-9.780566215515137,-0.5995200276374817,0.38807299733161926
1757088425049668600,7.655668701171875,-9.78079891204834,-0.5979480147361755,0.3846589922904968
1757088425059221500,7.665221435546875,-9.781041145324707,-0.5957589745521545,0.3818250000476837
1757088425068774700,7.674774658203125,-9.781294822692871,-0.592960000038147,0.3794940114021301
1757088425078327600,7.68432763671875,-9.781557083129883,-0.5895969867706299,0.37774398922920227
1757088425087880400,7.69388037109375,-9.781808853149414,-0.5858619809150696,0.3767639994621277
1757088425097433600,7.70343359375,-9.782037734985352,-0.5818690061569214,0.3767020106315613
1757088425106986800,7.71298681640625,-9.782236099243164,-0.5774739980697632,0.3778280019760132
1757088425116539600,7.72253955078125,-9.78239917755127,-0.5728690028190613,0.38009101152420044
1757088425126092500,7.732092529296875,-9.78250789642334,-0.5684859752655029,0.38339900970458984
1757088425135645400,7.7416455078125,-9.782541275024414,-0.5642820000648499,0.38821399211883545
1757088425145198800,7.75119873046875,-9.782508850097656,-0.5601099729537964,0.39438000321388245
1757088425154751700,7.760751708984375,-9.782425880432129,-0.5560330152511597,0.40154701471328735
1757088425164304600,7.7703046875,-9.78230094909668,-0.5521559715270996,0.4093790054321289
1757088425173857800,7.77985791015625,-9.782144546508789,-0.548704981803894,0.41738900542259216
1757088425183410700,7.78941064453125,-9.781949996948242,-0.546097993850708,0.42513900995254517
1757088425192963800,7.7989638671875,-9.781734466552734,-0.5442050099372864,0.43250200152397156
1757088425202516700,7.808516845703125,-9.781499862670898,-0.5427089929580688,0.4397979974746704
1757088425212070000,7.81806982421875,-9.78123664855957,-0.5416960120201111,0.44711199402809143
1757088425221622800,7.827622802734375,-9.780916213989258,-0.5416309833526611,0.45443201065063477
1757088425231176000,7.837176025390625,-9.780576705932617,-0.5424659848213196,0.4609740078449249
1757088425240728800,7.846728759765625,-9.780223846435547,-0.5440359711647034,0.4669240117073059
1757088425250282000,7.856281982421875,-9.779858589172363,-0.5465970039367676,0.47196799516677856
1757088425259835000,7.8658349609375,-9.779481887817383,-0.5502449870109558,0.47589200735092163
1757088425269388000,7.875387939453125,-9.7791166305542,-0.5546579957008362,0.47852399945259094
1757088425278941000,7.88494091796875,-9.778783798217773,-0.5596290230751038,0.47963500022888184
1757088425288494000,7.894494140625,-9.778486251831055,-0.5648800134658813,0.47944900393486023
1757088425298046700,7.904046630859375,-9.778242111206055,-0.5701640248298645,0.4781169891357422
1757088425307600100,7.91360009765625,-9.77806282043457,-0.5750030279159546,0.4759080111980438
1757088425317153000,7.923153076171875,-9.777952194213867,-0.579131007194519,0.4730220139026642
1757088425326706200,7.9327060546875,-9.777900695800781,-0.5830860137939453,0.4690819978713989
1757088425336259000,7.942259033203125,-9.777870178222656,-0.5874390006065369,0.4641830027103424
1757088425345812000,7.95181201171875,-9.777827262878418,-0.5924649834632874,0.45860400795936584
1757088425355365000,7.961365234375,-9.777745246887207,-0.5980949997901917,0.45306599140167236
1757088425364918000,7.97091796875,-9.777594566345215,-0.6040149927139282,0.448525995016098
1757088425374471000,7.980470947265625,-9.777389526367188,-0.6096619963645935,0.4455240070819855
1757088425384024000,7.990024169921875,-9.777153015136719,-0.6149160265922546,0.44368499517440796
1757088425393577200,7.9995771484375,-9.776878356933594,-0.6202470064163208,0.4424540102481842
1757088425403130000,8.009130126953124,-9.776589393615723,-0.6251710057258606,0.4420579969882965
1757088425412683300,8.018683349609375,-9.776227951049805,-0.630698025226593,0.4421769976615906
1757088425422236000,8.02823583984375,-9.775729179382324,-0.636493980884552,0.4444339871406555
1757088425431789000,8.0377890625,-9.775086402893066,-0.642831027507782,0.44851601123809814
1757088425441342200,8.04734228515625,-9.77427864074707,-0.6497120261192322,0.4547260105609894
1757088425450895000,8.05689501953125,-9.773268699645996,-0.6564440131187439,0.46448400616645813
1757088425460448300,8.0664482421875,-9.772079467773438,-0.6626380085945129,0.4777129888534546
1757088425470001200,8.076001220703125,-9.770682334899902,-0.6683470010757446,0.4945569932460785
1757088425479554000,8.085553955078124,-9.769024848937988,-0.6737070083618164,0.5152119994163513
1757088425489107200,8.095107177734375,-9.767131805419922,-0.6792349815368652,0.5385270118713379
1757088425498660400,8.104660400390625,-9.764849662780762,-0.684939980506897,0.5659279823303223
1757088425508213200,8.114213134765626,-9.762151718139648,-0.6895809769630432,0.5981000065803528
1757088425517766100,8.12376611328125,-9.759328842163086,-0.6939489841461182,0.6314679980278015
1757088425527319300,8.1333193359375,-9.756462097167969,-0.6969220042228699,0.6660159826278687
1757088425536872200,8.1428720703125,-9.753694534301758,-0.6979460120201111,0.700838029384613
1757088425546425300,8.15242529296875,-9.750834465026855,-0.697467029094696,0.7371029853820801
1757088425555978200,8.161978271484376,-9.747724533081055,-0.6969079971313477,0.7748619914054871
1757088425565531400,8.171531494140625,-9.744230270385742,-0.6976140141487122,0.8142549991607666
1757088425575084300,8.181084228515624,-9.740006446838379,-0.7020819783210754,0.856564998626709
1757088425584637200,8.19063720703125,-9.73526382446289,-0.706483006477356,0.9023380279541016
1757088425594190300,8.2001904296875,-9.730600357055664,-0.7100890278816223,0.9474769830703735
1757088425603743200,8.2097431640625,-9.726401329040527,-0.7121109962463379,0.9897670149803162
1757088425613296600,8.219296630859375,-9.722637176513672,-0.7133030295372009,1.028228998184204
1757088425622849500,8.228849609375,-9.719179153442383,-0.7141870260238647,1.0638459920883179
1757088425632402400,8.23840234375,-9.71583080291748,-0.715149998664856,1.0979690551757812
1757088425641955300,8.247955322265625,-9.712566375732422,-0.7164760231971741,1.1299020051956177
1757088425651508500,8.257508544921874,-9.709447860717773,-0.7183520197868347,1.1591659784317017
1757088425661061400,8.267061279296875,-9.706592559814453,-0.7202939987182617,1.1852190494537354
1757088425670614500,8.276614501953125,-9.703936576843262,-0.7221999764442444,1.2084800004959106
1757088425680167400,8.28616748046875,-9.701482772827148,-0.7240369915962219,1.229377031326294
1757088425689720300,8.29572021484375,-9.699352264404297,-0.7263489961624146,1.246345043182373
1757088425699273500,8.3052734375,-9.697648048400879,-0.7295719981193542,1.2585049867630005
1757088425708826600,8.31482666015625,-9.696036338806152,-0.7324309945106506,1.2699270248413086
1757088425718379500,8.324379638671875,-9.694319725036621,-0.7341240048408508,1.28256094455719
1757088425727932700,8.3339326171875,-9.69251823425293,-0.734246015548706,1.2965519428253174
1757088425737485600,8.343485595703125,-9.691437721252441,-0.7352380156517029,1.3046129941940308
1757088425747038500,8.35303857421875,-9.691633224487305,-0.7379019856452942,1.30138099193573
1757088425756591600,8.362591552734376,-9.692623138427734,-0.7412869930267334,1.2908159494400024
1757088425766144500,8.37214453125,-9.6939697265625,-0.7402759790420532,1.2807090282440186
1757088425775697700,8.38169775390625,-9.695167541503906,-0.7371879816055298,1.2736469507217407
1757088425785250800,8.391250732421875,-9.695722579956055,-0.732695996761322,1.2720069885253906
1757088425794803700,8.4008037109375,-9.695764541625977,-0.726722002029419,1.2745829820632935
1757088425804356600,8.410356689453126,-9.695650100708008,-0.7210270166397095,1.2781950235366821
1757088425813909500,8.419909423828125,-9.69578742980957,-0.715927004814148,1.279850959777832
1757088425823462700,8.429462646484374,-9.696043014526367,-0.7106090188026428,1.280819058418274
1757088425833015600,8.439015625,-9.696257591247559,-0.7049990296363831,1.2822929620742798
1757088425842568700,8.448568603515625,-9.696252822875977,-0.6975209712982178,1.2862880229949951
1757088425852121600,8.45812158203125,-9.694845199584961,-0.6933339834213257,1.298279047012329
1757088425861674800,8.4676748046875,-9.692122459411621,-0.6792740225791931,1.3214590549468994
1757088425871227600,8.4772275390625,-9.687859535217285,-0.6589419841766357,1.3539949655532837
1757088425880780500,8.486780517578126,-9.682619094848633,-0.6355270147323608,1.3917880058288574
1757088425890333700,8.496333740234375,-9.676587104797363,-0.6156240105628967,1.4326080083847046
1757088425899886800,8.505886962890624,-9.670611381530762,-0.5948110222816467,1.4730290174484253
1757088425909439700,8.515439697265625,-9.6649169921875,-0.5737259984016418,1.5109319686889648
1757088425918992600,8.52499267578125,-9.659440994262695,-0.5533149838447571,1.5466769933700562
1757088425928545800,8.5345458984375,-9.652780532836914,-0.5329359769821167,1.5893239974975586
1757088425938098700,8.5440986328125,-9.644946098327637,-0.5061140060424805,1.6422250270843506
1757088425947651800,8.55365185546875,-9.637560844421387,-0.473814994096756,1.696282982826233
1757088425957204700,8.563204833984376,-9.63193416595459,-0.44490399956703186,1.7396750450134277
1757088425966758000,8.5727578125,-9.628381729125977,-0.42207300662994385,1.7688020467758179
1757088425976310800,8.582310791015624,-9.626567840576172,-0.4047110080718994,1.7855770587921143
1757088425985864000,8.591864013671875,-9.625585556030273,-0.3914259970188141,1.796004056930542
1757088425995416800,8.601416748046875,-9.624761581420898,-0.3788509964942932,1.805469036102295
1757088426004970000,8.610969970703126,-9.623565673828125,-0.3651460111141205,1.818176031112671
1757088426014523000,8.62052294921875,-9.622123718261719,-0.3502260148525238,1.8330069780349731
1757088426024076000,8.630075927734374,-9.620583534240723,-0.33424198627471924,1.848580002784729
1757088426033629000,8.63962890625,-9.618959426879883,-0.3195520043373108,1.8636280298233032
1757088426043181800,8.649181884765625,-9.618441581726074,-0.3013499975204468,1.8724809885025024
1757088426052735000,8.65873486328125,-9.618820190429688,-0.2927660048007965,1.8723390102386475
1757088426062288000,8.668287841796875,-9.620091438293457,-0.2896510064601898,1.8663549423217773
1757088426071841000,8.677841064453125,-9.621747016906738,-0.2870030105113983,1.8586419820785522
1757088426081394000,8.687393798828126,-9.623334884643555,-0.27769699692726135,1.8524149656295776
1757088426090947000,8.696947021484375,-9.624017715454102,-0.26586100459098816,1.8505409955978394
1757088426100500000,8.7065,-9.623777389526367,-0.25248900055885315,1.8526469469070435
1757088426110052900,8.716052978515625,-9.622648239135742,-0.23823599517345428,1.8584389686584473
1757088426119606000,8.72560595703125,-9.621244430541992,-0.2221509963274002,1.8652329444885254
1757088426129159000,8.735158935546876,-9.618928909301758,-0.2093379944562912,1.875190019607544
1757088426138712000,8.744712158203125,-9.61461067199707,-0.1996929943561554,1.8931679725646973
1757088426148265000,8.754264892578124,-9.60748291015625,-0.18798799812793732,1.923117995262146
1757088426157818000,8.763818115234375,-9.597036361694336,-0.17324300110340118,1.9673550128936768
1757088426167371000,8.77337109375,-9.583719253540039,-0.15439799427986145,2.024116039276123
1757088426176924000,8.782923828125,-9.569311141967773,-0.1323239952325821,2.0865299701690674
1757088426186477000,8.79247705078125,-9.55374813079834,-0.11105900257825851,2.153749942779541
1757088426196030200,8.8020302734375,-9.538172721862793,-0.09062699973583221,2.221187114715576
1757088426205583000,8.8115830078125,-9.52189826965332,-0.06992699950933456,2.2902839183807373
1757088426215136300,8.82113623046875,-9.503973007202148,-0.04770199954509735,2.363553047180176
1757088426224689200,8.830689208984374,-9.486115455627441,-0.025846999138593674,2.4356560707092285
1757088426234242300,8.8402421875,-9.468358993530273,-0.00431300001218915,2.506767988204956
1757088426243795200,8.849795166015625,-9.450675964355469,0.01696700043976307,2.5763089656829834
1757088426253348000,8.85934814453125,-9.432910919189453,0.037981998175382614,2.644274950027466
1757088426262901200,8.8689013671875,-9.414335250854492,0.045598000288009644,2.712815999984741
1757088426272454400,8.878454345703124,-9.395126342773438,0.040355000644922256,2.780411958694458
1757088426282007300,8.88800732421875,-9.376903533935547,0.020786000415682793,2.8419768810272217
1757088426291560400,8.897560546875,-9.359251022338867,-0.012792999856173992,2.898487091064453
1757088426301113300,8.90711328125,-9.340974807739258,-0.06164899840950966,2.9524409770965576
1757088426310666200,8.916666259765625,-9.321962356567383,-0.11512099951505661,3.006221055984497
1757088426320219400,8.926219482421875,-9.302743911743164,-0.17341500520706177,3.0578598976135254
1757088426329772500,8.9357724609375,-9.28388786315918,-0.2357649952173233,3.105844020843506
1757088426339325400,8.945325439453125,-9.26555347442627,-0.3005540072917938,3.1498301029205322
1757088426348878300,8.95487841796875,-9.248380661010742,-0.36607399582862854,3.1882729530334473
1757088426358431200,8.96443115234375,-9.232230186462402,-0.4341059923171997,3.222261905670166
1757088426367984400,8.973984375,-9.215251922607422,-0.5047879815101624,3.2576260566711426
1757088426377537500,8.98353759765625,-9.196269035339355,-0.5760830044746399,3.296396017074585
1757088426387090400,8.99309033203125,-9.173133850097656,-0.6488010287284851,3.3441600799560547
1757088426396643600,9.0026435546875,-9.147172927856445,-0.7237550020217896,3.3968958854675293
1757088426406196500,9.012196533203126,-9.119562149047852,-0.80035799741745,3.451603889465332
1757088426415749600,9.02174951171875,-9.088021278381348,-0.8746730089187622,3.514832019805908
1757088426425302500,9.031302490234374,-9.05092716217041,-0.9459620118141174,3.589556932449341
1757088426434855400,9.04085546875,-9.011685371398926,-1.0084010362625122,3.6701529026031494
1757088426444408600,9.05040869140625,-8.976767539978027,-1.073166012763977,3.7416648864746094
1757088426453961500,9.05996142578125,-8.946168899536133,-1.1413270235061646,3.799251079559326
1757088426463514600,9.0695146484375,-8.914750099182129,-1.223842978477478,3.8485219478607178
1757088426473067500,9.079067626953124,-8.876985549926758,-1.3203990459442139,3.8991711139678955
1757088426482620400,9.088620361328125,-8.832306861877441,-1.415876030921936,3.959315061569214
1757088426492173600,9.098173583984375,-8.781825065612793,-1.5075889825820923,4.026597023010254
1757088426501726700,9.107726806640626,-8.730820655822754,-1.593479037284851,4.095655918121338
1757088426511279600,9.117279541015625,-8.678234100341797,-1.6699930429458618,4.170289039611816
1757088426520832500,9.12683251953125,-8.62055778503418,-1.7516030073165894,4.248703956604004
1757088426530385700,9.1363857421875,-8.558004379272461,-1.8388830423355103,4.329864978790283
1757088426539938600,9.1459384765625,-8.49118423461914,-1.9322329759597778,4.412638187408447
1757088426549491500,9.155491455078124,-8.42034912109375,-2.031428098678589,4.49666690826416
1757088426559044600,9.165044677734375,-8.347372055053711,-2.13924503326416,4.576535224914551
1757088426568597800,9.17459765625,-8.275747299194336,-2.2661869525909424,4.636736869812012
1757088426578150700,9.184150634765626,-8.205814361572266,-2.3978469371795654,4.686101913452148
1757088426587703600,9.19370361328125,-8.138500213623047,-2.5334019660949707,4.7247748374938965
1757088426597256400,9.20325634765625,-8.074549674987793,-2.6725380420684814,4.753230094909668
1757088426606809600,9.2128095703125,-8.014819145202637,-2.8150339126586914,4.771406173706055
1757088426616362500,9.222362548828125,-7.962276935577393,-2.9503519535064697,4.784257888793945
1757088426625915600,9.23191552734375,-7.911627769470215,-3.0951790809631348,4.790774822235107
1757088426635468300,9.24146826171875,-7.856603145599365,-3.238874912261963,4.805072784423828
1757088426645021700,9.251021728515624,-7.798025131225586,-3.3686020374298096,4.829665184020996
1757088426654574300,9.26057421875,-7.741133213043213,-3.47507905960083,4.8594160079956055
1757088426664127500,9.27012744140625,-7.69017219543457,-3.549226999282837,4.895860195159912
1757088426673680600,9.2796806640625,-7.645814895629883,-3.60697603225708,4.93009614944458
1757088426683233500,9.289233642578125,-7.606592178344727,-3.650243043899536,4.963491916656494
1757088426692786400,9.298786376953124,-7.567644119262695,-3.6913769245147705,4.997392177581787
1757088426702339300,9.30833935546875,-7.531564235687256,-3.733354091644287,5.026413917541504
1757088426711892500,9.317892578125,-7.503167152404785,-3.762583017349243,5.050755023956299
1757088426721445400,9.3274453125,-7.482769012451172,-3.7801361083984375,5.069828987121582
1757088426730998800,9.336998779296875,-7.465752124786377,-3.7913930416107178,5.087195873260498
1757088426740551700,9.3465517578125,-7.451443195343018,-3.7974140644073486,5.103487968444824
1757088426750104600,9.3561044921875,-7.435896873474121,-3.7948429584503174,5.126506805419922
1757088426759657500,9.365657470703125,-7.420139789581299,-3.7725510597229004,5.164094924926758
1757088426769210400,9.37521044921875,-7.404530048370361,-3.7451260089874268,5.205389976501465
1757088426778763500,9.384763427734375,-7.386898994445801,-3.713913917541504,5.252502918243408
1757088426788316400,9.39431640625,-7.365921974182129,-3.6809029579162598,5.3055877685546875
1757088426797869600,9.40386962890625,-7.34162712097168,-3.648202896118164,5.362788200378418
1757088426807422500,9.41342236328125,-7.3122429847717285,-3.6277639865875244,5.416511058807373
1757088426816975600,9.4229755859375,-7.277530193328857,-3.611193895339966,5.473800182342529
1757088426826528500,9.432528564453126,-7.218105792999268,-3.609611988067627,5.547595024108887
1757088426836081700,9.44208154296875,-7.148902893066406,-3.6129329204559326,5.627410888671875
1757088426845634800,9.451634765625,-7.074623107910156,-3.6207950115203857,5.708759784698486
1757088426855187700,9.461187744140625,-6.999177932739258,-3.6403069496154785,5.7822418212890625
1757088426864740600,9.47074072265625,-6.9239020347595215,-3.670448064804077,5.847564220428467
1757088426874293500,9.48029345703125,-6.843122959136963,-3.715059995651245,5.906757831573486
1757088426883846700,9.4898466796875,-6.758163928985596,-3.7712318897247314,5.96068000793457
1757088426893399600,9.499399658203124,-6.663755893707275,-3.8411009311676025,6.013045787811279
1757088426902952700,9.50895263671875,-6.559573173522949,-3.923430919647217,6.065492153167725
1757088426912505600,9.518505615234375,-6.450235843658447,-4.01414680480957,6.11729097366333
1757088426922058800,9.528058837890624,-6.339900970458984,-4.1081318855285645,6.166072845458984
1757088426931611600,9.537611572265625,-6.22852087020874,-4.205743789672852,6.211234092712402
1757088426941164500,9.54716455078125,-6.106934070587158,-4.315059185028076,6.251558780670166
1757088426950717700,9.5567177734375,-5.980909824371338,-4.430192947387695,6.288620948791504
1757088426960270800,9.566270751953125,-5.851202011108398,-4.553012847900391,6.3195037841796875
1757088426969823700,9.57582373046875,-5.713421821594238,-4.697315216064453,6.332423210144043
1757088426979376600,9.585376708984375,-5.565998077392578,-4.851231098175049,6.339227199554443
1757088426988929800,9.5949296875,-5.4083099365234375,-5.012657165527344,6.341939926147461
1757088426998482700,9.604482666015626,-5.244829177856445,-5.1790618896484375,6.339513778686523
1757088427008035800,9.614035888671875,-5.080327033996582,-5.345779895782471,6.331683158874512
1757088427017589000,9.623589111328124,-4.935445785522461,-5.500168800354004,6.306222915649414
1757088427027142000,9.633141845703125,-4.795398235321045,-5.6516618728637695,6.274257183074951
1757088427036694800,9.64269482421875,-4.654664039611816,-5.800027847290039,6.241365909576416
1757088427046247700,9.65224755859375,-4.508694171905518,-5.945587158203125,6.211772918701172
1757088427055801000,9.661801025390625,-4.356778144836426,-6.08804178237915,6.18678092956543
1757088427065354000,9.67135400390625,-4.206305980682373,-6.221595764160156,6.164068222045898
1757088427074907000,9.680906982421876,-4.05556583404541,-6.347939968109131,6.144230842590332
1757088427084459800,9.690459716796875,-3.9071810245513916,-6.464590072631836,6.126708030700684
1757088427094013000,9.700012939453124,-3.754132032394409,-6.5729827880859375,6.113556861877441
1757088427103565800,9.70956591796875,-3.5887980461120605,-6.674668788909912,6.108759880065918
1757088427113118700,9.71911865234375,-3.414625883102417,-6.7709269523620605,6.109595775604248
1757088427122671600,9.728671630859376,-3.2309420108795166,-6.860620021820068,6.116694927215576
1757088427132224800,9.738224853515625,-3.0487709045410156,-6.93533182144165,6.12815523147583
1757088427141778000,9.74777783203125,-2.8597939014434814,-6.99768590927124,6.148781776428223
1757088427151330800,9.757330810546875,-2.6664249897003174,-7.042385101318359,6.183207988739014
1757088427160884000,9.766884033203125,-2.4756760597229004,-7.053634166717529,6.243281841278076
1757088427170436900,9.776436767578126,-2.2889211177825928,-7.042314052581787,6.316893100738525
1757088427179989800,9.78598974609375,-2.1052350997924805,-7.009728908538818,6.402184963226318
1757088427189543000,9.79554296875,-1.9196619987487793,-6.9572601318359375,6.499762058258057
1757088427199095800,9.805095703125,-1.7300050258636475,-6.886682987213135,6.608078956604004
1757088427208649000,9.81464892578125,-1.5358129739761353,-6.7989349365234375,6.725675106048584
1757088427218202000,9.8242021484375,-1.3370189666748047,-6.6942138671875,6.851455211639404
1757088427227754800,9.833754638671875,-1.1334760189056396,-6.572869777679443,6.983609199523926
1757088427237308000,9.843307861328125,-0.9202049970626831,-6.433213233947754,7.120763778686523
1757088427246860800,9.85286083984375,-0.6975129842758179,-6.278855800628662,7.2597551345825195
1757088427256414000,9.8624140625,-0.462585985660553,-6.110689163208008,7.398406028747559
1757088427265966800,9.871966796875,-0.2141149938106537,-5.929450988769531,7.534491062164307
1757088427275520000,9.88152001953125,0.048347000032663345,-5.735589981079102,7.665825843811035
1757088427285073000,9.891072998046875,0.3287169933319092,-5.518732070922852,7.78994607925415
1757088427294625800,9.900625732421876,0.6189259886741638,-5.282504081726074,7.90337610244751
1757088427304179000,9.910178955078125,0.9189180135726929,-5.027390956878662,8.007896423339844
1757088427313731800,9.91973193359375,1.2316689491271973,-4.760235786437988,8.097662925720215
1757088427323285000,9.929284912109376,1.5562390089035034,-4.482330799102783,8.169853210449219
1757088427332838000,9.938837890625,1.8920979499816895,-4.197004795074463,8.22026538848877
1757088427342390800,9.948390869140624,2.240341901779175,-3.9079220294952393,8.245262145996094
1757088427351944000,9.95794384765625,2.600740909576416,-3.61724591255188,8.24307632446289
1757088427361496800,9.967496826171875,2.9697139263153076,-3.326673984527588,8.213802337646484
1757088427371050000,9.977050048828126,3.343801975250244,-3.037790060043335,8.157885551452637
1757088427380603100,9.98660302734375,3.720391035079956,-2.752671003341675,8.076098442077637
1757088427390156000,9.996156005859374,4.097968101501465,-2.4738779067993164,7.969460964202881
1757088427399709000,10.005708984375,4.475820064544678,-2.2043840885162354,7.839059829711914
1757088427409261800,10.01526171875,4.853118896484375,-1.947253942489624,7.685873031616211
1757088427418815200,10.024815185546874,5.228225231170654,-1.7046109437942505,7.510869026184082
1757088427428368000,10.034367919921875,5.594629764556885,-1.4802089929580688,7.315324783325195
1757088427437921000,10.043921142578125,5.951674938201904,-1.272711992263794,7.103394031524658
1757088427447474000,10.053473876953126,6.2957987785339355,-1.08291494846344,6.878048896789551
1757088427457027000,10.063027099609375,6.624818801879883,-0.9109280109405518,6.641569137573242
1757088427466580000,10.072580078125,6.936808109283447,-0.7567099928855896,6.39656400680542
1757088427476133000,10.082133056640625,7.2212138175964355,-0.6300110220909119,6.146809101104736
1757088427485686300,10.091686279296875,7.482128143310547,-0.5293610095977783,5.896742820739746
1757088427495239200,10.1012392578125,7.722242832183838,-0.45357200503349304,5.649744033813477
1757088427504792000,10.1107919921875,7.944361209869385,-0.3863939940929413,5.394543170928955
1757088427514345000,10.120344970703124,8.150503158569336,-0.3219909965991974,5.12476921081543
1757088427523898000,10.129898193359375,8.341428756713867,-0.2543179988861084,4.833759784698486
1757088427533451000,10.139450927734375,8.515154838562012,-0.18010899424552917,4.523453235626221
1757088427543004000,10.14900390625,8.669416427612305,-0.09969300031661987,4.208457946777344
1757088427552557300,10.158557373046875,8.805474281311035,-0.017727000638842583,3.8996009826660156
1757088427562110200,10.168110107421874,8.92494010925293,0.06350599974393845,3.604006052017212
1757088427571663000,10.1776630859375,9.02888298034668,0.1469929963350296,3.326637029647827
1757088427581216000,10.187216064453125,9.11842155456543,0.23314499855041504,3.073740005493164
1757088427590769000,10.196768798828124,9.19481372833252,0.3243420124053955,2.8423900604248047
1757088427600322000,10.206322021484375,9.258275032043457,0.4267449975013733,2.6298089027404785
1757088427609875200,10.215875244140625,9.311639785766602,0.5349979996681213,2.429626941680908
1757088427619428000,10.225427978515626,9.357030868530273,0.6475279927253723,2.2374930381774902
1757088427628981000,10.23498095703125,9.396493911743164,0.7634789943695068,2.0495619773864746
1757088427638534100,10.2445341796875,9.431458473205566,0.8821210265159607,1.8633830547332764
1757088427648087300,10.25408740234375,9.461885452270508,1.0052540302276611,1.681391954421997
1757088427657640200,10.26364013671875,9.488992691040039,1.1306740045547485,1.5018919706344604
1757088427667193300,10.273193359375,9.513788223266602,1.2586430311203003,1.3235260248184204
1757088427676746200,10.282746337890625,9.537516593933105,1.3899480104446411,1.1455960273742676
1757088427686299100,10.292299072265624,9.561147689819336,1.5250120162963867,0.967432975769043
1757088427695852300,10.301852294921876,9.57776165008545,1.6543530225753784,0.8065159916877747
1757088427705405200,10.3114052734375,9.585149765014648,1.774163007736206,0.6725209951400757
1757088427714958300,10.320958251953124,9.583237648010254,1.8796260356903076,0.5732970237731934
1757088427724511200,10.33051123046875,9.5755033493042,1.9679360389709473,0.5076019763946533
1757088427734064000,10.340064208984375,9.566366195678711,2.0388998985290527,0.460873007774353
1757088427743617300,10.3496171875,9.557657241821289,2.0967960357666016,0.42137500643730164
1757088427753170200,10.359170166015625,9.549994468688965,2.144335985183716,0.3815000057220459
1757088427762723000,10.36872314453125,9.544194221496582,2.179733991622925,0.33609598875045776
1757088427772276200,10.378276123046875,9.540823936462402,2.2044379711151123,0.27855899930000305
1757088427781829000,10.3878291015625,9.539969444274902,2.2186710834503174,0.21168500185012817
1757088427791382300,10.39738232421875,9.542333602905273,2.2193920612335205,0.1384270042181015
1757088427800935200,10.40693505859375,9.545692443847656,2.214534044265747,0.06530699878931046
1757088427810488300,10.41648828125,9.549099922180176,2.2070369720458984,-0.0032240001019090414
1757088427820041200,10.426041259765626,9.551604270935059,2.20039701461792,-0.0648140013217926
1757088427829594000,10.435593994140625,9.552694320678711,2.1969149112701416,-0.11815500259399414
1757088427839147300,10.445147216796874,9.552815437316895,2.1960060596466064,-0.16604499518871307
1757088427848700400,10.454700439453125,9.551294326782227,2.200732946395874,-0.20671899616718292
1757088427858253300,10.46425341796875,9.548203468322754,2.2114579677581787,-0.23938199877738953
1757088427867806200,10.47380615234375,9.54385757446289,2.22733998298645,-0.26581600308418274
1757088427877359000,10.483359130859375,9.538838386535645,2.2461369037628174,-0.28857800364494324
1757088427886912300,10.492912353515624,9.533757209777832,2.2653400897979736,-0.3097279965877533
