time,seconds_elapsed,z,y,x
1757088346155341800,0.091341796875,-1.0315849781036377,0.9655290246009827,12.060098648071289
1757088346164894700,0.100894775390625,-1.2598350048065186,0.1825689971446991,11.473730087280273
1757088346174447600,0.110447509765625,-1.199597954750061,-0.6452569961547852,10.794036865234375
1757088346184000500,0.12000048828125,-1.077860951423645,-1.5339699983596802,10.309202194213867
1757088346193553400,0.129553466796875,-1.3923619985580444,-2.2138190269470215,9.603736877441406
1757088346203106600,0.1391064453125,-2.3013041019439697,-3.2600979804992676,9.877263069152832
1757088346212659500,0.148659423828125,-2.7089970111846924,-4.074619770050049,11.206581115722656
1757088346222212000,0.158212158203125,-2.8475499153137207,-4.505736827850342,12.558558464050293
1757088346231765000,0.167764892578125,-3.348335027694702,-4.861970901489258,13.200555801391602
1757088346241318100,0.177318115234375,-4.19410514831543,-5.179903030395508,13.305068969726562
1757088346250871000,0.18687109375,-5.638336181640625,-5.667031764984131,13.023736000061035
1757088346260423700,0.196423583984375,-7.229144096374512,-6.033306121826172,12.47730827331543
1757088346269976600,0.2059765625,-8.774699211120605,-6.342037200927734,11.970013618469238
1757088346279529500,0.215529541015625,-9.96821117401123,-6.734519004821777,11.408358573913574
1757088346289082400,0.225082275390625,-10.796465873718262,-7.3177170753479,11.299692153930664
1757088346298635300,0.23463525390625,-11.349299430847168,-7.668374061584473,11.212644577026367
1757088346308188400,0.2441884765625,-11.836736679077148,-7.696435928344727,11.146940231323242
1757088346317741300,0.2537412109375,-12.27394962310791,-7.821610927581787,11.417229652404785
1757088346327294200,0.263294189453125,-12.704315185546875,-8.037644386291504,11.796001434326172
1757088346336847000,0.27284716796875,-12.962380409240723,-8.248568534851074,11.82960033416748
1757088346346400000,0.28239990234375,-12.552547454833984,-7.894254207611084,11.726571083068848
1757088346355953000,0.291952880859375,-12.00920295715332,-7.088510990142822,11.34639835357666
1757088346365506000,0.301506103515625,-12.064865112304688,-6.5521979331970215,11.00282096862793
1757088346375058700,0.31105859375,-12.055339813232422,-6.112298011779785,10.864107131958008
1757088346384611600,0.320611572265625,-12.045952796936035,-6.357149124145508,11.233305931091309
1757088346394164500,0.33016455078125,-12.136292457580566,-6.507078170776367,10.656867980957031
1757088346403717400,0.33971728515625,-12.056142807006836,-6.660680770874023,9.682120323181152
1757088346413270300,0.349270263671875,-11.547157287597656,-7.240176200866699,8.71391773223877
1757088346422823200,0.3588232421875,-10.899970054626465,-7.996589183807373,7.897594928741455
1757088346432376000,0.3683759765625,-10.111257553100586,-8.656360626220703,7.531861782073975
1757088346441929000,0.377928955078125,-9.46850299835205,-8.95859146118164,7.495972156524658
1757088346451482000,0.387482177734375,-9.420522689819336,-9.052369117736816,7.42294979095459
1757088346461034800,0.39703466796875,-9.751725196838379,-9.2393798828125,7.599428176879883
1757088346470588000,0.406587890625,-10.317371368408203,-9.160224914550781,7.751121997833252
1757088346480140800,0.416140869140625,-11.337859153747559,-8.941784858703613,7.887016773223877
1757088346489693400,0.425693359375,-12.433514595031738,-8.365331649780273,8.000656127929688
1757088346499246600,0.43524658203125,-12.993192672729492,-7.987499237060547,7.951182842254639
1757088346508799500,0.444799560546875,-13.15715217590332,-7.56102991104126,7.433657169342041
1757088346518352400,0.454352294921875,-12.463048934936523,-7.160688877105713,6.44916296005249
1757088346527905300,0.4639052734375,-11.468303680419922,-6.981964111328125,5.779486179351807
1757088346537458200,0.473458251953125,-10.845584869384766,-6.892980098724365,5.066655158996582
1757088346547011000,0.483010986328125,-10.709110260009766,-6.903584957122803,4.173870086669922
1757088346556564200,0.492564208984375,-10.445262908935547,-7.155686855316162,3.2869250774383545
1757088346575670000,0.511669921875,-8.52197265625,-8.450172424316406,1.0220240354537964
1757088346585223000,0.521222900390625,-7.058670997619629,-9.393831253051758,-0.003969000186771154
1757088346594775800,0.53077587890625,-5.691361904144287,-9.592288970947266,-0.6676629781723022
1757088346604328700,0.54032861328125,-4.064992904663086,-9.332079887390137,-0.2724120020866394
1757088346613881600,0.549881591796875,-2.790273904800415,-9.731059074401855,0.7683929800987244
1757088346623434800,0.559434814453125,-2.443166971206665,-10.142849922180176,1.2992310523986816
1757088346632987400,0.5689873046875,-3.026465892791748,-10.480484008789062,1.1752599477767944
1757088346642540300,0.578540283203125,-4.8903069496154785,-10.933703422546387,1.3580440282821655
1757088346652093400,0.588093505859375,-7.256441116333008,-10.897372245788574,1.2898969650268555
1757088346661646300,0.597646240234375,-10.590529441833496,-9.611593246459961,0.6094899773597717
1757088346671199200,0.60719921875,-15.166200637817383,-11.025450706481934,0.26728400588035583
1757088346680752000,0.616752197265625,-12.907479286193848,-10.40233325958252,-0.8980929851531982
1757088346690305000,0.626304931640625,-9.356399536132812,-8.67530345916748,-0.7850040197372437
1757088346699858000,0.63585791015625,-7.392614841461182,-8.67643928527832,-0.333624005317688
1757088346709410800,0.645410888671875,-9.006978034973145,-6.83024787902832,-2.054636001586914
1757088346718963700,0.654963623046875,-2.725619077682495,-4.247790813446045,1.0517230033874512
1757088346728516600,0.6645166015625,-4.116968154907227,-7.537749767303467,4.5815510749816895
1757088346738069500,0.674069580078125,-5.728458881378174,-5.957540988922119,0.8877130150794983
1757088346757175600,0.693175537109375,-5.838568210601807,-7.9123687744140625,0.4119510054588318
1757088346766728400,0.702728515625,-6.865133762359619,-7.4256792068481445,-0.31602299213409424
1757088346776281300,0.71228125,-5.445931911468506,-5.880690097808838,-0.6480339765548706
1757088346785834200,0.721834228515625,-5.140128135681152,-5.144525051116943,-1.1582340002059937
1757088346795387100,0.73138720703125,-5.86846923828125,-5.021783828735352,-1.4961049556732178
1757088346804940000,0.74093994140625,-7.163918972015381,-4.997057914733887,-0.5847830176353455
1757088346814493000,0.750492919921875,-7.682963848114014,-4.103061199188232,-1.0263309478759766
1757088346824045800,0.7600458984375,-6.423028945922852,-3.444427967071533,-2.408163070678711
1757088346833599000,0.769598876953125,-4.590620994567871,-4.9815778732299805,-2.082288980484009
1757088346843151600,0.779151611328125,-4.650731086730957,-6.289809226989746,0.5307270288467407
1757088346852704500,0.78870458984375,-5.869633197784424,-6.797389984130859,0.6455739736557007
1757088346871810600,0.807810546875,-2.8181259632110596,-6.583053112030029,-1.8472520112991333
1757088346881363500,0.817363525390625,-3.6032540798187256,-6.451941967010498,-1.9495849609375
1757088346890916400,0.826916259765625,-4.072780132293701,-6.31271505355835,-0.24027200043201447
1757088346900469200,0.83646923828125,-6.382925987243652,-5.6306471824646,0.6925489902496338
1757088346910022100,0.846022216796875,-12.483631134033203,-4.611990928649902,-0.48485198616981506
1757088346919575000,0.855574951171875,-10.953424453735352,-4.353133201599121,-1.3132200241088867
1757088346929128000,0.8651279296875,-5.646966934204102,-3.5763349533081055,-2.267292022705078
1757088346938680800,0.874680908203125,-2.0171420574188232,-5.040215015411377,-3.5479071140289307
1757088346948233700,0.884233642578125,-1.2462459802627563,-7.006115913391113,-5.067238807678223
1757088346957786600,0.89378662109375,-1.143833041191101,-8.77993392944336,-5.140830993652344
1757088346967339800,0.90333984375,-1.8142889738082886,-8.77318000793457,-3.993278980255127
1757088346976892700,0.912892578125,-3.376607894897461,-7.823840141296387,-2.8946640491485596
1757088346986445600,0.922445556640625,-5.674633979797363,-6.731974124908447,-2.1310811042785645
1757088347005551400,0.94155126953125,-7.905564785003662,-2.0516788959503174,-1.8128479719161987
1757088347015104300,0.951104248046875,-7.461571216583252,-0.7928709983825684,-2.5124740600585938
1757088347024657200,0.9606572265625,-6.750955104827881,-0.3322890102863312,-3.0410830974578857
1757088347034210000,0.9702099609375,-5.963210105895996,-0.6245740056037903,-3.2836520671844482
1757088347043763200,0.97976318359375,-5.816646099090576,-1.251492977142334,-3.1057040691375732
1757088347053316000,0.989316162109375,-6.261050224304199,-1.6086499691009521,-3.0902769565582275
1757088347072422000,1.008421875,-4.185525894165039,1.6740950345993042,-1.133012056350708
1757088347081974800,1.017974853515625,-3.934175968170166,2.2988839149475098,-1.5794310569763184
1757088347091527700,1.027527587890625,-3.500166893005371,2.396285057067871,-2.3402750492095947
1757088347101080300,1.037080322265625,-3.2493739128112793,3.0223801136016846,-3.233912944793701
1757088347110633500,1.046633544921875,-3.6619551181793213,3.239267110824585,-3.8315389156341553
1757088347120186400,1.056186279296875,-2.894582986831665,3.6630120277404785,-4.37346887588501
1757088347129739300,1.0657392578125,-2.387511968612671,2.413317918777466,-3.8682360649108887
1757088347148845300,1.08484521484375,-5.745254993438721,2.7270729541778564,-4.953159809112549
1757088347158398200,1.094398193359375,-6.0592041015625,2.7579429149627686,-3.617098093032837
1757088347167950800,1.103950927734375,-4.025193214416504,0.9518210291862488,-2.8644769191741943
1757088347177504000,1.11350390625,-3.676939010620117,-0.6882789731025696,-1.2611989974975586
1757088347187056600,1.123056640625,-2.509255886077881,-4.934164047241211,-0.48129498958587646
1757088347196609800,1.13260986328125,-3.11688494682312,-13.262886047363281,-1.0930099487304688
1757088347206162700,1.14216259765625,-2.9967830181121826,-23.749576568603516,-2.7037770748138428
1757088347215715600,1.151715576171875,-3.058077096939087,-25.438720703125,-4.2601847648620605
1757088347225268500,1.1612685546875,-1.7887439727783203,-22.44257354736328,-6.091215133666992
1757088347234821400,1.1708212890625,-1.4126529693603516,-19.119571685791016,-5.894946098327637
1757088347244374300,1.180374267578125,-4.608101844787598,-15.956703186035156,2.316348075866699
1757088347253927200,1.18992724609375,-5.979172229766846,-11.209890365600586,7.629178047180176
1757088347263480300,1.199480224609375,-4.919766902923584,-3.608755111694336,1.751626968383789
1757088347273033000,1.209032958984375,-4.6299848556518555,0.5007849931716919,-4.141421794891357
1757088347282586000,1.218586181640625,-5.881333827972412,2.551318883895874,-7.849306106567383
1757088347292139000,1.228138916015625,-6.078801155090332,3.717029094696045,-9.364361763000488
1757088347301692000,1.23769189453125,-4.567180156707764,4.122881889343262,-10.075651168823242
1757088347311244800,1.247244873046875,-3.257205009460449,4.242761135101318,-9.783802032470703
1757088347320797700,1.256797607421875,-3.1574931144714355,3.3517720699310303,-9.253321647644043
1757088347330350600,1.2663505859375,-3.7677700519561768,1.5045679807662964,-8.491787910461426
1757088347339903500,1.275903564453125,-3.652111053466797,-0.05354499816894531,-7.126859188079834
1757088347359009300,1.29500927734375,-3.315217971801758,-2.3295559883117676,-4.825178146362305
1757088347368562200,1.304562255859375,-3.3075170516967773,-2.762453079223633,-3.980987071990967
1757088347378115000,1.314114990234375,-3.2697999477386475,-2.6265389919281006,-3.2653260231018066
1757088347387668000,1.32366796875,-3.276034116744995,-2.0652360916137695,-2.6785221099853516
1757088347397221000,1.33322119140625,-3.0847980976104736,-1.4049140214920044,-2.1261720657348633
1757088347406774000,1.34277392578125,-2.7009360790252686,-0.886758029460907,-2.087980031967163
1757088347416327000,1.352326904296875,-2.2429211139678955,-0.5005139708518982,-2.165076971054077
1757088347425879800,1.3618798828125,-1.6328779458999634,-0.2815530002117157,-2.090378999710083
1757088347435433000,1.371432861328125,-1.2415260076522827,-0.27511799335479736,-2.159060001373291
1757088347444985600,1.380985595703125,-1.180506944656372,-0.36414799094200134,-2.335963010787964
1757088347454538500,1.39053857421875,-1.3182480335235596,-0.45928698778152466,-2.4375219345092773
1757088347464091400,1.40009130859375,-1.4286110401153564,-0.5057089924812317,-2.4530210494995117
1757088347473644500,1.40964453125,-1.4581619501113892,-0.4775010049343109,-2.507493019104004
1757088347483197400,1.419197509765625,-1.4268929958343506,-0.41374099254608154,-2.5125250816345215
1757088347492750300,1.428750244140625,-1.442368984222412,-0.302029013633728,-2.4606881141662598
1757088347502303200,1.43830322265625,-1.4771100282669067,-0.19497400522232056,-2.3297879695892334
1757088347511856000,1.447856201171875,-1.4230940341949463,-0.16573700308799744,-2.148621082305908
1757088347521409000,1.457408935546875,-1.301198959350586,-0.18629099428653717,-1.943160057067871
1757088347530962000,1.4669619140625,-1.1997720003128052,-0.21326200664043427,-1.7244529724121094
1757088347540514800,1.476514892578125,-1.2028919458389282,-0.2666960060596466,-1.585934042930603
1757088347550067700,1.486067626953125,-1.3333810567855835,-0.28495699167251587,-1.5127290487289429
1757088347559620600,1.49562060546875,-1.5475000143051147,-0.3026430010795593,-1.4412989616394043
1757088347569173500,1.505173583984375,-1.744797945022583,-0.29801198840141296,-1.406986951828003
1757088347578726700,1.5147265625,-1.8676409721374512,-0.3195739984512329,-1.4095089435577393
1757088347588279600,1.524279541015625,-1.8926539421081543,-0.3036249876022339,-1.3622889518737793
1757088347597832400,1.53383251953125,-1.861961007118225,-0.2674979865550995,-1.3153419494628906
1757088347607385300,1.54338525390625,-1.8359689712524414,-0.21828700602054596,-1.191372036933899
1757088347616938200,1.552938232421875,-1.8562209606170654,-0.15781599283218384,-1.0308469533920288
1757088347626491100,1.5624912109375,-1.8460769653320312,-0.14603400230407715,-0.9109159708023071
1757088347636044000,1.5720439453125,-1.7067840099334717,-0.15229099988937378,-0.7754629850387573
1757088347645597000,1.581596923828125,-1.4418569803237915,-0.18902400135993958,-0.6830369830131531
1757088347655149800,1.59114990234375,-1.1307109594345093,-0.24425500631332397,-0.630325973033905
1757088347664702700,1.60070263671875,-0.8649730086326599,-0.2506999969482422,-0.637440025806427
1757088347674255600,1.610255615234375,-0.6877049803733826,-0.22934100031852722,-0.6262509822845459
1757088347683808800,1.619808837890625,-0.5440359711647034,-0.19686000049114227,-0.6471620202064514
1757088347693361400,1.629361328125,-0.40898600220680237,-0.181768000125885,-0.6487619876861572
1757088347702914600,1.63891455078125,-0.28233999013900757,-0.17898599803447723,-0.6048200130462646
1757088347712467500,1.648467529296875,-0.14154599606990814,-0.17396099865436554,-0.5362539887428284
1757088347722020400,1.658020263671875,-0.006304999813437462,-0.20027700066566467,-0.5013089776039124
1757088347731573200,1.6675732421875,0.2864589989185333,-0.20048099756240845,-0.41475799679756165
1757088347741126100,1.677126220703125,0.5733810067176819,-0.1983499974012375,-0.3007740080356598
1757088347750679000,1.686678955078125,0.5922039747238159,-0.20116600394248962,-0.2897549867630005
1757088347760232000,1.69623193359375,0.48430201411247253,-0.16354699432849884,-0.3553619980812073
1757088347769784800,1.705784912109375,0.3075219988822937,-0.17876900732517242,-0.4543739855289459
1757088347779337700,1.715337646484375,0.2303449958562851,-0.1894029974937439,-0.5232499837875366
1757088347788890600,1.724890625,0.23336100578308105,-0.19786599278450012,-0.5521590113639832
1757088347798443800,1.73444384765625,0.2521289885044098,-0.21134600043296814,-0.5612120032310486
1757088347807996700,1.74399658203125,0.2298630028963089,-0.18654899299144745,-0.5424289703369141
1757088347817549600,1.753549560546875,0.14776000380516052,-0.17583699524402618,-0.5067179799079895
1757088347827102500,1.7631025390625,0.05442199856042862,-0.18868400156497955,-0.46876201033592224
1757088347836655400,1.7726552734375,-0.09876900166273117,-0.19375699758529663,-0.430649995803833
1757088347846208300,1.782208251953125,-0.2597930133342743,-0.19569100439548492,-0.38791000843048096
1757088347855761200,1.79176123046875,-0.361285001039505,-0.20695599913597107,-0.39486798644065857
1757088347865314000,1.80131396484375,-0.42612001299858093,-0.20359699428081512,-0.3781850039958954
1757088347874867000,1.810866943359375,-0.46278199553489685,-0.21452400088310242,-0.37550899386405945
1757088347884420000,1.820420166015625,-0.42552900314331055,-0.22305500507354736,-0.35449400544166565
1757088347893973000,1.829972900390625,-0.372842013835907,-0.2413569986820221,-0.3546839952468872
1757088347903526000,1.83952587890625,-0.3242279887199402,-0.25001901388168335,-0.32298099994659424
1757088347913078800,1.849078857421875,-0.26847100257873535,-0.24439600110054016,-0.30866000056266785
1757088347922631400,1.85863134765625,-0.23566100001335144,-0.24380600452423096,-0.3149240016937256
1757088347932184600,1.8681845703125,-0.21323099732398987,-0.2310190051794052,-0.2659960091114044
1757088347941737500,1.877737548828125,-0.18274199962615967,-0.22995799779891968,-0.21710099279880524
1757088347951290000,1.8872900390625,-0.16701500117778778,-0.19968600571155548,-0.14560799300670624
1757088347960843300,1.89684326171875,-0.12668000161647797,-0.23833100497722626,-0.08311600238084793
1757088347970396200,1.906396240234375,-0.06112999841570854,-0.2624100148677826,-0.054040998220443726
1757088347979949300,1.91594921875,-0.003920000046491623,-0.3125990033149719,-0.027363000437617302
1757088347989502000,1.925501953125,0.02895599976181984,-0.32455700635910034,-0.03664499893784523
1757088347999055000,1.93505517578125,0.040901001542806625,-0.2912069857120514,-0.04982399940490723
1757088348008607700,1.944607666015625,0.0173179991543293,-0.21968799829483032,-0.05955100059509277
1757088348018160600,1.95416064453125,-0.010049000382423401,-0.18663400411605835,-0.07995899766683578
1757088348027713500,1.963713623046875,-0.018626000732183456,-0.19889900088310242,-0.05854099988937378
1757088348037266400,1.973266357421875,-0.07939500361680984,-0.21348699927330017,-0.05857200175523758
1757088348046819300,1.9828193359375,-0.1417510062456131,-0.2494640052318573,-0.05189400166273117
1757088348056372500,1.99237255859375,-0.20055900514125824,-0.2634980082511902,-0.013801000081002712
1757088348065925400,2.00192529296875,-0.2375669926404953,-0.229203000664711,0.03602299839258194
1757088348075478500,2.011478515625,-0.24247300624847412,-0.2402929961681366,0.046824999153614044
1757088348085031200,2.02103125,-0.25104400515556335,-0.24625900387763977,0.08403699845075607
1757088348094584000,2.030583984375,-0.24502499401569366,-0.25678300857543945,0.1074960008263588
1757088348104137000,2.040136962890625,-0.22307300567626953,-0.2768700122833252,0.10658100247383118
1757088348113689900,2.04968994140625,-0.202224999666214,-0.3044910132884979,0.06468500196933746
1757088348123242800,2.05924267578125,-0.18693700432777405,-0.28922298550605774,0.0431939996778965
1757088348132795600,2.068795654296875,-0.15218199789524078,-0.2573319971561432,0.029464000836014748
1757088348142348800,2.078348876953125,-0.13507099449634552,-0.2614879906177521,0.01411299966275692
1757088348151901700,2.087901611328125,-0.14119599759578705,-0.2514500021934509,-0.004815999884158373
1757088348161454600,2.09745458984375,-0.12384600192308426,-0.2274550050497055,-0.05204100161790848
1757088348171007500,2.107007568359375,-0.10931900143623352,-0.1867929995059967,-0.05325299873948097
1757088348180560400,2.116560302734375,-0.06835900247097015,-0.1462000012397766,-0.05420000106096268
1757088348190113300,2.12611328125,-0.03445899859070778,-0.1418589949607849,-0.08888199925422668
1757088348199666200,2.135666259765625,-0.043487001210451126,-0.15919899940490723,-0.10347200185060501
1757088348209219000,2.145218994140625,-0.03854700177907944,-0.21239900588989258,-0.10175000131130219
1757088348218772000,2.15477197265625,-0.03578300029039383,-0.24629899859428406,-0.0867139995098114
1757088348228324900,2.164324951171875,-0.003745000110939145,-0.2824229896068573,-0.0706460028886795
1757088348237878000,2.1738779296875,0.028615999966859818,-0.28482699394226074,-0.044162001460790634
1757088348247431000,2.183430908203125,0.049449000507593155,-0.24863700568675995,-0.010254000313580036
1757088348256983800,2.19298388671875,0.047892000526189804,-0.2149839997291565,-0.030441999435424805
1757088348266536700,2.20253662109375,0.025715000927448273,-0.19829200208187103,-0.06114400178194046
1757088348276089600,2.212089599609375,0.004637000150978565,-0.1915069967508316,-0.10377699881792068
1757088348285642500,2.221642578125,-0.019693000242114067,-0.19960500299930573,-0.16901899874210358
1757088348295195400,2.2311953125,-0.028999999165534973,-0.19604499638080597,-0.20089900493621826
1757088348304748300,2.240748291015625,-0.033323999494314194,-0.1997690051794052,-0.20821799337863922
1757088348314301200,2.25030126953125,-0.039687998592853546,-0.19365300238132477,-0.16949200630187988
1757088348323854000,2.25985400390625,-0.041218001395463943,-0.20885500311851501,-0.13721199333667755
1757088348333407000,2.269406982421875,-0.04027299955487251,-0.21899400651454926,-0.10203500092029572
1757088348342960000,2.278960205078125,-0.0481330007314682,-0.2313220053911209,-0.07782600075006485
1757088348352512800,2.2885126953125,-0.032930999994277954,-0.25304099917411804,-0.062130000442266464
1757088348362066000,2.29806591796875,-0.025490999221801758,-0.25549399852752686,-0.054434001445770264
1757088348371618800,2.307618896484375,-0.03428399935364723,-0.2653459906578064,-0.0859299972653389
1757088348381171700,2.317171630859375,-0.056120000779628754,-0.2536259889602661,-0.08402500301599503
1757088348390724600,2.326724609375,-0.07206899672746658,-0.22068500518798828,-0.11340299993753433
1757088348400277500,2.336277587890625,-0.0845709964632988,-0.2090270072221756,-0.07273299992084503
1757088348409830400,2.345830322265625,-0.08680500090122223,-0.21855799853801727,-0.029738999903202057
1757088348419383300,2.35538330078125,-0.05672699958086014,-0.23484300076961517,0.017436999827623367
1757088348428936200,2.364936279296875,-0.03677799925208092,-0.22958600521087646,0.009572000242769718
1757088348438489000,2.374489013671875,-0.015410000458359718,-0.2533949911594391,-0.0343639999628067
1757088348448042000,2.3840419921875,0.00976600032299757,-0.2655070126056671,-0.07406900078058243
1757088348457595100,2.39359521484375,0.04069000110030174,-0.2539139986038208,-0.1001880019903183
1757088348467148000,2.40314794921875,0.07249200344085693,-0.2664639949798584,-0.12498699873685837
1757088348476701000,2.412700927734375,0.08919599652290344,-0.2600640058517456,-0.14362600445747375
1757088348486253800,2.42225390625,0.12766000628471375,-0.24896200001239777,-0.14734500646591187
1757088348495806700,2.431806640625,0.1456409990787506,-0.21848100423812866,-0.1071460023522377
1757088348505359600,2.441359619140625,0.14411799609661102,-0.1875700056552887,-0.050682999193668365
1757088348514912500,2.45091259765625,0.15571799874305725,-0.1874060034751892,-0.006384000182151794
1757088348524465400,2.46046533203125,0.13889099657535553,-0.20836299657821655,0.042201001197099686
1757088348534018300,2.470018310546875,0.0952410027384758,-0.23871499300003052,0.058462999761104584
1757088348543571200,2.4795712890625,0.0693499967455864,-0.21621200442314148,0.08304399996995926
1757088348553124000,2.4891240234375,0.07803399860858917,-0.2080339938402176,0.08336900174617767
1757088348562677200,2.49867724609375,0.0647440031170845,-0.14270499348640442,0.05465700104832649
1757088348572230100,2.508230224609375,0.01536600012332201,-0.11845199763774872,0.014170000329613686
1757088348581783000,2.517782958984375,-0.03825699910521507,-0.13038599491119385,-0.014770000241696835
1757088348591336000,2.5273359375,-0.05025000125169754,-0.1352970004081726,-0.030608000233769417
1757088348600888600,2.536888671875,-0.07026799768209457,-0.17155399918556213,-0.04970899969339371
1757088348610441700,2.546441650390625,-0.06425999850034714,-0.20752699673175812,-0.013303999789059162
1757088348619994400,2.555994384765625,-0.040369000285863876,-0.19325000047683716,-0.010242000222206116
1757088348629547500,2.565547607421875,-0.031252000480890274,-0.23136399686336517,0.021983999758958817
1757088348639100400,2.575100341796875,-0.022791000083088875,-0.2861329913139343,0.02475300058722496
1757088348648653300,2.5846533203125,-0.012800999917089939,-0.2880780100822449,0.038444001227617264
1757088348658206200,2.594206298828125,-0.008231000043451786,-0.2803960144519806,0.03978699818253517
1757088348667759000,2.603759033203125,-0.01334800012409687,-0.23686300218105316,0.03437099978327751
1757088348677312000,2.61331201171875,-0.03633600100874901,-0.21018199622631073,0.022446999326348305
1757088348686865000,2.622864990234375,-0.07121200114488602,-0.19803300499916077,-0.0002589999930933118
1757088348696417800,2.632417724609375,-0.06526599824428558,-0.21490000188350677,-0.04017199948430061
1757088348705971000,2.641970947265625,-0.07036200165748596,-0.2462330013513565,-0.05302799865603447
1757088348715523800,2.65152392578125,-0.05238400027155876,-0.2658100128173828,-0.0788080021739006
1757088348725077000,2.661076904296875,-0.02865999937057495,-0.24709700047969818,-0.07575500011444092
1757088348734629600,2.670629638671875,0.000291000003926456,-0.24988999962806702,-0.07300800085067749
1757088348744182500,2.6801826171875,-0.0019069999689236283,-0.2047950029373169,-0.06789299845695496
1757088348753735400,2.6897353515625,-0.008611000142991543,-0.18859900534152985,-0.08317500352859497
1757088348763288300,2.699288330078125,-0.008108999580144882,-0.2037470042705536,-0.10656899958848953
1757088348772841200,2.70884130859375,-0.005373000167310238,-0.23551499843597412,-0.09263099730014801
1757088348782394000,2.71839404296875,-0.027540000155568123,-0.25254499912261963,-0.047690000385046005
1757088348791947300,2.727947265625,-0.036924999207258224,-0.27650099992752075,-0.021247999742627144
1757088348801500200,2.737500244140625,-0.02739500068128109,-0.2883009910583496,-0.0032500000670552254
1757088348811053000,2.747052978515625,-0.011256000027060509,-0.2546440064907074,-0.006568999961018562
1757088348820606000,2.75660595703125,-0.002621999941766262,-0.2282859981060028,-0.01628500036895275
1757088348830158800,2.766158935546875,0.01674400083720684,-0.19736899435520172,-0.03641900047659874
1757088348839711700,2.775711669921875,0.02143000066280365,-0.20950199663639069,-0.030542999505996704
1757088348849264600,2.7852646484375,0.027723999693989754,-0.20968900620937347,-0.03166700154542923
1757088348858817500,2.794817626953125,0.022220000624656677,-0.2193640023469925,-0.016630999743938446
1757088348868370400,2.804370361328125,0.021415000781416893,-0.22167399525642395,0.00434499979019165
1757088348877923600,2.813923583984375,0.025397999212145805,-0.2405720055103302,0.024133000522851944
1757088348887476200,2.823476318359375,0.036056999117136,-0.24969899654388428,0.04502600058913231
1757088348897029000,2.833029052734375,0.04370500147342682,-0.23472000658512115,0.06239499896764755
1757088348906582000,2.84258203125,0.05310999974608421,-0.21977899968624115,0.05606900155544281
1757088348916135200,2.85213525390625,0.059505999088287354,-0.1977819949388504,0.03860900178551674
1757088348925688000,2.86168798828125,0.060812000185251236,-0.19541600346565247,-0.02107599936425686
1757088348935241000,2.871240966796875,0.05502200126647949,-0.1957550048828125,-0.05711600184440613
1757088348944793900,2.8807939453125,0.040327999740839005,-0.20823100209236145,-0.07046300172805786
1757088348954346800,2.8903466796875,0.01724199950695038,-0.2396879941225052,-0.0466810017824173
1757088348963899600,2.899899658203125,-0.0023739999160170555,-0.2492309957742691,-0.0014299999456852674
1757088348973452500,2.90945263671875,-0.016599999740719795,-0.2870419919490814,0.045458998531103134
1757088348983005700,2.919005615234375,-0.02800000086426735,-0.281372994184494,0.08732999861240387
1757088348992558300,2.928558349609375,-0.04592999815940857,-0.2609260082244873,0.13349699974060059
1757088349002111500,2.938111572265625,-0.0608070008456707,-0.2428400069475174,0.13154800236225128
1757088349011664400,2.947664306640625,-0.0682390034198761,-0.21294400095939636,0.10910800099372864
1757088349021217300,2.95721728515625,-0.09332100301980972,-0.19536200165748596,0.06508000195026398
1757088349030770200,2.966770263671875,-0.1053289994597435,-0.21164700388908386,0.023478999733924866
1757088349040323000,2.976322998046875,-0.10718099772930145,-0.21398800611495972,-0.024779999628663063
1757088349049876000,2.9858759765625,-0.1083969995379448,-0.22368299961090088,-0.043081000447273254
1757088349059428900,2.995428955078125,-0.09542900323867798,-0.238087996840477,-0.030849000439047813
1757088349068981800,3.004981689453125,-0.06464400142431259,-0.2500639855861664,-0.026058999821543694
1757088349078534700,3.01453466796875,-0.03761500120162964,-0.23803600668907166,-0.016915999352931976
1757088349088087600,3.024087646484375,-0.01886500045657158,-0.22852900624275208,-0.033204998821020126
1757088349097640400,3.033640380859375,-0.014890000224113464,-0.24279199540615082,-0.012392999604344368
1757088349107193600,3.043193603515625,0.011234999634325504,-0.2093230038881302,-0.026403000578284264
1757088349116746500,3.05274658203125,0.021866999566555023,-0.2212820053100586,-0.016884999349713326
1757088349126299400,3.06229931640625,0.02039100043475628,-0.20455099642276764,-0.01907300017774105
1757088349135852300,3.071852294921875,0.014446999877691269,-0.1997399926185608,-0.014430999755859375
1757088349145405200,3.0814052734375,0.015762999653816223,-0.21892400085926056,-0.021393999457359314
1757088349154957800,3.090957763671875,0.0261439997702837,-0.23337699472904205,-0.030347999185323715
1757088349164510700,3.1005107421875,0.040529001504182816,-0.2406180053949356,-0.0323060005903244
1757088349174063900,3.11006396484375,0.054065000265836716,-0.24314500391483307,-0.04571700096130371
1757088349183616800,3.11961669921875,0.05563899874687195,-0.23384100198745728,-0.06533399969339371
1757088349193170000,3.129169921875,0.07276199758052826,-0.21747399866580963,-0.07695300132036209
1757088349202722800,3.138722900390625,0.08180999755859375,-0.18699799478054047,-0.09876900166273117
1757088349212275500,3.148275390625,0.08541300147771835,-0.21881499886512756,-0.10596299916505814
1757088349221828400,3.157828369140625,0.08170899748802185,-0.22184300422668457,-0.09446299821138382
1757088349231381200,3.16738134765625,0.07097499817609787,-0.2320680022239685,-0.0972599983215332
1757088349240934100,3.17693408203125,0.04268199950456619,-0.23263800144195557,-0.08621899783611298
1757088349250487000,3.186487060546875,0.01602499932050705,-0.23325300216674805,-0.09163200110197067
1757088349260040200,3.196040283203125,-0.0021299999207258224,-0.2313780039548874,-0.07851699739694595
1757088349269592800,3.2055927734375,-0.02370700053870678,-0.22212600708007812,-0.052358999848365784
1757088349279145700,3.215145751953125,-0.023523999378085136,-0.23897899687290192,-0.027775999158620834
1757088349288699000,3.224698974609375,-0.02996700070798397,-0.2438109964132309,-0.02505899965763092
1757088349298251800,3.234251708984375,-0.019899999722838402,-0.24131199717521667,-0.009007000364363194
1757088349307804700,3.2438046875,-0.028200000524520874,-0.26023098826408386,0.0013790000230073929
1757088349317357600,3.253357666015625,-0.004015000071376562,-0.255403995513916,-0.02282099984586239
1757088349326910500,3.262910400390625,-0.010339999571442604,-0.24585700035095215,-0.029774999246001244
1757088349336463400,3.27246337890625,-0.009332000277936459,-0.26513001322746277,-0.040915001183748245
1757088349346016500,3.2820166015625,0.007637000177055597,-0.25801199674606323,-0.033282000571489334
1757088349355569400,3.2915693359375,0.021678000688552856,-0.21987299621105194,-0.041714999824762344
1757088349365122000,3.3011220703125,0.04169600084424019,-0.20354600250720978,-0.06991200149059296
1757088349374675000,3.310675048828125,0.049017999321222305,-0.2064480036497116,-0.0784820020198822
1757088349384228000,3.32022802734375,0.05563100054860115,-0.21188199520111084,-0.09092500060796738
1757088349393781000,3.329781005859375,0.041593998670578,-0.20280300080776215,-0.06844200193881989
1757088349403334000,3.339333984375,0.032905999571084976,-0.23669099807739258,-0.05403999984264374
1757088349412886800,3.34888671875,0.029481999576091766,-0.23440499603748322,-0.022197000682353973
1757088349422439700,3.358439697265625,0.03756500035524368,-0.24623200297355652,0.007912999950349331
1757088349431992600,3.36799267578125,0.0676250010728836,-0.24107599258422852,0.0340300016105175
1757088349441545500,3.37754541015625,0.07082100212574005,-0.23834200203418732,0.026830999180674553
1757088349451098400,3.387098388671875,0.06446699798107147,-0.22378000617027283,0.008603000082075596
1757088349460651500,3.396651611328125,0.04225200042128563,-0.2093620002269745,-0.00862099975347519
1757088349470204200,3.4062041015625,0.02348499931395054,-0.221437007188797,-0.024769000709056854
1757088349479757300,3.41575732421875,0.007931999862194061,-0.21903899312019348,-0.01286299992352724
1757088349489310200,3.425310302734375,0.00457199988886714,-0.2359129935503006,-0.02890400029718876
1757088349498863000,3.434863037109375,0.00133500003721565,-0.23362800478935242,-0.03058600053191185
1757088349508416000,3.444416015625,-0.0019460000330582261,-0.23137900233268738,-0.03442100062966347
1757088349517969000,3.453968994140625,-0.007400999777019024,-0.23604799807071686,-0.004141000099480152
1757088349537074700,3.47307470703125,-0.0353889986872673,-0.24077199399471283,-0.016516000032424927
1757088349546627600,3.482627685546875,-0.045777998864650726,-0.21917200088500977,-0.007220999803394079
1757088349556180700,3.4921806640625,-0.05322200059890747,-0.2070630043745041,0.006300000008195639
1757088349565733600,3.501733642578125,-0.062196001410484314,-0.20197199285030365,0.02352900058031082
1757088349575286500,3.51128662109375,-0.052427999675273895,-0.22335200011730194,0.005704999901354313
1757088349584839400,3.52083935546875,-0.043205998837947845,-0.2445649951696396,0.020258000120520592
1757088349594392300,3.530392333984375,-0.030143000185489655,-0.2610889971256256,0.006725000217556953
1757088349603945000,3.539945068359375,-0.04251600056886673,-0.27042800188064575,0.007550999987870455
1757088349613498000,3.549498046875,-0.03595200181007385,-0.2798829972743988,-0.007586000021547079
1757088349623050800,3.55905078125,-0.0361349992454052,-0.26294299960136414,0.005617999937385321
1757088349632604000,3.56860400390625,-0.008926000446081161,-0.2508839964866638,-0.006926000118255615
1757088349642156500,3.578156494140625,0.005578999873250723,-0.21965500712394714,-0.0004360000020824373
1757088349651709700,3.587709716796875,0.03501800075173378,-0.20285199582576752,-0.007970999926328659
1757088349661262800,3.597262939453125,0.04439200088381767,-0.1835169941186905,0.005080000031739473
1757088349670815500,3.6068154296875,0.05311400070786476,-0.18850399553775787,-0.04155600070953369
1757088349680368400,3.616368408203125,0.04754899814724922,-0.19125600159168243,-0.05838499963283539
1757088349689921300,3.62592138671875,0.0331140011548996,-0.225163996219635,-0.06540600210428238
1757088349699474200,3.63547412109375,0.03777899965643883,-0.24496600031852722,-0.09461300075054169
1757088349709027000,3.645027099609375,0.04673299938440323,-0.2216079980134964,-0.07880400121212006
1757088349718580000,3.654580078125,0.045944999903440475,-0.21243399381637573,-0.04987800121307373
1757088349728132900,3.6641328125,0.03824099898338318,-0.21491600573062897,-0.01589200086891651
1757088349737686000,3.67368603515625,0.04200199991464615,-0.23155200481414795,0.004660000093281269
1757088349747239000,3.683239013671875,0.03177899867296219,-0.2552250027656555,0.012244000099599361
1757088349756791800,3.692791748046875,0.01989700086414814,-0.2670460045337677,-0.010437999852001667
1757088349766344700,3.7023447265625,0.0038819999899715185,-0.2551240026950836,-0.036531999707221985
1757088349775897600,3.711897705078125,-0.029397999867796898,-0.2505280077457428,-0.05436599999666214
1757088349785450800,3.72145068359375,-0.03782600164413452,-0.23413799703121185,-0.07334800064563751
1757088349795003400,3.73100341796875,-0.04098600149154663,-0.2203029990196228,-0.08404400199651718
1757088349804556300,3.740556396484375,-0.03454099968075752,-0.20892499387264252,-0.08715400099754333
1757088349814109200,3.750109130859375,-0.028013000264763832,-0.2190829962491989,-0.08316200226545334
1757088349823662000,3.759662109375,-0.008113999851047993,-0.21210600435733795,-0.03384999930858612
1757088349833215200,3.76921533203125,0.006434000097215176,-0.24078699946403503,-0.007845000363886356
1757088349842768000,3.778767822265625,0.020080000162124634,-0.2597779929637909,0.003003000048920512
1757088349852321300,3.7883212890625,0.019262999296188354,-0.24993300437927246,0.010731000453233719
1757088349861874000,3.7978740234375,0.027594000101089478,-0.24025499820709229,-0.009158000349998474
1757088349871426800,3.8074267578125,0.028543999418616295,-0.23541800677776337,-0.014340999536216259
1757088349880979700,3.816979736328125,0.029267000034451485,-0.21403299272060394,-0.03728500008583069
1757088349890532600,3.82653271484375,0.029777999967336655,-0.1998780071735382,-0.040752001106739044
1757088349900085500,3.83608544921875,0.012101000174880028,-0.20483100414276123,-0.034908998757600784
1757088349909638400,3.845638427734375,0.0065910001285374165,-0.2240930050611496,-0.029441000893712044
1757088349919191300,3.85519140625,-0.003120000008493662,-0.21711300313472748,-0.04006100073456764
1757088349928744200,3.864744140625,-0.0008989999769255519,-0.23419499397277832,-0.052278000861406326
1757088349938297000,3.874297119140625,-0.005677000153809786,-0.23916000127792358,-0.034334998577833176
1757088349947850000,3.88385009765625,-0.007809999864548445,-0.25338101387023926,-0.001765000051818788
1757088349957403100,3.893403076171875,-0.007550999987870455,-0.24827000498771667,0.01763099990785122
1757088349966956000,3.9029560546875,-0.0029090000316500664,-0.22156299650669098,0.02711999975144863
1757088349976509000,3.912509033203125,-0.0008820000221021473,-0.22359399497509003,0.02227099984884262
1757088349986061800,3.922061767578125,-0.001184999942779541,-0.20655399560928345,0.013186999596655369
1757088349995614700,3.93161474609375,0.002991999965161085,-0.2183540016412735,-0.004763000179082155
1757088350005167600,3.941167724609375,0.00018699999782256782,-0.21333299577236176,0.000826000003144145
1757088350014720500,3.950720458984375,-0.00937699992209673,-0.23000800609588623,-0.021290000528097153
1757088350024273200,3.960273193359375,-0.000391999987186864,-0.23242099583148956,-0.03316500037908554
1757088350033826000,3.969825927734375,0.010263999924063683,-0.22291800379753113,-0.03752800077199936
1757088350043379200,3.979379150390625,-0.002437999937683344,-0.2231370061635971,-0.052855998277664185
1757088350052932400,3.988932373046875,-0.005191999953240156,-0.22594399750232697,-0.07404500246047974
1757088350062485200,3.9984853515625,-0.010076000355184078,-0.2072180062532425,-0.07117199897766113
1757088350072038000,4.008037841796875,-0.019130999222397804,-0.20040300488471985,-0.06150300055742264
1757088350081591000,4.017591064453125,-0.011772999539971352,-0.2126699984073639,-0.054733000695705414
1757088350091143700,4.027143798828125,0.0020779999904334545,-0.2416290044784546,-0.05084099993109703
1757088350100696600,4.036696533203125,-0.005016999784857035,-0.2583079934120178,-0.02025200054049492
1757088350110249500,4.04624951171875,0.0043219998478889465,-0.25827598571777344,-0.027658000588417053
1757088350119802400,4.05580224609375,0.011109000071883202,-0.25113898515701294,-0.03934599831700325
1757088350129355300,4.065355224609375,0.015339000150561333,-0.24885499477386475,-0.048222001641988754
1757088350138908400,4.074908447265625,0.02376900054514408,-0.2371480017900467,-0.06567899882793427
1757088350148461300,4.08446142578125,0.022724000737071037,-0.24445399641990662,-0.050554998219013214
1757088350158014200,4.09401416015625,0.017232999205589294,-0.2158139944076538,-0.04280899837613106
1757088350167567000,4.103567138671875,0.012349000200629234,-0.22075499594211578,-0.05136600136756897
1757088350177120000,4.1131201171875,0.021469000726938248,-0.23060500621795654,-0.06394600123167038
1757088350186673000,4.1226728515625,0.02339399978518486,-0.22854800522327423,-0.06891799718141556
1757088350196225800,4.132225830078125,0.03884999826550484,-0.22895100712776184,-0.07351300120353699
1757088350205778700,4.14177880859375,0.05118300020694733,-0.22945399582386017,-0.08227500319480896
1757088350215331600,4.15133154296875,0.05608399957418442,-0.23240099847316742,-0.08594299852848053
1757088350224884700,4.160884765625,0.06057000160217285,-0.24248799681663513,-0.07558099925518036
1757088350234437600,4.170437744140625,0.06919900327920914,-0.2380329966545105,-0.052067000418901443
1757088350243990500,4.179990478515625,0.04546299949288368,-0.21875,0.001990000018849969
1757088350253543400,4.18954345703125,0.038697000592947006,-0.22079700231552124,0.02352599985897541
1757088350263096300,4.199096435546875,0.009743000380694866,-0.2178110033273697,0.045942001044750214
1757088350272649200,4.208649169921875,0.007368999999016523,-0.2362689971923828,0.05092199891805649
1757088350282202000,4.2182021484375,0.014236999675631523,-0.2380020022392273,0.041703999042510986
1757088350291755000,4.227755126953125,-0.0040870001539587975,-0.2352139949798584,0.008016999810934067
1757088350301308000,4.237307861328125,-0.003163000103086233,-0.25179800391197205,-0.019426999613642693
1757088350310860800,4.24686083984375,0.006738000083714724,-0.2636930048465729,-0.031888000667095184
1757088350320413700,4.25641357421875,-0.008848999626934528,-0.2564699947834015,-0.03206900134682655
1757088350329966800,4.265966796875,-0.03935299813747406,-0.2536099851131439,0.012919999659061432
1757088350339519700,4.275519775390625,-0.03407299891114235,-0.22410300374031067,0.05102099850773811
1757088350349072600,4.28507275390625,-0.0018629999831318855,-0.2019679993391037,0.032791998237371445
1757088350358625500,4.29462548828125,-0.005390999838709831,-0.2183379977941513,0.003911999985575676
1757088350368178400,4.304178466796875,-0.0016700000269338489,-0.20850500464439392,-0.012095999903976917
1757088350377731000,4.31373095703125,-0.01170200016349554,-0.24654200673103333,-0.018592000007629395
1757088350387284000,4.323283935546875,-0.0071680000983178616,-0.29454898834228516,-0.06552399694919586
1757088350396837000,4.332837158203125,-0.00292899995110929,-0.28980499505996704,-0.05553799867630005
1757088350406390300,4.342390380859375,0.010103999637067318,-0.2827509939670563,-0.05940299853682518
1757088350415943200,4.351943115234375,0.015749000012874603,-0.24450300633907318,-0.03977600112557411
1757088350425496000,4.36149609375,0.021250000223517418,-0.18702900409698486,-0.020648999139666557
1757088350435048700,4.371048583984375,0.05600700154900551,-0.186940997838974,-0.009359999559819698
1757088350444601600,4.3806015625,0.07514800131320953,-0.19400499761104584,-0.00790799967944622
1757088350454154500,4.390154541015625,0.09073200076818466,-0.20843900740146637,-0.036400001496076584
1757088350463707600,4.399707763671875,0.08259899914264679,-0.23502400517463684,-0.06127899885177612
1757088350473260300,4.40926025390625,0.07019499689340591,-0.23326799273490906,-0.10265599936246872
1757088350482813200,4.418813232421875,0.06516300141811371,-0.22671300172805786,-0.09384500235319138
1757088350492366300,4.428366455078125,0.04443199932575226,-0.2174450010061264,-0.048781998455524445
1757088350501919200,4.437919189453125,0.038332998752593994,-0.21506400406360626,-0.010483000427484512
1757088350511472000,4.44747216796875,0.016459999606013298,-0.21725599467754364,0.01448800042271614
1757088350521025000,4.45702490234375,0.00007699999696342275,-0.22153300046920776,0.044610001146793365
1757088350530578000,4.466577880859375,-0.013244000263512135,-0.24735799431800842,0.03644699975848198
1757088350540130800,4.476130859375,-0.04637200012803078,-0.25162699818611145,0.030737999826669693
1757088350549683700,4.48568359375,-0.05498800054192543,-0.2561259865760803,0.0026839999482035637
1757088350559236600,4.495236572265625,-0.06962999701499939,-0.265394002199173,0.0008789999992586672
1757088350568789500,4.50478955078125,-0.08321099728345871,-0.24590100347995758,0.006118000019341707
1757088350578342400,4.51434228515625,-0.07776100188493729,-0.255171000957489,-0.00043399998685345054
1757088350587895300,4.523895263671875,-0.08138799667358398,-0.25251099467277527,-0.006723999977111816
1757088350597448200,4.5334482421875,-0.07115600258111954,-0.2592250108718872,0.01432000007480383
1757088350607001300,4.54300146484375,-0.06811700016260147,-0.242140993475914,0.0004030000127386302
1757088350616554200,4.55255419921875,-0.042392998933792114,-0.23467400670051575,-0.0013749999925494194
1757088350626107100,4.562107177734375,-0.052060000598430634,-0.21287499368190765,-0.002882000058889389
1757088350635660000,4.571659912109375,-0.05209900066256523,-0.2102929949760437,-0.01118400041013956
1757088350645213000,4.581212890625,-0.036285001784563065,-0.2125300019979477,-0.014522000215947628
1757088350654765800,4.590765869140625,-0.03249799832701683,-0.23379400372505188,-0.004381000064313412
1757088350664318700,4.600318603515625,-0.03543199971318245,-0.23367799818515778,-0.024210000410676003
1757088350673871600,4.60987158203125,-0.008466999977827072,-0.21924400329589844,-0.026996999979019165
1757088350683424500,4.619424560546875,0.005766000133007765,-0.23617300391197205,-0.059296999126672745
1757088350692977700,4.628977783203125,0.021244000643491745,-0.21990400552749634,-0.09421999752521515
1757088350702530300,4.6385302734375,0.03801099956035614,-0.2134300023317337,-0.11812400072813034
1757088350712083500,4.64808349609375,0.042110998183488846,-0.20942799746990204,-0.11997900158166885
1757088350721636400,4.65763623046875,0.05022599920630455,-0.21250000596046448,-0.10105600208044052
1757088350731189000,4.66718896484375,0.02626900002360344,-0.20804299414157867,-0.058132998645305634
1757088350740742100,4.6767421875,0.012752000242471695,-0.2225169986486435,-0.031036999076604843
1757088350750295000,4.686294921875,-0.0019729998894035816,-0.23443999886512756,-0.01695300079882145
1757088350759848000,4.695847900390625,0.0271029993891716,-0.24626199901103973,-0.008375000208616257
1757088350769400800,4.70540087890625,0.03649900108575821,-0.24367700517177582,-0.0048870001919567585
1757088350778953700,4.71495361328125,0.03624200075864792,-0.23144400119781494,0.002919000107795
1757088350788506600,4.724506591796875,0.03577199950814247,-0.23120099306106567,-0.0011269999668002129
1757088350798059500,4.7340595703125,0.03963100165128708,-0.25495201349258423,-0.014418000355362892
1757088350807612400,4.7436123046875,0.03204900026321411,-0.2500059902667999,-0.017889000475406647
1757088350817165300,4.753165283203125,0.03392399847507477,-0.2405250072479248,-0.04598800092935562
1757088350826718200,4.76271826171875,0.024152999743819237,-0.2094240039587021,-0.03145100176334381
1757088350836271000,4.77227099609375,0.014832999557256699,-0.22126899659633636,-0.015548000112175941
1757088350845824000,4.781823974609375,-0.009961999952793121,-0.2520599961280823,0.0037609999999403954
1757088350855377000,4.791376953125,-0.015176000073552132,-0.24216000735759735,0.0016110000433400273
1757088350864929800,4.8009296875,-0.02009899914264679,-0.2465820014476776,0.006333999801427126
1757088350874482700,4.810482666015625,-0.03832399845123291,-0.24612000584602356,0.01521500013768673
1757088350884035600,4.82003564453125,-0.03531799837946892,-0.22179199755191803,0.007846999913454056
1757088350893588500,4.82958837890625,-0.050613000988960266,-0.22609999775886536,0.016575999557971954
1757088350903141400,4.839141357421875,-0.05826599895954132,-0.21847300231456757,0.013573000207543373
1757088350912694500,4.848694580078125,-0.056419000029563904,-0.20879599452018738,-0.025383999571204185
1757088350922247400,4.858247314453125,-0.0500900000333786,-0.19676299393177032,-0.02341100014746189
1757088350931800300,4.86780029296875,-0.0599370002746582,-0.20642000436782837,-0.039608001708984375
1757088350941353200,4.877353271484375,-0.060072001069784164,-0.23751099407672882,-0.030276000499725342
1757088350950906000,4.886906005859375,-0.07579000294208527,-0.25898200273513794,-0.02366200089454651
1757088350960459000,4.896458984375,-0.058410998433828354,-0.2467070072889328,0.0029349999967962503
1757088350970011600,4.90601171875,-0.03930699825286865,-0.23201900720596313,0.007818999700248241
1757088350979564800,4.915564697265625,-0.016493000090122223,-0.21267299354076385,-0.0031389999203383923
1757088350989117700,4.92511767578125,0.018736999481916428,-0.22219300270080566,-0.025110000744462013
1757088350998670800,4.9346708984375,0.03820300102233887,-0.21748700737953186,-0.04130899906158447
1757088351008223500,4.944223388671875,0.049598999321460724,-0.20822300016880035,-0.06547600030899048
1757088351017776400,4.9537763671875,0.07129500061273575,-0.20378300547599792,-0.06542299687862396
1757088351027329300,4.963329345703125,0.07571300119161606,-0.22088900208473206,-0.06539899855852127
1757088351036882200,4.972882080078125,0.07966200262308121,-0.252034991979599,-0.031683001667261124
1757088351046435000,4.98243505859375,0.08539099991321564,-0.2518869936466217,-0.013508000411093235
1757088351055988200,4.99198828125,0.08602800220251083,-0.23252500593662262,-0.007720000110566616
1757088351065541000,5.001541015625,0.08402799814939499,-0.22291800379753113,-0.02943900041282177
1757088351075094000,5.011093994140625,0.06168799847364426,-0.22551700472831726,-0.05677400156855583
1757088351084647000,5.02064697265625,0.051885999739170074,-0.22341400384902954,-0.06912799924612045
1757088351094199800,5.03019970703125,0.02689499966800213,-0.23120500147342682,-0.10564800351858139
1757088351103752700,5.039752685546875,0.030522000044584274,-0.23415599763393402,-0.09945899993181229
1757088351113305600,5.0493056640625,0.02971700020134449,-0.23942400515079498,-0.09139200299978256
1757088351122858500,5.0588583984375,0.017649000510573387,-0.1945980042219162,-0.1060200035572052
1757088351132411400,5.068411376953125,0.031018000096082687,-0.2001110017299652,-0.11547999829053879
1757088351141964300,5.07796435546875,0.0365849994122982,-0.20318399369716644,-0.1084970012307167
1757088351151517200,5.08751708984375,0.03495800122618675,-0.23254500329494476,-0.10905099660158157
1757088351161070000,5.097070068359375,0.015382999554276466,-0.2808130085468292,-0.08972799777984619
1757088351170623000,5.106623046875,-0.007486999966204166,-0.32666900753974915,-0.09685800224542618
1757088351180176100,5.116176025390625,-0.012899000197649002,-0.3460099995136261,-0.08123400062322617
1757088351189729000,5.12572900390625,-0.030764000490307808,-0.31964799761772156,-0.052657999098300934
1757088351199282000,5.135281982421875,-0.028543999418616295,-0.31679201126098633,-0.00546600017696619
1757088351208834800,5.144834716796875,-0.009510000236332417,-0.3161010146141052,0.016179999336600304
1757088351218387700,5.1543876953125,0.007447999902069569,-0.34651198983192444,0.004153999965637922
1757088351227940400,5.1639404296875,0.04972999915480614,-0.3721579909324646,-0.01013300009071827
1757088351237493500,5.173493408203125,0.06620000302791595,-0.4123139977455139,-0.0402659997344017
1757088351247046400,5.18304638671875,0.07029300183057785,-0.43817099928855896,-0.057989999651908875
1757088351256599300,5.192599365234375,0.07932300120592117,-0.4163829982280731,-0.08138500154018402
1757088351266152200,5.202152099609375,0.11619699746370316,-0.3542949855327606,-0.11649300158023834
1757088351285258000,5.221258056640625,0.301268994808197,-0.27319198846817017,-0.10064099729061127
1757088351294811000,5.230810791015625,0.38224199414253235,-0.2541950047016144,-0.10694699734449387
1757088351304363800,5.24036376953125,0.4428670108318329,-0.2614920139312744,-0.10154200345277786
1757088351313916700,5.249916748046875,0.5019140243530273,-0.27829301357269287,-0.10132899880409241
1757088351323469600,5.259469482421875,0.534305989742279,-0.29992198944091797,-0.12479899823665619
1757088351333022500,5.2690224609375,0.5415970087051392,-0.3481990098953247,-0.1773110032081604
1757088351342575400,5.278575439453125,0.5550500154495239,-0.4403339922428131,-0.27508100867271423
1757088351352128300,5.288128173828125,0.5545979738235474,-0.4971520006656647,-0.345102995634079
1757088351361681200,5.29768115234375,0.5821719765663147,-0.5357570052146912,-0.4402329921722412
1757088351371234300,5.307234375,0.6541209816932678,-0.5316939949989319,-0.4585230052471161
1757088351380787000,5.316786865234375,0.7715049982070923,-0.4978939890861511,-0.3252499997615814
1757088351390340000,5.326340087890625,0.8223509788513184,-0.4299109876155853,-0.25845301151275635
1757088351399893000,5.33589306640625,0.7517499923706055,-0.33131998777389526,-0.3157149851322174
1757088351409446000,5.34544580078125,0.6533240079879761,-0.1593399941921234,-0.38044801354408264
1757088351418998800,5.354998779296875,0.5776680111885071,0.00916299968957901,-0.46107301115989685
1757088351428551700,5.3645517578125,0.5334439873695374,0.14515000581741333,-0.5490279793739319
1757088351438104600,5.3741044921875,0.5150499939918518,0.28022700548171997,-0.5640980005264282
1757088351447657500,5.383657470703125,0.5139639973640442,0.4146679937839508,-0.5298550128936768
1757088351457210400,5.39321044921875,0.416702002286911,0.6039609909057617,-0.4240120053291321
1757088351466763300,5.40276318359375,0.15761500597000122,0.7176269888877869,-0.37066298723220825
1757088351476316400,5.41231640625,-0.12362399697303772,0.9179270267486572,-0.2592580020427704
1757088351485869000,5.421869140625,-0.37480300664901733,1.2628920078277588,-0.1772889941930771
1757088351495422200,5.431422119140625,-0.3574579954147339,1.5428110361099243,-0.16662800312042236
1757088351504974800,5.440974853515625,-0.6138499975204468,1.7137030363082886,-0.029834000393748283
1757088351514527700,5.45052783203125,-1.3649150133132935,1.8221160173416138,0.09145200252532959
1757088351524080600,5.46008056640625,-2.0244760513305664,1.729354977607727,0.2111160010099411
1757088351533633500,5.469633544921875,-1.7213380336761475,1.7112460136413574,0.17874599993228912
1757088351543186400,5.4791865234375,-0.5672680139541626,1.7376179695129395,-0.21832600235939026
1757088351552739300,5.4887392578125,1.3703930377960205,1.6414330005645752,-0.17488700151443481
1757088351562292500,5.49829248046875,2.682945966720581,1.7052149772644043,0.4868519902229309
1757088351571845400,5.507845458984375,3.5244410037994385,1.2942049503326416,1.3365470170974731
1757088351581398000,5.51739794921875,3.5902600288391113,0.48471799492836,1.478232979774475
1757088351590951000,5.526950927734375,3.466149091720581,-0.5340070128440857,1.2404340505599976
1757088351600504000,5.536504150390625,1.5705100297927856,-1.6071120500564575,0.746662974357605
1757088351610057000,5.546056884765625,-1.0808570384979248,-2.2639150619506836,0.31043699383735657
1757088351619609900,5.55560986328125,-2.3066320419311523,-2.841960906982422,0.15323799848556519
1757088351629162800,5.565162841796875,-2.0241899490356445,-3.493328094482422,0.5459780097007751
1757088351638715600,5.574715576171875,-1.2889909744262695,-3.6338400840759277,0.9561070203781128
1757088351648268500,5.5842685546875,0.5983049869537354,-3.1711161136627197,1.0836479663848877
1757088351657821400,5.593821533203125,-0.014941999688744545,-1.661512017250061,1.3307709693908691
1757088351667374300,5.603374267578125,-1.1763520240783691,-0.24997900426387787,1.1872559785842896
1757088351676927200,5.61292724609375,-1.0791360139846802,0.19636599719524384,0.5367000102996826
1757088351686480100,5.622480224609375,-0.8391709923744202,0.6704540252685547,0.42723700404167175
1757088351696033300,5.632033203125,-0.6547840237617493,1.1955300569534302,0.6266329884529114
1757088351705586200,5.641586181640625,-0.38283100724220276,1.4735989570617676,0.5112180113792419
1757088351715138800,5.651138916015625,-0.2555280029773712,1.833493947982788,0.39865899085998535
1757088351724691700,5.660691650390625,0.3876340091228485,2.193650960922241,0.2723129987716675
1757088351734244600,5.67024462890625,1.2076369524002075,2.2214579582214355,0.37355199456214905
1757088351743797500,5.679797607421875,1.4951729774475098,1.9602580070495605,0.2073570042848587
1757088351753350400,5.689350341796875,0.7174829840660095,1.6659280061721802,0.09549299627542496
1757088351762903300,5.6989033203125,-0.04415399953722954,1.109853982925415,-0.02662299945950508
1757088351772456400,5.70845654296875,-0.016558000817894936,0.37277400493621826,-0.04548700153827667
1757088351782009300,5.71800927734375,0.24608799815177917,-0.16993199288845062,-0.3952620029449463
1757088351791562200,5.727562255859375,0.3345470130443573,-0.4231559932231903,-0.7756819725036621
1757088351801115400,5.737115478515625,-0.20273099839687347,-0.3230690062046051,-1.2832859754562378
1757088351810668000,5.74666796875,-0.7222489714622498,-0.055670998990535736,-1.5865479707717896
1757088351820221000,5.756220947265625,-0.7587550282478333,0.24772000312805176,-1.5798059701919556
1757088351829773800,5.76577392578125,-0.1803780049085617,0.570576012134552,-0.9703750014305115
1757088351839326700,5.77532666015625,0.17913499474525452,0.5996339917182922,0.10760000348091125
1757088351848879600,5.784879638671875,0.10178700089454651,0.8841720223426819,0.6811929941177368
1757088351858432500,5.7944326171875,-0.009139000438153744,1.1415640115737915,1.282317042350769
1757088351867985400,5.8039853515625,-0.14646099507808685,1.075199007987976,1.884186029434204
1757088351877538300,5.813538330078125,-0.40141600370407104,1.3971420526504517,1.6376750469207764
1757088351887091500,5.823091552734375,-0.0805789977312088,1.5685670375823975,1.304932951927185
1757088351896644400,5.832644287109375,0.16843000054359436,1.802696943283081,0.9105219841003418
1757088351906197200,5.842197265625,0.25743699073791504,1.7330609560012817,0.8871009945869446
1757088351915750100,5.851750244140625,-0.08049199730157852,1.5038549900054932,0.5762150287628174
1757088351925302800,5.861302734375,-0.03783800080418587,1.2078449726104736,0.583404004573822
1757088351934855700,5.870855712890625,-0.006694000214338303,0.6027860045433044,0.8665810227394104
1757088351944408600,5.88040869140625,-0.4659619927406311,-0.00931399967521429,0.9602940082550049
1757088351953961700,5.889961669921875,-0.7501090168952942,-0.39456599950790405,0.7256219983100891
1757088351963514400,5.899514404296875,-0.8999500274658203,-0.6693999767303467,0.41375699639320374
1757088351973067500,5.909067626953125,-0.6175869703292847,-0.7517970204353333,-0.053617000579833984
1757088351982620400,5.918620361328125,0.07092499732971191,-0.6910160183906555,-0.21517899632453918
1757088351992173300,5.92817333984375,-0.18897099792957306,-0.6615449786186218,-0.06029700115323067
1757088352001726200,5.937726318359375,-0.32680100202560425,-0.49571898579597473,0.02377600036561489
1757088352011279000,5.947279052734375,-0.36892300844192505,-0.32106301188468933,0.10137200355529785
1757088352020832000,5.95683203125,0.03445800021290779,-0.38882800936698914,0.4303539991378784
1757088352030385000,5.966385009765625,0.02622300013899803,-0.20588000118732452,-0.013768999837338924
1757088352039937800,5.975937744140625,0.055472999811172485,-0.18076999485492706,-0.16965900361537933
1757088352049490700,5.98549072265625,-0.43891000747680664,-0.19557100534439087,-0.34612199664115906
1757088352059043600,5.995043701171875,-0.4901590049266815,-0.13698899745941162,-0.8436920046806335
1757088352068596500,6.004596435546875,-0.4028739929199219,-0.10253699868917465,-1.0088920593261719
1757088352078149400,6.0141494140625,-0.7043300271034241,0.05634300038218498,-1.220842957496643
1757088352087702300,6.023702392578125,-0.682545006275177,0.1030070036649704,-1.3589190244674683
1757088352097255200,6.033255126953125,-0.7877010107040405,-0.15022100508213043,-0.9664120078086853
1757088352106808000,6.04280810546875,-0.7158520221710205,-0.38530799746513367,-0.5406249761581421
1757088352116361200,6.052361328125,-0.6113060116767883,-0.24702699482440948,-0.10764700174331665
1757088352125913900,6.061913818359375,-0.9040129780769348,-0.13529500365257263,0.5705130100250244
1757088352135467000,6.071467041015625,-0.9653210043907166,0.08165299892425537,0.5474889874458313
1757088352145019600,6.08101953125,-0.870373010635376,0.08144400268793106,0.21711499989032745
1757088352154572500,6.090572509765625,-0.5834680199623108,-0.16222800314426422,-0.09655500203371048
1757088352164125400,6.10012548828125,-0.015494000166654587,-0.31380799412727356,-0.33602800965309143
1757088352173678300,6.10967822265625,-0.0300539992749691,-0.25889500975608826,-0.5225859880447388
1757088352183231500,6.1192314453125,-0.1554899960756302,-0.06263899803161621,-0.5018219947814941
1757088352192784400,6.128784423828125,0.0017960000550374389,0.08068999648094177,-0.8744969964027405
1757088352202337300,6.138337158203125,0.19408099353313446,0.3214319944381714,-0.5324069857597351
1757088352211890200,6.14789013671875,-0.042500000447034836,-0.04476200044155121,-0.2925960123538971
1757088352221443000,6.157443115234375,0.27681198716163635,-0.24161000549793243,0.02411000058054924
1757088352230996000,6.166995849609375,0.04099399968981743,-0.3897339999675751,0.15954700112342834
1757088352240548900,6.176548828125,-0.2811349928379059,-0.34791100025177,0.37855398654937744
1757088352250101800,6.186101806640625,-0.13599500060081482,-0.18490299582481384,0.54202800989151
1757088352259654700,6.195654541015625,-0.12847700715065002,-0.15407900512218475,0.5520280003547668
1757088352269207600,6.20520751953125,-0.08468999713659286,-0.0014169999631121755,0.4005649983882904
1757088352278760400,6.214760498046875,-0.1618880033493042,0.11674299836158752,0.2876729965209961
1757088352288313600,6.224313720703125,-0.20346699655056,0.188960000872612,0.5303220152854919
1757088352297866500,6.233866455078125,-0.45986101031303406,0.35636600852012634,0.48274698853492737
1757088352307419400,6.24341943359375,-0.481469988822937,0.3660529851913452,0.46310898661613464
1757088352316972300,6.25297216796875,-0.3862830102443695,0.4329330027103424,0.37087100744247437
1757088352326525200,6.262525146484375,-0.24649199843406677,0.3630250096321106,0.05168300122022629
1757088352336078000,6.272078125,0.024676000699400902,0.2472359985113144,-0.17715400457382202
1757088352345630700,6.281630615234375,0.09233900159597397,0.144227996468544,-0.3856840133666992
1757088352355183900,6.291183837890625,0.13326500356197357,-0.015451000072062016,-0.6715850234031677
1757088352364736800,6.30073681640625,-0.2056419998407364,0.054023999720811844,-0.6765909790992737
1757088352374290000,6.3102900390625,-0.5779410004615784,0.08384999632835388,-0.3802320063114166
1757088352383842600,6.319842529296875,-0.9090890288352966,0.03182800114154816,-0.247980996966362
1757088352393395500,6.3293955078125,-0.8445680141448975,0.08851200342178345,0.0185759998857975
1757088352402948400,6.3389482421875,-0.580968976020813,0.3766170144081116,0.19324399530887604
1757088352412501200,6.348501220703125,-0.42317500710487366,0.6135119795799255,0.28501200675964355
1757088352422054100,6.35805419921875,-0.7338629961013794,0.4500359892845154,0.09694399684667587
1757088352431607000,6.36760693359375,-0.8278679847717285,0.29545798897743225,-0.09546799957752228
1757088352441160200,6.37716015625,-0.5841609835624695,0.24311800301074982,-0.3066509962081909
1757088352450713000,6.386713134765625,-0.6525639891624451,0.4326710104942322,-0.3040750026702881
1757088352460266000,6.396265869140625,-0.9885129928588867,0.44056999683380127,-0.243694007396698
1757088352469819000,6.40581884765625,-0.8393840193748474,0.3146969974040985,-0.05951999872922897
1757088352479371800,6.415371826171875,-0.23242799937725067,0.20858900249004364,0.1966170072555542
1757088352488924700,6.424924560546875,0.30321401357650757,0.09392099827528,0.35443800687789917
1757088352498477600,6.4344775390625,0.8525890111923218,-0.09721799939870834,0.4454750120639801
1757088352508030500,6.444030517578125,0.653639018535614,-0.11107999831438065,0.38803601264953613
1757088352517583400,6.453583251953125,0.48408299684524536,-0.17214100062847137,0.1447490006685257
1757088352527136300,6.46313623046875,0.2915639877319336,-0.34983500838279724,-0.018814999610185623
1757088352536689000,6.47268896484375,-0.025908000767230988,-0.6671040058135986,0.04185099899768829
1757088352546242000,6.482241943359375,-0.13719099760055542,-0.8470720052719116,0.1737300008535385
1757088352555795000,6.491794921875,-0.07582200318574905,-0.8967729806900024,0.3112330138683319
1757088352565347800,6.501347900390625,-0.01435100007802248,-0.8089709877967834,0.364654004573822
1757088352574900700,6.510900634765625,-0.03378999978303909,-0.6534339785575867,0.4171319901943207
1757088352584453600,6.52045361328125,-0.0882209986448288,-0.4473850131034851,0.44925498962402344
1757088352594006500,6.530006591796875,-0.13759200274944305,-0.19048599898815155,0.24395699799060822
1757088352603559400,6.539559326171875,-0.02389100007712841,-0.07951299846172333,0.15821799635887146
1757088352613112300,6.5491123046875,0.06139099970459938,0.05583199858665466,0.11198899894952774
1757088352622665200,6.558665283203125,0.080205999314785,0.15213899314403534,0.21227000653743744
1757088352632218000,6.568218017578125,-0.04029199853539467,0.12493400275707245,0.13605299592018127
1757088352641771000,6.57777099609375,-0.00822100043296814,0.07181300222873688,0.02183699980378151
1757088352651324200,6.58732421875,-0.005373000167310238,0.020496999844908714,-0.05016399919986725
1757088352660877000,6.596876953125,-0.09602600336074829,0.018168000504374504,-0.11891999840736389
1757088352670430000,6.606429931640625,-0.1413780003786087,0.032871000468730927,-0.21613700687885284
1757088352679982800,6.61598291015625,-0.08197099715471268,0.050829000771045685,-0.37685298919677734
1757088352689535700,6.62553564453125,-0.06871599704027176,0.0034199999645352364,-0.5312150120735168
1757088352699088600,6.635088623046875,-0.03664400056004524,-0.014507000334560871,-0.6483550071716309
1757088352708641500,6.6446416015625,0.04062800109386444,-0.036531999707221985,-0.7411710023880005
1757088352718194400,6.6541943359375,0.1802700012922287,-0.02609900012612343,-0.7137889862060547
1757088352727747000,6.6637470703125,0.26983100175857544,0.0010239999974146485,-0.673874020576477
1757088352737300200,6.67330029296875,0.2644839882850647,0.08874200284481049,-0.5387449860572815
1757088352746853000,6.68285302734375,0.15869900584220886,0.17623299360275269,-0.5400800108909607
1757088352756406300,6.69240625,0.11902599781751633,0.12787500023841858,-0.6069080233573914
1757088352765959200,6.701959228515625,0.05076399818062782,-0.11540599912405014,-0.8748570084571838
1757088352775512000,6.711511962890625,0.23120799660682678,-0.4711810052394867,-0.6988189816474915
1757088352785064700,6.721064697265625,0.5967950224876404,-0.40136098861694336,-0.44049298763275146
1757088352794617600,6.73061767578125,0.9018049836158752,0.028501000255346298,0.24061399698257446
1757088352804170500,6.74017041015625,0.9368680119514465,0.1393350064754486,0.3168709874153137
1757088352813723400,6.749723388671875,1.0085699558258057,-0.22572200000286102,0.13431000709533691
1757088352823276300,6.7592763671875,0.924934983253479,-0.42805901169776917,0.04434800148010254
1757088352832829200,6.7688291015625,0.4921649992465973,-0.40052899718284607,0.1378220021724701
1757088352842382300,6.77838232421875,0.17153599858283997,-0.33198899030685425,0.15036199986934662
1757088352851935000,6.78793505859375,-0.05531100183725357,0.011710000224411488,0.20086799561977386
1757088352861488000,6.797488037109375,-0.11474499851465225,0.3807919919490814,0.10983999818563461
1757088352871041000,6.807041015625,-0.3600330054759979,0.7270429730415344,0.09043300151824951
1757088352880594000,6.816593994140625,-0.6135129928588867,0.9665780067443848,0.07631699740886688
1757088352890146800,6.826146728515625,-0.6005629897117615,0.9166489839553833,0.028919000178575516
1757088352899699700,6.83569970703125,-0.373879998922348,0.7985039949417114,0.0314520001411438
1757088352909252600,6.845252685546875,0.020059999078512192,0.6808379888534546,0.004788000136613846
1757088352918805500,6.854805419921875,0.31181600689888,0.5198879837989807,-0.10651899874210358
1757088352928358400,6.8643583984375,0.5494589805603027,0.30093300342559814,-0.13513100147247314
1757088352937911300,6.873911376953125,0.7672119736671448,0.0784590020775795,-0.05440700054168701
1757088352947464200,6.883464111328125,0.8100969791412354,-0.13210800290107727,0.07909499853849411
1757088352957017000,6.89301708984375,0.5853580236434937,-0.29851898550987244,0.22222599387168884
1757088352966570000,6.902570068359375,0.3178209960460663,-0.41549599170684814,0.2677820026874542
1757088352976123100,6.912123046875,-0.10697700083255768,-0.3874399960041046,0.2394299954175949
1757088352985676000,6.921676025390625,-0.30349600315093994,-0.30613601207733154,0.21738000214099884
1757088352995228700,6.931228759765625,-0.32285499572753906,-0.21492700278759003,0.13304699957370758
1757088353004781600,6.940781494140625,-0.41631901264190674,-0.10806799679994583,0.06300400197505951
1757088353014334500,6.95033447265625,-0.4160270094871521,-0.03599099814891815,0.054448001086711884
1757088353023887400,6.959887451171875,-0.33630499243736267,-0.0752519965171814,0.1227950006723404
1757088353033440300,6.969440185546875,-0.20830200612545013,-0.1284410059452057,0.19537100195884705
1757088353042993200,6.9789931640625,-0.13782499730587006,-0.2123969942331314,0.22716300189495087
1757088353052546000,6.988546142578125,-0.10331500321626663,-0.2898719906806946,0.26127201318740845
1757088353062099000,6.998098876953125,-0.002429000101983547,-0.39079999923706055,0.2309650033712387
1757088353071651800,7.00765185546875,0.10985799878835678,-0.40737101435661316,0.18349500000476837
1757088353081204700,7.017204833984375,0.2025420069694519,-0.332955002784729,0.0997759997844696
1757088353090758000,7.0267578125,0.22369499504566193,-0.15467800199985504,0.058313000947237015
1757088353100310800,7.036310791015625,0.1712760031223297,0.04493200033903122,0.044780001044273376
1757088353109863700,7.04586376953125,0.10908900201320648,0.041951000690460205,0.02776299975812435
1757088353119416600,7.05541650390625,0.020455999299883842,-0.001025000005029142,0.016899000853300095
1757088353128969500,7.064969482421875,-0.0038930000737309456,-0.079475998878479,-0.008148999884724617
1757088353138522400,7.0745224609375,0.012360000051558018,-0.1150360032916069,-0.021825000643730164
1757088353148075000,7.084074951171875,0.05951699987053871,-0.1463720053434372,-0.04184800013899803
1757088353157628200,7.093628173828125,0.10879199951887131,-0.15768499672412872,-0.07412999868392944
1757088353167180800,7.103180908203125,0.1269180029630661,-0.11631499975919724,-0.10457400232553482
1757088353176734000,7.11273388671875,0.16629500687122345,-0.15204200148582458,-0.11440099775791168
1757088353186286800,7.122286865234375,0.18618200719356537,-0.19991399347782135,-0.13223500549793243
1757088353195839700,7.13183984375,0.18712100386619568,-0.1486860066652298,-0.13748200237751007
1757088353205393000,7.141392822265625,0.17115500569343567,-0.13410399854183197,-0.15288899838924408
1757088353214945500,7.150945556640625,0.10458099842071533,-0.16992099583148956,-0.18852299451828003
1757088353224498400,7.16049853515625,0.09775999933481216,-0.14270900189876556,-0.22686299681663513
1757088353234051300,7.17005126953125,0.10464700311422348,-0.15986000001430511,-0.30561700463294983
1757088353243604200,7.179604248046875,0.1479019969701767,-0.08611699938774109,-0.27511999011039734
1757088353253157000,7.1891572265625,0.20340700447559357,0.010664000175893307,-0.26001399755477905
1757088353262710300,7.198710205078125,0.1401669979095459,0.12609300017356873,-0.20761899650096893
1757088353272263000,7.208262939453125,0.07924900203943253,0.09916099905967712,-0.21799999475479126
1757088353281815800,7.21781591796875,0.06410399824380875,0.05818000063300133,-0.1636119931936264
1757088353291368700,7.22736865234375,0.05823000147938728,0.0062350002117455006,-0.16877900063991547
1757088353300921900,7.236921875,0.06674399971961975,0.015560000203549862,-0.16165100038051605
1757088353310474800,7.246474853515625,0.1282850056886673,0.026745999231934547,-0.09019000083208084
1757088353320027600,7.256027587890625,0.14668400585651398,0.014674999751150608,-0.06916400045156479
1757088353339133200,7.27513330078125,0.12731899321079254,0.025479000061750412,0.04122700169682503
1757088353348686300,7.284686279296875,0.14690500497817993,0.023722000420093536,0.09611199796199799
1757088353358239200,7.2942392578125,0.10445600003004074,0.042047999799251556,0.10946699976921082
1757088353367792000,7.303792236328125,0.0745370015501976,0.03449400141835213,0.18700100481510162
1757088353377345000,7.313344970703125,0.09244400262832642,-0.012885999865829945,0.22198499739170074
1757088353386898000,7.32289794921875,0.06250999867916107,0.0056050000712275505,0.21666499972343445
1757088353396450800,7.332450927734375,0.08054199814796448,0.004769999999552965,0.23212000727653503
1757088353406003700,7.342003662109375,0.12230700254440308,0.019874000921845436,0.20691899955272675
1757088353415556900,7.351556884765625,0.0779850035905838,0.013904999941587448,0.2281239926815033
1757088353425109500,7.361109619140625,0.05280499905347824,-0.01636599935591221,0.22635500133037567
1757088353434662400,7.370662353515625,0.05617300048470497,-0.028915999457240105,0.18963399529457092
1757088353444215300,7.38021533203125,0.059498000890016556,0.006692999973893166,0.14991499483585358
1757088353453768200,7.389768310546875,0.07916299998760223,-0.018448999151587486,0.10588499903678894
1757088353463321300,7.3993212890625,0.04149499908089638,0.023149000480771065,0.09610699862241745
1757088353472874200,7.408874267578125,-0.01054999977350235,0.04466100037097931,0.08468200266361237
1757088353482427100,7.41842724609375,-0.06771200150251389,-0.02050199918448925,0.058841001242399216
1757088353491980000,7.42797998046875,-0.0411669984459877,-0.02986999973654747,0.03331499919295311
1757088353501533000,7.437532958984375,0.004443000070750713,-0.015905000269412994,0.0066559999249875546
1757088353511085600,7.44708544921875,0.05246099829673767,-0.02515299990773201,0.017650000751018524
1757088353520638700,7.456638671875,0.09336499869823456,-0.004774999804794788,0.009953999891877174
1757088353530191600,7.466191650390625,0.12179400026798248,-0.03994600102305412,-0.05177399888634682
1757088353539744500,7.47574462890625,0.17955400049686432,0.04381699860095978,-0.021663999184966087
1757088353549297400,7.48529736328125,0.18926699459552765,0.04903699830174446,-0.019070999696850777
1757088353558850300,7.494850341796875,0.08861999958753586,0.02237199991941452,-0.04670000076293945
1757088353568403200,7.5044033203125,0.0956220030784607,-0.0004839999892283231,-0.052955999970436096
1757088353577956000,7.5139560546875,0.13580800592899323,-0.03549500182271004,-0.07204200327396393
1757088353587509000,7.523509033203125,0.13731400668621063,-0.0641070008277893,-0.09350399672985077
1757088353597062000,7.533061767578125,0.14472199976444244,0.08843299746513367,-0.046004001051187515
1757088353606614800,7.54261474609375,0.1782670021057129,0.07357300072908401,-0.06611999869346619
1757088353616167700,7.552167724609375,0.128028005361557,0.05230800062417984,-0.05590999871492386
1757088353625720600,7.561720458984375,0.08239500224590302,0.01656400039792061,-0.06009399890899658
1757088353635273500,7.5712734375,0.03926299884915352,0.01710600033402443,-0.0535850003361702
1757088353644826400,7.580826416015625,0.06073499843478203,0.0270370002835989,-0.06330899894237518
1757088353654379300,7.590379150390625,0.09888400137424469,0.02570600062608719,-0.06318099796772003
1757088353663932200,7.59993212890625,0.13725900650024414,0.07895000278949738,-0.05113200098276138
1757088353673485000,7.609485107421875,0.1132429987192154,0.07101699709892273,-0.05051200091838837
1757088353683038000,7.619037841796875,0.04625900089740753,0.04159500077366829,-0.01941799931228161
1757088353692590800,7.6285908203125,0.07482299953699112,-0.010753000155091286,-0.022216999903321266
1757088353702143700,7.638143798828125,0.10340099781751633,0.007170999888330698,-0.03596299886703491
1757088353711697000,7.64769677734375,0.1463170051574707,0.000770999991800636,-0.03961100056767464
1757088353721249800,7.657249755859375,0.16306300461292267,0.03033299930393696,-0.023956000804901123
1757088353730802400,7.666802490234375,0.12497200071811676,0.028697999194264412,0.013476000167429447
1757088353740355300,7.676355224609375,0.06969700008630753,-0.05138799920678139,0.005508000031113625
1757088353749908200,7.685908203125,0.021710999310016632,-0.06559299677610397,0.019600000232458115
1757088353759461000,7.695461181640625,0.01975799910724163,-0.0023040000814944506,0.04337399825453758
1757088353769014000,7.705013916015625,0.06545999646186829,-0.0038219999987632036,0.014334999956190586
1757088353778567000,7.71456689453125,0.08955799788236618,-0.019341999664902687,0.00953300017863512
1757088353788120000,7.7241201171875,0.0992949977517128,-0.025451000779867172,0.007195000071078539
1757088353797673000,7.7336728515625,0.08765999972820282,-0.020299000665545464,0.025226999074220657
1757088353807225900,7.743225830078125,0.07860799878835678,-0.03587000072002411,0.05037999898195267
1757088353816778800,7.75277880859375,0.07647799700498581,-0.05066400021314621,0.010394999757409096
1757088353826331600,7.76233154296875,0.08174800127744675,-0.03295300155878067,0.026549000293016434
1757088353835884500,7.771884521484375,0.07997699826955795,-0.014108999632298946,0.034991998225450516
1757088353845437400,7.7814375,0.08520600199699402,-0.0280349999666214,0.020739000290632248
1757088353854990300,7.790990234375,0.09297499805688858,-0.007612999994307756,0.027778999879956245
1757088353864543200,7.800543212890625,0.07928500324487686,0.004801999777555466,0.029712999239563942
1757088353874096400,7.810096435546875,0.07982700318098068,-0.0037980000488460064,0.015836000442504883
1757088353883649300,7.819649169921875,0.06606200337409973,0.008926999755203724,0.027840999886393547
1757088353893202200,7.8292021484375,0.03779499977827072,0.014689000323414803,0.007521999999880791
1757088353902754800,7.8387548828125,0.04049399867653847,0.020448999479413033,-0.01838500052690506
1757088353912307700,7.8483076171875,0.0717179998755455,0.01245300006121397,-0.03551200032234192
1757088353921860600,7.857860595703125,0.08628199994564056,0.027550000697374344,-0.024250999093055725
1757088353931413500,7.86741357421875,0.119937002658844,0.014275999739766121,-0.026986999437212944
1757088353940966400,7.87696630859375,0.12506400048732758,0.03065899945795536,-0.009095000103116035
1757088353950519600,7.88651953125,0.11108499765396118,0.01411100011318922,-0.001800999976694584
1757088353960072200,7.896072265625,0.10209199786186218,0.032092999666929245,0.002205000026151538
1757088353969625300,7.905625244140625,0.10958100110292435,-0.034557998180389404,0.001164000015705824
1757088353979178200,7.91517822265625,0.07897599786520004,-0.02092299982905388,0.008379999548196793
1757088353988731100,7.924731201171875,0.06775499880313873,0.03210899978876114,-0.0031079999171197414
1757088353998284000,7.934283935546875,0.07297799736261368,-0.008549000136554241,-0.027324000373482704
1757088354007837000,7.9438369140625,0.06641799956560135,0.00011500000255182385,-0.0072650001384317875
1757088354017389800,7.953389892578125,0.06247999891638756,0.018969999626278877,0.021355999633669853
1757088354026942700,7.962942626953125,0.07746600359678268,-0.0019180000526830554,0.00846800021827221
1757088354036495600,7.97249560546875,0.0400019995868206,-0.0038109999150037766,0.04837600141763687
1757088354046048800,7.982048828125,0.04345100000500679,0.0351409986615181,0.06380999833345413
1757088354055601400,7.991601318359375,0.06588699668645859,0.009224999696016312,0.07450100034475327
1757088354065154300,8.001154296875,0.10940100252628326,-0.02316400036215782,0.04462499916553497
1757088354074707200,8.010707275390626,0.145455002784729,-0.0066019999794662,0.0337119996547699
1757088354084260400,8.02026025390625,0.07663899660110474,0.04870700091123581,0.09337300062179565
1757088354093813000,8.02981298828125,0.09151700139045715,0.07215700298547745,0.049320001155138016
1757088354103366000,8.039365966796876,0.13002699613571167,0.07827900350093842,-0.005226000212132931
1757088354112918800,8.048918701171875,0.1585330069065094,0.02957800030708313,-0.023667000234127045
1757088354122471700,8.0584716796875,0.12776799499988556,0.1048550009727478,0.02027999982237816
1757088354132024600,8.068024658203125,0.11108999699354172,0.05154399946331978,0.014530000276863575
1757088354141577500,8.077577392578124,0.08470200002193451,0.010374000295996666,0.017846999689936638
1757088354151130400,8.08713037109375,0.06794100254774094,0.003355999942868948,0.024917999282479286
1757088354160683300,8.096683349609375,0.07027699798345566,0.006020000204443932,0.006184000056236982
1757088354170236400,8.106236328125,0.07253699749708176,-0.016481000930070877,-0.0030350000597536564
1757088354179789000,8.1157890625,0.07953900098800659,-0.020159000530838966,-0.02107599936425686
1757088354189342000,8.125342041015625,0.09374900162220001,-0.033268000930547714,-0.013182000257074833
1757088354198895000,8.13489501953125,0.08650600165128708,-0.023871000856161118,-0.012439999729394913
1757088354208448000,8.144447998046875,0.08667899668216705,-0.010943000204861164,0.017945999279618263
1757088354218001000,8.1540009765625,0.08444800227880478,-0.007884999737143517,0.024675000458955765
1757088354227553800,8.1635537109375,0.060697998851537704,-0.004860999993979931,0.028744999319314957
1757088354237106700,8.173106689453125,0.06562399864196777,0.007151999976485968,0.01228800043463707
1757088354246659600,8.18265966796875,0.07780099660158157,0.016620999202132225,0.02154799923300743
1757088354256212500,8.19221240234375,0.09708700329065323,0.021441999822854996,0.009952999651432037
1757088354265765000,8.20176513671875,0.09970100224018097,0.0599530003964901,-0.003323999932035804
1757088354275318000,8.211318115234375,0.1044050008058548,0.03103500045835972,-0.029239000752568245
1757088354284871200,8.22087109375,0.09939000010490417,0.019850999116897583,-0.044748999178409576
1757088354294424000,8.230424072265626,0.0847340002655983,0.00030899999546818435,-0.04374599829316139
1757088354303977000,8.23997705078125,0.08427999913692474,-0.002013999968767166,-0.07245799899101257
1757088354313529900,8.24952978515625,0.0435900017619133,-0.004139000084251165,-0.015324000269174576
1757088354323082800,8.259082763671875,0.07228899747133255,-0.028591999784111977,-0.014024999924004078
1757088354332635600,8.2686357421875,0.07228100299835205,-0.03347599878907204,-0.0036520001012831926
1757088354342188500,8.2781884765625,0.07704800367355347,-0.05193300172686577,0.006258000154048204
1757088354351741400,8.287741455078125,0.09385299682617188,-0.026504000648856163,0.0022789998911321163
1757088354361294300,8.29729443359375,0.10105700045824051,-0.03184900060296059,0.005456999875605106
1757088354370847200,8.30684716796875,0.11294099688529968,-0.025465000420808792,-0.009177000261843204
1757088354380400400,8.316400390625,0.10086599737405777,-0.02401999942958355,-0.009146000258624554
1757088354389953300,8.325953369140626,0.09119900315999985,-0.00914900004863739,-0.01334299985319376
1757088354399506200,8.335506103515625,0.07423699647188187,-0.01540399994701147,-0.028679000213742256
1757088354409059000,8.34505908203125,0.0717409998178482,0.006008999887853861,-0.025088999420404434
1757088354418612000,8.354612060546875,0.0598439984023571,0.0034970000851899385,0.00292899995110929
1757088354428164900,8.364164794921875,0.08885599672794342,0.028349999338388443,0.022603999823331833
1757088354437717800,8.3737177734375,0.0939679965376854,0.026971999555826187,0.032145000994205475
1757088354447270700,8.383270751953125,0.10392700135707855,0.04399700090289116,0.032044000923633575
1757088354456823600,8.392823486328124,0.08998499810695648,0.03516799956560135,0.03830000013113022
1757088354466376400,8.40237646484375,0.08810299634933472,0.03610499948263168,0.05297299847006798
1757088354475929300,8.411929443359375,0.10066299885511398,0.03716300055384636,0.0691090002655983
1757088354485482200,8.421482177734376,0.10124800354242325,0.033771999180316925,0.07064899802207947
1757088354495035100,8.43103515625,0.09698899835348129,0.04184500128030777,0.06112600117921829
1757088354504588000,8.440588134765624,0.08298200368881226,0.02445800043642521,0.043271999806165695
1757088354523693800,8.45969384765625,0.09783700108528137,0.03856499865651131,0.006328000221401453
1757088354533247000,8.4692470703125,0.05773700028657913,0.029962999746203423,0.08447899669408798
1757088354542800000,8.4787998046875,0.08913899958133698,-0.005324000027030706,0.06653100252151489
1757088354552352800,8.488352783203124,0.0701489970088005,0.013105999678373337,0.03170499950647354
1757088354561905700,8.49790576171875,0.08701799809932709,-0.0010369999799877405,0.03268599882721901
1757088354571458600,8.50745849609375,0.07985399663448334,0.001269000000320375,0.013384000398218632
1757088354581011500,8.517011474609374,0.07273499667644501,-0.00571999978274107,0.024491000920534134
1757088354590564400,8.526564453125,0.09872300177812576,0.008175999857485294,-0.062160998582839966
1757088354600117200,8.5361171875,0.07496500015258789,0.0032840000931173563,0.031606998294591904
1757088354609670000,8.545669921875,0.09670600295066833,0.0012760000536218286,0.038711998611688614
1757088354619222800,8.555222900390625,0.10396900027990341,0.0019039999460801482,0.027722999453544617
1757088354628775700,8.564775634765626,0.08941400051116943,0.004902999848127365,-0.025698000565171242
1757088354638328600,8.57432861328125,0.0938979983329773,0.01459799986332655,-0.06066200137138367
1757088354647881500,8.583881591796874,0.06514299660921097,0.007739999797195196,-0.01275699958205223
1757088354657434600,8.5934345703125,0.0984169989824295,-0.014379000291228294,-0.028149999678134918
1757088354666987500,8.602987548828125,0.08132299780845642,-0.006225999910384417,-0.05389200150966644
1757088354676540400,8.61254052734375,0.09294299781322479,0.019538000226020813,-0.0734419971704483
1757088354686093300,8.62209326171875,0.0972210019826889,-0.01709499955177307,-0.07142099738121033
1757088354695646200,8.631646240234375,0.07297799736261368,0.004556000232696533,-0.05618299916386604
1757088354705199000,8.64119921875,0.08693700283765793,-0.0022909999825060368,-0.06870999932289124
1757088354714752000,8.650751953125,0.11063600331544876,-0.008528999984264374,-0.02846900001168251
1757088354733857500,8.669857421875,0.10782600194215775,-0.00508899986743927,-0.0318869985640049
1757088354743410700,8.67941064453125,0.09095700085163116,-0.0022330000065267086,-0.011895000003278255
1757088354752963300,8.68896337890625,0.08847100287675858,0.005063999909907579,-0.013363000005483627
1757088354762516500,8.6985166015625,0.08590299636125565,0.005156999919563532,-0.0282990001142025
1757088354772069000,8.708069091796874,0.07146599888801575,-0.0015739999944344163,-0.008716000244021416
1757088354781622300,8.717622314453125,0.06664399802684784,0.012335999868810177,-0.015192000195384026
1757088354791175200,8.727175048828125,0.06904900074005127,-0.006118000019341707,0.0009309999877586961
1757088354800728000,8.73672802734375,0.09322399646043777,0.012709000147879124,0.02979400008916855
1757088354810281200,8.74628125,0.08860400319099426,0.01463599968701601,0.018722999840974808
1757088354819833900,8.755833740234374,0.07431799918413162,0.013904999941587448,0.004038999788463116
1757088354829386800,8.76538671875,0.06000399962067604,0.01743300072848797,-0.0027550000231713057
1757088354838939600,8.774939697265625,0.0288929995149374,0.004360999912023544,-0.0044570001773536205
1757088354848492500,8.784492431640626,-0.007230000104755163,-0.013470999896526337,-0.03727100044488907
1757088354858045400,8.79404541015625,-0.06028800085186958,-0.05865899845957756,-0.038116998970508575
1757088354867598300,8.803598388671874,-0.08483900129795074,-0.09378000348806381,-0.05369799956679344
1757088354877151200,8.813151123046875,-0.11421500146389008,-0.11537099629640579,-0.04433700069785118
1757088354886704000,8.8227041015625,-0.052338000386953354,-0.06515000015497208,-0.0224590003490448
1757088354896257000,8.832257080078126,0.03579099848866463,-0.01423600036650896,-0.06382399797439575
1757088354905810200,8.84181005859375,0.09785699844360352,0.10069099813699722,-0.08848100155591965
1757088354915363000,8.851363037109374,0.13464400172233582,0.2693049907684326,0.0143630001693964
1757088354924915700,8.860915771484375,0.30069398880004883,0.28728699684143066,0.02797500044107437
1757088354934468600,8.870468505859375,0.2878279983997345,0.24111700057983398,0.17938299477100372
1757088354944021500,8.880021484375,0.24115900695323944,0.07350300252437592,0.24442900717258453
1757088354953574400,8.889574462890625,0.12496799975633621,-0.15034599602222443,0.34896600246429443
1757088354963127300,8.899127197265624,0.04933299869298935,-0.2907490134239197,0.37713301181793213
1757088354972680200,8.90868017578125,0.033195000141859055,-0.30998900532722473,0.29029300808906555
1757088354982233300,8.9182333984375,0.0530409999191761,-0.11144000291824341,0.13836799561977386
1757088354991786000,8.927785888671876,0.1328819990158081,0.08910799771547318,0.026738999411463737
1757088355001339000,8.9373388671875,0.1866140067577362,0.18554900586605072,0.026548000052571297
1757088355010892000,8.94689208984375,0.19211800396442413,0.13194400072097778,0.0206339992582798
1757088355020445000,8.95644482421875,0.16410799324512482,0.09738899767398834,0.058671001344919205
1757088355029997800,8.965997802734375,0.14080800116062164,0.07424499839544296,0.07950200140476227
1757088355039550700,8.97555078125,0.07429199665784836,0.05733000114560127,0.0768050029873848
1757088355049103600,8.985103515625,0.026676999405026436,0.039455000311136246,0.047269999980926514
1757088355058656500,8.994656494140624,0.01228300016373396,-0.011044999584555626,0.021345000714063644
1757088355068209400,9.00420947265625,0.024018000811338425,-0.04254300147294998,-0.006022999994456768
1757088355077762000,9.013761962890625,0.03795300051569939,-0.07888899743556976,-0.027867000550031662
1757088355087315000,9.02331494140625,0.06148599833250046,-0.05206799879670143,-0.049049001187086105
1757088355096868000,9.0328681640625,0.09942799806594849,-0.03562700003385544,-0.05111699923872948
1757088355106421000,9.0424208984375,0.10865800082683563,-0.0110470000654459,-0.06204900145530701
1757088355115974000,9.051973876953125,0.13227899372577667,-0.010453999973833561,-0.04931899905204773
1757088355125527000,9.061527099609375,0.10806400328874588,-0.014241999946534634,-0.03260499984025955
1757088355135079700,9.07107958984375,0.09837900102138519,0.01600000075995922,-0.01892000064253807
1757088355144632600,9.080632568359375,0.08627700060606003,0.008465999737381935,-0.014879000373184681
1757088355154185500,9.090185546875,0.08606699854135513,-0.0007980000227689743,-0.022343000397086143
1757088355163738400,9.09973828125,0.07870499789714813,-0.0050490000285208225,-0.01835400052368641
1757088355173291500,9.10929150390625,0.0832659974694252,-0.004540999885648489,-0.03532800078392029
1757088355182844200,9.11884423828125,0.0948679968714714,-0.004050999879837036,-0.06275899708271027
1757088355192397300,9.128397216796875,0.1183290034532547,0.0032210000790655613,-0.07919500023126602
1757088355201950200,9.1379501953125,0.12477699667215347,-0.028172999620437622,-0.09417500346899033
1757088355211503000,9.147503173828126,0.10964900255203247,-0.019361000508069992,-0.1014769971370697
1757088355221055700,9.1570556640625,0.11607799679040909,-0.015440000221133232,-0.09927599877119064
1757088355230608600,9.166608642578124,0.1201310008764267,-0.007133999839425087,-0.09702999889850616
1757088355240161500,9.17616162109375,0.12415900081396103,-0.012860000133514404,-0.09723000228404999
1757088355249714400,9.18571435546875,0.12082699686288834,-0.01142400037497282,-0.12911799550056458
1757088355259267300,9.195267333984376,0.11271200329065323,-0.014871999621391296,-0.13245700299739838
1757088355268820500,9.204820556640625,0.11685200035572052,0.011087000370025635,-0.09930899739265442
1757088355278373400,9.214373291015624,0.10900499671697617,0.006138000171631575,-0.09492799639701843
1757088355287926300,9.22392626953125,0.10125300288200378,0.0039049999322742224,-0.0750190019607544
1757088355297479200,9.233479248046875,0.09114900231361389,0.008740999735891819,-0.07220400124788284
1757088355307032000,9.243031982421876,0.10043700039386749,0.042764000594615936,-0.053895000368356705
1757088355316585000,9.2525849609375,0.09776400029659271,0.03643599897623062,-0.05266200006008148
1757088355326137900,9.262137939453124,0.11663399636745453,0.028378000482916832,-0.04697300121188164
1757088355335690800,9.271690673828125,0.08777700364589691,0.01843300089240074,-0.019208999350667
1757088355345243600,9.28124365234375,0.09251199662685394,0.022614000365138054,-0.013544999994337559
1757088355354796500,9.290796630859376,0.099822998046875,0.030980000272393227,0.0050409999676048756
1757088355364349400,9.300349365234375,0.09765700250864029,0.04112299904227257,0.01103300042450428
1757088355373902300,9.30990234375,0.09313599765300751,0.03036300092935562,0.02105100080370903
1757088355383455200,9.319455322265625,0.1078990027308464,0.027031999081373215,0.04400800168514252
1757088355393008000,9.329008056640625,0.09407299757003784,0.016976000741124153,0.07007399946451187
1757088355402561000,9.33856103515625,0.09701800346374512,0.009778999723494053,0.0742190033197403
1757088355412114000,9.348114013671875,0.0928879976272583,0.023416999727487564,0.0872339978814125
1757088355421666800,9.357666748046874,0.08635299652814865,0.004778999835252762,0.0995670035481453
1757088355431219700,9.3672197265625,0.0486689992249012,-0.03547900170087814,0.12035799771547318
1757088355440772600,9.376772705078125,0.022979000583291054,-0.04880699887871742,0.13802599906921387
1757088355450325500,9.386325439453126,0.01898599974811077,-0.03902300074696541,0.15702399611473083
1757088355459878400,9.39587841796875,0.04857899993658066,-0.025165999308228493,0.16128399968147278
1757088355469431300,9.405431396484374,0.0806019976735115,-0.0052280002273619175,0.15855099260807037
1757088355478984200,9.414984130859375,0.09315700083971024,-0.020031999796628952,0.12002900242805481
1757088355488537000,9.424537109375,0.11748600006103516,-0.03614899888634682,0.10921499878168106
1757088355498090000,9.434090087890626,0.09397800266742706,-0.017916999757289886,0.11075799912214279
1757088355507643000,9.443642822265625,0.07992900162935257,-0.02355699986219406,0.09678100049495697
1757088355517195800,9.45319580078125,0.06109999865293503,-0.008736000396311283,0.0881349965929985
1757088355526749000,9.4627490234375,0.04696200042963028,-0.001373999984934926,0.06637600064277649
1757088355536301800,9.4723017578125,0.056696999818086624,-0.005563000217080116,0.05706999823451042
1757088355545854500,9.4818544921875,0.06637000292539597,-0.002672000089660287,0.03894700109958649
1757088355555407600,9.49140771484375,0.0927710011601448,-0.004474000073969364,0.03067299909889698
1757088355564960300,9.500960205078124,0.10217399895191193,-0.008616000413894653,-0.013310999609529972
1757088355574513200,9.51051318359375,0.10191100090742111,-0.0034680000972002745,-0.03221999853849411
1757088355584066000,9.520066162109375,0.1087379977107048,0.019463999196887016,-0.061174001544713974
1757088355593619000,9.529618896484376,0.08918099850416183,0.04765800014138222,-0.08133699744939804
1757088355603171800,9.539171875,0.07433299720287323,0.02240700088441372,-0.07526899874210358
1757088355612724700,9.548724853515624,0.05707300081849098,0.023497000336647034,-0.08104799687862396
1757088355622278000,9.55827783203125,0.058997999876737595,0.01572199910879135,-0.07327199727296829
1757088355631830800,9.567830810546875,0.0681300014257431,0.004027999937534332,-0.061597999185323715
1757088355641383700,9.5773837890625,0.07507400214672089,0.015706999227404594,-0.034963998943567276
1757088355650936600,9.5869365234375,0.10354799777269363,0.008631999604403973,-0.03711099922657013
1757088355660489500,9.596489501953124,0.13198399543762207,0.010823000222444534,-0.0434579998254776
1757088355670042000,9.6060419921875,0.14358800649642944,0.008276999928057194,-0.0514959990978241
1757088355679595000,9.615594970703125,0.13126599788665771,0.02849300019443035,-0.05900900065898895
1757088355689148000,9.62514794921875,0.11894199997186661,0.0384490005671978,-0.06614000350236893
1757088355698701000,9.634701171875,0.09246300160884857,0.049998000264167786,-0.039034999907016754
1757088355708253700,9.644253662109374,0.10670699924230576,0.05649900063872337,-0.033580999821424484
1757088355717806800,9.653806884765626,0.11621999740600586,0.06262700259685516,-0.02847900055348873
1757088355727359700,9.66335986328125,0.11624400317668915,0.059445999562740326,-0.010100999847054482
1757088355736912600,9.67291259765625,0.10666999965906143,0.036194998770952225,-0.00433199992403388
1757088355746465500,9.682465576171875,0.10662200301885605,0.016520999372005463,-0.0011439999798312783
1757088355756018400,9.692018310546874,0.11853700131177902,0.03859800100326538,-0.013845999725162983
1757088355765571300,9.7015712890625,0.11614199727773666,0.04143499955534935,-0.0031349998898804188
1757088355775124200,9.711124267578125,0.0993800014257431,0.03727500140666962,-0.0021569998934865
1757088355784676900,9.7206767578125,0.0994499996304512,0.035714998841285706,0.012426000088453293
1757088355794230000,9.73022998046875,0.08285299688577652,0.02065199986100197,0.03510899841785431
1757088355803783200,9.739783203125,0.09508100152015686,0.00875999964773655,0.058807000517845154
1757088355813335800,9.749335693359376,0.09302099794149399,0.008832000195980072,0.0697299987077713
1757088355822888700,9.758888671875,0.08374100178480148,-0.0025339999701827765,0.06632000207901001
1757088355832441600,9.768441650390624,0.07921399921178818,-0.00635599996894598,0.06069200113415718
1757088355841994500,9.777994384765625,0.08417800068855286,-0.010036000050604343,0.046254001557826996
1757088355851547400,9.78754736328125,0.07955999672412872,-0.02264299988746643,0.05066100135445595
1757088355861100300,9.797100341796876,0.0820159986615181,-0.036977000534534454,0.039009999483823776
1757088355870653200,9.806653076171875,0.08451200276613235,-0.050331000238657,0.05273300036787987
1757088355880206000,9.8162060546875,0.07512599974870682,-0.040564000606536865,0.05633600056171417
1757088355889759200,9.82575927734375,0.08494900166988373,-0.011122999712824821,0.04138600081205368
1757088355899311900,9.835311767578125,0.08038400113582611,-0.012911999598145485,0.03389599919319153
1757088355908865000,9.844864990234376,0.0731630027294159,-0.032639000564813614,0.0020490000024437904
1757088355918418000,9.85441796875,0.06838399916887283,-0.026503000408411026,0.008322999812662601
1757088355927970600,9.863970458984374,0.07807999849319458,0.00202700006775558,0.016762999817728996
1757088355937523700,9.873523681640625,0.06387600302696228,-0.0003370000049471855,0.027007000520825386
1757088355947076400,9.883076416015625,0.06654799729585648,0.015507999807596207,0.04141499847173691
1757088355956629200,9.892629150390626,0.07887300103902817,0.012536999769508839,0.05957600101828575
1757088355966182100,9.90218212890625,0.10092999786138535,0.021045999601483345,0.09308499842882156
1757088355975735300,9.9117353515625,0.11860799789428711,0.01744999922811985,0.18220700323581696
1757088355985288000,9.921287841796875,0.1116499975323677,-0.047331999987363815,0.07534000277519226
1757088355994840800,9.9308408203125,0.10896000266075134,-0.02052300050854683,-0.02945699915289879
1757088356004393700,9.940393798828126,0.0871409997344017,0.004908999893814325,-0.040344998240470886
1757088356013946600,9.949946533203125,0.06793300062417984,0.02229199931025505,-0.014712999574840069
1757088356023499500,9.95949951171875,0.07998199760913849,0.03644699975848198,0.00761099997907877
1757088356033052700,9.969052734375,0.08015300333499908,0.03624499961733818,0.03611600026488304
1757088356042605600,9.97860546875,0.07548999786376953,0.04502800107002258,0.034324001520872116
1757088356052158500,9.988158447265626,0.08259599655866623,0.030733000487089157,0.010226000100374222
1757088356061711400,9.99771142578125,0.1039080023765564,0.008276999928057194,-0.008306999690830708
1757088356071264000,10.007263916015624,0.09133700281381607,-0.02420100010931492,-0.06717400252819061
1757088356080817200,10.016817138671875,0.10019999742507935,-0.04583600163459778,-0.08257599920034409
1757088356090369800,10.026369873046875,0.09494999796152115,0.008144999854266644,-0.08189599961042404
1757088356099922700,10.035922607421876,0.11399699747562408,0.05251900106668472,-0.02840300090610981
1757088356109475600,10.0454755859375,0.09469199925661087,0.038088999688625336,-0.011029000394046307
1757088356119028700,10.05502880859375,0.08015599846839905,0.03140300139784813,0.006202000193297863
1757088356128581600,10.06458154296875,0.06786099821329117,0.004846999887377024,0.009638999588787556
1757088356138134500,10.074134521484375,0.055358000099658966,-0.015723999589681625,-0.011789999902248383
1757088356147687400,10.0836875,0.07875099778175354,-0.023502999916672707,-0.016755999997258186
1757088356157240300,10.093240234375,0.08526500314474106,-0.036942001432180405,-0.04775200039148331
1757088356166793200,10.102793212890624,0.07750900089740753,-0.02192400023341179,-0.07006900012493134
1757088356176346000,10.11234619140625,0.09167899936437607,0.008198999799787998,-0.023406000807881355
1757088356185899000,10.12189892578125,0.10347799956798553,0.027367999777197838,-0.03125099837779999
1757088356195452000,10.131451904296876,0.0887719988822937,0.024765999987721443,-0.08515100181102753
1757088356205004500,10.141004638671875,0.08835099637508392,0.04468199983239174,-0.11589299887418747
1757088356214557700,10.1505576171875,0.11924400180578232,0.04561600089073181,-0.07683999836444855
1757088356224110600,10.160110595703125,0.1215360015630722,0.017077000811696053,-0.06395900249481201
1757088356233663500,10.16966357421875,0.13393500447273254,0.04435800015926361,-0.00993099994957447
1757088356243216400,10.17921630859375,0.10733699798583984,0.014213000424206257,-0.09892100095748901
1757088356252769300,10.188769287109375,0.08291999995708466,-0.008755000308156013,-0.13198000192642212
1757088356262322200,10.198322265625,0.08644399791955948,-0.035363998264074326,-0.22638200223445892
1757088356271875000,10.207875,0.06293199956417084,-0.013849999755620956,-0.3237749934196472
1757088356281428000,10.217427978515625,0.03308200091123581,0.014065999537706375,-0.21839599311351776
1757088356290980900,10.22698095703125,0.040024999529123306,0.028248999267816544,-0.13630899786949158
1757088356300533800,10.23653369140625,-0.012133000418543816,0.08483800292015076,-0.15451499819755554
1757088356310086700,10.246086669921874,-0.07260899990797043,0.05425700172781944,-0.036830998957157135
1757088356319639800,10.255639892578126,0.07003399729728699,0.006277000065892935,-0.06208600103855133
1757088356329192700,10.265192626953125,0.24111700057983398,-0.011505000293254852,0.01447100006043911
1757088356338745300,10.274745361328126,0.17970499396324158,-0.03383399918675423,0.4929620027542114
1757088356348298200,10.28429833984375,0.10840199887752533,-0.07718300074338913,0.5170860290527344
1757088356357851100,10.29385107421875,0.01527199987322092,-0.15353600680828094,0.4553000032901764
1757088356367404000,10.303404052734376,0.017867999151349068,-0.19829699397087097,0.3807539939880371
1757088356376957000,10.31295703125,0.04660499840974808,-0.20096400380134583,0.261927992105484
1757088356386509800,10.322509765625,-0.07381600141525269,-0.21094200015068054,0.036263998597860336
1757088356396062700,10.332062744140625,0.02714500017464161,-0.14360900223255157,-0.33855199813842773
1757088356405615600,10.34161572265625,0.289126992225647,0.038270000368356705,-0.24801799654960632
1757088356415168500,10.35116845703125,0.24745799601078033,0.09440299868583679,0.007602000143378973
1757088356424721400,10.360721435546875,0.1923000067472458,0.21597500145435333,0.13456299901008606
1757088356434274300,10.3702744140625,0.16439099609851837,0.2679559886455536,0.31483200192451477
1757088356443827200,10.3798271484375,0.009251999668776989,0.1660030037164688,0.3169719874858856
1757088356453380000,10.389380126953125,-0.08276200294494629,0.03168699890375137,0.019843000918626785
1757088356462933000,10.39893310546875,-0.010590000078082085,-0.026040000841021538,-0.12300699949264526
1757088356472486000,10.40848583984375,0.04195399954915047,-0.05053099989891052,-0.12074699997901917
1757088356482038800,10.418038818359374,-0.03899500146508217,0.042351000010967255,-0.04244700074195862
1757088356491591700,10.427591796875,0.00973500031977892,0.1949550062417984,-0.13825899362564087
1757088356501144600,10.43714453125,0.2941589951515198,0.36483100056648254,0.07852599769830704
1757088356510697500,10.446697509765626,0.22727100551128387,0.4083090126514435,0.2510380148887634
1757088356520250400,10.45625048828125,0.13757799565792084,0.12089599668979645,0.21342599391937256
1757088356529803300,10.46580322265625,0.17082799971103668,-0.08950100094079971,-0.045357998460531235
1757088356539356200,10.475356201171875,0.11718100309371948,-0.15973599255084991,-0.21590399742126465
1757088356548909000,10.484908935546875,0.08702400326728821,-0.23263199627399445,-0.23527200520038605
1757088356558462200,10.494462158203126,0.09233500063419342,-0.1918479949235916,-0.3887999951839447
1757088356568015000,10.50401513671875,-0.009957999922335148,-0.16428500413894653,-0.294512003660202
1757088356577567700,10.513567626953124,-0.0409649983048439,-0.07942599803209305,0.24497799575328827
1757088356587120600,10.52312060546875,-0.09470199793577194,-0.02149599976837635,0.4626860022544861
1757088356596673500,10.532673583984375,-0.014066999778151512,0.07265400141477585,0.32616400718688965
1757088356606226400,10.542226318359376,0.09490299969911575,0.18543599545955658,-0.03221900016069412
1757088356615779300,10.551779296875,0.1390720009803772,0.19938799738883972,-0.12656299769878387
1757088356625332200,10.561332275390624,0.15167300403118134,0.14100399613380432,-0.3052169978618622
1757088356634885000,10.570885009765625,0.4675559997558594,-0.26965901255607605,-0.7947900295257568
1757088356644438000,10.58043798828125,0.28380900621414185,-0.12727400660514832,-0.5673329830169678
1757088356653991000,10.589990966796876,0.10237699747085571,0.19211600720882416,-0.1150360032916069
1757088356663544000,10.5995439453125,0.005311999935656786,0.0750499963760376,0.15928299725055695
1757088356673097000,10.609096923828124,0.11382099986076355,-0.0633149966597557,0.17122100293636322
1757088356682649900,10.61864990234375,-0.8354859948158264,0.3031100034713745,0.46101000905036926
1757088356692202800,10.62820263671875,0.2418469935655594,0.35080501437187195,0.6662039756774902
1757088356701755400,10.63775537109375,0.8345239758491516,-0.1960580050945282,-0.2997620105743408
1757088356711308300,10.647308349609375,0.41307100653648376,-0.6680989861488342,-0.5614529848098755
1757088356720861200,10.656861083984374,-0.022410999983549118,-0.3794099986553192,-0.38336101174354553
1757088356730414000,10.6664140625,-0.18360599875450134,-0.045504000037908554,-0.19179899990558624
1757088356739967200,10.67596728515625,-0.40679898858070374,0.06753899902105331,0.036566998809576035
1757088356749520000,10.685519775390626,-0.22821000218391418,0.18625099956989288,0.1534159928560257
1757088356759073000,10.695072998046875,1.0023239850997925,-0.4501729905605316,-0.8655589818954468
1757088356768626000,10.7046259765625,0.8383150100708008,-1.1079180240631104,-1.2756439447402954
1757088356778178800,10.7141787109375,-1.1355249881744385,-0.9323400259017944,-0.17324300110340118
1757088356787731700,10.723731689453125,-0.9259859919548035,-0.22587600350379944,0.5115669965744019
1757088356797284600,10.73328466796875,-0.11516900360584259,0.3682880103588104,0.17139099538326263
1757088356806837500,10.74283740234375,0.3270129859447479,0.8745399713516235,0.31160199642181396
1757088356816390100,10.75239013671875,0.8626530170440674,0.899154007434845,0.33850398659706116
1757088356825943000,10.761943115234375,0.6865929961204529,0.525534987449646,0.6399620175361633
1757088356835496200,10.77149609375,-0.024517999961972237,-0.1267620027065277,0.5950369834899902
1757088356845049000,10.781049072265626,-0.14531399309635162,-0.2555620074272156,0.046114999800920486
1757088356854601700,10.790601806640625,-0.17640499770641327,-0.45041701197624207,-0.28005799651145935
1757088356864155000,10.80015478515625,-0.272911012172699,-0.5867760181427002,-0.23049500584602356
1757088356873707800,10.809707763671875,-0.1735610067844391,-0.19293899834156036,-0.3660779893398285
1757088356883260700,10.8192607421875,-0.06247999891638756,0.21794000267982483,-0.04710099846124649
1757088356892813600,10.8288134765625,0.06871599704027176,0.408939003944397,0.23392699658870697
1757088356902366500,10.838366455078125,0.23586900532245636,0.3910149931907654,0.027274999767541885
1757088356911919400,10.84791943359375,0.2743070125579834,0.5249040126800537,-0.14717599749565125
1757088356921472300,10.85747216796875,0.5947660207748413,0.45901399850845337,0.2765609920024872
1757088356931025000,10.86702490234375,0.33956000208854675,0.25326400995254517,0.6078280210494995
1757088356940578000,10.876578125,0.13901600241661072,0.14673100411891937,0.5944939851760864
1757088356950131000,10.886130859375,0.12311399728059769,-0.11322499811649323,0.00046400001156143844
1757088356959683800,10.895683837890624,0.11975099891424179,-0.10405199974775314,-0.34314098954200745
1757088356969236500,10.905236572265625,0.3656499981880188,0.07197099924087524,-0.21438300609588623
1757088356978789600,10.91478955078125,-0.4471740126609802,-0.5274239778518677,0.5035560131072998
1757088356988342500,10.924342529296876,-0.4717170000076294,-0.33500999212265015,0.1363849937915802
1757088356997895400,10.9338955078125,-0.1680860072374344,-0.2400989979505539,0.05008900165557861
1757088357007448300,10.9434482421875,-0.008946999907493591,-0.45433101058006287,0.15737099945545197
1757088357017001200,10.953001220703126,0.07289499789476395,-0.6196420192718506,0.2082429975271225
1757088357026553900,10.962553955078125,0.018914999440312386,-0.4082080125808716,0.02302199974656105
1757088357036107000,10.97210693359375,0.14328299462795258,-0.047843001782894135,0.0738610029220581
1757088357045659600,10.98165966796875,0.013075999915599823,-0.25110599398612976,0.18862000107765198
1757088357055212500,10.991212646484374,-0.08593200147151947,-0.14746800065040588,0.37772101163864136
1757088357064765400,11.000765380859375,-0.3434140086174011,-0.4233970046043396,-0.16862699389457703
1757088357074318300,11.010318359375,0.019878000020980835,-0.20022700726985931,-0.13905900716781616
1757088357083871500,11.01987158203125,-0.27600300312042236,-0.36439600586891174,-0.07029899954795837
1757088357093424000,11.029424072265625,-0.10016199946403503,-0.39528700709342957,0.06114799901843071
1757088357102977300,11.038977294921875,0.05998900160193443,-0.18033400177955627,0.04396999999880791
1757088357112530200,11.0485302734375,0.1303430050611496,-0.5357369780540466,0.31363898515701294
1757088357122083000,11.0580830078125,0.1871419996023178,-0.3586289882659912,0.2989020049571991
1757088357131636000,11.067635986328124,0.5098950266838074,0.7749410271644592,-0.563962996006012
1757088357141188600,11.077188720703125,0.07410600036382675,0.486860990524292,-0.6089370250701904
1757088357150741800,11.08674169921875,0.589942991733551,0.4891830086708069,-0.8614599704742432
1757088357160294400,11.09629443359375,-0.060235001146793365,0.9226580262184143,-1.171308994293213
1757088357169847300,11.105847412109375,0.1641329973936081,0.4321979880332947,-0.6412580013275146
1757088357179400200,11.115400146484374,0.08787800371646881,-0.09414000064134598,-0.3917059898376465
1757088357188953300,11.124953369140625,-0.012442000210285187,-0.3606719970703125,-0.18176600337028503
1757088357198506000,11.134506103515625,-0.13785499334335327,-0.40277600288391113,0.23758000135421753
1757088357208059100,11.14405908203125,-0.015985999256372452,-0.23181499540805817,0.157259002327919
1757088357217612000,11.153612060546875,0.07944200187921524,-0.09383700042963028,-0.2582080066204071
1757088357227165000,11.1631650390625,0.21972399950027466,-0.08559200167655945,0.04423300176858902
1757088357236717800,11.1727177734375,0.5253589749336243,-0.07794100046157837,0.5087199807167053
1757088357246270500,11.1822705078125,0.3162600100040436,-0.24227899312973022,0.35955798625946045
1757088357255823400,11.1918232421875,0.04628400132060051,-0.07996299862861633,-0.026758000254631042
1757088357265376500,11.20137646484375,-0.37588998675346375,0.022544000297784805,-0.043168000876903534
1757088357274929200,11.21092919921875,-0.6582009792327881,-0.11136999726295471,-0.41773200035095215
1757088357284482300,11.220482421875,-0.1471800059080124,-0.7883960008621216,-0.5197259783744812
1757088357294035200,11.23003515625,0.40924298763275146,-2.1598310470581055,0.8068349957466125
1757088357303588000,11.239588134765626,0.10023000091314316,-3.89797306060791,2.396120071411133
1757088357313141000,11.24914111328125,-0.9066359996795654,-3.90155291557312,1.3092060089111328
1757088357322694000,11.25869384765625,-0.7340419888496399,-2.8160219192504883,-0.23283900320529938
1757088357332246800,11.268246826171875,-0.1907690018415451,-1.8700449466705322,-0.5520049929618835
1757088357341799700,11.277799560546875,0.00392899988219142,-0.6732079982757568,-0.8572270274162292
1757088357351352600,11.2873525390625,-0.2430019974708557,0.6260010004043579,-0.9402250051498413
1757088357360905500,11.296905517578125,-0.3969399929046631,1.0928610563278198,-0.03258199989795685
1757088357370458000,11.3064580078125,-0.3468779921531677,0.06761500239372253,-0.008410000242292881
1757088357380011300,11.31601123046875,-0.3690280020236969,-0.724448025226593,-0.6457269787788391
1757088357389564200,11.325564208984375,0.03795100003480911,-0.9113759994506836,-0.8358539938926697
1757088357399117000,11.335116943359376,-0.040546998381614685,-0.17660200595855713,-1.0858700275421143
1757088357408670000,11.344669921875,-0.04280199855566025,1.085060954093933,-1.097190022468567
1757088357418222800,11.354222900390624,-0.09059000015258789,1.5164669752120972,-1.0102369785308838
1757088357427775700,11.363775634765625,-0.514473021030426,1.1118669509887695,-0.5526189804077148
1757088357437328600,11.37332861328125,-0.26329201459884644,0.397163987159729,0.3370639979839325
1757088357446881500,11.382881591796876,0.49254998564720154,-0.11333200335502625,1.1196630001068115
1757088357456434400,11.392434326171875,0.48530998826026917,-0.0688600018620491,2.7851459980010986
1757088357465987300,11.4019873046875,0.1450680047273636,-1.3174569606781006,3.683547019958496
1757088357475540200,11.411540283203125,0.23775799572467804,-2.5350420475006104,2.0655789375305176
1757088357485092900,11.4210927734375,0.7509260177612305,-2.8191709518432617,-0.08447299897670746
1757088357494645800,11.430645751953126,1.1107059717178345,-1.8861939907073975,0.18195299804210663
1757088357504198700,11.44019873046875,0.2619290053844452,0.18573600053787231,0.8597120046615601
1757088357513751600,11.44975146484375,-0.05320199951529503,-0.051242999732494354,0.6232889890670776
1757088357523304400,11.459304443359375,-1.0273619890213013,0.025882000103592873,-0.4274809956550598
1757088357532857300,11.468857421875,-1.0336029529571533,-0.4248630106449127,-1.4131959676742554
1757088357542410500,11.478410400390626,-0.36764800548553467,0.08591900020837784,-2.6491730213165283
1757088357551963400,11.48796337890625,1.0687999725341797,2.1505069732666016,-3.0481789112091064
1757088357561516300,11.497516357421874,0.2229290008544922,4.208749771118164,-2.6538751125335693
1757088357571069200,11.507069091796875,-1.2939469814300537,3.347193956375122,-2.346618890762329
1757088357580621800,11.516621826171875,-1.1447900533676147,1.4117029905319214,-1.652405023574829
1757088357590174700,11.5261748046875,-0.24087700247764587,0.7521600127220154,-1.9108539819717407
1757088357599727600,11.5357275390625,0.4375779926776886,0.13265100121498108,0.10426899790763855
1757088357609280800,11.54528076171875,-0.49621498584747314,-0.541854977607727,1.1680779457092285
1757088357618833400,11.55483349609375,1.6019710302352905,-2.6258420944213867,0.6755319833755493
1757088357628386600,11.564386474609375,1.6855210065841675,-5.263943195343018,3.241899013519287
1757088357637939200,11.573939208984376,4.7435760498046875,-2.5462899208068848,5.927076816558838
1757088357647492400,11.583492431640625,1.956766963005066,-2.031527042388916,5.301529884338379
1757088357657045200,11.593045166015624,-0.17696399986743927,-1.9760680198669434,4.356988906860352
1757088357666598100,11.60259814453125,0.061820998787879944,-2.6197009086608887,-0.2109529972076416
1757088357676150800,11.61215087890625,-1.5773279666900635,-1.4167900085449219,-3.6077120304107666
1757088357685703700,11.62170361328125,-2.3009989261627197,0.514083981513977,-4.503195762634277
1757088357695256600,11.631256591796875,-0.48934099078178406,0.052841998636722565,-1.896949052810669
1757088357704809500,11.6408095703125,0.814624011516571,-1.2112360000610352,1.0179229974746704
1757088357714362400,11.6503623046875,0.3863140046596527,-1.4591909646987915,2.834969997406006
1757088357723915500,11.65991552734375,-1.8267220258712769,-2.5989699363708496,3.755418062210083
1757088357733468400,11.669468505859374,-1.9415479898452759,-3.2953128814697266,3.36860990524292
1757088357743021000,11.67902099609375,-0.8399360179901123,-0.792057991027832,2.715653896331787
1757088357752574200,11.68857421875,-1.9306130409240723,0.2010120004415512,1.065608024597168
1757088357762127000,11.698127197265626,-3.7504680156707764,-1.5102989673614502,0.22204899787902832
1757088357771680000,11.707679931640625,-0.946927011013031,-1.1812779903411865,1.3189220428466797
1757088357781232600,11.717232666015626,-2.849910020828247,-1.453490972518921,2.9389569759368896
1757088357790785500,11.72678564453125,-2.7305240631103516,-1.5325369834899902,4.7792768478393555
1757088357800338400,11.73633837890625,-2.6314539909362793,-0.5371599793434143,4.9334330558776855
1757088357809891300,11.745891357421876,-3.1879420280456543,0.7024189829826355,4.08256721496582
1757088357819444200,11.7554443359375,-2.9755210876464844,0.35920700430870056,3.725831985473633
1757088357828997400,11.764997314453124,-3.431962013244629,0.2944459915161133,3.921015977859497
1757088357838550000,11.774550048828125,-3.9297149181365967,0.7132949829101562,1.536424994468689
1757088357848103000,11.78410302734375,-3.445211887359619,0.8397369980812073,0.05242500081658363
1757088357857656000,11.793656005859376,-2.1088531017303467,0.6817640066146851,-0.17121200263500214
1757088357867209000,11.803208984375,0.36037200689315796,1.2246949672698975,-0.5139719843864441
1757088357876761600,11.81276171875,-0.8119570016860962,1.4416799545288086,-0.49729400873184204
1757088357886314800,11.822314697265625,-1.3460240364074707,1.4854830503463745,-0.46974900364875793
1757088357895867400,11.831867431640624,-1.5021220445632935,1.8016289472579956,0.7136660218238831
1757088357905420500,11.841420654296876,-2.445301055908203,1.5737420320510864,6.4553751945495605
1757088357914973200,11.85097314453125,-2.8285880088806152,1.8770170211791992,11.205606460571289
1757088357924526000,11.860526123046874,-2.462161064147949,1.8150490522384644,11.339550971984863
1757088357934079000,11.870078857421875,-2.033881902694702,1.723294973373413,9.257493019104004
