time,seconds_elapsed,z,y,x
1757088346145789000,0.081788818359375,4.474050045013428,-3.702000141143799,5.662950038909912
1757088346155341800,0.091341796875,4.204050064086914,-3.9340500831604004,5.3710503578186035
1757088346164894700,0.100894775390625,4.311000347137451,-4.531050205230713,4.923000335693359
1757088346174447600,0.110447509765625,4.7059502601623535,-5.152950286865234,4.39394998550415
1757088346184000500,0.12000048828125,5.169000148773193,-5.806950092315674,4.07295036315918
1757088346193553400,0.129553466796875,5.367000102996826,-6.50100040435791,3.939000129699707
1757088346203106600,0.1391064453125,4.90500020980835,-7.558950424194336,4.803000450134277
1757088346212659500,0.148659423828125,4.831050395965576,-8.043000221252441,6.352050304412842
1757088346222212000,0.158212158203125,5.025000095367432,-8.112000465393066,7.956000328063965
1757088346231765000,0.167764892578125,4.849950313568115,-8.079000473022461,8.887950897216797
1757088346241318100,0.177318115234375,4.318950176239014,-7.981050491333008,9.324000358581543
1757088346250871000,0.18687109375,3.1720502376556396,-8.031000137329102,9.424050331115723
1757088346260423700,0.196423583984375,1.8499500751495361,-7.947000503540039,9.30405044555664
1757088346279529500,0.215529541015625,-0.47895002365112305,-7.750950336456299,9.151050567626953
1757088346289082400,0.225082275390625,-1.1749500036239624,-7.903950214385986,9.490950584411621
1757088346298635300,0.23463525390625,-1.64205002784729,-7.846950531005859,9.826050758361816
1757088346308188400,0.2441884765625,-2.083050012588501,-7.4920501708984375,10.147050857543945
1757088346317741300,0.2537412109375,-2.5039501190185547,-7.264950275421143,10.767000198364258
1757088346327294200,0.263294189453125,-2.9419500827789307,-7.159950256347656,11.458950996398926
1757088346336847000,0.27284716796875,-3.2250001430511475,-7.083000183105469,11.778000831604004
1757088346346400000,0.28239990234375,-2.8510501384735107,-6.472050189971924,11.94105052947998
1757088346355953000,0.291952880859375,-2.3530499935150146,-5.433000087738037,11.79900074005127
1757088346365506000,0.301506103515625,-2.461050033569336,-4.6810503005981445,11.671950340270996
1757088346375058700,0.31105859375,-2.509050130844116,-4.042050361633301,11.737051010131836
1757088346384611600,0.320611572265625,-2.562000036239624,-4.099950313568115,12.297000885009766
1757088346394164500,0.33016455078125,-2.7169501781463623,-4.0759501457214355,11.902050971984863
1757088346403717400,0.33971728515625,-2.703000068664551,-4.071000099182129,11.092950820922852
1757088346413270300,0.349270263671875,-2.2579500675201416,-4.507050037384033,10.267050743103027
1757088346422823200,0.3588232421875,-1.6710001230239868,-5.131950378417969,9.570000648498535
1757088346432376000,0.3683759765625,-0.9409500360488892,-5.668050289154053,9.307050704956055
1757088346441929000,0.377928955078125,-0.3559500277042389,-5.8470001220703125,9.3589506149292
1757088346451482000,0.387482177734375,-0.37095001339912415,-5.814000129699707,9.370950698852539
1757088346461034800,0.39703466796875,-0.7710000276565552,-5.8690505027771,9.640050888061523
1757088346470588000,0.406587890625,-1.4100000858306885,-5.656050205230713,9.8860502243042
1757088346480140800,0.416140869140625,-2.5039501190185547,-5.308950424194336,10.111050605773926
1757088346489693400,0.425693359375,-3.664950132369995,-4.618950366973877,10.296000480651855
1757088346499246600,0.43524658203125,-4.276050090789795,-4.150050163269043,10.288050651550293
1757088346508799500,0.444799560546875,-4.471950054168701,-3.6570000648498535,9.781050682067871
1757088346518352400,0.454352294921875,-3.8929502964019775,-3.3409502506256104,9.301950454711914
1757088346527905300,0.4639052734375,-3.019050121307373,-3.289950132369995,9.120000839233398
1757088346537458200,0.473458251953125,-2.5260000228881836,-3.361950159072876,8.872950553894043
1757088346547011000,0.483010986328125,-2.530050039291382,-3.5590500831604004,8.42805004119873
1757088346556564200,0.492564208984375,-2.4130501747131348,-4.03695011138916,7.9710001945495605
1757088346575670000,0.511669921875,-0.6130500435829163,-5.605950355529785,6.075000286102295
1757088346585223000,0.521222900390625,0.8560500144958496,-6.532050132751465,5.028000354766846
1757088346594775800,0.53077587890625,2.25,-7.215000152587891,4.570950031280518
1757088346604328700,0.54032861328125,3.888000249862671,-7.411050319671631,5.134050369262695
1757088346613881600,0.549881591796875,5.134950160980225,-7.761000156402588,6.196950435638428
1757088346623434800,0.559434814453125,5.439000129699707,-8.09595012664795,6.76200008392334
1757088346632987400,0.5689873046875,4.801950454711914,-8.338050842285156,6.678000450134277
1757088346642540300,0.578540283203125,2.887050151824951,-8.689949989318848,6.892950534820557
1757088346652093400,0.588093505859375,0.4849500358104706,-8.565000534057617,6.838050365447998
1757088346661646300,0.597646240234375,-3.0019500255584717,-7.62600040435791,6.4960503578186035
1757088346671199200,0.60719921875,-7.5420002937316895,-9.037050247192383,6.106050491333008
1757088346680752000,0.616752197265625,-5.224050045013428,-8.457000732421875,4.876950263977051
1757088346690305000,0.626304931640625,-1.752000093460083,-7.23900032043457,5.239050388336182
1757088346699858000,0.63585791015625,0.11400000751018524,-7.749000549316406,5.9070000648498535
1757088346709410800,0.645410888671875,-1.5130500793457031,-5.934000492095947,4.207050323486328
1757088346718963700,0.654963623046875,4.6180500984191895,-3.6040501594543457,7.51800012588501
1757088346728516600,0.6645166015625,3.126000165939331,-6.822000503540039,11.152950286865234
1757088346738069500,0.674069580078125,1.2060000896453857,-5.496000289916992,7.806000232696533
1757088346757175600,0.693175537109375,0.7770000100135803,-7.654950141906738,7.645050525665283
1757088346766728400,0.702728515625,-0.4549500346183777,-7.557000160217285,7.104000568389893
1757088346776281300,0.71228125,0.8160000443458557,-6.385950088500977,6.880950450897217
1757088346785834200,0.721834228515625,0.9859500527381897,-6.025050163269043,6.448050498962402
1757088346795387100,0.73138720703125,0.28905001282691956,-5.926050186157227,6.082050323486328
1757088346804940000,0.74093994140625,-1.281000018119812,-6.271050453186035,7.1569504737854
1757088346814493000,0.750492919921875,-2.1450002193450928,-5.722950458526611,6.903000354766846
1757088346824045800,0.7600458984375,-0.9139500260353088,-5.115000247955322,5.53095006942749
1757088346833599000,0.769598876953125,0.7300500273704529,-7.081050395965576,5.883000373840332
1757088346843151600,0.779151611328125,0.697950005531311,-8.461950302124023,8.457000732421875
1757088346852704500,0.78870458984375,-0.4639500081539154,-9.049050331115723,8.51205062866211
1757088346862257400,0.79825732421875,1.6080000400543213,-9.481950759887695,7.396050453186035
1757088346871810600,0.807810546875,2.7240002155303955,-9.006000518798828,5.871000289916992
1757088346881363500,0.817363525390625,2.013000011444092,-8.97705078125,5.682000160217285
1757088346890916400,0.826916259765625,1.5910500288009644,-8.943000793457031,7.320000171661377
1757088346900469200,0.83646923828125,-0.6679500341415405,-8.353950500488281,8.181000709533691
1757088346910022100,0.846022216796875,-6.718050479888916,-7.4320502281188965,6.928950309753418
1757088346919575000,0.855574951171875,-5.182950019836426,-7.282050132751465,6.055050373077393
1757088346929128000,0.8651279296875,0.07095000147819519,-6.634950160980225,5.088000297546387
1757088346938680800,0.874680908203125,3.5839502811431885,-8.596050262451172,3.6730501651763916
1757088346948233700,0.884233642578125,4.311000347137451,-10.729050636291504,2.101950168609619
1757088346957786600,0.89378662109375,4.39995002746582,-12.68595027923584,1.9420500993728638
1757088346967339800,0.90333984375,3.7300500869750977,-12.865050315856934,2.9830501079559326
1757088346976892700,0.912892578125,2.170950174331665,-12.097050666809082,3.970050096511841
1757088346986445600,0.922445556640625,-0.1270500123500824,-11.184000968933105,4.618950366973877
1757088347005551400,0.94155126953125,-2.811000108718872,-7.192950248718262,4.803000450134277
1757088347015104300,0.951104248046875,-2.431950092315674,-6.175050258636475,3.9600002765655518
1757088347024657200,0.9606572265625,-1.7740501165390015,-5.982000350952148,3.241950035095215
1757088347034210000,0.9702099609375,-1.0219500064849854,-6.5560503005981445,2.763000249862671
1757088347043763200,0.97976318359375,-0.9049500226974487,-7.471050262451172,2.6700000762939453
1757088347053316000,0.989316162109375,-1.3980001211166382,-8.112000465393066,2.4060001373291016
1757088347072422000,1.008421875,0.5190000534057617,-5.290050029754639,3.919950246810913
1757088347081974800,1.017974853515625,0.6940500140190125,-4.839000225067139,3.2970001697540283
1757088347091527700,1.027527587890625,1.0579500198364258,-4.8919501304626465,2.3779501914978027
1757088347101080300,1.037080322265625,1.2540000677108765,-4.399050235748291,1.3270500898361206
1757088347110633500,1.046633544921875,0.8059500455856323,-4.297950267791748,0.5700000524520874
1757088347120186400,1.056186279296875,1.5510001182556152,-3.9780001640319824,-0.1279500126838684
1757088347129739300,1.0657392578125,2.0659501552581787,-5.314050197601318,0.208950012922287
1757088347148845300,1.08484521484375,-1.2420001029968262,-5.15595006942749,-1.2439500093460083
1757088347158398200,1.094398193359375,-1.5660001039505005,-5.212950229644775,-0.09000000357627869
1757088347167950800,1.103950927734375,0.43995001912117004,-7.107000350952148,0.4930500090122223
1757088347177504000,1.11350390625,0.547950029373169,-8.958000183105469,1.8889501094818115
1757088347187056600,1.123056640625,1.6540501117706299,-13.27500057220459,2.562000036239624
1757088347196609800,1.13260986328125,0.9589500427246094,-21.67095184326172,1.8799500465393066
1757088347206162700,1.14216259765625,0.9690000414848328,-32.23305130004883,0.20595000684261322
1757088347215715600,1.151715576171875,0.7870500087738037,-34.00695037841797,-1.4380500316619873
1757088347225268500,1.1612685546875,1.9579501152038574,-31.099950790405273,-3.412950277328491
1757088347234821400,1.1708212890625,2.2860000133514404,-27.86100196838379,-3.4300501346588135
1757088347244374300,1.180374267578125,-0.9360000491142273,-24.760051727294922,4.591950416564941
1757088347253927200,1.18992724609375,-2.3560500144958496,-20.026050567626953,9.931950569152832
1757088347263480300,1.199480224609375,-1.3669500350952148,-12.40095043182373,4.249950408935547
1757088347273033000,1.209032958984375,-1.1509500741958618,-8.23905086517334,-1.371000051498413
1757088347282586000,1.218586181640625,-2.490000009536743,-6.13200044631958,-4.8070502281188965
1757088347292139000,1.228138916015625,-2.7910501956939697,-4.923000335693359,-6.091950416564941
1757088347301692000,1.23769189453125,-1.374000072479248,-4.4920501708984375,-6.648000240325928
1757088347311244800,1.247244873046875,-0.11505000293254852,-4.3630499839782715,-6.286050319671631
1757088347320797700,1.256797607421875,-0.016050001606345177,-5.25600004196167,-5.758950233459473
1757088347330350600,1.2663505859375,-0.6010500192642212,-7.114050388336182,-5.047950267791748
1757088347339903500,1.275903564453125,-0.6010500192642212,-8.875950813293457,-4.123950004577637
1757088347359009300,1.29500927734375,-0.3540000021457672,-11.32800006866455,-2.2900500297546387
1757088347368562200,1.304562255859375,-0.32100000977516174,-11.773050308227539,-1.5220500230789185
1757088347378115000,1.314114990234375,-0.26295000314712524,-11.64900016784668,-0.8730000257492065
1757088347387668000,1.32366796875,-0.2560500204563141,-11.098050117492676,-0.3439500033855438
1757088347397221000,1.33322119140625,-0.22995001077651978,-10.533000946044922,0.039000000804662704
1757088347406774000,1.34277392578125,0.0019500000635161996,-10.09695053100586,-0.08295000344514847
1757088347416327000,1.352326904296875,0.33195000886917114,-9.781050682067871,-0.322050005197525
1757088347425879800,1.3618798828125,0.8520000576972961,-9.616050720214844,-0.40095001459121704
1757088347435433000,1.371432861328125,1.180050015449524,-9.652050018310547,-0.6190500259399414
1757088347444985600,1.380985595703125,1.1839500665664673,-9.778950691223145,-0.9469500184059143
1757088347454538500,1.39053857421875,0.9829500317573547,-9.910950660705566,-1.1980500221252441
1757088347464091400,1.40009130859375,0.8010000586509705,-9.991950035095215,-1.3590000867843628
1757088347473644500,1.40964453125,0.6960000395774841,-9.997050285339355,-1.5570000410079956
1757088347483197400,1.419197509765625,0.6510000228881836,-9.963000297546387,-1.7059500217437744
1757088347492750300,1.428750244140625,0.5550000071525574,-9.879000663757324,-1.7950501441955566
1757088347502303200,1.43830322265625,0.4350000321865082,-9.79800033569336,-1.7970000505447388
1757088347511856000,1.447856201171875,0.40605002641677856,-9.790950775146484,-1.7370001077651978
1757088347521409000,1.457408935546875,0.4540500342845917,-9.829050064086914,-1.6390501260757446
1757088347530962000,1.4669619140625,0.4930500090122223,-9.870000839233398,-1.5120000839233398
1757088347540514800,1.476514892578125,0.4330500066280365,-9.934950828552246,-1.4550000429153442
1757088347550067700,1.486067626953125,0.24300001561641693,-9.963000297546387,-1.456950068473816
1757088347559620600,1.49562060546875,-0.037950001657009125,-9.991950035095215,-1.456950068473816
1757088347569173500,1.505173583984375,-0.3160500228404999,-9.999000549316406,-1.4929500818252563
1757088347578726700,1.5147265625,-0.5290500521659851,-10.033050537109375,-1.5670500993728638
1757088347588279600,1.524279541015625,-0.6490500569343567,-10.027950286865234,-1.5910500288009644
1757088347597832400,1.53383251953125,-0.7129500508308411,-10.00200080871582,-1.6150500774383545
1757088347607385300,1.54338525390625,-0.7830000519752502,-9.961050033569336,-1.5570000410079956
1757088347616938200,1.552938232421875,-0.9019500613212585,-9.907950401306152,-1.456950068473816
1757088347626491100,1.5624912109375,-0.9960000514984131,-9.903000831604004,-1.3920000791549683
1757088347636044000,1.5720439453125,-0.9570000171661377,-9.915000915527344,-1.3060500621795654
1757088347645597000,1.581596923828125,-0.7830000519752502,-9.955950736999512,-1.2580500841140747
1757088347655149800,1.59114990234375,-0.5460000038146973,-10.01400089263916,-1.2460500001907349
1757088347664702700,1.60070263671875,-0.34005001187324524,-10.021050453186035,-1.2940500974655151
1757088347674255600,1.610255615234375,-0.21300001442432404,-9.999000549316406,-1.3230000734329224
1757088347683808800,1.619808837890625,-0.11205000430345535,-9.9660005569458,-1.384950041770935
1757088347693361400,1.629361328125,-0.013950000517070293,-9.949050903320312,-1.4280000925064087
1757088347702914600,1.63891455078125,0.08100000023841858,-9.943950653076172,-1.423050045967102
1757088347712467500,1.648467529296875,0.1980000138282776,-9.937050819396973,-1.3900500535964966
1757088347722020400,1.658020263671875,0.31800001859664917,-9.961050033569336,-1.3870500326156616
1757088347731573200,1.6675732421875,0.6150000095367432,-9.958050727844238,-1.327950119972229
1757088347741126100,1.677126220703125,0.9280500411987305,-9.954000473022461,-1.231950044631958
1757088347750679000,1.686678955078125,0.9810000658035278,-9.954000473022461,-1.2370500564575195
1757088347760232000,1.69623193359375,0.9040500521659851,-9.913050651550293,-1.3200000524520874
1757088347769784800,1.705784912109375,0.7489500641822815,-9.925050735473633,-1.443000078201294
1757088347779337700,1.715337646484375,0.6859500408172607,-9.931950569152832,-1.537950038909912
1757088347788890600,1.724890625,0.7030500173568726,-9.937050819396973,-1.596000075340271
1757088347798443800,1.73444384765625,0.7369500398635864,-9.946950912475586,-1.633950114250183
1757088347807996700,1.74399658203125,0.7300500273704529,-9.918000221252441,-1.6440000534057617
1757088347817549600,1.753549560546875,0.6600000262260437,-9.903000831604004,-1.633950114250183
1757088347827102500,1.7631025390625,0.5760000348091125,-9.913050651550293,-1.6200001239776611
1757088347836655400,1.7726552734375,0.4249500334262848,-9.915000915527344,-1.6030501127243042
1757088347846208300,1.782208251953125,0.2580000162124634,-9.915000915527344,-1.579050064086914
1757088347855761200,1.79176123046875,0.14295001327991486,-9.925050735473633,-1.6050000190734863
1757088347865314000,1.80131396484375,0.05895000323653221,-9.919950485229492,-1.6080000400543213
1757088347874867000,1.810866943359375,0,-9.930000305175781,-1.6249500513076782
1757088347884420000,1.820420166015625,0.013950000517070293,-9.937050819396973,-1.6219500303268433
1757088347893973000,1.829972900390625,0.04500000178813934,-9.954000473022461,-1.6410000324249268
1757088347903526000,1.83952587890625,0.07395000010728836,-9.961050033569336,-1.6270500421524048
1757088347913078800,1.849078857421875,0.11205000430345535,-9.954000473022461,-1.6290000677108765
1757088347922631400,1.85863134765625,0.1290000081062317,-9.951000213623047,-1.6530001163482666
1757088347932184600,1.8681845703125,0.1360500007867813,-9.937050819396973,-1.6200001239776611
1757088347941737500,1.877737548828125,0.15300001204013824,-9.934950828552246,-1.5840001106262207
1757088347951290000,1.8872900390625,0.15495000779628754,-9.903000831604004,-1.5220500230789185
1757088347960843300,1.89684326171875,0.18405000865459442,-9.942000389099121,-1.4640001058578491
1757088347970396200,1.906396240234375,0.24105000495910645,-9.9660005569458,-1.4380500316619873
1757088347979949300,1.91594921875,0.2939999997615814,-10.015950202941895,-1.4110500812530518
1757088347989502000,1.925501953125,0.32505002617836,-10.027950286865234,-1.4209500551223755
1757088347999055000,1.93505517578125,0.33705002069473267,-9.994050025939941,-1.4350500106811523
1757088348008607700,1.944607666015625,0.3130500018596649,-9.922950744628906,-1.4470500946044922
1757088348018160600,1.95416064453125,0.28395000100135803,-9.889050483703613,-1.4710500240325928
1757088348027713500,1.963713623046875,0.2749500274658203,-9.901050567626953,-1.4520000219345093
1757088348037266400,1.973266357421875,0.21000000834465027,-9.915000915527344,-1.4550000429153442
1757088348046819300,1.9828193359375,0.14100000262260437,-9.951000213623047,-1.4500501155853271
1757088348056372500,1.99237255859375,0.07095000147819519,-9.9660005569458,-1.4110500812530518
1757088348065925400,2.00192529296875,0.021000001579523087,-9.931950569152832,-1.3590000867843628
1757088348075478500,2.011478515625,0.0019500000635161996,-9.943950653076172,-1.3440001010894775
1757088348085031200,2.02103125,-0.021000001579523087,-9.951000213623047,-1.300950050354004
1757088348094584000,2.030583984375,-0.031050002202391624,-9.963000297546387,-1.270050048828125
1757088348104137000,2.040136962890625,-0.024000000208616257,-9.985050201416016,-1.2630000114440918
1757088348113689900,2.04968994140625,-0.016050001606345177,-10.01400089263916,-1.2990000247955322
1757088348123242800,2.05924267578125,-0.013950000517070293,-9.999000549316406,-1.3159500360488892
1757088348132795600,2.068795654296875,0.009000000543892384,-9.967950820922852,-1.324950098991394
1757088348142348800,2.078348876953125,0.016050001606345177,-9.973050117492676,-1.3369500637054443
1757088348151901700,2.087901611328125,0,-9.963000297546387,-1.3540500402450562
1757088348161454600,2.09745458984375,0.006000000052154064,-9.939000129699707,-1.4020500183105469
1757088348171007500,2.107007568359375,0.010950000956654549,-9.898950576782227,-1.4040000438690186
1757088348180560400,2.116560302734375,0.04500000178813934,-9.858000755310059,-1.4070000648498535
1757088348190113300,2.12611328125,0.07395000010728836,-9.853050231933594,-1.4449501037597656
1757088348199666200,2.135666259765625,0.05895000323653221,-9.870000839233398,-1.4640001058578491
1757088348209219000,2.145218994140625,0.05895000323653221,-9.922950744628906,-1.4659500122070312
1757088348218772000,2.15477197265625,0.05700000375509262,-9.955950736999512,-1.4550000429153442
1757088348228324900,2.164324951171875,0.08505000174045563,-9.991950035095215,-1.440000057220459
1757088348237878000,2.1738779296875,0.11700000613927841,-9.994050025939941,-1.4140501022338867
1757088348247431000,2.183430908203125,0.1380000114440918,-9.958050727844238,-1.3780500888824463
1757088348256983800,2.19298388671875,0.1380000114440918,-9.925050735473633,-1.396950125694275
1757088348266536700,2.20253662109375,0.11700000613927841,-9.907950401306152,-1.4280000925064087
1757088348276089600,2.212089599609375,0.09495000541210175,-9.901050567626953,-1.4740500450134277
1757088348285642500,2.221642578125,0.0690000057220459,-9.907950401306152,-1.5460500717163086
1757088348295195400,2.2311953125,0.05700000375509262,-9.903000831604004,-1.5859500169754028
1757088348304748300,2.240748291015625,0.0499500036239624,-9.906000137329102,-1.6030501127243042
1757088348314301200,2.25030126953125,0.04005000367760658,-9.898950576782227,-1.5720000267028809
1757088348323854000,2.25985400390625,0.034950003027915955,-9.913050651550293,-1.5460500717163086
1757088348333407000,2.269406982421875,0.032999999821186066,-9.922950744628906,-1.5139501094818115
1757088348342960000,2.278960205078125,0.021000001579523087,-9.934950828552246,-1.4929500818252563
1757088348352512800,2.2885126953125,0.032999999821186066,-9.955950736999512,-1.477950096130371
1757088348362066000,2.29806591796875,0.037950001657009125,-9.958050727844238,-1.4710500240325928
1757088348371618800,2.307618896484375,0.025950001552700996,-9.967950820922852,-1.5049500465393066
1757088348381171700,2.317171630859375,0,-9.955950736999512,-1.5049500465393066
1757088348390724600,2.326724609375,-0.021000001579523087,-9.922950744628906,-1.537950038909912
1757088348400277500,2.336277587890625,-0.04005000367760658,-9.910950660705566,-1.5000001192092896
1757088348409830400,2.345830322265625,-0.0499500036239624,-9.919950485229492,-1.456950068473816
1757088348419383300,2.35538330078125,-0.025950001552700996,-9.937050819396973,-1.4070000648498535
1757088348428936200,2.364936279296875,-0.012000000104308128,-9.931950569152832,-1.4110500812530518
1757088348438489000,2.374489013671875,0.004050000105053186,-9.955950736999512,-1.4550000429153442
1757088348448042000,2.3840419921875,0.025950001552700996,-9.967950820922852,-1.495050072669983
1757088348457595100,2.39359521484375,0.05400000140070915,-9.955950736999512,-1.5240000486373901
1757088348467148000,2.40314794921875,0.08505000174045563,-9.967950820922852,-1.5529500246047974
1757088348476701000,2.412700927734375,0.10200000554323196,-9.961050033569336,-1.5769500732421875
1757088348486253800,2.42225390625,0.14295001327991486,-9.949050903320312,-1.5859500169754028
1757088348495806700,2.431806640625,0.16395001113414764,-9.918000221252441,-1.549950122833252
1757088348505359600,2.441359619140625,0.16695000231266022,-9.886950492858887,-1.495050072669983
1757088348514912500,2.45091259765625,0.18405000865459442,-9.886950492858887,-1.4500501155853271
1757088348524465400,2.46046533203125,0.17205001413822174,-9.907950401306152,-1.396950125694275
1757088348534018300,2.470018310546875,0.13095000386238098,-9.939000129699707,-1.3759500980377197
1757088348543571200,2.4795712890625,0.10695000737905502,-9.918000221252441,-1.3440001010894775
1757088348553124000,2.4891240234375,0.1189500093460083,-9.910950660705566,-1.3369500637054443
1757088348562677200,2.49867724609375,0.10905000567436218,-9.846000671386719,-1.3609501123428345
1757088348572230100,2.508230224609375,0.06195000186562538,-9.822000503540039,-1.3990501165390015
1757088348581783000,2.517782958984375,0.006000000052154064,-9.834000587463379,-1.4280000925064087
1757088348591336000,2.5273359375,-0.0070500001311302185,-9.838950157165527,-1.4449501037597656
1757088348600888600,2.536888671875,-0.031050002202391624,-9.874950408935547,-1.4659500122070312
1757088348610441700,2.546441650390625,-0.028050001710653305,-9.910950660705566,-1.4310001134872437
1757088348619994400,2.555994384765625,-0.0070500001311302185,-9.895950317382812,-1.4280000925064087
1757088348629547300,2.56554736328125,0,-9.934950828552246,-1.3950001001358032
1757088348639100400,2.575100341796875,0.006000000052154064,-9.99000072479248,-1.3900500535964966
1757088348648653300,2.5846533203125,0.016050001606345177,-9.991950035095215,-1.3729500770568848
1757088348658206200,2.594206298828125,0.021000001579523087,-9.985050201416016,-1.3680000305175781
1757088348667759000,2.603759033203125,0.016050001606345177,-9.942000389099121,-1.371000051498413
1757088348677312000,2.61331201171875,-0.0070500001311302185,-9.915000915527344,-1.380000114440918
1757088348686865000,2.622864990234375,-0.04500000178813934,-9.903000831604004,-1.4020500183105469
1757088348696417800,2.632417724609375,-0.04305000230669975,-9.919950485229492,-1.443000078201294
1757088348705971000,2.641970947265625,-0.05205000191926956,-9.951000213623047,-1.456950068473816
1757088348715523800,2.65152392578125,-0.037950001657009125,-9.970050811767578,-1.4860501289367676
1757088348725077000,2.661076904296875,-0.016050001606345177,-9.951000213623047,-1.4860501289367676
1757088348734629600,2.670629638671875,0.010950000956654549,-9.954000473022461,-1.4860501289367676
1757088348744182500,2.6801826171875,0.009000000543892384,-9.907950401306152,-1.4830501079559326
1757088348753735400,2.6897353515625,0.0019500000635161996,-9.891000747680664,-1.5019500255584717
1757088348763288300,2.699288330078125,0.0019500000635161996,-9.906000137329102,-1.5310500860214233
1757088348772841200,2.70884130859375,0.004050000105053186,-9.937050819396973,-1.5220500230789185
1757088348782394000,2.71839404296875,-0.019050000235438347,-9.954000473022461,-1.477950096130371
1757088348791947300,2.727947265625,-0.031050002202391624,-9.97800064086914,-1.4520000219345093
1757088348801500200,2.737500244140625,-0.024000000208616257,-9.99000072479248,-1.4329500198364258
1757088348811053000,2.747052978515625,-0.009000000543892384,-9.955950736999512,-1.4350500106811523
1757088348820606000,2.75660595703125,-0.0019500000635161996,-9.930000305175781,-1.4449501037597656
1757088348830158800,2.766158935546875,0.016050001606345177,-9.898950576782227,-1.4659500122070312
1757088348839711700,2.775711669921875,0.021000001579523087,-9.910950660705566,-1.4620500802993774
1757088348849264600,2.7852646484375,0.028050001710653305,-9.910950660705566,-1.4640001058578491
1757088348858817500,2.794817626953125,0.022950001060962677,-9.919950485229492,-1.4500501155853271
1757088348868370400,2.804370361328125,0.022950001060962677,-9.922950744628906,-1.4280000925064087
1757088348877923600,2.813923583984375,0.028050001710653305,-9.942000389099121,-1.4070000648498535
1757088348887476200,2.823476318359375,0.04005000367760658,-9.951000213623047,-1.3830000162124634
1757088348897029000,2.833029052734375,0.0499500036239624,-9.937050819396973,-1.3609501123428345
1757088348906582000,2.84258203125,0.06195000186562538,-9.922950744628906,-1.3639500141143799
1757088348916135200,2.85213525390625,0.07095000147819519,-9.901050567626953,-1.3780500888824463
1757088348925688000,2.86168798828125,0.07605000585317612,-9.898950576782227,-1.4380500316619873
1757088348935241000,2.871240966796875,0.07395000010728836,-9.898950576782227,-1.4760000705718994
1757088348944793900,2.8807939453125,0.06195000186562538,-9.910950660705566,-1.4929500818252563
1757088348954346800,2.8903466796875,0.04005000367760658,-9.942000389099121,-1.4710500240325928
1757088348963899600,2.899899658203125,0.021000001579523087,-9.951000213623047,-1.426050066947937
1757088348973452500,2.90945263671875,0.006000000052154064,-9.99000072479248,-1.3759500980377197
1757088348983005700,2.919005615234375,-0.004950000438839197,-9.985050201416016,-1.327950119972229
1757088348992558300,2.928558349609375,-0.024000000208616257,-9.9660005569458,-1.27305006980896
1757088349002111500,2.938111572265625,-0.04005000367760658,-9.949050903320312,-1.2649500370025635
1757088349011664400,2.947664306640625,-0.0499500036239624,-9.919950485229492,-1.2799500226974487
1757088349021217300,2.95721728515625,-0.07905000448226929,-9.903000831604004,-1.3180500268936157
1757088349030770200,2.966770263671875,-0.09495000541210175,-9.919950485229492,-1.3560000658035278
1757088349040323000,2.976322998046875,-0.10305000841617584,-9.922950744628906,-1.4040000438690186
1757088349049876000,2.9858759765625,-0.1099500060081482,-9.931950569152832,-1.423050045967102
1757088349059428900,2.995428955078125,-0.10305000841617584,-9.946950912475586,-1.4110500812530518
1757088349068981800,3.004981689453125,-0.07605000585317612,-9.958050727844238,-1.4070000648498535
1757088349078534700,3.01453466796875,-0.05205000191926956,-9.946950912475586,-1.396950125694275
1757088349088087800,3.024087890625,-0.036000002175569534,-9.937050819396973,-1.4140501022338867
1757088349097640400,3.033640380859375,-0.032999999821186066,-9.951000213623047,-1.3920000791549683
1757088349107193600,3.043193603515625,-0.0070500001311302185,-9.918000221252441,-1.4070000648498535
1757088349116746500,3.05274658203125,0.004050000105053186,-9.930000305175781,-1.396950125694275
1757088349126299400,3.06229931640625,0.004050000105053186,-9.913050651550293,-1.3990501165390015
1757088349135852300,3.071852294921875,0,-9.907950401306152,-1.3950001001358032
1757088349145405200,3.0814052734375,0.0019500000635161996,-9.927000045776367,-1.4020500183105469
1757088349154957800,3.090957763671875,0.013950000517070293,-9.942000389099121,-1.4110500812530518
1757088349164510700,3.1005107421875,0.030000001192092896,-9.949050903320312,-1.4140501022338867
1757088349174063900,3.11006396484375,0.046950001269578934,-9.951000213623047,-1.4280000925064087
1757088349183616800,3.11961669921875,0.05205000191926956,-9.942000389099121,-1.4500501155853271
1757088349193170000,3.129169921875,0.07395000010728836,-9.925050735473633,-1.4640001058578491
1757088349202722800,3.138722900390625,0.0880500078201294,-9.894000053405762,-1.4899500608444214
1757088349212275500,3.148275390625,0.0970500037074089,-9.925050735473633,-1.5019500255584717
1757088349221828400,3.157828369140625,0.10005000233650208,-9.927000045776367,-1.495050072669983
1757088349231381200,3.16738134765625,0.09495000541210175,-9.937050819396973,-1.5019500255584717
1757088349240934100,3.17693408203125,0.07095000147819519,-9.937050819396973,-1.495050072669983
1757088349250487000,3.186487060546875,0.046950001269578934,-9.937050819396973,-1.5049500465393066
1757088349260040200,3.196040283203125,0.030000001192092896,-9.934950828552246,-1.495050072669983
1757088349269592800,3.2055927734375,0.009000000543892384,-9.925050735473633,-1.4710500240325928
1757088349279145700,3.215145751953125,0.009000000543892384,-9.942000389099121,-1.4470500946044922
1757088349288699000,3.224698974609375,0.0019500000635161996,-9.946950912475586,-1.4449501037597656
1757088349298251800,3.234251708984375,0.010950000956654549,-9.943950653076172,-1.4280000925064087
1757088349307804700,3.2438046875,0.0019500000635161996,-9.963000297546387,-1.4160000085830688
1757088349317357600,3.253357666015625,0.025950001552700996,-9.958050727844238,-1.440000057220459
1757088349326910500,3.262910400390625,0.018000001087784767,-9.949050903320312,-1.4470500946044922
1757088349336463400,3.27246337890625,0.018000001087784767,-9.967950820922852,-1.4590500593185425
1757088349346016500,3.2820166015625,0.034950003027915955,-9.961050033569336,-1.4520000219345093
1757088349355569400,3.2915693359375,0.0499500036239624,-9.922950744628906,-1.4620500802993774
1757088349365122000,3.3011220703125,0.07095000147819519,-9.906000137329102,-1.4929500818252563
1757088349374675000,3.310675048828125,0.08100000023841858,-9.907950401306152,-1.5049500465393066
1757088349384228000,3.32022802734375,0.09000000357627869,-9.913050651550293,-1.5220500230789185
1757088349393781000,3.329781005859375,0.07800000160932541,-9.903000831604004,-1.5019500255584717
1757088349403334000,3.339333984375,0.07095000147819519,-9.937050819396973,-1.4899500608444214
1757088349412886800,3.34888671875,0.0690000057220459,-9.934950828552246,-1.4590500593185425
1757088349422439700,3.358439697265625,0.07800000160932541,-9.946950912475586,-1.4280000925064087
1757088349431992600,3.36799267578125,0.11205000430345535,-9.942000389099121,-1.3990501165390015
1757088349441545500,3.37754541015625,0.1189500093460083,-9.939000129699707,-1.4040000438690186
1757088349451098400,3.387098388671875,0.11700000613927841,-9.925050735473633,-1.4209500551223755
1757088349460651500,3.396651611328125,0.0970500037074089,-9.910950660705566,-1.4380500316619873
1757088349470204200,3.4062041015625,0.08100000023841858,-9.922950744628906,-1.4550000429153442
1757088349479757300,3.41575732421875,0.06599999964237213,-9.919950485229492,-1.443000078201294
1757088349489310200,3.425310302734375,0.06405000388622284,-9.937050819396973,-1.4590500593185425
1757088349498863000,3.434863037109375,0.06195000186562538,-9.934950828552246,-1.4620500802993774
1757088349508416000,3.444416015625,0.05895000323653221,-9.931950569152832,-1.4659500122070312
1757088349517969000,3.453968994140625,0.05400000140070915,-9.937050819396973,-1.4350500106811523
1757088349537074700,3.47307470703125,0.025950001552700996,-9.942000389099121,-1.4470500946044922
1757088349546627600,3.482627685546875,0.013950000517070293,-9.919950485229492,-1.4380500316619873
1757088349556180700,3.4921806640625,0.004050000105053186,-9.907950401306152,-1.423050045967102
1757088349565733600,3.501733642578125,-0.0070500001311302185,-9.903000831604004,-1.4040000438690186
1757088349575286500,3.51128662109375,0,-9.925050735473633,-1.4209500551223755
1757088349584839400,3.52083935546875,0.006000000052154064,-9.946950912475586,-1.4040000438690186
1757088349594392300,3.530392333984375,0.018000001087784767,-9.963000297546387,-1.4160000085830688
1757088349603945000,3.539945068359375,0.004050000105053186,-9.973050117492676,-1.4140501022338867
1757088349613498000,3.549498046875,0.009000000543892384,-9.982050895690918,-1.4280000925064087
1757088349623050800,3.55905078125,0.006000000052154064,-9.9660005569458,-1.4140501022338867
1757088349632604000,3.56860400390625,0.032999999821186066,-9.954000473022461,-1.426050066947937
1757088349642156500,3.578156494140625,0.046950001269578934,-9.922950744628906,-1.4190000295639038
1757088349651709700,3.587709716796875,0.07800000160932541,-9.906000137329102,-1.426050066947937
1757088349661262800,3.597262939453125,0.09000000357627869,-9.886950492858887,-1.4110500812530518
1757088349670815500,3.6068154296875,0.10200000554323196,-9.891000747680664,-1.4590500593185425
1757088349680368400,3.616368408203125,0.10005000233650208,-9.894000053405762,-1.477950096130371
1757088349689921300,3.62592138671875,0.0880500078201294,-9.927000045776367,-1.4880000352859497
1757088349699474200,3.63547412109375,0.09495000541210175,-9.946950912475586,-1.5220500230789185
1757088349709027000,3.645027099609375,0.10695000737905502,-9.922950744628906,-1.5100500583648682
1757088349718580000,3.654580078125,0.10905000567436218,-9.913050651550293,-1.4830501079559326
1757088349728132900,3.6641328125,0.10500000417232513,-9.915000915527344,-1.4500501155853271
1757088349737686000,3.67368603515625,0.11205000430345535,-9.931950569152832,-1.4280000925064087
1757088349747239000,3.683239013671875,0.10500000417232513,-9.955950736999512,-1.4190000295639038
1757088349756791800,3.692791748046875,0.09495000541210175,-9.967950820922852,-1.440000057220459
1757088349766344700,3.7023447265625,0.08100000023841858,-9.955950736999512,-1.4659500122070312
1757088349775897600,3.711897705078125,0.046950001269578934,-9.951000213623047,-1.4860501289367676
1757088349785450800,3.72145068359375,0.037950001657009125,-9.934950828552246,-1.5070500373840332
1757088349795003400,3.73100341796875,0.032999999821186066,-9.919950485229492,-1.5220500230789185
1757088349804556300,3.740556396484375,0.037950001657009125,-9.907950401306152,-1.5289500951766968
1757088349814109200,3.750109130859375,0.04200000315904617,-9.918000221252441,-1.5289500951766968
1757088349823662000,3.759662109375,0.06195000186562538,-9.910950660705566,-1.480950117111206
1757088349833215200,3.76921533203125,0.07605000585317612,-9.939000129699707,-1.4550000429153442
1757088349842768000,3.778767822265625,0.09000000357627869,-9.958050727844238,-1.443000078201294
1757088349852321300,3.7883212890625,0.09000000357627869,-9.949050903320312,-1.4329500198364258
1757088349861874000,3.7978740234375,0.10005000233650208,-9.939000129699707,-1.4520000219345093
1757088349871426800,3.8074267578125,0.10200000554323196,-9.934950828552246,-1.456950068473816
1757088349880979700,3.816979736328125,0.10500000417232513,-9.913050651550293,-1.480950117111206
1757088349890532600,3.82653271484375,0.10695000737905502,-9.898950576782227,-1.4860501289367676
1757088349900085500,3.83608544921875,0.09000000357627869,-9.903000831604004,-1.480950117111206
1757088349909638400,3.845638427734375,0.08505000174045563,-9.922950744628906,-1.4760000705718994
1757088349919191300,3.85519140625,0.07605000585317612,-9.915000915527344,-1.4880000352859497
1757088349928744200,3.864744140625,0.07800000160932541,-9.931950569152832,-1.5019500255584717
1757088349938297000,3.874297119140625,0.07395000010728836,-9.937050819396973,-1.4860501289367676
1757088349947850000,3.88385009765625,0.07095000147819519,-9.951000213623047,-1.4520000219345093
1757088349957403000,3.89340283203125,0.07095000147819519,-9.946950912475586,-1.4310001134872437
1757088349966956000,3.9029560546875,0.07605000585317612,-9.919950485229492,-1.4190000295639038
1757088349976509000,3.912509033203125,0.07800000160932541,-9.922950744628906,-1.4209500551223755
1757088349986061800,3.922061767578125,0.07800000160932541,-9.906000137329102,-1.4280000925064087
1757088349995614700,3.93161474609375,0.08295000344514847,-9.918000221252441,-1.4449501037597656
1757088350005167600,3.941167724609375,0.08100000023841858,-9.913050651550293,-1.4380500316619873
1757088350014720500,3.950720458984375,0.07095000147819519,-9.930000305175781,-1.4590500593185425
1757088350024273200,3.960273193359375,0.08100000023841858,-9.931950569152832,-1.4710500240325928
1757088350033826000,3.969825927734375,0.09300000220537186,-9.922950744628906,-1.4760000705718994
1757088350043379200,3.979379150390625,0.08100000023841858,-9.922950744628906,-1.4929500818252563
1757088350052932400,3.988932373046875,0.07800000160932541,-9.925050735473633,-1.5169501304626465
1757088350062485200,3.9984853515625,0.07395000010728836,-9.906000137329102,-1.5169501304626465
1757088350072038000,4.008037841796875,0.06405000388622284,-9.898950576782227,-1.5100500583648682
1757088350081591000,4.017591064453125,0.07095000147819519,-9.910950660705566,-1.5049500465393066
1757088350091143700,4.027143798828125,0.08505000174045563,-9.939000129699707,-1.5019500255584717
1757088350100696600,4.036696533203125,0.07800000160932541,-9.955950736999512,-1.4710500240325928
1757088350110249500,4.04624951171875,0.0880500078201294,-9.955950736999512,-1.477950096130371
1757088350119802400,4.05580224609375,0.09495000541210175,-9.949050903320312,-1.4899500608444214
1757088350129355300,4.065355224609375,0.10005000233650208,-9.946950912475586,-1.5000001192092896
1757088350138908400,4.074908447265625,0.10905000567436218,-9.934950828552246,-1.519050121307373
1757088350148461300,4.08446142578125,0.10905000567436218,-9.942000389099121,-1.5049500465393066
1757088350158014200,4.09401416015625,0.10500000417232513,-9.913050651550293,-1.4980500936508179
1757088350167567000,4.103567138671875,0.10005000233650208,-9.918000221252441,-1.5070500373840332
1757088350177120000,4.1131201171875,0.10905000567436218,-9.927000045776367,-1.5220500230789185
1757088350186673000,4.1226728515625,0.11205000430345535,-9.925050735473633,-1.5289500951766968
1757088350196225800,4.132225830078125,0.1290000081062317,-9.925050735473633,-1.5360000133514404
1757088350205778700,4.14177880859375,0.14295001327991486,-9.925050735473633,-1.5480000972747803
1757088350215331600,4.15133154296875,0.15000000596046448,-9.927000045776367,-1.555050015449524
1757088350224884700,4.160884765625,0.1570500135421753,-9.937050819396973,-1.5480000972747803
1757088350234437600,4.170437744140625,0.16905000805854797,-9.931950569152832,-1.5259500741958618
1757088350243990500,4.179990478515625,0.14805001020431519,-9.913050651550293,-1.4710500240325928
1757088350253543400,4.18954345703125,0.14295001327991486,-9.915000915527344,-1.4470500946044922
1757088350263096300,4.199096435546875,0.11400000751018524,-9.913050651550293,-1.4209500551223755
1757088350272649200,4.208649169921875,0.11205000430345535,-9.931950569152832,-1.4110500812530518
1757088350282202000,4.2182021484375,0.1189500093460083,-9.934950828552246,-1.4160000085830688
1757088350291755000,4.227755126953125,0.10005000233650208,-9.931950569152832,-1.4470500946044922
1757088350301308000,4.237307861328125,0.10005000233650208,-9.949050903320312,-1.4740500450134277
1757088350310860800,4.24686083984375,0.10905000567436218,-9.961050033569336,-1.4860501289367676
1757088350320413700,4.25641357421875,0.09300000220537186,-9.954000473022461,-1.4860501289367676
1757088350329966800,4.265966796875,0.05895000323653221,-9.951000213623047,-1.4380500316619873
1757088350339519700,4.275519775390625,0.06195000186562538,-9.922950744628906,-1.3950001001358032
1757088350349072600,4.28507275390625,0.09300000220537186,-9.901050567626953,-1.4089500904083252
1757088350358625500,4.29462548828125,0.0880500078201294,-9.918000221252441,-1.4350500106811523
1757088350368178400,4.304178466796875,0.09000000357627869,-9.907950401306152,-1.4500501155853271
1757088350377731000,4.31373095703125,0.07800000160932541,-9.946950912475586,-1.4550000429153442
1757088350387284000,4.323283935546875,0.08100000023841858,-9.994050025939941,-1.5019500255584717
1757088350396837000,4.332837158203125,0.08295000344514847,-9.99000072479248,-1.4929500818252563
1757088350406390300,4.342390380859375,0.09495000541210175,-9.982050895690918,-1.4980500936508179
1757088350415943200,4.351943115234375,0.10005000233650208,-9.943950653076172,-1.477950096130371
1757088350425496000,4.36149609375,0.10500000417232513,-9.886950492858887,-1.4590500593185425
1757088350435048700,4.371048583984375,0.14100000262260437,-9.886950492858887,-1.4470500946044922
1757088350444601600,4.3806015625,0.16200000047683716,-9.894000053405762,-1.4449501037597656
1757088350454154500,4.390154541015625,0.18105000257492065,-9.907950401306152,-1.4740500450134277
1757088350463707600,4.399707763671875,0.17595000565052032,-9.934950828552246,-1.5000001192092896
1757088350473260300,4.40926025390625,0.16695000231266022,-9.931950569152832,-1.5460500717163086
1757088350482813200,4.418813232421875,0.16395001113414764,-9.925050735473633,-1.540950059890747
1757088350492366300,4.428366455078125,0.14505000412464142,-9.915000915527344,-1.4980500936508179
1757088350501919200,4.437919189453125,0.14100000262260437,-9.913050651550293,-1.4590500593185425
1757088350511472000,4.44747216796875,0.1189500093460083,-9.915000915527344,-1.4329500198364258
1757088350521025000,4.45702490234375,0.10200000554323196,-9.919950485229492,-1.3990501165390015
1757088350530578000,4.466577880859375,0.0880500078201294,-9.946950912475586,-1.4040000438690186
1757088350540130800,4.476130859375,0.05205000191926956,-9.951000213623047,-1.4070000648498535
1757088350549683700,4.48568359375,0.04005000367760658,-9.955950736999512,-1.4329500198364258
1757088350559236600,4.495236572265625,0.021000001579523087,-9.9660005569458,-1.4329500198364258
1757088350568789500,4.50478955078125,0.0019500000635161996,-9.946950912475586,-1.426050066947937
1757088350578342700,4.5143427734375,0.0019500000635161996,-9.955950736999512,-1.4310001134872437
1757088350587895300,4.523895263671875,-0.0070500001311302185,-9.954000473022461,-1.4350500106811523
1757088350597448200,4.5334482421875,-0.0019500000635161996,-9.961050033569336,-1.4110500812530518
1757088350607001000,4.5430009765625,-0.004950000438839197,-9.943950653076172,-1.423050045967102
1757088350616554200,4.55255419921875,0.016050001606345177,-9.937050819396973,-1.423050045967102
1757088350626107100,4.562107177734375,0.0019500000635161996,-9.915000915527344,-1.423050045967102
1757088350635660000,4.571659912109375,-0.0019500000635161996,-9.913050651550293,-1.4310001134872437
1757088350645213000,4.581212890625,0.009000000543892384,-9.915000915527344,-1.4329500198364258
1757088350654765800,4.590765869140625,0.009000000543892384,-9.937050819396973,-1.4209500551223755
1757088350664318700,4.600318603515625,0.0019500000635161996,-9.937050819396973,-1.440000057220459
1757088350673871600,4.60987158203125,0.025950001552700996,-9.922950744628906,-1.443000078201294
1757088350683424500,4.619424560546875,0.037950001657009125,-9.939000129699707,-1.4760000705718994
1757088350692977700,4.628977783203125,0.05205000191926956,-9.922950744628906,-1.5139501094818115
1757088350702530300,4.6385302734375,0.0690000057220459,-9.915000915527344,-1.5430500507354736
1757088350712083500,4.64808349609375,0.07395000010728836,-9.910950660705566,-1.549950122833252
1757088350721636400,4.65763623046875,0.08295000344514847,-9.913050651550293,-1.5360000133514404
1757088350731189000,4.66718896484375,0.05895000323653221,-9.907950401306152,-1.495050072669983
1757088350740742100,4.6767421875,0.04500000178813934,-9.922950744628906,-1.4689500331878662
1757088350750295000,4.686294921875,0.028050001710653305,-9.934950828552246,-1.4550000429153442
1757088350759848000,4.695847900390625,0.05700000375509262,-9.946950912475586,-1.4449501037597656
1757088350769400800,4.70540087890625,0.06599999964237213,-9.943950653076172,-1.440000057220459
1757088350778953700,4.71495361328125,0.06599999964237213,-9.931950569152832,-1.4310001134872437
1757088350788506600,4.724506591796875,0.06599999964237213,-9.931950569152832,-1.4329500198364258
1757088350798059500,4.7340595703125,0.07095000147819519,-9.955950736999512,-1.4449501037597656
1757088350807612400,4.7436123046875,0.06405000388622284,-9.951000213623047,-1.4470500946044922
1757088350817165300,4.753165283203125,0.06599999964237213,-9.942000389099121,-1.4760000705718994
1757088350826718200,4.76271826171875,0.05700000375509262,-9.910950660705566,-1.4620500802993774
1757088350836271000,4.77227099609375,0.046950001269578934,-9.922950744628906,-1.4449501037597656
1757088350845824000,4.781823974609375,0.021000001579523087,-9.954000473022461,-1.423050045967102
1757088350855377000,4.791376953125,0.013950000517070293,-9.943950653076172,-1.423050045967102
1757088350864929800,4.8009296875,0.006000000052154064,-9.949050903320312,-1.4160000085830688
1757088350874482700,4.810482666015625,-0.013950000517070293,-9.949050903320312,-1.4040000438690186
1757088350884035600,4.82003564453125,-0.013950000517070293,-9.925050735473633,-1.4089500904083252
1757088350893588500,4.82958837890625,-0.032999999821186066,-9.930000305175781,-1.396950125694275
1757088350903141400,4.839141357421875,-0.04500000178813934,-9.922950744628906,-1.396950125694275
1757088350912694500,4.848694580078125,-0.04800000041723251,-9.913050651550293,-1.4350500106811523
1757088350922247400,4.858247314453125,-0.04500000178813934,-9.901050567626953,-1.4329500198364258
1757088350931800300,4.86780029296875,-0.06000000238418579,-9.910950660705566,-1.4500501155853271
1757088350941353200,4.877353271484375,-0.06405000388622284,-9.942000389099121,-1.440000057220459
1757088350950906000,4.886906005859375,-0.08595000207424164,-9.963000297546387,-1.4329500198364258
1757088350960459000,4.896458984375,-0.07395000010728836,-9.951000213623047,-1.4040000438690186
1757088350970011600,4.90601171875,-0.06000000238418579,-9.937050819396973,-1.396950125694275
1757088350979564800,4.915564697265625,-0.04005000367760658,-9.918000221252441,-1.4070000648498535
1757088350989117700,4.92511767578125,-0.0070500001311302185,-9.927000045776367,-1.4280000925064087
1757088350998670800,4.9346708984375,0.010950000956654549,-9.922950744628906,-1.4449501037597656
1757088351008223500,4.944223388671875,0.022950001060962677,-9.913050651550293,-1.4710500240325928
1757088351017776400,4.9537763671875,0.046950001269578934,-9.907950401306152,-1.4740500450134277
1757088351027329300,4.963329345703125,0.05400000140070915,-9.925050735473633,-1.4760000705718994
1757088351036882200,4.972882080078125,0.06195000186562538,-9.955950736999512,-1.443000078201294
1757088351046435000,4.98243505859375,0.07095000147819519,-9.955950736999512,-1.423050045967102
1757088351055988200,4.99198828125,0.07605000585317612,-9.937050819396973,-1.4160000085830688
1757088351065541000,5.001541015625,0.07800000160932541,-9.927000045776367,-1.4380500316619873
1757088351075094000,5.011093994140625,0.05895000323653221,-9.930000305175781,-1.4659500122070312
1757088351084647000,5.02064697265625,0.05205000191926956,-9.927000045776367,-1.480950117111206
1757088351094199800,5.03019970703125,0.028050001710653305,-9.934950828552246,-1.5220500230789185
1757088351103752700,5.039752685546875,0.032999999821186066,-9.937050819396973,-1.519050121307373
1757088351113305600,5.0493056640625,0.032999999821186066,-9.942000389099121,-1.5139501094818115
1757088351122858500,5.0588583984375,0.021000001579523087,-9.895950317382812,-1.5340501070022583
1757088351132411400,5.068411376953125,0.034950003027915955,-9.901050567626953,-1.5480000972747803
1757088351141964300,5.07796435546875,0.04200000315904617,-9.903000831604004,-1.5460500717163086
1757088351151517200,5.08751708984375,0.04200000315904617,-9.931950569152832,-1.549950122833252
1757088351161070000,5.097070068359375,0.022950001060962677,-9.979950904846191,-1.5340501070022583
1757088351170623000,5.106623046875,0,-10.026000022888184,-1.5430500507354736
1757088351180176100,5.116176025390625,-0.0070500001311302185,-10.045050621032715,-1.5289500951766968
1757088351189729000,5.12572900390625,-0.028050001710653305,-10.018050193786621,-1.5000001192092896
1757088351199282000,5.135281982421875,-0.031050002202391624,-10.015950202941895,-1.4500501155853271
1757088351208834800,5.144834716796875,-0.016050001606345177,-10.015950202941895,-1.423050045967102
1757088351218387700,5.1543876953125,-0.004950000438839197,-10.047000885009766,-1.4310001134872437
1757088351227940400,5.1639404296875,0.032999999821186066,-10.07295036315918,-1.440000057220459
1757088351237493500,5.173493408203125,0.04500000178813934,-10.11405086517334,-1.4659500122070312
1757088351247046400,5.18304638671875,0.04200000315904617,-10.140000343322754,-1.480950117111206
1757088351256599300,5.192599365234375,0.04200000315904617,-10.119000434875488,-1.5019500255584717
1757088351266152200,5.202152099609375,0.0690000057220459,-10.057050704956055,-1.537950038909912
1757088351275705000,5.211705078125,0.15300001204013824,-10.023000717163086,-1.5360000133514404
1757088351285258000,5.221258056640625,0.23895001411437988,-9.975000381469727,-1.5240000486373901
1757088351294811000,5.230810791015625,0.3150000274181366,-9.955950736999512,-1.5310500860214233
1757088351304363800,5.24036376953125,0.3730500042438507,-9.963000297546387,-1.5259500741958618
1757088351313916700,5.249916748046875,0.4300500154495239,-9.979950904846191,-1.5259500741958618
1757088351323469600,5.259469482421875,0.46095001697540283,-10.00200080871582,-1.549950122833252
1757088351333022500,5.2690224609375,0.46605002880096436,-10.0489501953125,-1.6050000190734863
1757088351342575400,5.278575439453125,0.4759500324726105,-10.140000343322754,-1.711050033569336
1757088351352128300,5.288128173828125,0.46905001997947693,-10.195950508117676,-1.7920501232147217
1757088351361681200,5.29768115234375,0.48795002698898315,-10.231050491333008,-1.90500009059906
1757088351371234300,5.307234375,0.5520000457763672,-10.224000930786133,-1.9429501295089722
1757088351380787000,5.316786865234375,0.6670500040054321,-10.188000679016113,-1.8229501247406006
1757088351390340000,5.326340087890625,0.7180500626564026,-10.119000434875488,-1.765950083732605
1757088351399893000,5.33589306640625,0.6409500241279602,-10.018050193786621,-1.8349500894546509
1757088351409446000,5.34544580078125,0.527999997138977,-9.844050407409668,-1.9170000553131104
1757088351418998800,5.354998779296875,0.4300500154495239,-9.670950889587402,-2.020050048828125
1757088351428551700,5.3645517578125,0.3559500277042389,-9.529950141906738,-2.137050151824951
1757088351438104600,5.3741044921875,0.30105000734329224,-9.38895034790039,-2.1850500106811523
1757088351447657500,5.383657470703125,0.2580000162124634,-9.247050285339355,-2.1850500106811523
1757088351457210400,5.39321044921875,0.10695000737905502,-9.051000595092773,-2.110949993133545
1757088351466763300,5.40276318359375,-0.22995001077651978,-8.92905044555664,-2.089050054550171
1757088351476316400,5.41231640625,-0.6199500560760498,-8.718000411987305,-2.0080502033233643
1757088351485869000,5.421869140625,-0.9769500494003296,-8.365950584411621,-1.9309500455856323
1757088351495422200,5.431422119140625,-1.0800000429153442,-8.07705020904541,-1.9290001392364502
1757088351504974800,5.440974853515625,-1.4719500541687012,-7.891950607299805,-1.804050087928772
1757088351514527700,5.45052783203125,-2.382000207901001,-7.765050411224365,-1.6990500688552856
1757088351524080600,5.46008056640625,-3.2320501804351807,-7.8319501876831055,-1.5979501008987427
1757088351533633500,5.469633544921875,-3.1530001163482666,-7.8160505294799805,-1.651050090789795
1757088351543186400,5.4791865234375,-2.25,-7.7440505027771,-2.070000171661377
1757088351552739300,5.4887392578125,-0.5740500092506409,-7.783950328826904,-2.0530500411987305
1757088351562292500,5.49829248046875,0.4810500144958496,-7.657950401306152,-1.423050045967102
1757088351571845400,5.507845458984375,1.0810500383377075,-8.002050399780273,-0.6049500107765198
1757088351581398000,5.51739794921875,1.1290500164031982,-8.815950393676758,-0.41805002093315125
1757088351590951000,5.526950927734375,1.0000500679016113,-9.838950157165527,-0.6310500502586365
1757088351600504000,5.536504150390625,-1.0750499963760376,-10.85205078125,-1.1770501136779785
1757088351610057000,5.546056884765625,-3.9240002632141113,-11.43600082397461,-1.6770000457763672
1757088351619609900,5.55560986328125,-5.386950492858887,-11.922000885009766,-1.902000069618225
1757088351629162800,5.565162841796875,-5.389050483703613,-12.457950592041016,-1.5670500993728638
1757088351638715600,5.574715576171875,-4.963050365447998,-12.46500015258789,-1.2030000686645508
1757088351648268500,5.5842685546875,-3.3490500450134277,-11.869050979614258,-1.1340000629425049
1757088351657821400,5.593821533203125,-4.180050373077393,-10.240950584411621,-0.9490500688552856
1757088351667374300,5.603374267578125,-5.595000267028809,-8.709000587463379,-1.0669500827789307
1757088351676927200,5.61292724609375,-5.736000061035156,-8.136000633239746,-1.7059500217437744
1757088351686480100,5.622480224609375,-5.722050189971924,-7.53795051574707,-1.7950501441955566
1757088351696033300,5.632033203125,-5.764950275421143,-6.886950492858887,-1.5460500717163086
1757088351705586200,5.641586181640625,-5.635950088500977,-6.525000095367432,-1.6290000677108765
1757088351715138800,5.651138916015625,-5.65500020980835,-6.0769500732421875,-1.7040001153945923
1757088351724691700,5.660691650390625,-5.167050361633301,-5.620050430297852,-1.7899501323699951
1757088351734244600,5.67024462890625,-4.50600004196167,-5.485950469970703,-1.6530001163482666
1757088351743797500,5.679797607421875,-4.375950336456299,-5.632050037384033,-1.8019500970840454
1757088351753350400,5.689350341796875,-5.310000419616699,-5.800050258636475,-1.9260001182556152
1757088351762903300,5.6989033203125,-6.2749505043029785,-6.1710004806518555,-2.1060001850128174
1757088351772456400,5.70845654296875,-6.424050331115723,-6.733050346374512,-2.1919500827789307
1757088351782009300,5.71800927734375,-6.2989501953125,-7.120950222015381,-2.6299500465393066
1757088351791562200,5.727562255859375,-6.318000316619873,-7.2360005378723145,-3.115950107574463
1757088351801115400,5.737115478515625,-6.961950302124023,-6.987000465393066,-3.742950201034546
1757088351810668000,5.74666796875,-7.587000370025635,-6.594000339508057,-4.090950012207031
1757088351820221000,5.756220947265625,-7.740000247955322,-6.12000036239624,-4.198050022125244
1757088351829773800,5.76577392578125,-7.273950576782227,-5.63700008392334,-3.6739501953125
1757088351839326700,5.77532666015625,-7.029000282287598,-5.467050075531006,-2.6110501289367676
1757088351848879600,5.784879638671875,-7.242000579833984,-5.029050350189209,-2.0119500160217285
1757088351858432500,5.7944326171875,-7.507950305938721,-4.6020002365112305,-1.3489500284194946
1757088351867985400,5.8039853515625,-7.8070502281188965,-4.498950004577637,-0.6430500149726868
1757088351877538300,5.813538330078125,-8.2339506149292,-3.9780001640319824,-0.7960500121116638
1757088351887091500,5.823091552734375,-8.072999954223633,-3.5970001220703125,-1.059000015258789
1757088351896644400,5.832644287109375,-7.908000469207764,-3.2280001640319824,-1.4590500593185425
1757088351906197200,5.842197265625,-7.896000385284424,-3.1660501956939697,-1.495050072669983
1757088351915750100,5.851750244140625,-8.361000061035156,-3.180000066757202,-1.8019500970840454
1757088351925302800,5.861302734375,-8.430000305175781,-3.274050235748291,-1.7920501232147217
1757088351934855700,5.870855712890625,-8.491950035095215,-3.709050178527832,-1.4899500608444214
1757088351944408600,5.88040869140625,-9.032999992370605,-4.174050331115723,-1.366050124168396
1757088351953961700,5.889961669921875,-9.390000343322754,-4.423050403594971,-1.5720000267028809
1757088351963514400,5.899514404296875,-9.598050117492676,-4.561950206756592,-1.897050142288208
1757088351973067500,5.909067626953125,-9.369000434875488,-4.522950172424316,-2.367000102996826
1757088351982620400,5.918620361328125,-8.722050666809082,-4.357950210571289,-2.53695011138916
1757088351992173300,5.92817333984375,-9.028950691223145,-4.222050189971924,-2.371950149536133
1757088352001726200,5.937726318359375,-9.217950820922852,-3.9370501041412354,-2.2710001468658447
1757088352011279000,5.947279052734375,-9.31605052947998,-3.6280500888824463,-2.1730501651763916
1757088352020832000,5.95683203125,-8.965950012207031,-3.573000192642212,-1.8060001134872437
1757088352030385000,5.966385009765625,-9.02400016784668,-3.2569501399993896,-2.236950159072876
1757088352039937800,5.975937744140625,-9.03795051574707,-3.100950241088867,-2.3910000324249268
1757088352049490700,5.98549072265625,-9.574050903320312,-2.9820001125335693,-2.568000078201294
1757088352059043600,5.995043701171875,-9.661050796508789,-2.7850501537323,-3.0900001525878906
1757088352068596500,6.004596435546875,-9.60300064086914,-2.614950180053711,-3.2890501022338867
1757088352078149400,6.0141494140625,-9.940950393676758,-2.3329501152038574,-3.4870500564575195
1757088352087702300,6.023702392578125,-9.952950477600098,-2.164950132369995,-3.6120002269744873
1757088352097255200,6.033255126953125,-10.089000701904297,-2.30400013923645,-3.20205020904541
1757088352106808000,6.04280810546875,-10.041000366210938,-2.433000087738037,-2.776050090789795
1757088352116361200,6.052361328125,-9.964950561523438,-2.1910500526428223,-2.319000005722046
1757088352125913900,6.061913818359375,-10.293000221252441,-1.9759501218795776,-1.579050064086914
1757088352135467000,6.071467041015625,-10.38900089263916,-1.6500000953674316,-1.540950059890747
1757088352145019600,6.08101953125,-10.321050643920898,-1.549950122833252,-1.8259501457214355
1757088352154572500,6.090572509765625,-10.053000450134277,-1.7130000591278076,-2.115000009536743
1757088352164125400,6.10012548828125,-9.495000839233398,-1.801050066947937,-2.3550000190734863
1757088352173678300,6.10967822265625,-9.517050743103027,-1.6840500831604004,-2.5540502071380615
1757088352183231500,6.1192314453125,-9.651000022888184,-1.4160000085830688,-2.5420501232147217
1757088352192784400,6.128784423828125,-9.498000144958496,-1.1929500102996826,-2.946000099182129
1757088352202337300,6.138337158203125,-9.31605052947998,-0.8650500178337097,-2.608950138092041
1757088352211890200,6.14789013671875,-9.56505012512207,-1.1670000553131104,-2.3479502201080322
1757088352221443000,6.157443115234375,-9.258000373840332,-1.3170000314712524,-1.9960501194000244
1757088352230996000,6.166995849609375,-9.507000923156738,-1.4299501180648804,-1.8160500526428223
1757088352240548900,6.176548828125,-9.844950675964355,-1.3510500192642212,-1.540950059890747
1757088352250101800,6.186101806640625,-9.715950012207031,-1.1470500230789185,-1.3180500268936157
1757088352259654700,6.195654541015625,-9.723000526428223,-1.0780500173568726,-1.2510000467300415
1757088352269207600,6.20520751953125,-9.691950798034668,-0.8820000290870667,-1.3560000658035278
1757088352278760400,6.214760498046875,-9.780000686645508,-0.7140000462532043,-1.4310001134872437
1757088352288313600,6.224313720703125,-9.835050582885742,-0.5899500250816345,-1.1359500885009766
1757088352297866500,6.233866455078125,-10.105950355529785,-0.36000001430511475,-1.1290500164031982
1757088352307419400,6.24341943359375,-10.141950607299805,-0.2880000174045563,-1.0879501104354858
1757088352316972300,6.25297216796875,-10.06095027923584,-0.15600000321865082,-1.1190000772476196
1757088352326525200,6.262525146484375,-9.931050300598145,-0.1660500019788742,-1.3920000791549683
1757088352336078000,6.272078125,-9.667950630187988,-0.22995001077651978,-1.5859500169754028
1757088352345630700,6.281630615234375,-9.606000900268555,-0.29295000433921814,-1.7710500955581665
1757088352355183900,6.291183837890625,-9.567000389099121,-0.42705002427101135,-2.0460000038146973
1757088352364736800,6.30073681640625,-9.910050392150879,-0.33105000853538513,-2.0340001583099365
1757088352374290000,6.3102900390625,-10.288050651550293,-0.2760000228881836,-1.7010000944137573
1757088352383842600,6.319842529296875,-10.62600040435791,-0.30705001950263977,-1.5259500741958618
1757088352393395500,6.3293955078125,-10.567950248718262,-0.22995001077651978,-1.210050106048584
1757088352402948400,6.3389482421875,-10.312050819396973,0.08505000174045563,-0.9829500317573547
1757088352412501200,6.348501220703125,-10.16100025177002,0.34995001554489136,-0.8389500379562378
1757088352422054100,6.35805419921875,-10.47705078125,0.19905000925064087,-0.9829500317573547
1757088352431607000,6.36760693359375,-10.575000762939453,0.05100000277161598,-1.1380500793457031
1757088352441160200,6.37716015625,-10.333050727844238,0.0010500000789761543,-1.3320000171661377
1757088352450713000,6.386713134765625,-10.402950286865234,0.19200000166893005,-1.3200000524520874
1757088352460266000,6.396265869140625,-10.74000072479248,0.17100000381469727,-1.2370500564575195
1757088352469819000,6.40581884765625,-10.594050407409668,0.034050002694129944,-1.01895010471344
1757088352479371800,6.415371826171875,-9.991050720214844,-0.08205000311136246,-0.7219500541687012
1757088352488924700,6.424924560546875,-9.460050582885742,-0.2070000171661377,-0.5160000324249268
1757088352498477600,6.4344775390625,-8.914050102233887,-0.4120500087738037,-0.37905001640319824
1757088352508030500,6.444030517578125,-9.115050315856934,-0.43905001878738403,-0.40605002641677856
1757088352517583400,6.453583251953125,-9.285000801086426,-0.5130000114440918,-0.6379500031471252
1757088352527136300,6.46313623046875,-9.475950241088867,-0.7140000462532043,-0.8029500246047974
1757088352536689000,6.47268896484375,-9.792000770568848,-1.071000099182129,-0.7410000562667847
1757088352546242000,6.482241943359375,-9.90195083618164,-1.297950029373169,-0.597000002861023
1757088352555795000,6.491794921875,-9.84000015258789,-1.3990501165390015,-0.43905001878738403
1757088352565347800,6.501347900390625,-9.778050422668457,-1.3579500913619995,-0.3630000054836273
1757088352574900700,6.510900634765625,-9.796950340270996,-1.240950107574463,-0.28395000100135803
1757088352584453600,6.52045361328125,-9.85200023651123,-1.059000015258789,-0.22095000743865967
1757088352594006500,6.530006591796875,-9.90195083618164,-0.8080500364303589,-0.40800002217292786
1757088352603559400,6.539559326171875,-9.790050506591797,-0.6930000185966492,-0.48000001907348633
1757088352613112300,6.5491123046875,-9.706050872802734,-0.5440500378608704,-0.5160000324249268
1757088352622665200,6.558665283203125,-9.688950538635254,-0.42900002002716064,-0.40095001459121704
1757088352632218000,6.568218017578125,-9.81195068359375,-0.43905001878738403,-0.46800002455711365
1757088352641771000,6.57777099609375,-9.780000686645508,-0.47700002789497375,-0.5809500217437744
1757088352651324200,6.58732421875,-9.778050422668457,-0.5179499983787537,-0.6550500392913818
1757088352660877000,6.596876953125,-9.868950843811035,-0.5110500454902649,-0.7270500063896179
1757088352670430000,6.606429931640625,-9.91395092010498,-0.48705002665519714,-0.8299500346183777
1757088352679982800,6.61598291015625,-9.855000495910645,-0.4600500166416168,-1.0039499998092651
1757088352689535700,6.62553564453125,-9.84000015258789,-0.5029500126838684,-1.1790000200271606
1757088352699088600,6.635088623046875,-9.807000160217285,-0.5179499983787537,-1.3200000524520874
1757088352708641500,6.6446416015625,-9.727950096130371,-0.5370000004768372,-1.440000057220459
1757088352718194400,6.6541943359375,-9.586050033569336,-0.5230500102043152,-1.4380500316619873
1757088352727747000,6.6637470703125,-9.495000839233398,-0.48900002241134644,-1.4209500551223755
1757088352737300200,6.67330029296875,-9.499950408935547,-0.38895002007484436,-1.300950050354004
1757088352746853000,6.68285302734375,-9.606000900268555,-0.28095000982284546,-1.3200000524520874
1757088352756406300,6.69240625,-9.643950462341309,-0.31200000643730164,-1.4140501022338867
1757088352765959200,6.701959228515625,-9.709050178527832,-0.5539500117301941,-1.725000023841858
1757088352775512000,6.711511962890625,-9.523950576782227,-0.931950032711029,-1.5810000896453857
1757088352785064700,6.721064697265625,-9.154950141906738,-0.8869500160217285,-1.3440001010894775
1757088352794617600,6.73061767578125,-8.85105037689209,-0.45795002579689026,-0.6520500183105469
1757088352804170500,6.74017041015625,-8.818050384521484,-0.3430500030517578,-0.5610000491142273
1757088352813723400,6.749723388671875,-8.746050834655762,-0.7120500206947327,-0.7429500222206116
1757088352823276300,6.7592763671875,-8.82705020904541,-0.9510000348091125,-0.8370000123977661
1757088352832829200,6.7688291015625,-9.258000373840332,-0.9559500217437744,-0.7429500222206116
1757088352842382300,6.77838232421875,-9.57705020904541,-0.9130500555038452,-0.739050030708313
1757088352851935000,6.78793505859375,-9.802050590515137,-0.5730000138282776,-0.7050000429153442
1757088352861488000,6.797488037109375,-9.859050750732422,-0.1870500147342682,-0.8269500136375427
1757088352871041000,6.807041015625,-10.104000091552734,0.19200000166893005,-0.8779500126838684
1757088352880594000,6.816593994140625,-10.357050895690918,0.48000001907348633,-0.9130500555038452
1757088352890146800,6.826146728515625,-10.345050811767578,0.47700002789497375,-0.973050057888031
1757088352899699700,6.83569970703125,-10.120050430297852,0.4030500054359436,-0.973050057888031
1757088352909252600,6.845252685546875,-9.727950096130371,0.3240000009536743,-1.002000093460083
1757088352918805500,6.854805419921875,-9.436050415039062,0.19200000166893005,-1.1269500255584717
1757088352928358400,6.8643583984375,-9.196050643920898,-0.010050000622868538,-1.1770501136779785
1757088352937911300,6.873911376953125,-8.976000785827637,-0.23295001685619354,-1.1190000772476196
1757088352947464200,6.883464111328125,-8.929950714111328,-0.4600500166416168,-1.0039499998092651
1757088352957017000,6.89301708984375,-9.153000831604004,-0.6570000052452087,-0.8700000643730164
1757088352966570000,6.902570068359375,-9.418950080871582,-0.8119500279426575,-0.8269500136375427
1757088352976123100,6.912123046875,-9.843000411987305,-0.8190000653266907,-0.8509500622749329
1757088352985676000,6.921676025390625,-10.039050102233887,-0.7669500112533569,-0.8629500269889832
1757088352995228700,6.931228759765625,-10.057950019836426,-0.6970500349998474,-0.9400500655174255
1757088353004781600,6.940781494140625,-10.152000427246094,-0.6040500402450562,-1.0039499998092651
1757088353014334500,6.95033447265625,-10.152000427246094,-0.5389500260353088,-1.0069500207901
1757088353023887400,6.959887451171875,-10.072050094604492,-0.5869500041007996,-0.9280500411987305
1757088353033440300,6.969440185546875,-9.946050643920898,-0.6520500183105469,-0.8389500379562378
1757088353042993200,6.9789931640625,-9.87600040435791,-0.7519500255584717,-0.7890000343322754
1757088353052546000,6.988546142578125,-9.843000411987305,-0.8509500622749329,-0.7339500188827515
1757088353062099000,6.998098876953125,-9.742050170898438,-0.9780000448226929,-0.7459500432014465
1757088353071651800,7.00765185546875,-9.630000114440918,-1.0210500955581665,-0.778950035572052
1757088353081204700,7.017204833984375,-9.535950660705566,-0.9679500460624695,-0.8560500144958496
1757088353090758000,7.0267578125,-9.5149507522583,-0.7999500632286072,-0.8940000534057617
1757088353100310800,7.036310791015625,-9.567000389099121,-0.5989500284194946,-0.906000018119812
1757088353109863700,7.04586376953125,-9.630000114440918,-0.6019500494003296,-0.922950029373169
1757088353119416600,7.05541650390625,-9.718050003051758,-0.6469500064849854,-0.9330000281333923
1757088353128969500,7.064969482421875,-9.742050170898438,-0.7330500483512878,-0.9570000171661377
1757088353138522400,7.0745224609375,-9.724950790405273,-0.778950035572052,-0.9679500460624695
1757088353148075000,7.084074951171875,-9.676950454711914,-0.8220000267028809,-0.9880500435829163
1757088353157628200,7.093628173828125,-9.62700080871582,-0.8460000157356262,-1.0210500955581665
1757088353167180800,7.103180908203125,-9.607950210571289,-0.8149500489234924,-1.0549499988555908
1757088353176734000,7.11273388671875,-9.567000389099121,-0.8629500269889832,-1.0690500736236572
1757088353186286800,7.122286865234375,-9.546000480651855,-0.9250500202178955,-1.0930500030517578
1757088353195839700,7.13183984375,-9.543000221252441,-0.8839500546455383,-1.1050500869750977
1757088353205393000,7.141392822265625,-9.558000564575195,-0.8790000677108765,-1.1290500164031982
1757088353214945500,7.150945556640625,-9.622050285339355,-0.9270000457763672,-1.1740500926971436
1757088353224498400,7.16049853515625,-9.62700080871582,-0.9100500345230103,-1.2250500917434692
1757088353234051300,7.17005126953125,-9.618000030517578,-0.9390000700950623,-1.3200000524520874
1757088353243604200,7.179604248046875,-9.571950912475586,-0.8719500303268433,-1.3060500621795654
1757088353253157000,7.1891572265625,-9.5149507522583,-0.775950014591217,-1.308000087738037
1757088353262710300,7.198710205078125,-9.57705020904541,-0.6540000438690186,-1.270050048828125
1757088353272263000,7.208262939453125,-9.63705062866211,-0.6760500073432922,-1.2940500974655151
1757088353281815800,7.21781591796875,-9.651000022888184,-0.7140000462532043,-1.2490500211715698
1757088353291368700,7.22736865234375,-9.655950546264648,-0.7669500112533569,-1.2630000114440918
1757088353300921900,7.236921875,-9.646050453186035,-0.7570500373840332,-1.2649500370025635
1757088353310474800,7.246474853515625,-9.58395004272461,-0.7450500130653381,-1.201050043106079
1757088353320027600,7.256027587890625,-9.56505012512207,-0.7570500373840332,-1.1860500574111938
1757088353329580300,7.265580322265625,-9.58395004272461,-0.7740000486373901,-1.1119500398635864
1757088353339133200,7.27513330078125,-9.58395004272461,-0.7450500130653381,-1.078950047492981
1757088353348686300,7.284686279296875,-9.56505012512207,-0.7450500130653381,-1.0210500955581665
1757088353358239200,7.2942392578125,-9.607950210571289,-0.7240500450134277,-1.0039499998092651
1757088353367792000,7.303792236328125,-9.63900089263916,-0.7279500365257263,-0.9180000424385071
1757088353377345000,7.313344970703125,-9.622050285339355,-0.775950014591217,-0.8730000257492065
1757088353386898000,7.32289794921875,-9.652950286865234,-0.7570500373840332,-0.8680500388145447
1757088353396450800,7.332450927734375,-9.63705062866211,-0.7570500373840332,-0.8419500589370728
1757088353406003700,7.342003662109375,-9.59595012664795,-0.7399500608444214,-0.8580000400543213
1757088353415556900,7.351556884765625,-9.642000198364258,-0.7450500130653381,-0.8269500136375427
1757088353425109500,7.361109619140625,-9.667950630187988,-0.775950014591217,-0.8179500102996826
1757088353434662400,7.370662353515625,-9.664950370788574,-0.7909500598907471,-0.8440500497817993
1757088353444215300,7.38021533203125,-9.663000106811523,-0.7549500465393066,-0.8749500513076782
1757088353453768200,7.389768310546875,-9.643950462341309,-0.7810500264167786,-0.9130500555038452
1757088353463321300,7.3993212890625,-9.682050704956055,-0.7380000352859497,-0.9180000424385071
1757088353472874200,7.408874267578125,-9.735000610351562,-0.7140000462532043,-0.9250500202178955
1757088353482427100,7.41842724609375,-9.792000770568848,-0.7810500264167786,-0.9469500184059143
1757088353491980000,7.42797998046875,-9.766050338745117,-0.7930500507354736,-0.9679500460624695
1757088353501533000,7.437532958984375,-9.721050262451172,-0.7810500264167786,-0.9919500350952148
1757088353511085600,7.44708544921875,-9.673050880432129,-0.7930500507354736,-0.9780000448226929
1757088353520638700,7.456638671875,-9.631950378417969,-0.7740000486373901,-0.9829500317573547
1757088353530191600,7.466191650390625,-9.60300064086914,-0.8119500279426575,-1.045050024986267
1757088353539744500,7.47574462890625,-9.546000480651855,-0.7260000109672546,-1.0140000581741333
1757088353549297400,7.48529736328125,-9.535950660705566,-0.7189500331878662,-1.0120500326156616
1757088353558850300,7.494850341796875,-9.63705062866211,-0.7450500130653381,-1.0399500131607056
1757088353568403200,7.5044033203125,-9.630000114440918,-0.7690500617027283,-1.0470000505447388
1757088353577956000,7.5139560546875,-9.58905029296875,-0.8080500364303589,-1.0690500736236572
1757088353587509000,7.523509033203125,-9.586050033569336,-0.8410500288009644,-1.0950000286102295
1757088353597062000,7.533061767578125,-9.579000473022461,-0.6829500198364258,-1.0500000715255737
1757088353606614800,7.54261474609375,-9.546000480651855,-0.6930000185966492,-1.0740000009536743
1757088353616167700,7.552167724609375,-9.59595012664795,-0.7090500593185425,-1.0669500827789307
1757088353625720600,7.561720458984375,-9.642000198364258,-0.7429500222206116,-1.0740000009536743
1757088353635273500,7.5712734375,-9.685050010681152,-0.7399500608444214,-1.0690500736236572
1757088353644826400,7.580826416015625,-9.663000106811523,-0.7279500365257263,-1.0810500383377075
1757088353654379300,7.590379150390625,-9.62505054473877,-0.7279500365257263,-1.0830000638961792
1757088353663932200,7.59993212890625,-9.586050033569336,-0.6709500551223755,-1.0740000009536743
1757088353673485000,7.609485107421875,-9.610050201416016,-0.6760500073432922,-1.075950026512146
1757088353683038000,7.619037841796875,-9.676950454711914,-0.7050000429153442,-1.045050024986267
1757088353692590800,7.6285908203125,-9.64905071258545,-0.7600500583648682,-1.0470000505447388
1757088353702143700,7.638143798828125,-9.619950294494629,-0.7429500222206116,-1.062000036239624
1757088353711697000,7.64769677734375,-9.57705020904541,-0.7500000596046448,-1.0669500827789307
1757088353721249800,7.657249755859375,-9.559950828552246,-0.7189500331878662,-1.0519500970840454
1757088353730802400,7.666802490234375,-9.598050117492676,-0.7189500331878662,-1.0140000581741333
1757088353740355300,7.676355224609375,-9.652950286865234,-0.8029500246047974,-1.0210500955581665
1757088353749908200,7.685908203125,-9.700950622558594,-0.8220000267028809,-1.0039499998092651
1757088353759461000,7.695461181640625,-9.703950881958008,-0.7600500583648682,-0.9760500192642212
1757088353769014000,7.705013916015625,-9.658050537109375,-0.7620000243186951,-1.002000093460083
1757088353778567000,7.71456689453125,-9.634050369262695,-0.778950035572052,-1.0039499998092651
1757088353788120000,7.7241201171875,-9.62505054473877,-0.7860000133514404,-1.0039499998092651
1757088353797673000,7.7336728515625,-9.63705062866211,-0.7810500264167786,-0.9829500317573547
1757088353807225900,7.743225830078125,-9.646050453186035,-0.7980000376701355,-0.9520500302314758
1757088353816778800,7.75277880859375,-9.64905071258545,-0.8149500489234924,-0.9880500435829163
1757088353826331600,7.76233154296875,-9.643950462341309,-0.7980000376701355,-0.9660000205039978
1757088353835884500,7.771884521484375,-9.646050453186035,-0.778950035572052,-0.9520500302314758
1757088353845437400,7.7814375,-9.642000198364258,-0.7930500507354736,-0.9610500335693359
1757088353854990300,7.790990234375,-9.634050369262695,-0.7720500230789185,-0.9490500688552856
1757088353864543200,7.800543212890625,-9.64905071258545,-0.7570500373840332,-0.9420000314712524
1757088353874096400,7.810096435546875,-9.64905071258545,-0.7639500498771667,-0.9520500302314758
1757088353883649300,7.819649169921875,-9.663000106811523,-0.7500000596046448,-0.934950053691864
1757088353893202200,7.8292021484375,-9.691950798034668,-0.7429500222206116,-0.9520500302314758
1757088353902754800,7.8387548828125,-9.688950538635254,-0.736050009727478,-0.9760500192642212
1757088353912307700,7.8483076171875,-9.658050537109375,-0.7429500222206116,-0.9919500350952148
1757088353921860600,7.857860595703125,-9.643950462341309,-0.7260000109672546,-0.9799500703811646
1757088353931413500,7.86741357421875,-9.610050201416016,-0.7380000352859497,-0.9829500317573547
1757088353940966400,7.87696630859375,-9.606000900268555,-0.7189500331878662,-0.9640500545501709
1757088353950519600,7.88651953125,-9.619950294494629,-0.7330500483512878,-0.9540000557899475
1757088353960072200,7.896072265625,-9.630000114440918,-0.7120500206947327,-0.9469500184059143
1757088353969625300,7.905625244140625,-9.622050285339355,-0.778950035572052,-0.9450000524520874
1757088353979178200,7.91517822265625,-9.652950286865234,-0.7639500498771667,-0.9330000281333923
1757088353988731100,7.924731201171875,-9.664950370788574,-0.7069500088691711,-0.9400500655174255
1757088353998284000,7.934283935546875,-9.661050796508789,-0.7450500130653381,-0.9610500335693359
1757088354007837000,7.9438369140625,-9.667950630187988,-0.7330500483512878,-0.9370500445365906
1757088354017389800,7.953389892578125,-9.673050880432129,-0.7090500593185425,-0.9040500521659851
1757088354026942700,7.962942626953125,-9.658050537109375,-0.7260000109672546,-0.9130500555038452
1757088354036495600,7.97249560546875,-9.697050094604492,-0.7240500450134277,-0.8680500388145447
1757088354046048800,7.982048828125,-9.694050788879395,-0.6780000329017639,-0.8460000157356262
1757088354055601400,7.991601318359375,-9.673050880432129,-0.7000500559806824,-0.8299500346183777
1757088354065154300,8.001154296875,-9.630000114440918,-0.7309500575065613,-0.8560500144958496
1757088354074707200,8.010707275390626,-9.594000816345215,-0.7140000462532043,-0.8659500479698181
1757088354084260400,8.02026025390625,-9.663000106811523,-0.6570000052452087,-0.8010000586509705
1757088354093813000,8.02981298828125,-9.64905071258545,-0.6300000548362732,-0.8419500589370728
1757088354103366000,8.039365966796876,-9.610050201416016,-0.6210000514984131,-0.8970000147819519
1757088354112918800,8.048918701171875,-9.582000732421875,-0.6690000295639038,-0.9180000424385071
1757088354122471700,8.0584716796875,-9.61305046081543,-0.5869500041007996,-0.8749500513076782
1757088354132024600,8.068024658203125,-9.630000114440918,-0.6379500031471252,-0.8820000290870667
1757088354141577500,8.077577392578124,-9.655950546264648,-0.6780000329017639,-0.8800500631332397
1757088354151130400,8.08713037109375,-9.673050880432129,-0.6850500106811523,-0.8730000257492065
1757088354160683300,8.096683349609375,-9.670050621032715,-0.6829500198364258,-0.89205002784729
1757088354170236400,8.106236328125,-9.667950630187988,-0.7069500088691711,-0.9010500311851501
1757088354179789000,8.1157890625,-9.661050796508789,-0.7120500206947327,-0.921000063419342
1757088354189342000,8.125342041015625,-9.646050453186035,-0.7260000109672546,-0.9130500555038452
1757088354198895000,8.13489501953125,-9.652950286865234,-0.7170000076293945,-0.9130500555038452
1757088354208448000,8.144447998046875,-9.652950286865234,-0.7020000219345093,-0.8820000290870667
1757088354218001000,8.1540009765625,-9.655950546264648,-0.6970500349998474,-0.8749500513076782
1757088354227553800,8.1635537109375,-9.679950714111328,-0.6930000185966492,-0.8700000643730164
1757088354237106700,8.173106689453125,-9.675000190734863,-0.6780000329017639,-0.8869500160217285
1757088354246659600,8.18265966796875,-9.663000106811523,-0.6660000085830688,-0.8779500126838684
1757088354256212500,8.19221240234375,-9.643950462341309,-0.6589500308036804,-0.8890500664710999
1757088354265765000,8.20176513671875,-9.642000198364258,-0.6160500049591064,-0.9040500521659851
1757088354275318000,8.211318115234375,-9.63705062866211,-0.6420000195503235,-0.9330000281333923
1757088354284871200,8.22087109375,-9.642000198364258,-0.6520500183105469,-0.9520500302314758
1757088354294424000,8.230424072265626,-9.655950546264648,-0.6709500551223755,-0.9540000557899475
1757088354303977000,8.23997705078125,-9.655950546264648,-0.673050045967102,-0.9880500435829163
1757088354313529900,8.24952978515625,-9.697050094604492,-0.6760500073432922,-0.9300000667572021
1757088354323082800,8.259082763671875,-9.667950630187988,-0.7020000219345093,-0.9280500411987305
1757088354332635600,8.2686357421875,-9.667950630187988,-0.7090500593185425,-0.9160500168800354
1757088354342188500,8.2781884765625,-9.663000106811523,-0.7309500575065613,-0.9040500521659851
1757088354351741400,8.287741455078125,-9.646050453186035,-0.7069500088691711,-0.906000018119812
1757088354361294300,8.29729443359375,-9.63900089263916,-0.7140000462532043,-0.9010500311851501
1757088354370847200,8.30684716796875,-9.62700080871582,-0.7090500593185425,-0.9160500168800354
1757088354380400400,8.316400390625,-9.63900089263916,-0.7090500593185425,-0.9160500168800354
1757088354389953300,8.325953369140626,-9.64905071258545,-0.6949500441551208,-0.921000063419342
1757088354399506200,8.335506103515625,-9.664950370788574,-0.7020000219345093,-0.9370500445365906
1757088354409059000,8.34505908203125,-9.667950630187988,-0.6810000538825989,-0.934950053691864
1757088354418612000,8.354612060546875,-9.679950714111328,-0.6829500198364258,-0.906000018119812
1757088354428164900,8.364164794921875,-9.651000022888184,-0.6570000052452087,-0.8850000500679016
1757088354437717800,8.3737177734375,-9.646050453186035,-0.6570000052452087,-0.8730000257492065
1757088354447270700,8.383270751953125,-9.63705062866211,-0.6379500031471252,-0.8700000643730164
1757088354456823600,8.392823486328124,-9.651000022888184,-0.6450000405311584,-0.8610000610351562
1757088354466376400,8.40237646484375,-9.652950286865234,-0.6420000195503235,-0.8419500589370728
1757088354475929300,8.411929443359375,-9.642000198364258,-0.6400500535964966,-0.820050060749054
1757088354485482200,8.421482177734376,-9.642000198364258,-0.6420000195503235,-0.8130000233650208
1757088354495035100,8.43103515625,-9.646050453186035,-0.6330000162124634,-0.8179500102996826
1757088354504588000,8.440588134765624,-9.661050796508789,-0.6490500569343567,-0.8320500254631042
1757088354523693800,8.45969384765625,-9.646050453186035,-0.6330000162124634,-0.8659500479698181
1757088354533247000,8.4692470703125,-9.687000274658203,-0.6400500535964966,-0.781950056552887
1757088354542800000,8.4787998046875,-9.655950546264648,-0.6760500073432922,-0.7960500121116638
1757088354552352800,8.488352783203124,-9.675000190734863,-0.6570000052452087,-0.8299500346183777
1757088354561905700,8.49790576171875,-9.658050537109375,-0.6709500551223755,-0.8269500136375427
1757088354571458600,8.50745849609375,-9.664950370788574,-0.6690000295639038,-0.8460000157356262
1757088354581011500,8.517011474609374,-9.673050880432129,-0.6760500073432922,-0.8340000510215759
1757088354590564400,8.526564453125,-9.646050453186035,-0.661050021648407,-0.9250500202178955
1757088354600117200,8.5361171875,-9.670050621032715,-0.6660000085830688,-0.8299500346183777
1757088354609670000,8.545669921875,-9.64905071258545,-0.6690000295639038,-0.820050060749054
1757088354619222800,8.555222900390625,-9.642000198364258,-0.6690000295639038,-0.8299500346183777
1757088354628775700,8.564775634765626,-9.655950546264648,-0.6660000085830688,-0.8850000500679016
1757088354638328600,8.57432861328125,-9.651000022888184,-0.6570000052452087,-0.922950029373169
1757088354647881500,8.583881591796874,-9.679950714111328,-0.6640500426292419,-0.8749500513076782
1757088354657434600,8.5934345703125,-9.646050453186035,-0.6880500316619873,-0.89205002784729
1757088354666987500,8.602987548828125,-9.663000106811523,-0.6810000538825989,-0.921000063419342
1757088354676540400,8.61254052734375,-9.651000022888184,-0.6540000438690186,-0.9450000524520874
1757088354686093300,8.62209326171875,-9.646050453186035,-0.6930000185966492,-0.9469500184059143
1757088354695646200,8.631646240234375,-9.670050621032715,-0.6709500551223755,-0.934950053691864
1757088354705199000,8.64119921875,-9.655950546264648,-0.6780000329017639,-0.9520500302314758
1757088354714752000,8.650751953125,-9.631950378417969,-0.6850500106811523,-0.9130500555038452
1757088354733857500,8.669857421875,-9.634050369262695,-0.6829500198364258,-0.921000063419342
1757088354743410700,8.67941064453125,-9.651000022888184,-0.6810000538825989,-0.9010500311851501
1757088354752963300,8.68896337890625,-9.652950286865234,-0.673050045967102,-0.9040500521659851
1757088354762516500,8.6985166015625,-9.655950546264648,-0.673050045967102,-0.921000063419342
1757088354772069000,8.708069091796874,-9.670050621032715,-0.6810000538825989,-0.9010500311851501
1757088354781622300,8.717622314453125,-9.675000190734863,-0.6660000085830688,-0.909000039100647
1757088354791175200,8.727175048828125,-9.673050880432129,-0.6850500106811523,-0.89205002784729
1757088354800728000,8.73672802734375,-9.64905071258545,-0.6660000085830688,-0.8610000610351562
1757088354810281200,8.74628125,-9.652950286865234,-0.6640500426292419,-0.8700000643730164
1757088354819833900,8.755833740234374,-9.667950630187988,-0.6640500426292419,-0.8850000500679016
1757088354829386800,8.76538671875,-9.682050704956055,-0.6589500308036804,-0.89205002784729
1757088354838939600,8.774939697265625,-9.712950706481934,-0.6709500551223755,-0.8940000534057617
1757088354848492500,8.784492431640626,-9.748950004577637,-0.6880500316619873,-0.9300000667572021
1757088354858045400,8.79404541015625,-9.802050590515137,-0.7330500483512878,-0.934950053691864
1757088354867598300,8.803598388671874,-9.826050758361816,-0.7690500617027283,-0.9570000171661377
1757088354877151200,8.813151123046875,-9.855000495910645,-0.7909500598907471,-0.9540000557899475
1757088354886704000,8.8227041015625,-9.792000770568848,-0.736050009727478,-0.9400500655174255
1757088354896257000,8.832257080078126,-9.703950881958008,-0.6760500073432922,-0.9919500350952148
1757088354905810200,8.84181005859375,-9.642000198364258,-0.5440500378608704,-1.0309500694274902
1757088354915363000,8.851363037109374,-9.606000900268555,-0.34800001978874207,-0.9370500445365906
1757088354924915700,8.860915771484375,-9.439949989318848,-0.30195000767707825,-0.9330000281333923
1757088354934468600,8.870468505859375,-9.454950332641602,-0.325950026512146,-0.778950035572052
1757088354944021500,8.880021484375,-9.502950668334961,-0.48405003547668457,-0.7080000042915344
1757088354953574400,8.889574462890625,-9.619950294494629,-0.7140000462532043,-0.5879999995231628
1757088354963127300,8.899127197265624,-9.697050094604492,-0.8700000643730164,-0.5400000214576721
1757088354972680200,8.90868017578125,-9.712950706481934,-0.906000018119812,-0.609000027179718
1757088354982233300,8.9182333984375,-9.694050788879395,-0.7120500206947327,-0.7510500550270081
1757088354991786000,8.927785888671876,-9.61500072479248,-0.5029500126838684,-0.8580000400543213
1757088355001339000,8.9373388671875,-9.562950134277344,-0.3930000066757202,-0.8560500144958496
1757088355010892000,8.94689208984375,-9.558000564575195,-0.43605002760887146,-0.8610000610351562
1757088355020445000,8.95644482421875,-9.586050033569336,-0.4630500078201294,-0.820050060749054
1757088355029997800,8.965997802734375,-9.610050201416016,-0.47895002365112305,-0.7960500121116638
1757088355039550700,8.97555078125,-9.676950454711914,-0.4909500181674957,-0.7960500121116638
1757088355049103600,8.985103515625,-9.724950790405273,-0.5059500336647034,-0.8250000476837158
1757088355058656500,8.994656494140624,-9.739950180053711,-0.5560500025749207,-0.8509500622749329
1757088355068209400,9.00420947265625,-9.727950096130371,-0.5899500250816345,-0.8800500631332397
1757088355077762000,9.013761962890625,-9.712950706481934,-0.6300000548362732,-0.9040500521659851
1757088355087315000,9.02331494140625,-9.688950538635254,-0.6060000061988831,-0.9280500411987305
1757088355096868000,9.0328681640625,-9.651000022888184,-0.5920500159263611,-0.9330000281333923
1757088355106421000,9.0424208984375,-9.642000198364258,-0.5680500268936157,-0.9469500184059143
1757088355115974000,9.051973876953125,-9.618000030517578,-0.5680500268936157,-0.9370500445365906
1757088355125527000,9.061527099609375,-9.642000198364258,-0.5730000138282776,-0.922950029373169
1757088355135079700,9.07107958984375,-9.651000022888184,-0.5419500470161438,-0.9109500646591187
1757088355144632600,9.080632568359375,-9.663000106811523,-0.5490000247955322,-0.909000039100647
1757088355154185500,9.090185546875,-9.663000106811523,-0.5590500235557556,-0.9180000424385071
1757088355163738400,9.09973828125,-9.670050621032715,-0.5629500150680542,-0.9160500168800354
1757088355173291500,9.10929150390625,-9.664950370788574,-0.5629500150680542,-0.934950053691864
1757088355182844200,9.11884423828125,-9.652950286865234,-0.5629500150680542,-0.9660000205039978
1757088355192397300,9.128397216796875,-9.630000114440918,-0.5560500025749207,-0.9880500435829163
1757088355201950200,9.1379501953125,-9.622050285339355,-0.5899500250816345,-1.0090500116348267
1757088355211503000,9.147503173828126,-9.63705062866211,-0.5820000171661377,-1.024049997329712
1757088355221055700,9.1570556640625,-9.630000114440918,-0.5800500512123108,-1.0279500484466553
1757088355230608600,9.166608642578124,-9.62505054473877,-0.5730000138282776,-1.0330500602722168
1757088355240161500,9.17616162109375,-9.619950294494629,-0.5800500512123108,-1.0399500131607056
1757088355249714400,9.18571435546875,-9.622050285339355,-0.5800500512123108,-1.0810500383377075
1757088355259267300,9.195267333984376,-9.630000114440918,-0.5850000381469727,-1.0930500030517578
1757088355268820500,9.204820556640625,-9.62505054473877,-0.5590500235557556,-1.0669500827789307
1757088355278373400,9.214373291015624,-9.631950378417969,-0.5629500150680542,-1.0690500736236572
1757088355287926300,9.22392626953125,-9.63900089263916,-0.5659500360488892,-1.0549499988555908
1757088355297479200,9.233479248046875,-9.64905071258545,-0.5610000491142273,-1.057050108909607
1757088355307032000,9.243031982421876,-9.63900089263916,-0.5250000357627869,-1.0429500341415405
1757088355316585000,9.2525849609375,-9.642000198364258,-0.5299500226974487,-1.045050024986267
1757088355326137900,9.262137939453124,-9.622050285339355,-0.5370000004768372,-1.0429500341415405
1757088355335690800,9.271690673828125,-9.651000022888184,-0.5470499992370605,-1.015950083732605
1757088355345243600,9.28124365234375,-9.646050453186035,-0.5419500470161438,-1.0120500326156616
1757088355354796500,9.290796630859376,-9.63900089263916,-0.5320500135421753,-0.9919500350952148
1757088355364349400,9.300349365234375,-9.642000198364258,-0.520050048828125,-0.9850500226020813
1757088355373902300,9.30990234375,-9.646050453186035,-0.5299500226974487,-0.973050057888031
1757088355383455200,9.319455322265625,-9.631950378417969,-0.5320500135421753,-0.9469500184059143
1757088355393008000,9.329008056640625,-9.646050453186035,-0.5419500470161438,-0.9160500168800354
1757088355402561000,9.33856103515625,-9.643950462341309,-0.5490000247955322,-0.906000018119812
1757088355412114000,9.348114013671875,-9.64905071258545,-0.5350500345230103,-0.8869500160217285
1757088355421666800,9.357666748046874,-9.655950546264648,-0.5539500117301941,-0.8680500388145447
1757088355431219700,9.3672197265625,-9.694050788879395,-0.597000002861023,-0.8389500379562378
1757088355440772600,9.376772705078125,-9.721050262451172,-0.6139500141143799,-0.8130000233650208
1757088355450325500,9.386325439453126,-9.724950790405273,-0.6060000061988831,-0.7840500473976135
1757088355459878400,9.39587841796875,-9.697050094604492,-0.5940000414848328,-0.7699500322341919
1757088355469431300,9.405431396484374,-9.664950370788574,-0.5749500393867493,-0.7630500197410583
1757088355478984200,9.414984130859375,-9.652950286865234,-0.5920500159263611,-0.7939500212669373
1757088355488537000,9.424537109375,-9.630000114440918,-0.6109500527381897,-0.7980000376701355
1757088355498090000,9.434090087890626,-9.652950286865234,-0.5940000414848328,-0.7909500598907471
1757088355507643000,9.443642822265625,-9.667950630187988,-0.6019500494003296,-0.8010000586509705
1757088355517195800,9.45319580078125,-9.687000274658203,-0.5869500041007996,-0.8059500455856323
1757088355526749000,9.4627490234375,-9.700950622558594,-0.5800500512123108,-0.8250000476837158
1757088355536301800,9.4723017578125,-9.691950798034668,-0.5850000381469727,-0.8320500254631042
1757088355545854500,9.4818544921875,-9.682050704956055,-0.5820000171661377,-0.8490000367164612
1757088355555407600,9.49140771484375,-9.655950546264648,-0.5850000381469727,-0.8560500144958496
1757088355564960300,9.500960205078124,-9.646050453186035,-0.5899500250816345,-0.9010500311851501
1757088355574513200,9.51051318359375,-9.646050453186035,-0.5850000381469727,-0.922950029373169
1757088355584066000,9.520066162109375,-9.63900089263916,-0.5610000491142273,-0.9570000171661377
1757088355593619000,9.529618896484376,-9.658050537109375,-0.5299500226974487,-0.9829500317573547
1757088355603171800,9.539171875,-9.673050880432129,-0.5539500117301941,-0.9829500317573547
1757088355612724700,9.548724853515624,-9.688950538635254,-0.5509500503540039,-0.9949500560760498
1757088355622278000,9.55827783203125,-9.687000274658203,-0.5590500235557556,-0.9919500350952148
1757088355631830800,9.567830810546875,-9.676950454711914,-0.5700000524520874,-0.9850500226020813
1757088355641383700,9.5773837890625,-9.670050621032715,-0.5590500235557556,-0.9610500335693359
1757088355650936600,9.5869365234375,-9.642000198364258,-0.5659500360488892,-0.9660000205039978
1757088355660489500,9.596489501953124,-9.61305046081543,-0.5629500150680542,-0.9760500192642212
1757088355670042000,9.6060419921875,-9.60105037689209,-0.5659500360488892,-0.9880500435829163
1757088355679595000,9.615594970703125,-9.61305046081543,-0.5440500378608704,-1.0000500679016113
1757088355689148000,9.62514794921875,-9.62505054473877,-0.5320500135421753,-1.0120500326156616
1757088355698701000,9.634701171875,-9.651000022888184,-0.5179499983787537,-0.9880500435829163
1757088355708253700,9.644253662109374,-9.63705062866211,-0.5080500245094299,-0.9850500226020813
1757088355717806800,9.653806884765626,-9.62700080871582,-0.4990500211715698,-0.9829500317573547
1757088355727359700,9.66335986328125,-9.62700080871582,-0.4990500211715698,-0.9660000205039978
1757088355736912600,9.67291259765625,-9.63705062866211,-0.520050048828125,-0.9610500335693359
1757088355746465500,9.682465576171875,-9.63705062866211,-0.5389500260353088,-0.9589500427246094
1757088355756018400,9.692018310546874,-9.62505054473877,-0.5149500370025635,-0.973050057888031
1757088355765571300,9.7015712890625,-9.62700080871582,-0.5110500454902649,-0.9640500545501709
1757088355775124200,9.711124267578125,-9.643950462341309,-0.5130000114440918,-0.9640500545501709
1757088355784676900,9.7206767578125,-9.643950462341309,-0.5130000114440918,-0.9490500688552856
1757088355794230000,9.73022998046875,-9.661050796508789,-0.5269500017166138,-0.9250500202178955
1757088355803783200,9.739783203125,-9.64905071258545,-0.5389500260353088,-0.8989500403404236
1757088355813335800,9.749335693359376,-9.651000022888184,-0.5389500260353088,-0.8850000500679016
1757088355822888700,9.758888671875,-9.661050796508789,-0.5509500503540039,-0.8850000500679016
1757088355832441600,9.768441650390624,-9.664950370788574,-0.5560500025749207,-0.8869500160217285
1757088355841994500,9.777994384765625,-9.661050796508789,-0.5610000491142273,-0.8989500403404236
1757088355851547400,9.78754736328125,-9.664950370788574,-0.5749500393867493,-0.89205002784729
1757088355861100300,9.797100341796876,-9.663000106811523,-0.5920500159263611,-0.9010500311851501
1757088355870653200,9.806653076171875,-9.661050796508789,-0.609000027179718,-0.8850000500679016
1757088355880206000,9.8162060546875,-9.670050621032715,-0.6019500494003296,-0.8779500126838684
1757088355889759200,9.82575927734375,-9.661050796508789,-0.5730000138282776,-0.8890500664710999
1757088355899311900,9.835311767578125,-9.664950370788574,-0.5749500393867493,-0.8940000534057617
1757088355908865000,9.844864990234376,-9.673050880432129,-0.597000002861023,-0.9250500202178955
1757088355918418000,9.85441796875,-9.676950454711914,-0.5920500159263611,-0.9180000424385071
1757088355927970600,9.863970458984374,-9.667950630187988,-0.5629500150680542,-0.909000039100647
1757088355937523700,9.873523681640625,-9.682050704956055,-0.5659500360488892,-0.8970000147819519
1757088355947076400,9.883076416015625,-9.679950714111328,-0.5490000247955322,-0.8800500631332397
1757088355956629200,9.892629150390626,-9.667950630187988,-0.5509500503540039,-0.8580000400543213
1757088355966182100,9.90218212890625,-9.646050453186035,-0.5419500470161438,-0.820050060749054
1757088355975735300,9.9117353515625,-9.630000114440918,-0.5440500378608704,-0.7219500541687012
1757088355985288000,9.921287841796875,-9.63705062866211,-0.6109500527381897,-0.8250000476837158
1757088355994840800,9.9308408203125,-9.63900089263916,-0.5850000381469727,-0.9330000281333923
1757088356004393700,9.940393798828126,-9.661050796508789,-0.5590500235557556,-0.9469500184059143
1757088356013946600,9.949946533203125,-9.679950714111328,-0.5389500260353088,-0.922950029373169
1757088356023499500,9.95949951171875,-9.667950630187988,-0.5230500102043152,-0.9010500311851501
1757088356033052700,9.969052734375,-9.667950630187988,-0.520050048828125,-0.8730000257492065
1757088356042605600,9.97860546875,-9.673050880432129,-0.5080500245094299,-0.8749500513076782
1757088356052158500,9.988158447265626,-9.664950370788574,-0.520050048828125,-0.9010500311851501
1757088356061711400,9.99771142578125,-9.643950462341309,-0.5419500470161438,-0.922950029373169
1757088356071264000,10.007263916015624,-9.655950546264648,-0.5749500393867493,-0.9880500435829163
1757088356080817200,10.016817138671875,-9.646050453186035,-0.5989500284194946,-1.0090500116348267
1757088356090369800,10.026369873046875,-9.651000022888184,-0.5440500378608704,-1.0140000581741333
1757088356099922700,10.035922607421876,-9.631950378417969,-0.49605002999305725,-0.9640500545501709
1757088356109475600,10.0454755859375,-9.651000022888184,-0.5080500245094299,-0.9490500688552856
1757088356119028700,10.05502880859375,-9.664950370788574,-0.5130000114440918,-0.934950053691864
1757088356128581600,10.06458154296875,-9.676950454711914,-0.5389500260353088,-0.934950053691864
1757088356138134500,10.074134521484375,-9.688950538635254,-0.5610000491142273,-0.9610500335693359
1757088356147687400,10.0836875,-9.664950370788574,-0.5700000524520874,-0.9709500670433044
1757088356157240300,10.093240234375,-9.658050537109375,-0.5869500041007996,-1.0069500207901
1757088356166793200,10.102793212890624,-9.664950370788574,-0.5749500393867493,-1.0330500602722168
1757088356176346000,10.11234619140625,-9.651000022888184,-0.5470499992370605,-0.9880500435829163
1757088356185899000,10.12189892578125,-9.63900089263916,-0.5269500017166138,-0.9970500469207764
1757088356195452000,10.131451904296876,-9.652950286865234,-0.5299500226974487,-1.0549499988555908
1757088356205004500,10.141004638671875,-9.652950286865234,-0.5080500245094299,-1.0909500122070312
1757088356214557700,10.1505576171875,-9.622050285339355,-0.5059500336647034,-1.0549499988555908
1757088356224110600,10.160110595703125,-9.619950294494629,-0.5350500345230103,-1.0429500341415405
1757088356233663500,10.16966357421875,-9.607950210571289,-0.5059500336647034,-0.9850500226020813
1757088356243216400,10.17921630859375,-9.634050369262695,-0.5370000004768372,-1.075950026512146
1757088356252769300,10.188769287109375,-9.658050537109375,-0.5629500150680542,-1.1119500398635864
1757088356262322200,10.198322265625,-9.652950286865234,-0.597000002861023,-1.215000033378601
1757088356271875000,10.207875,-9.675000190734863,-0.5820000171661377,-1.327950119972229
1757088356281428000,10.217427978515625,-9.703950881958008,-0.5610000491142273,-1.228950023651123
1757088356290980900,10.22698095703125,-9.697050094604492,-0.5539500117301941,-1.1460000276565552
1757088356300533800,10.23653369140625,-9.748950004577637,-0.5029500126838684,-1.15500009059906
1757088356310086700,10.246086669921874,-9.81195068359375,-0.5440500378608704,-1.0140000581741333
1757088356319639800,10.255639892578126,-9.670050621032715,-0.6060000061988831,-1.015950083732605
1757088356329192700,10.265192626953125,-9.499950408935547,-0.6400500535964966,-0.9180000424385071
1757088356338745300,10.274745361328126,-9.56505012512207,-0.6780000329017639,-0.3940500319004059
1757088356348298200,10.28429833984375,-9.63900089263916,-0.7380000352859497,-0.3240000009536743
1757088356357851100,10.29385107421875,-9.735000610351562,-0.8340000510215759,-0.33900001645088196
1757088356367404000,10.303404052734376,-9.735000610351562,-0.9010500311851501,-0.36000001430511475
1757088356376957000,10.31295703125,-9.709050178527832,-0.9270000457763672,-0.4230000078678131
1757088356386509800,10.322509765625,-9.831000328063965,-0.9580500721931458,-0.6000000238418579
1757088356396062700,10.332062744140625,-9.730050086975098,-0.9010500311851501,-0.9570000171661377
1757088356405615600,10.34161572265625,-9.469050407409668,-0.7140000462532043,-0.8560500144958496
1757088356415168500,10.35116845703125,-9.511950492858887,-0.6490500569343567,-0.5879999995231628
1757088356424721400,10.360721435546875,-9.570000648498535,-0.5110500454902649,-0.4440000355243683
1757088356434274300,10.3702744140625,-9.60105037689209,-0.43905001878738403,-0.23295001685619354
1757088356443827200,10.3798271484375,-9.759000778198242,-0.5299500226974487,-0.19305001199245453
1757088356453380000,10.389380126953125,-9.85200023651123,-0.6640500426292419,-0.4630500078201294
1757088356462933000,10.39893310546875,-9.780000686645508,-0.7260000109672546,-0.5929500460624695
1757088356472486000,10.40848583984375,-9.727950096130371,-0.7570500373840332,-0.583050012588501
1757088356482038800,10.418038818359374,-9.808950424194336,-0.6660000085830688,-0.492000013589859
1757088356491591700,10.427591796875,-9.760950088500977,-0.5029500126838684,-0.5850000381469727
1757088356501144600,10.43714453125,-9.478950500488281,-0.31200000643730164,-0.36000001430511475
1757088356510697500,10.446697509765626,-9.547950744628906,-0.24495001137256622,-0.1660500019788742
1757088356520250400,10.45625048828125,-9.63900089263916,-0.5269500017166138,-0.18105000257492065
1757088356529803300,10.46580322265625,-9.606000900268555,-0.7480500340461731,-0.4300500154495239
1757088356539356200,10.475356201171875,-9.658050537109375,-0.8340000510215759,-0.597000002861023
1757088356548909000,10.484908935546875,-9.687000274658203,-0.9270000457763672,-0.6169500350952148
1757088356558462200,10.494462158203126,-9.679950714111328,-0.9030000567436218,-0.7870500087738037
1757088356568015000,10.50401513671875,-9.780000686645508,-0.8869500160217285,-0.7150500416755676
1757088356577567700,10.513567626953124,-9.81195068359375,-0.8050500154495239,-0.1660500019788742
1757088356587120600,10.52312060546875,-9.867000579833984,-0.7480500340461731,0.08400000631809235
1757088356596673500,10.532673583984375,-9.78795051574707,-0.6490500569343567,-0.016050001606345177
1757088356606226400,10.542226318359376,-9.679950714111328,-0.5269500017166138,-0.35805001854896545
1757088356615779300,10.551779296875,-9.63705062866211,-0.5029500126838684,-0.4420500099658966
1757088356625332200,10.561332275390624,-9.62505054473877,-0.5539500117301941,-0.6190500259399414
1757088356634885000,10.570885009765625,-9.306000709533691,-0.9820500612258911,-1.1460000276565552
1757088356644438000,10.58043798828125,-9.487950325012207,-0.8479500412940979,-0.9490500688552856
1757088356653991000,10.589990966796876,-9.670050621032715,-0.5179499983787537,-0.5040000081062317
1757088356663544000,10.5995439453125,-9.768000602722168,-0.6280500292778015,-0.21405000984668732
1757088356673097000,10.609096923828124,-9.661050796508789,-0.7639500498771667,-0.1860000044107437
1757088356682649900,10.61864990234375,-10.615950584411621,-0.34995001554489136,0.1870500147342682
1757088356692202800,10.62820263671875,-9.546000480651855,-0.24195000529289246,0.559950053691864
1757088356701755400,10.63775537109375,-8.953950881958008,-0.775950014591217,-0.2670000195503235
1757088356711308300,10.647308349609375,-9.373050689697266,-1.2720000743865967,-0.41505002975463867
1757088356720861200,10.656861083984374,-9.807000160217285,-0.9919500350952148,-0.15405000746250153
1757088356730414000,10.6664140625,-9.967050552368164,-0.6490500569343567,0.08595000207424164
1757088356739967200,10.67596728515625,-10.189950942993164,-0.5230500102043152,0.35895001888275146
1757088356749520000,10.685519775390626,-10.009950637817383,-0.3840000033378601,0.5370000004768372
1757088356759073000,10.695072998046875,-8.779950141906738,-1.0660500526428223,-0.556950032711029
1757088356768626000,10.7046259765625,-8.940000534057617,-1.842000126838684,-1.1980500221252441
1757088356778178800,10.7141787109375,-10.909950256347656,-1.7100000381469727,-0.24300001561641693
1757088356787731700,10.723731689453125,-10.696950912475586,-1.0399500131607056,0.38100001215934753
1757088356797284600,10.73328466796875,-9.88800048828125,-0.42705002427101135,0.040950000286102295
1757088356806837500,10.74283740234375,-9.451950073242188,0.15405000746250153,0.2350500077009201
1757088356816390100,10.75239013671875,-8.923050880432129,0.2689500153064728,0.3160500228404999
1757088356825943000,10.761943115234375,-9.103050231933594,-0.04605000093579292,0.6709500551223755
1757088356835496200,10.77149609375,-9.814050674438477,-0.6949500441551208,0.6660000085830688
1757088356845049000,10.781049072265626,-9.934050559997559,-0.8410500288009644,0.12495000660419464
1757088356854601700,10.790601806640625,-9.961950302124023,-1.075950026512146,-0.21405000984668732
1757088356864155000,10.80015478515625,-10.056000709533691,-1.2600001096725464,-0.17400000989437103
1757088356873707800,10.809707763671875,-9.955050468444824,-0.8839500546455383,-0.3169500231742859
1757088356883260700,10.8192607421875,-9.844950675964355,-0.45795002579689026,0.022050000727176666
1757088356892813600,10.8288134765625,-9.715950012207031,-0.23295001685619354,0.3450000286102295
1757088356902366500,10.838366455078125,-9.550950050354004,-0.21405000984668732,0.16995000839233398
1757088356911919400,10.84791943359375,-9.5149507522583,-0.031950000673532486,0.016950000077486038
1757088356921472300,10.85747216796875,-9.196050643920898,-0.05100000277161598,0.46905001997947693
1757088356931025000,10.86702490234375,-9.451950073242188,-0.22305001318454742,0.8329500555992126
1757088356940578000,10.876578125,-9.652950286865234,-0.3049500286579132,0.8449500203132629
1757088356950131000,10.886130859375,-9.670050621032715,-0.5560500025749207,0.23205001652240753
1757088356959683800,10.895683837890624,-9.675000190734863,-0.5389500260353088,-0.16200000047683716
1757088356969236500,10.905236572265625,-9.430950164794922,-0.34800001978874207,-0.0990000069141388
1757088356978789600,10.91478955078125,-10.242000579833984,-0.973050057888031,0.6199500560760498
1757088356988342500,10.924342529296876,-10.266000747680664,-0.7930500507354736,0.25394999980926514
1757088356997895400,10.9338955078125,-9.961950302124023,-0.7069500088691711,0.16995000839233398
1757088357007448300,10.9434482421875,-9.802050590515137,-0.9439500570297241,0.28995001316070557
1757088357017001200,10.953001220703126,-9.718050003051758,-1.1430000066757202,0.3570000231266022
1757088357026553900,10.962553955078125,-9.771000862121582,-0.9540000557899475,0.1770000010728836
1757088357036107000,10.97210693359375,-9.646050453186035,-0.5940000414848328,0.23205001652240753
1757088357045659600,10.98165966796875,-9.77595043182373,-0.8119500279426575,0.3520500063896179
1757088357055212500,10.991212646484374,-9.87405014038086,-0.7189500331878662,0.5560500025749207
1757088357064765400,11.000765380859375,-10.129950523376465,-1.0210500955581665,-0.004050000105053186
1757088357074318300,11.010318359375,-9.766050338745117,-0.8119500279426575,0.0070500001311302185
1757088357083871500,11.01987158203125,-10.06095027923584,-0.999000072479248,0.07200000435113907
1757088357093424000,11.029424072265625,-9.883050918579102,-1.0519500970840454,0.1969500035047531
1757088357102977300,11.038977294921875,-9.723000526428223,-0.843000054359436,0.16500000655651093
1757088357112530200,11.0485302734375,-9.651000022888184,-1.2220500707626343,0.42600002884864807
1757088357122083000,11.0580830078125,-9.594000816345215,-1.057050108909607,0.3949500322341919
1757088357131636000,11.067635986328124,-9.27495002746582,0.13199999928474426,-0.5400000214576721
1757088357141188600,11.077188720703125,-9.712950706481934,-0.11595000326633453,-0.6619500517845154
1757088357150741800,11.08674169921875,-9.199050903320312,-0.07695000618696213,-1.015950083732605
1757088357160294400,11.09629443359375,-9.850050926208496,0.4129500091075897,-1.426050066947937
1757088357169847300,11.105847412109375,-9.62505054473877,-0.05100000277161598,-0.9640500545501709
1757088357179400200,11.115400146484374,-9.699000358581543,-0.5869500041007996,-0.7579500079154968
1757088357188953300,11.124953369140625,-9.796950340270996,-0.8820000290870667,-0.5659500360488892
1757088357198506000,11.134506103515625,-9.922050476074219,-0.9540000557899475,-0.1279500126838684
1757088357208059100,11.14405908203125,-9.79995059967041,-0.8029500246047974,-0.18300001323223114
1757088357217612000,11.153612060546875,-9.703950881958008,-0.6780000329017639,-0.5850000381469727
1757088357227165000,11.1631650390625,-9.56505012512207,-0.6810000538825989,-0.21405000984668732
1757088357236717800,11.1727177734375,-9.261000633239746,-0.6880500316619873,0.37095001339912415
1757088357246270500,11.1822705078125,-9.469050407409668,-0.8790000677108765,0.3430500030517578
1757088357255823400,11.1918232421875,-9.736950874328613,-0.7380000352859497,0.06495000422000885
1757088357265376500,11.20137646484375,-10.156050682067871,-0.6520500183105469,0.1770000010728836
1757088357274929200,11.21092919921875,-10.434000968933105,-0.8029500246047974,-0.07800000160932541
1757088357284482300,11.220482421875,-9.91395092010498,-1.5400500297546387,-0.07800000160932541
1757088357294035200,11.23003515625,-9.337050437927246,-3.0769500732421875,1.3720500469207764
1757088357303588000,11.239588134765626,-9.63900089263916,-4.861050128936768,3.010050058364868
1757088357313141000,11.24914111328125,-10.63800048828125,-4.903950214385986,1.9900500774383545
1757088357322694000,11.25869384765625,-10.458000183105469,-3.8430001735687256,0.5080500245094299
1757088357332246800,11.268246826171875,-9.90000057220459,-3.0169501304626465,0.20400001108646393
1757088357341799700,11.277799560546875,-9.699000358581543,-1.8730500936508179,-0.0990000069141388
1757088357351352600,11.2873525390625,-9.94800090789795,-0.5470499992370605,-0.1660500019788742
1757088357360905500,11.296905517578125,-10.099050521850586,-0.025050001218914986,0.8530500531196594
1757088357370458000,11.3064580078125,-10.032000541687012,-1.054050087928772,1.0420500040054321
1757088357380011300,11.31601123046875,-10.032000541687012,-1.894950032234192,0.5460000038146973
1757088357389564200,11.325564208984375,-9.60105037689209,-2.1510000228881836,0.4740000367164612
1757088357399117000,11.335116943359376,-9.663000106811523,-1.4490001201629639,0.30900001525878906
1757088357408670000,11.344669921875,-9.658050537109375,-0.1489500105381012,0.37905001640319824
1757088357418222800,11.354222900390624,-9.697050094604492,0.3379500210285187,0.5700000524520874
1757088357427775700,11.363775634765625,-10.099050521850586,-0.028950002044439316,1.1779500246047974
1757088357437328600,11.37332861328125,-9.807000160217285,-0.7380000352859497,2.284050226211548
1757088357446881500,11.382881591796876,-8.988000869750977,-1.2739500999450684,3.340050220489502
1757088357456434400,11.392434326171875,-8.908950805664062,-1.2600001096725464,5.332050323486328
1757088357465987300,11.4019873046875,-9.201000213623047,-2.5290000438690186,6.39300012588501
1757088357475540200,11.411540283203125,-9.04995059967041,-3.7570502758026123,4.963950157165527
1757088357485092900,11.4210927734375,-8.454000473022461,-4.23900032043457,2.9830501079559326
1757088357494645800,11.430645751953126,-8.02500057220459,-3.4960501194000244,3.358950138092041
1757088357504198700,11.44019873046875,-8.81505012512207,-1.4899500608444214,4.168950080871582
1757088357513751600,11.44975146484375,-9.072000503540039,-1.818000078201294,4.044000148773193
1757088357523304400,11.459304443359375,-9.993000030517578,-1.8229501247406006,3.0859501361846924
1757088357532857300,11.468857421875,-9.958050727844238,-2.3929500579833984,2.143050193786621
1757088357542410500,11.478410400390626,-9.282000541687012,-1.9930500984191895,0.8670000433921814
1757088357551963400,11.48796337890625,-7.786050319671631,-0.06300000101327896,0.5370000004768372
1757088357561516300,11.497516357421874,-8.56605052947998,1.8349500894546509,0.9889500737190247
1757088357571069200,11.507069091796875,-10.116000175476074,0.9750000238418579,1.2190500497817993
1757088357580621800,11.516621826171875,-9.961950302124023,-1.0609500408172607,1.852950096130371
1757088357590174700,11.5261748046875,-9.045000076293945,-1.8709501028060913,1.5180001258850098
1757088357599727600,11.5357275390625,-8.281949996948242,-2.6610000133514404,3.6160502433776855
1757088357609280800,11.54528076171875,-9.127050399780273,-3.4680001735687256,4.789050102233887
1757088357618833400,11.55483349609375,-6.850050449371338,-5.883000373840332,4.4320502281188965
1757088357628386600,11.564386474609375,-6.607950210571289,-8.716050148010254,7.173000335693359
1757088357637939200,11.573939208984376,-3.346950054168701,-6.195000171661377,10.09695053100586
1757088357647492400,11.583492431640625,-5.887050151824951,-5.8999505043029785,9.735000610351562
1757088357657045200,11.593045166015624,-7.759950160980225,-6.051000118255615,9.052950859069824
1757088357666598100,11.60259814453125,-7.26900053024292,-6.907950401306152,4.690950393676758
1757088357676150800,11.61215087890625,-8.755949974060059,-6.015000343322754,1.237950086593628
1757088357685703700,11.62170361328125,-9.445050239562988,-4.3060503005981445,0.17505000531673431
1757088357695256600,11.631256591796875,-7.507950305938721,-5.0209503173828125,2.701050043106079
1757088357704809500,11.6408095703125,-5.90595006942749,-6.580050468444824,5.725050449371338
1757088357714362400,11.6503623046875,-6.055050373077393,-7.063950538635254,7.657050132751465
1757088357723915500,11.65991552734375,-7.939050197601318,-8.42400074005127,8.742000579833984
1757088357733468400,11.669468505859374,-7.71405029296875,-9.313950538635254,8.526000022888184
1757088357743021000,11.67902099609375,-6.253950119018555,-6.979950428009033,8.059050559997559
1757088357752574200,11.68857421875,-6.969000339508057,-6.136950492858887,6.595950126647949
1757088357762127000,11.698127197265626,-8.42805004119873,-7.987950325012207,5.9070000648498535
1757088357771680000,11.707679931640625,-5.212050437927246,-7.783950328826904,7.180950164794922
1757088357781232600,11.717232666015626,-6.7009501457214355,-8.163000106811523,8.964000701904297
1757088357790785500,11.72678564453125,-6.1840500831604,-8.311050415039062,10.966050148010254
1757088357800338400,11.73633837890625,-5.701050281524658,-7.35105037689209,11.281950950622559
1757088357809891300,11.745891357421876,-5.899050235748291,-6.115950107574463,10.588050842285156
1757088357819444200,11.7554443359375,-5.337000370025635,-6.439050197601318,10.38705062866211
1757088357828997400,11.764997314453124,-5.4280500411987305,-6.463050365447998,10.741050720214844
1757088357838550000,11.774550048828125,-5.547000408172607,-5.994000434875488,8.505000114440918
1757088357848103000,11.78410302734375,-4.852950096130371,-5.767950057983398,7.159050464630127
1757088357857656000,11.793656005859376,-3.2320501804351807,-5.851950168609619,7.054050445556641
1757088357867209000,11.803208984375,-0.3559500277042389,-5.272950172424316,6.7950005531311035
1757088357876761600,11.81276171875,-1.1590501070022583,-5.023950099945068,6.867000102996826
1757088357886314800,11.822314697265625,-1.3669500350952148,-4.950000286102295,6.928950309753418
1757088357895867400,11.831867431640624,-1.294950008392334,-4.516050338745117,8.20995044708252
1757088357905420500,11.841420654296876,-1.9609501361846924,-4.701000213623047,13.975950241088867
1757088357914973200,11.85097314453125,-2.121000051498413,-4.31505012512207,18.775951385498047
1757088357924526000,11.860526123046874,-1.5780000686645508,-4.252950191497803,18.99195098876953
1757088357934079000,11.870078857421875,-0.984000027179718,-4.192950248718262,17.006999969482422
1757088357943632000,11.8796318359375,-0.6820500493049622,-3.481950283050537,15.682950973510742
1757088357953184800,11.889184814453126,-0.8710500597953796,-3.1780500411987305,15.498001098632812
1757088357962737700,11.898737548828125,-1.264050006866455,-3.262050151824951,15.910050392150879
1757088357972290800,11.908290771484374,-1.276050090789795,-3.493950128555298,15.664051055908203
1757088357981843700,11.91784375,-0.8860500454902649,-3.1080000400543213,13.947000503540039
1757088357991396400,11.927396240234375,-0.16695000231266022,-2.4190502166748047,12.64905071258545
1757088358000949200,11.93694921875,0.5400000214576721,-2.0839500427246094,12.285000801086426
1757088358010502400,11.94650244140625,1.0840500593185425,-1.6840500831604004,12.427050590515137
1757088358020055000,11.956054931640624,1.4839500188827515,-1.2169500589370728,12.661050796508789
1757088358029608000,11.96560791015625,1.7470500469207764,-1.2499500513076782,12.706950187683105
1757088358039160800,11.975160888671875,2.0460000038146973,-1.8490500450134277,12.393000602722168
1757088358048713700,11.984713623046876,2.6329500675201416,-2.2579500675201416,11.578950881958008
1757088358058266600,11.9942666015625,3.4519500732421875,-2.3370001316070557,10.30305004119873
1757088358067819500,12.003819580078124,4.2900004386901855,-2.2420501708984375,8.842050552368164
1757088358077372400,12.013372314453125,4.872000217437744,-2.1220500469207764,7.690950393676758
1757088358086925300,12.02292529296875,5.868000507354736,-2.0809500217437744,6.673050403594971
1757088358096478200,12.032478271484376,6.189000129699707,-1.4470500946044922,6.634950160980225
1757088358106031400,12.04203125,7.069950103759766,-1.7050501108169556,5.779950141906738
1757088358115584000,12.051583984375,6.390000343322754,-1.5280500650405884,5.9239501953125
1757088358125137000,12.061136962890625,7.122000217437744,-2.1220500469207764,5.089950084686279
1757088358134689800,12.070689697265625,7.012050151824951,-1.804050087928772,4.444050312042236
1757088358144242700,12.08024267578125,7.096050262451172,-1.2600001096725464,4.369950294494629
1757088358153795300,12.08979541015625,7.1010003089904785,-0.7000500559806824,4.51800012588501
1757088358163348500,12.099348388671874,7.0909504890441895,-0.8959500193595886,3.871950149536133
1757088358172901000,12.108901123046875,6.663000106811523,-0.970050036907196,3.177000045776367
1757088358182454300,12.118454345703125,6.552000522613525,-0.8220000267028809,2.703000068664551
1757088358192007200,12.128007080078126,6.969000339508057,-0.62295001745224,2.4019501209259033
1757088358201560000,12.13756005859375,7.009950160980225,-0.1489500105381012,2.6170501708984375
1757088358211113000,12.147113037109374,7.192050457000732,0.21105000376701355,2.9260501861572266
1757088358220665900,12.156665771484375,7.009950160980225,0.7720500230789185,3.5440502166748047
