time,seconds_elapsed,z,y,x
1757088346155341800,0.091341796875,5.235730171203613,-4.9004740715026855,-6.689010143280029
1757088346164894700,0.100894775390625,5.252530097961426,-4.891135215759277,-6.682077884674072
1757088346174447600,0.110447509765625,5.286070823669434,-4.871530055999756,-6.667619228363037
1757088346184000500,0.12000048828125,5.3366289138793945,-4.840171813964844,-6.644958019256592
1757088346193553400,0.129553466796875,5.412848949432373,-4.809538841247559,-6.5937299728393555
1757088346203106600,0.1391064453125,5.511411190032959,-4.779504776000977,-6.512959957122803
1757088346212659500,0.148659423828125,5.626646995544434,-4.732926845550537,-6.421201229095459
1757088346222212000,0.158212158203125,5.758506774902344,-4.668264865875244,-6.316833019256592
1757088346231765000,0.167764892578125,5.906667232513428,-4.584115982055664,-6.197995185852051
1757088346241318100,0.177318115234375,6.070539951324463,-4.479160785675049,-6.062595844268799
1757088346250871000,0.18687109375,6.24928092956543,-4.3523640632629395,-5.9081010818481445
1757088346260423700,0.196423583984375,6.4414801597595215,-4.20306396484375,-5.732271194458008
1757088346279529500,0.215529541015625,6.857783794403076,-3.836966037750244,-5.312094211578369
1757088346289082400,0.225082275390625,7.077030181884766,-3.621290922164917,-5.068045139312744
1757088346298635300,0.23463525390625,7.300571918487549,-3.3852078914642334,-4.802884101867676
1757088346308188400,0.2441884765625,7.526459217071533,-3.1300048828125,-4.518395900726318
1757088346317741300,0.2537412109375,7.753138065338135,-2.857171058654785,-4.216415882110596
1757088346327294200,0.263294189453125,7.979427814483643,-2.568268060684204,-3.8987770080566406
1757088346336847000,0.27284716796875,8.204495429992676,-2.264986991882324,-3.566896915435791
1757088346346400000,0.28239990234375,8.427743911743164,-1.94889497756958,-3.221724033355713
1757088346355953000,0.291952880859375,8.631928443908691,-1.630473017692566,-2.871537923812866
1757088346365506000,0.301506103515625,8.816766738891602,-1.3115429878234863,-2.5180459022521973
1757088346375058700,0.31105859375,8.981717109680176,-0.994396984577179,-2.1625850200653076
1757088346384611600,0.320611572265625,9.117901802062988,-0.667156994342804,-1.8261409997940063
1757088346394164500,0.33016455078125,9.228480339050293,-0.33062300086021423,-1.5101679563522339
1757088346403717400,0.33971728515625,9.319096565246582,-0.002713999943807721,-1.1969109773635864
1757088346413270300,0.349270263671875,9.38990592956543,0.31429699063301086,-0.8891540169715881
1757088346422823200,0.3588232421875,9.441385269165039,0.618395984172821,-0.5898879766464233
1757088346432376000,0.3683759765625,9.47422981262207,0.9078630208969116,-0.30206501483917236
1757088346441929000,0.377928955078125,9.489279747009277,1.1816200017929077,-0.028908999636769295
1757088346451482000,0.387482177734375,9.487753868103027,1.4392390251159668,0.22715899348258972
1757088346461034800,0.39703466796875,9.47136116027832,1.6808359622955322,0.4650830030441284
1757088346470588000,0.406587890625,9.44225025177002,1.90687096118927,0.6846969723701477
1757088346480140800,0.416140869140625,9.402878761291504,2.117845058441162,0.8863369822502136
1757088346489693400,0.425693359375,9.35593032836914,2.3140668869018555,1.0703999996185303
1757088346499246600,0.43524658203125,9.304094314575195,2.495742082595825,1.2372510433197021
1757088346508799500,0.444799560546875,9.249850273132324,2.6631219387054443,1.387107014656067
1757088346518352400,0.454352294921875,9.190260887145996,2.8102190494537354,1.546586036682129
1757088346527905300,0.4639052734375,9.125852584838867,2.936516046524048,1.716209053993225
1757088346537458200,0.473458251953125,9.056785583496094,3.041961908340454,1.8958510160446167
1757088346547011000,0.483010986328125,8.982922554016113,3.1264519691467285,2.08591890335083
1757088346556564200,0.492564208984375,8.904336929321289,3.188828945159912,2.2866361141204834
1757088346575670000,0.511669921875,8.743138313293457,3.255868911743164,2.696542978286743
1757088346585223000,0.521222900390625,8.667989730834961,3.2773799896240234,2.8858840465545654
1757088346594775800,0.53077587890625,8.597440719604492,3.266774892807007,3.0772719383239746
1757088346604328700,0.54032861328125,8.530637741088867,3.2261569499969482,3.269921064376831
1757088346613881600,0.549881591796875,8.46550178527832,3.181433916091919,3.457703113555908
1757088346623434800,0.559434814453125,8.40113639831543,3.134368896484375,3.6420791149139404
1757088346632987400,0.5689873046875,8.337018966674805,3.0859599113464355,3.8240339756011963
1757088346642540300,0.578540283203125,8.273438453674316,3.036250114440918,4.003375053405762
1757088346652093400,0.588093505859375,8.211524963378906,2.9843509197235107,4.178785800933838
1757088346661646300,0.597646240234375,8.1455717086792,2.9083940982818604,4.366352081298828
1757088346671199200,0.60719921875,8.085110664367676,2.8261818885803223,4.547057151794434
1757088346680752000,0.616752197265625,8.030875205993652,2.736130952835083,4.721080780029297
1757088346690305000,0.626304931640625,7.975214958190918,2.616089105606079,4.9054107666015625
1757088346699858000,0.63585791015625,7.916359901428223,2.4672679901123047,5.100078105926514
1757088346709410800,0.645410888671875,7.862551212310791,2.3210949897766113,5.270516872406006
1757088346718963700,0.654963623046875,7.80730676651001,2.168704032897949,5.426815986633301
1757088346728516600,0.6645166015625,7.753521919250488,2.0279550552368164,5.565038204193115
1757088346738069500,0.674069580078125,7.6913628578186035,1.8838039636611938,5.698221206665039
1757088346757175600,0.693175537109375,7.558802127838135,1.6090949773788452,5.9312849044799805
1757088346766728400,0.702728515625,7.48386287689209,1.4603029489517212,6.04966402053833
1757088346776281300,0.71228125,7.401191234588623,1.2919479608535767,6.174527168273926
1757088346785834200,0.721834228515625,7.310420036315918,1.1290580034255981,6.292911052703857
1757088346795387100,0.73138720703125,7.220664024353027,0.9877660274505615,6.4015021324157715
1757088346804940000,0.74093994140625,7.118511199951172,0.8255289793014526,6.517167091369629
1757088346814493000,0.750492919921875,7.001245021820068,0.6421759724617004,6.64050817489624
1757088346824045800,0.7600458984375,6.885194778442383,0.4515089988708496,6.762335777282715
1757088346833599000,0.769598876953125,6.7623491287231445,0.2343509942293167,6.883833885192871
1757088346843151600,0.779151611328125,6.642716884613037,0.009119999594986439,7.002718925476074
1757088346852704500,0.78870458984375,6.533568859100342,-0.20269900560379028,7.101715087890625
1757088346862257400,0.79825732421875,6.425842761993408,-0.41887199878692627,7.199650764465332
1757088346871810600,0.807810546875,6.318827152252197,-0.6372510194778442,7.296791076660156
1757088346881363500,0.817363525390625,6.219480991363525,-0.8353310227394104,7.377167224884033
1757088346890916400,0.826916259765625,6.127353191375732,-1.013255000114441,7.443131923675537
1757088346900469200,0.83646923828125,6.038409233093262,-1.1942659616470337,7.50449800491333
1757088346910022100,0.846022216796875,5.959463119506836,-1.3674789667129517,7.551877021789551
1757088346919575000,0.855574951171875,5.885756969451904,-1.5496959686279297,7.5917439460754395
1757088346929128000,0.8651279296875,5.824938774108887,-1.7257399559020996,7.613617897033691
1757088346938680800,0.874680908203125,5.771952152252197,-1.9130749702453613,7.614944934844971
1757088346948233700,0.884233642578125,5.7190351486206055,-2.1121010780334473,7.611764907836914
1757088346957786600,0.89378662109375,5.675751209259033,-2.3008170127868652,7.594901084899902
1757088346967339800,0.90333984375,5.639861106872559,-2.4801390171051025,7.567267894744873
1757088346976892700,0.912892578125,5.610943794250488,-2.6497690677642822,7.530185222625732
1757088346986445600,0.922445556640625,5.5804219245910645,-2.8271520137786865,7.488789081573486
1757088347005551400,0.94155126953125,5.539811134338379,-3.1715359687805176,7.368564128875732
1757088347015104300,0.951104248046875,5.515839099884033,-3.357146978378296,7.2952470779418945
1757088347024657200,0.9606572265625,5.4986348152160645,-3.534662961959839,7.211142063140869
1757088347034210000,0.9702099609375,5.478184223175049,-3.7226319313049316,7.117180824279785
1757088347043763200,0.97976318359375,5.453506946563721,-3.921035051345825,7.012640953063965
1757088347053316000,0.989316162109375,5.423162937164307,-4.129491806030273,6.8976240158081055
1757088347072422000,1.008421875,5.339690208435059,-4.5680928230285645,6.645565986633301
1757088347081974800,1.017974853515625,5.287867069244385,-4.793482780456543,6.511404037475586
1757088347091527700,1.027527587890625,5.230042934417725,-5.021721839904785,6.372858047485352
1757088347101080300,1.037080322265625,5.166977882385254,-5.251762866973877,6.2301788330078125
1757088347110633500,1.046633544921875,5.101930141448975,-5.482217788696289,6.081829071044922
1757088347120186400,1.056186279296875,5.038294792175293,-5.711303234100342,5.9262800216674805
1757088347129739300,1.0657392578125,4.980915069580078,-5.919850826263428,5.769070148468018
1757088347148845300,1.08484521484375,4.875114917755127,-6.322697162628174,5.436552047729492
1757088347158398200,1.094398193359375,4.82255220413208,-6.516645908355713,5.264029026031494
1757088347167950800,1.103950927734375,4.768428802490234,-6.705944061279297,5.088695049285889
1757088347177504000,1.11350390625,4.702302932739258,-6.89679479598999,4.908726215362549
1757088347187056600,1.123056640625,4.634799003601074,-7.081793785095215,4.728381156921387
1757088347196609800,1.13260986328125,4.5839152336120605,-7.245145797729492,4.546217918395996
1757088347206162700,1.14216259765625,4.530789852142334,-7.400160789489746,4.36807107925415
1757088347215715600,1.151715576171875,4.474240779876709,-7.546098232269287,4.1949849128723145
1757088347225268500,1.1612685546875,4.414560794830322,-7.682388782501221,4.026498794555664
1757088347234821400,1.1708212890625,4.353941917419434,-7.808473110198975,3.8609299659729004
1757088347244374300,1.180374267578125,4.294398784637451,-7.923445224761963,3.699897050857544
1757088347253927200,1.18992724609375,4.236301898956299,-8.026490211486816,3.552229881286621
1757088347263480300,1.199480224609375,4.1786789894104,-8.117898941040039,3.4245190620422363
1757088347273033000,1.209032958984375,4.1211700439453125,-8.19798755645752,3.3191750049591064
1757088347282586000,1.218586181640625,4.062810897827148,-8.26775074005127,3.2353639602661133
1757088347292139000,1.228138916015625,4.0019659996032715,-8.328701972961426,3.1708920001983643
1757088347301692000,1.23769189453125,3.938167095184326,-8.38257884979248,3.122159004211426
1757088347311244800,1.247244873046875,3.8729770183563232,-8.430839538574219,3.0847699642181396
1757088347320797700,1.256797607421875,3.807323932647705,-8.474889755249023,3.055577039718628
1757088347330350600,1.2663505859375,3.741450071334839,-8.515657424926758,3.0330119132995605
1757088347339903500,1.275903564453125,3.668876886367798,-8.562664031982422,2.997680902481079
1757088347359009300,1.29500927734375,3.5154380798339844,-8.660345077514648,2.911051034927368
1757088347368562200,1.304562255859375,3.4535109996795654,-8.697420120239258,2.876447916030884
1757088347378115000,1.314114990234375,3.395646095275879,-8.731515884399414,2.8438589572906494
1757088347387668000,1.32366796875,3.3427889347076416,-8.762739181518555,2.811919927597046
1757088347397221000,1.33322119140625,3.287213087081909,-8.795001029968262,2.774660110473633
1757088347406774000,1.34277392578125,3.2300899028778076,-8.827131271362305,2.7338080406188965
1757088347416327000,1.352326904296875,3.1715118885040283,-8.858297348022461,2.692051887512207
1757088347425879800,1.3618798828125,3.1108150482177734,-8.887975692749023,2.6532630920410156
1757088347435433000,1.371432861328125,3.048314094543457,-8.916658401489258,2.616415023803711
1757088347444985600,1.380985595703125,2.985438108444214,-8.946566581726074,2.5706899166107178
1757088347454538500,1.39053857421875,2.922921895980835,-8.979537010192871,2.5076770782470703
1757088347464091400,1.40009130859375,2.8605399131774902,-9.016843795776367,2.423856019973755
1757088347473644500,1.40964453125,2.7987210750579834,-9.058621406555176,2.3192179203033447
1757088347483197400,1.419197509765625,2.7382750511169434,-9.104082107543945,2.1959431171417236
1757088347492750300,1.428750244140625,2.6785240173339844,-9.152193069458008,2.0578548908233643
1757088347502303200,1.43830322265625,2.617053985595703,-9.202057838439941,1.9096189737319946
1757088347511856000,1.447856201171875,2.551522970199585,-9.252922058105469,1.7555040121078491
1757088347521409000,1.457408935546875,2.480988025665283,-9.304134368896484,1.598546028137207
1757088347530962000,1.4669619140625,2.413080930709839,-9.345830917358398,1.4590339660644531
1757088347540514800,1.476514892578125,2.348422050476074,-9.379981994628906,1.3346760272979736
1757088347550067700,1.486067626953125,2.279258966445923,-9.41397476196289,1.2107139825820923
1757088347559620600,1.49562060546875,2.2053840160369873,-9.447896957397461,1.0869619846343994
1757088347569173500,1.505173583984375,2.126499891281128,-9.481840133666992,0.9630380272865295
1757088347578726700,1.5147265625,2.042433023452759,-9.515851020812988,0.8384140133857727
1757088347588279600,1.524279541015625,1.9618760347366333,-9.545655250549316,0.7186939716339111
1757088347597832400,1.53383251953125,1.884132981300354,-9.571828842163086,0.6034449934959412
1757088347607385300,1.54338525390625,1.8079979419708252,-9.59492015838623,0.4929870069026947
1757088347616938200,1.552938232421875,1.731415033340454,-9.615711212158203,0.3872169852256775
1757088347626491100,1.5624912109375,1.6528220176696777,-9.634736061096191,0.2861419916152954
1757088347636044000,1.5720439453125,1.571990966796875,-9.652152061462402,0.19016000628471375
1757088347645597000,1.581596923828125,1.4898229837417603,-9.667940139770508,0.0994419977068901
1757088347655149800,1.59114990234375,1.407528042793274,-9.682090759277344,0.0139340003952384
1757088347664702700,1.60070263671875,1.3260329961776733,-9.69462776184082,-0.0663990005850792
1757088347674255600,1.610255615234375,1.2458560466766357,-9.705644607543945,-0.14155800640583038
1757088347683808800,1.619808837890625,1.1675390005111694,-9.71521282196045,-0.21176299452781677
1757088347693361400,1.629361328125,1.0916270017623901,-9.72341537475586,-0.27737900614738464
1757088347702914600,1.63891455078125,1.0183080434799194,-9.730414390563965,-0.33888599276542664
1757088347712467500,1.648467529296875,0.9475160241127014,-9.736417770385742,-0.39678099751472473
1757088347722020400,1.658020263671875,0.8791040182113647,-9.741615295410156,-0.4517129957675934
1757088347731573200,1.6675732421875,0.8137339949607849,-9.746122360229492,-0.5039269924163818
1757088347741126100,1.677126220703125,0.7526339888572693,-9.749974250793457,-0.553272008895874
1757088347750679000,1.686678955078125,0.6966469883918762,-9.753133773803711,-0.5998349785804749
1757088347760232000,1.69623193359375,0.6462470293045044,-9.755546569824219,-0.643796980381012
1757088347769784800,1.705784912109375,0.6014159917831421,-9.757200241088867,-0.685329020023346
1757088347779337700,1.715337646484375,0.5620669722557068,-9.758122444152832,-0.7246469855308533
1757088347788890600,1.724890625,0.5281710028648376,-9.75837230682373,-0.761847972869873
1757088347798443800,1.73444384765625,0.49978500604629517,-9.758001327514648,-0.7971869707107544
1757088347807996700,1.74399658203125,0.47712600231170654,-9.757043838500977,-0.8309460282325745
1757088347817549600,1.753549560546875,0.4602769911289215,-9.75555419921875,-0.8632469773292542
1757088347827102500,1.7631025390625,0.4489530026912689,-9.753613471984863,-0.8942649960517883
1757088347836655400,1.7726552734375,0.4422540068626404,-9.751341819763184,-0.9241229891777039
1757088347846208300,1.782208251953125,0.43893200159072876,-9.748862266540527,-0.9528840184211731
1757088347855761200,1.79176123046875,0.43792998790740967,-9.746259689331055,-0.9805750250816345
1757088347865314000,1.80131396484375,0.43849900364875793,-9.743597030639648,-1.0072250366210938
1757088347874867000,1.810866943359375,0.4400619864463806,-9.740917205810547,-1.0327789783477783
1757088347884420000,1.820420166015625,0.44232600927352905,-9.738256454467773,-1.0571889877319336
1757088347893973000,1.829972900390625,0.4450559914112091,-9.735615730285645,-1.080590009689331
1757088347903526000,1.83952587890625,0.44796401262283325,-9.733009338378906,-1.1031049489974976
1757088347913078800,1.849078857421875,0.45077699422836304,-9.73044490814209,-1.1248290538787842
1757088347922631400,1.85863134765625,0.452580988407135,-9.727919578552246,-1.146101951599121
1757088347932184600,1.8681845703125,0.4522869884967804,-9.725448608398438,-1.167233943939209
1757088347941737500,1.877737548828125,0.4496130049228668,-9.723050117492676,-1.1882259845733643
1757088347951290000,1.8872900390625,0.444707989692688,-9.72076416015625,-1.2087689638137817
1757088347960843300,1.89684326171875,0.4381659924983978,-9.71862506866455,-1.228410005569458
1757088347970396200,1.906396240234375,0.4304719865322113,-9.71665096282959,-1.2468420267105103
1757088347979949300,1.91594921875,0.42186498641967773,-9.714864730834961,-1.2638640403747559
1757088347989502000,1.925501953125,0.412432998418808,-9.713274002075195,-1.2794380187988281
1757088347999055000,1.93505517578125,0.40224799513816833,-9.711872100830078,-1.2936530113220215
1757088348008607700,1.944607666015625,0.39141198992729187,-9.710638046264648,-1.3066730499267578
1757088348018160600,1.95416064453125,0.3800300061702728,-9.709541320800781,-1.3186910152435303
1757088348027713500,1.963713623046875,0.36848101019859314,-9.708566665649414,-1.3297549486160278
1757088348037266400,1.973266357421875,0.3570669889450073,-9.707676887512207,-1.3399959802627563
1757088348046819300,1.9828193359375,0.3459700047969818,-9.706868171691895,-1.3493640422821045
1757088348056372500,1.99237255859375,0.3352909982204437,-9.706147193908691,-1.357766032218933
1757088348065925400,2.00192529296875,0.32510799169540405,-9.705533981323242,-1.365054965019226
1757088348075478500,2.011478515625,0.31535598635673523,-9.705031394958496,-1.3712340593338013
1757088348085031200,2.02103125,0.3059140145778656,-9.704667091369629,-1.376170039176941
1757088348094584000,2.030583984375,0.2966870069503784,-9.704446792602539,-1.3798569440841675
1757088348104137000,2.040136962890625,0.2875930070877075,-9.70438003540039,-1.38230299949646
1757088348113689900,2.04968994140625,0.2786189913749695,-9.704458236694336,-1.3835649490356445
1757088348123242800,2.05924267578125,0.2697620093822479,-9.704660415649414,-1.3838210105895996
1757088348132795600,2.068795654296875,0.2610509991645813,-9.70496654510498,-1.3832199573516846
1757088348142348800,2.078348876953125,0.2525100111961365,-9.70534896850586,-1.3819880485534668
1757088348151901700,2.087901611328125,0.24401800334453583,-9.705769538879395,-1.3803969621658325
1757088348161454600,2.09745458984375,0.23542200028896332,-9.706201553344727,-1.3787009716033936
1757088348171007500,2.107007568359375,0.22656600177288055,-9.706625938415527,-1.3770469427108765
1757088348180560400,2.116560302734375,0.21742500364780426,-9.70704460144043,-1.3754509687423706
1757088348190113300,2.12611328125,0.20802399516105652,-9.707448959350586,-1.3739769458770752
1757088348199666200,2.135666259765625,0.19837500154972076,-9.70783805847168,-1.3726190328598022
1757088348209219000,2.145218994140625,0.18854700028896332,-9.708227157592773,-1.3712899684906006
1757088348218772000,2.15477197265625,0.17850999534130096,-9.708609580993652,-1.370000958442688
1757088348228324900,2.164324951171875,0.16850300133228302,-9.70899486541748,-1.3686790466308594
1757088348237878000,2.1738779296875,0.15878699719905853,-9.709381103515625,-1.3672699928283691
1757088348247431000,2.183430908203125,0.14963899552822113,-9.709765434265137,-1.3657710552215576
1757088348256983800,2.19298388671875,0.14123199880123138,-9.71011734008789,-1.3643640279769897
1757088348266536700,2.20253662109375,0.13356900215148926,-9.710421562194824,-1.3631550073623657
1757088348276089600,2.212089599609375,0.12665100395679474,-9.71064567565918,-1.3623839616775513
1757088348285642500,2.221642578125,0.12041199952363968,-9.710749626159668,-1.3623249530792236
1757088348295195400,2.2311953125,0.11477900296449661,-9.710721015930176,-1.3631130456924438
1757088348304748300,2.240748291015625,0.1096860021352768,-9.710570335388184,-1.364670991897583
1757088348314301200,2.25030126953125,0.10507699847221375,-9.710321426391602,-1.366845965385437
1757088348323854000,2.25985400390625,0.10084500163793564,-9.709991455078125,-1.3695260286331177
1757088348333407000,2.269406982421875,0.09694299846887589,-9.709602355957031,-1.3725769519805908
1757088348342960000,2.278960205078125,0.09336800128221512,-9.7091703414917,-1.3758699893951416
1757088348352512800,2.2885126953125,0.0901390016078949,-9.708730697631836,-1.3791970014572144
1757088348362066000,2.29806591796875,0.08726400136947632,-9.708287239074707,-1.3824900388717651
1757088348371618800,2.307618896484375,0.08460299670696259,-9.70783805847168,-1.3858120441436768
1757088348381171700,2.317171630859375,0.08197499811649323,-9.707395553588867,-1.3890470266342163
1757088348390724600,2.326724609375,0.07933399826288223,-9.70695686340332,-1.3922619819641113
1757088348400277500,2.336277587890625,0.07660699635744095,-9.706526756286621,-1.3953889608383179
1757088348409830400,2.345830322265625,0.07377099990844727,-9.706117630004883,-1.3983570337295532
1757088348419383300,2.35538330078125,0.07079300284385681,-9.705743789672852,-1.4010850191116333
1757088348428936200,2.364936279296875,0.06759800016880035,-9.705392837524414,-1.4036519527435303
1757088348438489000,2.374489013671875,0.06413699686527252,-9.705035209655762,-1.4062780141830444
1757088348448042000,2.3840419921875,0.06041700020432472,-9.70466423034668,-1.409005045890808
1757088348457595100,2.39359521484375,0.05655600130558014,-9.704277038574219,-1.4118410348892212
1757088348467148000,2.40314794921875,0.0526840016245842,-9.703882217407227,-1.4147310256958008
1757088348476701000,2.412700927734375,0.04891600087285042,-9.703493118286133,-1.4175570011138916
1757088348486253800,2.42225390625,0.0453919991850853,-9.703121185302734,-1.42023503780365
1757088348495806700,2.431806640625,0.04219000041484833,-9.702784538269043,-1.4226540327072144
1757088348505359600,2.441359619140625,0.03934499993920326,-9.702489852905273,-1.4247640371322632
1757088348514912500,2.45091259765625,0.03691999986767769,-9.702245712280273,-1.4265170097351074
1757088348524465400,2.46046533203125,0.03490599989891052,-9.702058792114258,-1.4278630018234253
1757088348534018300,2.470018310546875,0.033243998885154724,-9.701929092407227,-1.428810954093933
1757088348543571200,2.4795712890625,0.03184099867939949,-9.70185375213623,-1.4293659925460815
1757088348553124000,2.4891240234375,0.030734999105334282,-9.701831817626953,-1.4295519590377808
1757088348562677200,2.49867724609375,0.029973000288009644,-9.701859474182129,-1.429399013519287
1757088348572230100,2.508230224609375,0.029510999098420143,-9.701913833618164,-1.4290410280227661
1757088348581783000,2.517782958984375,0.029256999492645264,-9.70199966430664,-1.4284659624099731
1757088348591336000,2.5273359375,0.02921699918806553,-9.702095031738281,-1.427819013595581
1757088348600888600,2.536888671875,0.02934800088405609,-9.702170372009277,-1.4272990226745605
1757088348610441700,2.546441650390625,0.029604999348521233,-9.702219009399414,-1.4269590377807617
1757088348619994400,2.555994384765625,0.030023999512195587,-9.702239990234375,-1.4268059730529785
1757088348629547500,2.565547607421875,0.030577000230550766,-9.702264785766602,-1.426630973815918
1757088348639100400,2.575100341796875,0.03124699927866459,-9.702310562133789,-1.4263050556182861
1757088348648653300,2.5846533203125,0.032005999237298965,-9.702398300170898,-1.4256949424743652
1757088348658206200,2.594206298828125,0.03280999884009361,-9.702539443969727,-1.4247150421142578
1757088348667759000,2.603759033203125,0.03362800180912018,-9.702741622924805,-1.4233200550079346
1757088348677312000,2.61331201171875,0.03428500145673752,-9.703004837036133,-1.4215140342712402
1757088348686865000,2.622864990234375,0.03459300100803375,-9.703309059143066,-1.419435977935791
1757088348696417800,2.632417724609375,0.03452799841761589,-9.703619003295898,-1.4173280000686646
1757088348705971000,2.641970947265625,0.033980000764131546,-9.703908920288086,-1.4153549671173096
1757088348715523800,2.65152392578125,0.03300900012254715,-9.704150199890137,-1.413733959197998
1757088348725077000,2.661076904296875,0.03178200125694275,-9.704328536987305,-1.4125299453735352
1757088348734629600,2.670629638671875,0.030446000397205353,-9.704442024230957,-1.4117900133132935
1757088348744182500,2.6801826171875,0.028936000540852547,-9.704484939575195,-1.4115289449691772
1757088348753735400,2.6897353515625,0.027217000722885132,-9.70446491241455,-1.411700963973999
1757088348763288300,2.699288330078125,0.025397999212145805,-9.704389572143555,-1.4122480154037476
1757088348772841200,2.70884130859375,0.02363399975001812,-9.704280853271484,-1.4130239486694336
1757088348782394000,2.71839404296875,0.021900000050663948,-9.7041654586792,-1.4138460159301758
1757088348791947300,2.727947265625,0.020232999697327614,-9.704065322875977,-1.414551019668579
1757088348801500200,2.737500244140625,0.018628999590873718,-9.70397663116455,-1.415173053741455
1757088348811053000,2.747052978515625,0.01705400086939335,-9.703899383544922,-1.4157160520553589
1757088348820606000,2.75660595703125,0.015502000227570534,-9.703813552856445,-1.416316032409668
1757088348830158800,2.766158935546875,0.01400499977171421,-9.703702926635742,-1.4170889854431152
1757088348839711700,2.775711669921875,0.012532000429928303,-9.703561782836914,-1.4180690050125122
1757088348849264600,2.7852646484375,0.011094000190496445,-9.703385353088379,-1.4192850589752197
1757088348858817500,2.794817626953125,0.00967399962246418,-9.7031831741333,-1.420685052871704
1757088348868370400,2.804370361328125,0.008342999964952469,-9.702967643737793,-1.4221739768981934
1757088348877923600,2.813923583984375,0.007224000059068203,-9.702756881713867,-1.4236329793930054
1757088348887476200,2.823476318359375,0.006347000133246183,-9.7025728225708,-1.4249000549316406
1757088348897029000,2.833029052734375,0.005791999865323305,-9.702428817749023,-1.4258830547332764
1757088348906582000,2.84258203125,0.005545000080019236,-9.702336311340332,-1.4265209436416626
1757088348916135200,2.85213525390625,0.005566000007092953,-9.702287673950195,-1.4268529415130615
1757088348925688000,2.86168798828125,0.005772000178694725,-9.702258110046387,-1.42705500125885
1757088348935241000,2.871240966796875,0.006157999858260155,-9.702231407165527,-1.4272350072860718
1757088348944793900,2.8807939453125,0.006703999824821949,-9.702207565307617,-1.4273910522460938
1757088348954346800,2.8903466796875,0.00735200010240078,-9.7022066116333,-1.4273929595947266
1757088348963899600,2.899899658203125,0.00803999975323677,-9.702239990234375,-1.4271639585494995
1757088348973452500,2.90945263671875,0.00880999956279993,-9.702310562133789,-1.4266740083694458
1757088348983005700,2.919005615234375,0.009680000133812428,-9.702425003051758,-1.4258780479431152
1757088348992558300,2.928558349609375,0.010607000440359116,-9.702596664428711,-1.4246939420700073
1757088349002111500,2.938111572265625,0.011528000235557556,-9.702828407287598,-1.4230999946594238
1757088349011664400,2.947664306640625,0.01241500023752451,-9.703116416931152,-1.4211100339889526
1757088349021217300,2.95721728515625,0.013129999861121178,-9.703455924987793,-1.418761968612671
1757088349030770200,2.966770263671875,0.01360199972987175,-9.703828811645508,-1.4161959886550903
1757088349040323000,2.976322998046875,0.013763000257313251,-9.704212188720703,-1.4135479927062988
1757088349049876000,2.9858759765625,0.01358999963849783,-9.704595565795898,-1.4109079837799072
1757088349059428900,2.995428955078125,0.013086999766528606,-9.704971313476562,-1.4083110094070435
1757088349068981800,3.004981689453125,0.012322000227868557,-9.705334663391113,-1.4058010578155518
1757088349078534700,3.01453466796875,0.01133699994534254,-9.705678939819336,-1.4034219980239868
1757088349088087600,3.024087646484375,0.010154999792575836,-9.705987930297852,-1.4012759923934937
1757088349097640400,3.033640380859375,0.008767000399529934,-9.706274032592773,-1.3992890119552612
1757088349107193600,3.043193603515625,0.007230000104755163,-9.706533432006836,-1.397475004196167
1757088349116746500,3.05274658203125,0.00558600015938282,-9.706796646118164,-1.395650029182434
1757088349126299400,3.06229931640625,0.0038449999410659075,-9.707075119018555,-1.3937209844589233
1757088349135852300,3.071852294921875,0.00202700006775558,-9.707380294799805,-1.3916139602661133
1757088349145405200,3.0814052734375,0.0001849999971454963,-9.7076997756958,-1.3894070386886597
1757088349154957800,3.090957763671875,-0.001598999951966107,-9.708013534545898,-1.3872430324554443
1757088349164510700,3.1005107421875,-0.0032579998951405287,-9.70829963684082,-1.3852699995040894
1757088349174063900,3.11006396484375,-0.004728000145405531,-9.708535194396973,-1.3836450576782227
1757088349183616800,3.11961669921875,-0.005975000094622374,-9.70869255065918,-1.3825629949569702
1757088349193170000,3.129169921875,-0.006907000206410885,-9.70876407623291,-1.382073998451233
1757088349202722800,3.138722900390625,-0.007466999813914299,-9.708744049072266,-1.3822150230407715
1757088349212275500,3.148275390625,-0.007544000167399645,-9.708649635314941,-1.3828810453414917
1757088349221828400,3.157828369140625,-0.007079999893903732,-9.70849895477295,-1.3839269876480103
1757088349231381200,3.16738134765625,-0.006051000207662582,-9.70831298828125,-1.3852109909057617
1757088349240934100,3.17693408203125,-0.004507000092417002,-9.708105087280273,-1.386646032333374
1757088349250487000,3.186487060546875,-0.00253800000064075,-9.707867622375488,-1.3882750272750854
1757088349260040200,3.196040283203125,-0.00027600000612437725,-9.707603454589844,-1.3900820016860962
1757088349269592800,3.2055927734375,0.002139999996870756,-9.70732307434082,-1.3920209407806396
1757088349279145700,3.215145751953125,0.004647000227123499,-9.707038879394531,-1.3939679861068726
1757088349288699000,3.224698974609375,0.007197000086307526,-9.706748962402344,-1.395969033241272
1757088349298251800,3.234251708984375,0.009711000137031078,-9.706465721130371,-1.3979159593582153
1757088349307804700,3.2438046875,0.01209499966353178,-9.706194877624512,-1.3997869491577148
1757088349317357600,3.253357666015625,0.014392999932169914,-9.705926895141602,-1.4016350507736206
1757088349326910500,3.262910400390625,0.016589999198913574,-9.705656051635742,-1.403501033782959
1757088349336463400,3.27246337890625,0.018682999536395073,-9.705381393432617,-1.4053980112075806
1757088349346016500,3.2820166015625,0.02068600058555603,-9.705106735229492,-1.4072870016098022
1757088349355569400,3.2915693359375,0.022585999220609665,-9.704828262329102,-1.4092110395431519
1757088349365122000,3.3011220703125,0.024400999769568443,-9.704533576965332,-1.4112329483032227
1757088349374675000,3.310675048828125,0.026169000193476677,-9.704225540161133,-1.413329005241394
1757088349384228000,3.32022802734375,0.02786399982869625,-9.70390796661377,-1.415503978729248
1757088349393781000,3.329781005859375,0.029395999386906624,-9.703596115112305,-1.417618989944458
1757088349403334000,3.339333984375,0.03070399910211563,-9.703300476074219,-1.4196159839630127
1757088349412886800,3.34888671875,0.031759001314640045,-9.703031539916992,-1.4214340448379517
1757088349422439700,3.358439697265625,0.03259199857711792,-9.702802658081055,-1.4229810237884521
1757088349431992600,3.36799267578125,0.03338000178337097,-9.702621459960938,-1.42420494556427
1757088349441545500,3.37754541015625,0.034230999648571014,-9.702486038208008,-1.4251010417938232
1757088349451098400,3.387098388671875,0.035211000591516495,-9.702386856079102,-1.425745964050293
1757088349460651500,3.396651611328125,0.03634199872612953,-9.702306747436523,-1.4262570142745972
1757088349470204200,3.4062041015625,0.03758300095796585,-9.702226638793945,-1.426766037940979
1757088349479757300,3.41575732421875,0.03892099857330322,-9.702146530151367,-1.4272559881210327
1757088349489310200,3.425310302734375,0.040330998599529266,-9.702057838439941,-1.427817940711975
1757088349498863000,3.434863037109375,0.041847001761198044,-9.70195198059082,-1.4284939765930176
1757088349508416000,3.444416015625,0.043418999761343,-9.701835632324219,-1.429229974746704
1757088349517969000,3.453968994140625,0.04506799951195717,-9.701726913452148,-1.4299139976501465
1757088349537074700,3.47307470703125,0.04843499884009361,-9.701533317565918,-1.431130051612854
1757088349546627600,3.482627685546875,0.05001299828290939,-9.701448440551758,-1.4316569566726685
1757088349556180700,3.4921806640625,0.051405999809503555,-9.701393127441406,-1.4319959878921509
1757088349565733600,3.501733642578125,0.05253800004720688,-9.701376914978027,-1.432068943977356
1757088349575286500,3.51128662109375,0.05339200049638748,-9.70140266418457,-1.4318729639053345
1757088349584839400,3.52083935546875,0.05403999984264374,-9.701470375061035,-1.431399941444397
1757088349594392300,3.530392333984375,0.054558999836444855,-9.701566696166992,-1.4307270050048828
1757088349603945000,3.539945068359375,0.054926998913288116,-9.701681137084961,-1.4299399852752686
1757088349613498000,3.549498046875,0.05513099953532219,-9.701794624328613,-1.429165005683899
1757088349623050800,3.55905078125,0.05505099892616272,-9.701898574829102,-1.428462028503418
1757088349632604000,3.56860400390625,0.054728999733924866,-9.70198917388916,-1.4278520345687866
1757088349642156500,3.578156494140625,0.05420200154185295,-9.702075004577637,-1.4272799491882324
1757088349651709700,3.587709716796875,0.053605999797582626,-9.70216178894043,-1.4267139434814453
1757088349661262800,3.597262939453125,0.05303899943828583,-9.702261924743652,-1.4260519742965698
1757088349670815500,3.6068154296875,0.05257600173354149,-9.702352523803711,-1.4254549741744995
1757088349680368400,3.616368408203125,0.052223000675439835,-9.70242977142334,-1.4249390363693237
1757088349689921300,3.62592138671875,0.05195099860429764,-9.702493667602539,-1.4245150089263916
1757088349699474200,3.63547412109375,0.0517599992454052,-9.702532768249512,-1.4242579936981201
1757088349709027000,3.645027099609375,0.05168699845671654,-9.702535629272461,-1.4242360591888428
1757088349718580000,3.654580078125,0.05177700147032738,-9.702516555786133,-1.4243680238723755
1757088349728132900,3.6641328125,0.052046000957489014,-9.702491760253906,-1.4245189428329468
1757088349737686000,3.67368603515625,0.05256599932909012,-9.702471733093262,-1.4246339797973633
1757088349747239000,3.683239013671875,0.05334300175309181,-9.702458381652832,-1.4246920347213745
1757088349756791800,3.692791748046875,0.05438600108027458,-9.702436447143555,-1.4247889518737793
1757088349766344700,3.7023447265625,0.05564099922776222,-9.702404975891113,-1.4249520301818848
1757088349775897600,3.711897705078125,0.0569860003888607,-9.702345848083496,-1.4252909421920776
1757088349785450800,3.72145068359375,0.05832799896597862,-9.70225715637207,-1.4258359670639038
1757088349795003400,3.73100341796875,0.05968799814581871,-9.702129364013672,-1.426643967628479
1757088349804556300,3.740556396484375,0.06105399876832962,-9.701966285705566,-1.4276930093765259
1757088349814109200,3.750109130859375,0.06244400143623352,-9.701765060424805,-1.4290000200271606
1757088349823662000,3.759662109375,0.06384000182151794,-9.70154857635498,-1.4304070472717285
1757088349833215200,3.76921533203125,0.06523299962282181,-9.701330184936523,-1.431833028793335
1757088349842768000,3.778767822265625,0.06657899916172028,-9.701118469238281,-1.4332189559936523
1757088349852321300,3.7883212890625,0.0678350031375885,-9.700909614562988,-1.4345790147781372
1757088349861874000,3.7978740234375,0.0689919963479042,-9.700716018676758,-1.4358400106430054
1757088349871426800,3.8074267578125,0.07006199657917023,-9.700543403625488,-1.436964988708496
1757088349880979700,3.816979736328125,0.07109200209379196,-9.700382232666016,-1.4380120038986206
1757088349890532600,3.82653271484375,0.0720909982919693,-9.700241088867188,-1.4389090538024902
1757088349900085500,3.83608544921875,0.0729840025305748,-9.700121879577637,-1.43966805934906
1757088349909638400,3.845638427734375,0.07375500351190567,-9.700017929077148,-1.4403300285339355
1757088349919191300,3.85519140625,0.07438600063323975,-9.699908256530762,-1.4410370588302612
1757088349928744200,3.864744140625,0.0748559981584549,-9.699776649475098,-1.4419009685516357
1757088349938297000,3.874297119140625,0.07517199963331223,-9.699621200561523,-1.4429240226745605
1757088349947850000,3.88385009765625,0.0753600001335144,-9.699466705322266,-1.443956971168518
1757088349957403100,3.893403076171875,0.07545299828052521,-9.69933032989502,-1.444869041442871
1757088349966956000,3.9029560546875,0.07556500285863876,-9.699222564697266,-1.4455909729003906
1757088349976509000,3.912509033203125,0.07575300335884094,-9.699151039123535,-1.4460630416870117
1757088349986061800,3.922061767578125,0.07603800296783447,-9.699119567871094,-1.4462549686431885
1757088349995614700,3.93161474609375,0.07643599808216095,-9.699128150939941,-1.4461849927902222
1757088350005167600,3.941167724609375,0.07694099843502045,-9.699176788330078,-1.445834994316101
1757088350014720500,3.950720458984375,0.07748299837112427,-9.699239730834961,-1.4453860521316528
1757088350024273200,3.960273193359375,0.07806400209665298,-9.699297904968262,-1.444957971572876
1757088350033826000,3.969825927734375,0.07867400348186493,-9.699345588684082,-1.4446070194244385
1757088350043379200,3.979379150390625,0.07928100228309631,-9.69936752319336,-1.4444210529327393
1757088350052932400,3.988932373046875,0.07984299957752228,-9.699365615844727,-1.4444090127944946
1757088350062485200,3.9984853515625,0.08033700287342072,-9.699338912963867,-1.4445600509643555
1757088350072038000,4.008037841796875,0.08072199672460556,-9.699301719665527,-1.4447849988937378
1757088350081591000,4.017591064453125,0.08100400120019913,-9.699261665344238,-1.4450440406799316
1757088350091143700,4.027143798828125,0.08126500248908997,-9.699216842651367,-1.4453250169754028
1757088350100696600,4.036696533203125,0.08148699998855591,-9.699183464050293,-1.445544958114624
1757088350110249500,4.04624951171875,0.0817129984498024,-9.699159622192383,-1.4456859827041626
1757088350119802400,4.05580224609375,0.08195099979639053,-9.699150085449219,-1.4457340240478516
1757088350129355300,4.065355224609375,0.08221700042486191,-9.69914436340332,-1.4457579851150513
1757088350138908400,4.074908447265625,0.08255299925804138,-9.699117660522461,-1.4459149837493896
1757088350148461300,4.08446142578125,0.082955002784729,-9.69906997680664,-1.4462169408798218
1757088350158014200,4.09401416015625,0.08338399976491928,-9.69899845123291,-1.4466700553894043
1757088350167567000,4.103567138671875,0.08380000293254852,-9.69890022277832,-1.4472980499267578
1757088350177120000,4.1131201171875,0.08422300219535828,-9.698774337768555,-1.4481099843978882
1757088350186673000,4.1226728515625,0.08463999629020691,-9.698623657226562,-1.449092984199524
1757088350196225800,4.132225830078125,0.08510100096464157,-9.698442459106445,-1.4502840042114258
1757088350205778700,4.14177880859375,0.08566399663686752,-9.698229789733887,-1.4516639709472656
1757088350215331600,4.15133154296875,0.08631200343370438,-9.697991371154785,-1.4532150030136108
1757088350224884700,4.160884765625,0.08702900260686874,-9.697731018066406,-1.4549039602279663
1757088350234437600,4.170437744140625,0.08787699788808823,-9.697464942932129,-1.4566199779510498
1757088350243990500,4.179990478515625,0.08881600201129913,-9.697226524353027,-1.4581470489501953
1757088350253543400,4.18954345703125,0.08984900265932083,-9.697027206420898,-1.4594099521636963
1757088350263096300,4.199096435546875,0.09091900289058685,-9.696874618530273,-1.4603530168533325
1757088350272649200,4.208649169921875,0.09199699759483337,-9.696771621704102,-1.460966944694519
1757088350282202000,4.2182021484375,0.09306500107049942,-9.696714401245117,-1.4612840414047241
1757088350291755000,4.227755126953125,0.09409599751234055,-9.696670532226562,-1.4615010023117065
1757088350301308000,4.237307861328125,0.09506899863481522,-9.696636199951172,-1.4616730213165283
1757088350310860800,4.24686083984375,0.09600599855184555,-9.69660758972168,-1.4618070125579834
1757088350320413700,4.25641357421875,0.0968559980392456,-9.696584701538086,-1.4618959426879883
1757088350329966800,4.265966796875,0.09749799966812134,-9.696599960327148,-1.4617559909820557
1757088350339519700,4.275519775390625,0.0979439988732338,-9.696660995483398,-1.4613280296325684
1757088350349072600,4.28507275390625,0.09830000251531601,-9.696755409240723,-1.460677981376648
1757088350358625500,4.29462548828125,0.0985879972577095,-9.69687557220459,-1.4598510265350342
1757088350368178400,4.304178466796875,0.09878800064325333,-9.697022438049316,-1.4588520526885986
1757088350377731000,4.31373095703125,0.09886699914932251,-9.697199821472168,-1.457656979560852
1757088350387284000,4.323283935546875,0.09877300262451172,-9.697392463684082,-1.4563809633255005
1757088350396837000,4.332837158203125,0.09848599880933762,-9.697606086730957,-1.4549640417099
1757088350406390300,4.342390380859375,0.09803199768066406,-9.69784164428711,-1.4534180164337158
1757088350415943200,4.351943115234375,0.09740000218153,-9.698099136352539,-1.4517359733581543
1757088350425496000,4.36149609375,0.09656500071287155,-9.698375701904297,-1.4499549865722656
1757088350435048700,4.371048583984375,0.09567800164222717,-9.698649406433105,-1.4481899738311768
1757088350444601600,4.3806015625,0.0948140025138855,-9.698911666870117,-1.446498990058899
1757088350454154500,4.390154541015625,0.09411600232124329,-9.699140548706055,-1.4450149536132812
1757088350463707600,4.399707763671875,0.0935870036482811,-9.699322700500488,-1.4438350200653076
1757088350473260300,4.40926025390625,0.0931830033659935,-9.699440002441406,-1.443081021308899
1757088350482813200,4.418813232421875,0.09295299649238586,-9.699506759643555,-1.4426569938659668
1757088350492366300,4.428366455078125,0.09284800291061401,-9.69954776763916,-1.4423860311508179
1757088350501919200,4.437919189453125,0.09282399713993073,-9.6995849609375,-1.442139983177185
1757088350511472000,4.44747216796875,0.09287600219249725,-9.699629783630371,-1.4418339729309082
1757088350521025000,4.45702490234375,0.0930590033531189,-9.699677467346191,-1.4415030479431152
1757088350530578000,4.466577880859375,0.09333399683237076,-9.699712753295898,-1.4412529468536377
1757088350540130800,4.476130859375,0.0935249999165535,-9.699743270874023,-1.4410309791564941
1757088350549683700,4.48568359375,0.0936100035905838,-9.699769973754883,-1.440850019454956
1757088350559236600,4.495236572265625,0.09353700280189514,-9.699798583984375,-1.4406609535217285
1757088350568789500,4.50478955078125,0.09328100085258484,-9.699830055236816,-1.440459966659546
1757088350578342400,4.51434228515625,0.09285999834537506,-9.699883460998535,-1.4401229619979858
1757088350587895300,4.523895263671875,0.09223400056362152,-9.699953079223633,-1.4396899938583374
1757088350597448200,4.5334482421875,0.091389000415802,-9.700052261352539,-1.439067006111145
1757088350607001300,4.54300146484375,0.09031499922275543,-9.70017147064209,-1.4383219480514526
1757088350616554200,4.55255419921875,0.08906800299882889,-9.700300216674805,-1.4374899864196777
1757088350626107100,4.562107177734375,0.08752799779176712,-9.700441360473633,-1.4366170167922974
1757088350635660000,4.571659912109375,0.08562999963760376,-9.700584411621094,-1.4357349872589111
1757088350645213000,4.581212890625,0.08336099982261658,-9.700738906860352,-1.4347939491271973
1757088350654765800,4.590765869140625,0.08073599636554718,-9.700920104980469,-1.4336880445480347
1757088350664318700,4.600318603515625,0.07775700092315674,-9.701139450073242,-1.4323420524597168
1757088350673871600,4.60987158203125,0.07449500262737274,-9.701393127441406,-1.4307769536972046
1757088350683424500,4.619424560546875,0.07104100286960602,-9.701654434204102,-1.4291739463806152
1757088350692977700,4.628977783203125,0.06746599823236465,-9.70189094543457,-1.4277399778366089
1757088350702530300,4.6385302734375,0.0638749971985817,-9.702081680297852,-1.4266159534454346
1757088350712083500,4.64808349609375,0.06033699959516525,-9.70220947265625,-1.4259289503097534
1757088350721636400,4.65763623046875,0.0569240003824234,-9.702274322509766,-1.42563796043396
1757088350731189000,4.66718896484375,0.053651001304388046,-9.702299118041992,-1.4256240129470825
1757088350740742100,4.6767421875,0.05050300061702728,-9.702303886413574,-1.425732970237732
1757088350750295000,4.686294921875,0.04747899994254112,-9.702295303344727,-1.4259190559387207
1757088350759848000,4.695847900390625,0.04471699893474579,-9.702278137207031,-1.426151990890503
1757088350769400800,4.70540087890625,0.042236000299453735,-9.702253341674805,-1.426408052444458
1757088350778953700,4.71495361328125,0.04006600007414818,-9.702230453491211,-1.4266510009765625
1757088350788506600,4.724506591796875,0.03819100186228752,-9.702194213867188,-1.426956057548523
1757088350798059500,4.7340595703125,0.03663399815559387,-9.702153205871582,-1.4272929430007935
1757088350807612400,4.7436123046875,0.03530700132250786,-9.702104568481445,-1.427664041519165
1757088350817165300,4.753165283203125,0.0342399999499321,-9.702038764953613,-1.4281419515609741
1757088350826718200,4.76271826171875,0.03342000022530556,-9.7019624710083,-1.428684949874878
1757088350836271000,4.77227099609375,0.03277900069952011,-9.701883316040039,-1.4292320013046265
1757088350845824000,4.781823974609375,0.03225100040435791,-9.701807975769043,-1.4297590255737305
1757088350855377000,4.791376953125,0.03183700144290924,-9.701742172241211,-1.4302129745483398
1757088350864929800,4.8009296875,0.03146100044250488,-9.701692581176758,-1.4305620193481445
1757088350874482700,4.810482666015625,0.031031999737024307,-9.701674461364746,-1.430696964263916
1757088350884035600,4.82003564453125,0.030508000403642654,-9.701700210571289,-1.4305319786071777
1757088350893588500,4.82958837890625,0.029790999367833138,-9.701784133911133,-1.4299650192260742
1757088350903141400,4.839141357421875,0.028824999928474426,-9.701931953430176,-1.4289809465408325
1757088350912694500,4.848694580078125,0.027573000639677048,-9.702116012573242,-1.4277369976043701
1757088350922247400,4.858247314453125,0.02612300030887127,-9.70232105255127,-1.426360011100769
1757088350931800300,4.86780029296875,0.024490000680088997,-9.70252799987793,-1.424973964691162
1757088350941353200,4.877353271484375,0.022725999355316162,-9.702733993530273,-1.4235899448394775
1757088350950906000,4.886906005859375,0.020687999203801155,-9.702936172485352,-1.4222270250320435
1757088350960459000,4.896458984375,0.018370000645518303,-9.703142166137695,-1.420822024345398
1757088350970011600,4.90601171875,0.015802999958395958,-9.703352928161621,-1.4193910360336304
1757088350979564800,4.915564697265625,0.013028999790549278,-9.703560829162598,-1.4179730415344238
1757088350989117700,4.92511767578125,0.010122999548912048,-9.703763008117676,-1.4166009426116943
1757088350998670800,4.9346708984375,0.007182000204920769,-9.703951835632324,-1.415310025215149
1757088351008223500,4.944223388671875,0.004242999944835901,-9.704130172729492,-1.4140959978103638
1757088351017776400,4.9537763671875,0.0014070000033825636,-9.704294204711914,-1.4129960536956787
1757088351027329300,4.963329345703125,-0.0012760000536218286,-9.704431533813477,-1.412060022354126
1757088351036882200,4.972882080078125,-0.003722999943420291,-9.704553604125977,-1.4112449884414673
1757088351046435000,4.98243505859375,-0.005878000054508448,-9.704666137695312,-1.4104889631271362
1757088351055988200,4.99198828125,-0.007712000049650669,-9.704771041870117,-1.4097870588302612
1757088351065541000,5.001541015625,-0.00916100014001131,-9.704853057861328,-1.4092299938201904
1757088351075094000,5.011093994140625,-0.010300000198185444,-9.704906463623047,-1.4088720083236694
1757088351084647000,5.02064697265625,-0.011115999892354012,-9.704920768737793,-1.4087769985198975
1757088351094199800,5.03019970703125,-0.011663000099360943,-9.704882621765137,-1.4090410470962524
1757088351103752700,5.039752685546875,-0.011939999647438526,-9.704812049865723,-1.4095269441604614
1757088351113305600,5.0493056640625,-0.011978999711573124,-9.704713821411133,-1.4101979732513428
1757088351122858500,5.0588583984375,-0.011788000352680683,-9.70458698272705,-1.4110679626464844
1757088351132411400,5.068411376953125,-0.011315000243484974,-9.704421043395996,-1.4121949672698975
1757088351141964300,5.07796435546875,-0.010468999855220318,-9.704217910766602,-1.4135799407958984
1757088351151517200,5.08751708984375,-0.009271999821066856,-9.703967094421387,-1.415282964706421
1757088351161070000,5.097070068359375,-0.007815999910235405,-9.703682899475098,-1.4172290563583374
1757088351170623000,5.106623046875,-0.006231000181287527,-9.703370094299316,-1.4193669557571411
1757088351180176100,5.116176025390625,-0.004650000017136335,-9.703045845031738,-1.4215890169143677
1757088351189729000,5.12572900390625,-0.003235999960452318,-9.702726364135742,-1.4237749576568604
1757088351199282000,5.135281982421875,-0.0020830000285059214,-9.702445983886719,-1.4256980419158936
1757088351208834800,5.144834716796875,-0.0012750000460073352,-9.702218055725098,-1.4272639751434326
1757088351218387700,5.1543876953125,-0.0008539999835193157,-9.702042579650879,-1.428467035293579
1757088351227940400,5.1639404296875,-0.0007939999923110008,-9.70190143585205,-1.4294250011444092
1757088351237493500,5.173493408203125,-0.0011520000407472253,-9.701781272888184,-1.4302419424057007
1757088351247046400,5.18304638671875,-0.0020409999415278435,-9.701675415039062,-1.4309600591659546
1757088351256599300,5.192599365234375,-0.0036009999457746744,-9.701578140258789,-1.431594967842102
1757088351266152200,5.202152099609375,-0.0058479998260736465,-9.701483726501465,-1.4322010278701782
1757088351285258000,5.221258056640625,-0.0118429996073246,-9.701330184936523,-1.4331270456314087
1757088351294811000,5.230810791015625,-0.015302999876439571,-9.701287269592285,-1.4333510398864746
1757088351304363800,5.24036376953125,-0.018960999324917793,-9.701262474060059,-1.4334419965744019
1757088351313916700,5.249916748046875,-0.022702999413013458,-9.701265335083008,-1.433316946029663
1757088351323469600,5.259469482421875,-0.026559000834822655,-9.701302528381348,-1.4329710006713867
1757088351333022500,5.2690224609375,-0.030619999393820763,-9.70135498046875,-1.4325230121612549
1757088351342575400,5.278575439453125,-0.03495600074529648,-9.701380729675293,-1.4322429895401
1757088351352128300,5.288128173828125,-0.039650000631809235,-9.701337814331055,-1.4324029684066772
1757088351361681200,5.29768115234375,-0.044711001217365265,-9.701180458068848,-1.4333109855651855
1757088351371234300,5.307234375,-0.05004899948835373,-9.700873374938965,-1.4351569414138794
1757088351380787000,5.316786865234375,-0.05532599985599518,-9.700461387634277,-1.437688946723938
1757088351390340000,5.326340087890625,-0.06040000170469284,-9.699953079223633,-1.4408420324325562
1757088351399893000,5.33589306640625,-0.06554099917411804,-9.699312210083008,-1.444838047027588
1757088351409446000,5.34544580078125,-0.07113900035619736,-9.698495864868164,-1.449910044670105
1757088351418998800,5.354998779296875,-0.07766299694776535,-9.697449684143066,-1.4563339948654175
1757088351428551700,5.3645517578125,-0.08546199649572372,-9.696111679077148,-1.4644160270690918
1757088351438104600,5.3741044921875,-0.09477099776268005,-9.694441795349121,-1.4743069410324097
1757088351447657500,5.383657470703125,-0.10572899878025055,-9.692419052124023,-1.486001968383789
1757088351457210400,5.39321044921875,-0.11883900314569473,-9.69005012512207,-1.4992369413375854
1757088351466763300,5.40276318359375,-0.13544000685214996,-9.687270164489746,-1.5140119791030884
1757088351476316400,5.41231640625,-0.15717199444770813,-9.683976173400879,-1.5302640199661255
1757088351485869000,5.421869140625,-0.1839659959077835,-9.680341720581055,-1.5467389822006226
1757088351495422200,5.431422119140625,-0.21661600470542908,-9.67622184753418,-1.5635969638824463
1757088351504974800,5.440974853515625,-0.25600099563598633,-9.671430587768555,-1.5810580253601074
1757088351514527700,5.45052783203125,-0.30326101183891296,-9.665719032287598,-1.5992929935455322
1757088351524080600,5.46008056640625,-0.35991600155830383,-9.658740997314453,-1.6183559894561768
1757088351533633500,5.469633544921875,-0.4275830090045929,-9.650077819824219,-1.6380540132522583
1757088351543186400,5.4791865234375,-0.5074849724769592,-9.639227867126465,-1.6582800149917603
1757088351552739300,5.4887392578125,-0.6000490188598633,-9.625739097595215,-1.6789690256118774
1757088351562292500,5.49829248046875,-0.7050819993019104,-9.609251022338867,-1.700260043144226
1757088351571845400,5.507845458984375,-0.822018027305603,-9.589556694030762,-1.7224149703979492
1757088351581398000,5.51739794921875,-0.9398229718208313,-9.570164680480957,-1.7418500185012817
1757088351590951000,5.526950927734375,-1.0575859546661377,-9.55105209350586,-1.7594419717788696
1757088351600504000,5.536504150390625,-1.1836539506912231,-9.52906322479248,-1.7788059711456299
1757088351610057000,5.546056884765625,-1.3184880018234253,-9.503639221191406,-1.8002619743347168
1757088351619609900,5.55560986328125,-1.4636789560317993,-9.473877906799316,-1.8236429691314697
1757088351629162800,5.565162841796875,-1.6212780475616455,-9.438673973083496,-1.8482609987258911
1757088351638715600,5.574715576171875,-1.792227029800415,-9.39714527130127,-1.8734760284423828
1757088351648268500,5.5842685546875,-1.974174976348877,-9.349294662475586,-1.900015950202942
1757088351657821400,5.593821533203125,-2.1630759239196777,-9.295940399169922,-1.928102970123291
1757088351667374300,5.603374267578125,-2.359205961227417,-9.237066268920898,-1.9533820152282715
1757088351676927200,5.61292724609375,-2.561980962753296,-9.172246932983398,-1.977828025817871
1757088351686480100,5.622480224609375,-2.770021915435791,-9.101694107055664,-2.000817060470581
1757088351696033300,5.632033203125,-2.982621908187866,-9.025504112243652,-2.020711898803711
1757088351705586200,5.641586181640625,-3.1944189071655273,-8.946065902709961,-2.0382280349731445
1757088351715138800,5.651138916015625,-3.4040169715881348,-8.863521575927734,-2.052872896194458
1757088351724691700,5.660691650390625,-3.610145092010498,-8.777864456176758,-2.0644938945770264
1757088351734244600,5.67024462890625,-3.8116610050201416,-8.689166069030762,-2.0732579231262207
1757088351743797500,5.679797607421875,-4.008007049560547,-8.597484588623047,-2.0797998905181885
1757088351753350400,5.689350341796875,-4.1993231773376465,-8.502622604370117,-2.085371971130371
1757088351762903300,5.6989033203125,-4.388775825500488,-8.401823043823242,-2.0922749042510986
1757088351772456400,5.70845654296875,-4.58613395690918,-8.292074203491211,-2.104796886444092
1757088351782009300,5.71800927734375,-4.790139198303223,-8.174402236938477,-2.122973918914795
1757088351791562200,5.727562255859375,-4.990515232086182,-8.052830696105957,-2.143825054168701
1757088351801115400,5.737115478515625,-5.186339855194092,-7.927443981170654,-2.167452096939087
1757088351810668000,5.74666796875,-5.375576972961426,-7.800394058227539,-2.1898820400238037
1757088351820221000,5.756220947265625,-5.556407928466797,-7.670561790466309,-2.2151589393615723
1757088351829773800,5.76577392578125,-5.727363109588623,-7.5393571853637695,-2.242379903793335
1757088351839326700,5.77532666015625,-5.890404224395752,-7.407779216766357,-2.2674410343170166
1757088351848879600,5.784879638671875,-6.049355983734131,-7.2744460105896,-2.288115978240967
1757088351858432500,5.7944326171875,-6.203368186950684,-7.138713836669922,-2.306994915008545
1757088351867985400,5.8039853515625,-6.353555202484131,-7.000807762145996,-2.321216106414795
1757088351877538300,5.813538330078125,-6.501022815704346,-6.859127998352051,-2.3318169116973877
1757088351887091500,5.823091552734375,-6.645137786865234,-6.713292121887207,-2.3414299488067627
1757088351896644400,5.832644287109375,-6.786308765411377,-6.564899921417236,-2.3528950214385986
1757088351906197200,5.842197265625,-6.92401123046875,-6.414305210113525,-2.3669021129608154
1757088351915750100,5.851750244140625,-7.060303211212158,-6.257826805114746,-2.3826959133148193
1757088351925302800,5.861302734375,-7.194241046905518,-6.096529960632324,-2.400131940841675
1757088351934855700,5.870855712890625,-7.324936866760254,-5.932525157928467,-2.417530059814453
1757088351944408600,5.88040869140625,-7.451920032501221,-5.767477989196777,-2.4327569007873535
1757088351953961700,5.889961669921875,-7.572371006011963,-5.604865074157715,-2.4436728954315186
1757088351963514400,5.899514404296875,-7.686943054199219,-5.444174766540527,-2.4519100189208984
1757088351973067500,5.909067626953125,-7.797232151031494,-5.285192012786865,-2.4558238983154297
1757088351982620400,5.918620361328125,-7.904244899749756,-5.127902030944824,-2.454878091812134
1757088351992173300,5.92817333984375,-8.008246421813965,-4.972708225250244,-2.447432041168213
1757088352001726200,5.937726318359375,-8.10954475402832,-4.8178229331970215,-2.436964988708496
1757088352011279000,5.947279052734375,-8.207806587219238,-4.664761066436768,-2.4197449684143066
1757088352020832000,5.95683203125,-8.303187370300293,-4.513597011566162,-2.396404981613159
1757088352030385000,5.966385009765625,-8.395263671875,-4.362825870513916,-2.3716609477996826
1757088352039937800,5.975937744140625,-8.482733726501465,-4.213208198547363,-2.3480329513549805
1757088352049490700,5.98549072265625,-8.564558029174805,-4.065303802490234,-2.3275458812713623
1757088352059043600,5.995043701171875,-8.640031814575195,-3.9189789295196533,-2.313499927520752
1757088352068596500,6.004596435546875,-8.708436965942383,-3.7758779525756836,-2.3057940006256104
1757088352078149400,6.0141494140625,-8.770626068115234,-3.637057065963745,-2.300895929336548
1757088352087702300,6.023702392578125,-8.830312728881836,-3.49891996383667,-2.2950470447540283
1757088352097255200,6.033255126953125,-8.887715339660645,-3.3616580963134766,-2.287727117538452
1757088352106808000,6.04280810546875,-8.939986228942871,-3.2298500537872314,-2.280608892440796
1757088352116361200,6.052361328125,-8.98805046081543,-3.102994918823242,-2.2723939418792725
1757088352125913900,6.061913818359375,-9.033209800720215,-2.9794180393218994,-2.2620201110839844
1757088352135467000,6.071467041015625,-9.076000213623047,-2.8577868938446045,-2.2501189708709717
1757088352145019600,6.08101953125,-9.116555213928223,-2.7379310131073,-2.2373828887939453
1757088352154572500,6.090572509765625,-9.155125617980957,-2.6208291053771973,-2.2227609157562256
1757088352164125400,6.10012548828125,-9.191575050354004,-2.5066139698028564,-2.2080419063568115
1757088352173678300,6.10967822265625,-9.22627067565918,-2.3944990634918213,-2.193510055541992
1757088352183231500,6.1192314453125,-9.25907039642334,-2.2841389179229736,-2.1799330711364746
1757088352192784400,6.128784423828125,-9.289506912231445,-2.175766944885254,-2.168778896331787
1757088352202337300,6.138337158203125,-9.317657470703125,-2.0697410106658936,-2.1588780879974365
1757088352211890200,6.14789013671875,-9.343738555908203,-1.9666310548782349,-2.1497859954833984
1757088352221443000,6.157443115234375,-9.368000984191895,-1.8678760528564453,-2.1395890712738037
1757088352230996000,6.166995849609375,-9.390741348266602,-1.7738679647445679,-2.1273179054260254
1757088352240548900,6.176548828125,-9.41215705871582,-1.684725046157837,-2.112194061279297
1757088352250101800,6.186101806640625,-9.432619094848633,-1.600445032119751,-2.092890977859497
1757088352259654700,6.195654541015625,-9.452323913574219,-1.5210109949111938,-2.069061040878296
1757088352269207600,6.20520751953125,-9.470853805541992,-1.4455759525299072,-2.0435850620269775
1757088352278760400,6.214760498046875,-9.48826789855957,-1.3737159967422485,-2.016855001449585
1757088352288313600,6.224313720703125,-9.504790306091309,-1.3049590587615967,-1.9883780479431152
1757088352297866500,6.233866455078125,-9.520822525024414,-1.2383710145950317,-1.9571839570999146
1757088352307419400,6.24341943359375,-9.536172866821289,-1.1738519668579102,-1.9241880178451538
1757088352316972300,6.25297216796875,-9.550447463989258,-1.1112799644470215,-1.891221046447754
1757088352326525200,6.262525146484375,-9.56352424621582,-1.0511260032653809,-1.859009027481079
1757088352336078000,6.272078125,-9.575593948364258,-0.9934530258178711,-1.8273229598999023
1757088352345630700,6.281630615234375,-9.586997032165527,-0.9377850294113159,-1.7956279516220093
1757088352355183900,6.291183837890625,-9.598026275634766,-0.8839870095252991,-1.7634069919586182
1757088352364736800,6.30073681640625,-9.608880043029785,-0.8319939970970154,-1.7297290563583374
1757088352374290000,6.3102900390625,-9.619600296020508,-0.7823349833488464,-1.6937880516052246
1757088352383842600,6.319842529296875,-9.630441665649414,-0.7355970144271851,-1.6541240215301514
1757088352393395500,6.3293955078125,-9.641120910644531,-0.6922270059585571,-1.6117600202560425
1757088352402948400,6.3389482421875,-9.651548385620117,-0.6506850123405457,-1.5678149461746216
1757088352412501200,6.348501220703125,-9.661681175231934,-0.6100010275840759,-1.5230380296707153
1757088352422054100,6.35805419921875,-9.671422958374023,-0.570464015007019,-1.478247046470642
1757088352431607000,6.36760693359375,-9.6806001663208,-0.532480001449585,-1.4344340562820435
1757088352441160200,6.37716015625,-9.689078330993652,-0.4964179992675781,-1.392717957496643
1757088352450713000,6.386713134765625,-9.69687271118164,-0.4621869921684265,-1.3533849716186523
1757088352460266000,6.396265869140625,-9.704115867614746,-0.4316120147705078,-1.3151860237121582
1757088352469819000,6.40581884765625,-9.710944175720215,-0.4040389955043793,-1.2772350311279297
1757088352479371800,6.415371826171875,-9.717277526855469,-0.37964099645614624,-1.239840030670166
1757088352488924700,6.424924560546875,-9.723108291625977,-0.35885700583457947,-1.2027770280838013
1757088352498477600,6.4344775390625,-9.728397369384766,-0.3419190049171448,-1.1664600372314453
1757088352508030500,6.444030517578125,-9.733105659484863,-0.32884401082992554,-1.1316440105438232
1757088352517583400,6.453583251953125,-9.737312316894531,-0.31944501399993896,-1.0985870361328125
1757088352527136300,6.46313623046875,-9.74107837677002,-0.3137730062007904,-1.0673569440841675
1757088352536689000,6.47268896484375,-9.744504928588867,-0.31211400032043457,-1.0372569561004639
1757088352546242000,6.482241943359375,-9.747742652893066,-0.3141089975833893,-1.0070949792861938
1757088352555795000,6.491794921875,-9.750761985778809,-0.3199619948863983,-0.9767569899559021
1757088352565347800,6.501347900390625,-9.753442764282227,-0.3294309973716736,-0.9470810294151306
1757088352574900700,6.510900634765625,-9.755786895751953,-0.341856986284256,-0.9182050228118896
1757088352584453600,6.52045361328125,-9.757810592651367,-0.35648301243782043,-0.890296995639801
1757088352594006500,6.530006591796875,-9.759507179260254,-0.37278100848197937,-0.864100992679596
1757088352603559400,6.539559326171875,-9.760915756225586,-0.39032599329948425,-0.8398039937019348
1757088352613112300,6.5491123046875,-9.762128829956055,-0.40784600377082825,-0.8172119855880737
1757088352622665200,6.558665283203125,-9.763238906860352,-0.42474299669265747,-0.795727014541626
1757088352632218000,6.568218017578125,-9.764333724975586,-0.4408609867095947,-0.7746449708938599
1757088352641771000,6.57777099609375,-9.765425682067871,-0.45633798837661743,-0.753948986530304
1757088352651324200,6.58732421875,-9.766457557678223,-0.4698120057582855,-0.7345349788665771
1757088352660877000,6.596876953125,-9.767351150512695,-0.48228099942207336,-0.7169600129127502
1757088352670430000,6.606429931640625,-9.768074035644531,-0.4937269985675812,-0.701708972454071
1757088352679982800,6.61598291015625,-9.768567085266113,-0.5042619705200195,-0.6895660161972046
1757088352689535700,6.62553564453125,-9.768832206726074,-0.5138429999351501,-0.6807159781455994
1757088352699088600,6.635088623046875,-9.768916130065918,-0.5226219892501831,-0.6746280193328857
1757088352708641500,6.6446416015625,-9.768891334533691,-0.5306000113487244,-0.6704360246658325
1757088352718194400,6.6541943359375,-9.768832206726074,-0.5372089743614197,-0.6674119830131531
1757088352727747000,6.6637470703125,-9.768774032592773,-0.5415250062942505,-0.6656240224838257
1757088352737300200,6.67330029296875,-9.768746376037598,-0.5428249835968018,-0.6651960015296936
1757088352746853000,6.68285302734375,-9.7687406539917,-0.5405679941177368,-0.6666849851608276
1757088352756406300,6.69240625,-9.768705368041992,-0.5350959897041321,-0.670661985874176
1757088352765959200,6.701959228515625,-9.768503189086914,-0.5276389718055725,-0.6781309843063354
1757088352775512000,6.711511962890625,-9.768074035644531,-0.5201039910316467,-0.6887249946594238
1757088352785064700,6.721064697265625,-9.76744270324707,-0.5135110020637512,-0.7013099789619446
1757088352794617600,6.73061767578125,-9.766799926757812,-0.5071799755096436,-0.7140489816665649
1757088352804170500,6.74017041015625,-9.766160011291504,-0.5012990236282349,-0.7265679836273193
1757088352813723400,6.749723388671875,-9.765409469604492,-0.49653199315071106,-0.7397890090942383
1757088352823276300,6.7592763671875,-9.7644681930542,-0.494500994682312,-0.7536399960517883
1757088352832829200,6.7688291015625,-9.76339054107666,-0.494827002286911,-0.767579972743988
1757088352842382300,6.77838232421875,-9.762178421020508,-0.4969559907913208,-0.7817959785461426
1757088352851935000,6.78793505859375,-9.760862350463867,-0.4997450113296509,-0.7967079877853394
1757088352861488000,6.797488037109375,-9.759440422058105,-0.5021770000457764,-0.8128870129585266
1757088352871041000,6.807041015625,-9.757987976074219,-0.503305971622467,-0.8299070000648499
1757088352880594000,6.816593994140625,-9.756606101989746,-0.5022609829902649,-0.8469949960708618
1757088352890146800,6.826146728515625,-9.755346298217773,-0.49901801347732544,-0.8634999990463257
1757088352899699700,6.83569970703125,-9.754254341125488,-0.49372199177742004,-0.8787869811058044
1757088352909252600,6.845252685546875,-9.753307342529297,-0.4866900146007538,-0.8929280042648315
1757088352918805500,6.854805419921875,-9.752413749694824,-0.4785139858722687,-0.9065709710121155
1757088352928358400,6.8643583984375,-9.751459121704102,-0.470209002494812,-0.9205269813537598
1757088352937911300,6.873911376953125,-9.75040054321289,-0.4629260003566742,-0.9347540140151978
1757088352947464200,6.883464111328125,-9.74927806854248,-0.4573490023612976,-0.9485830068588257
1757088352957017000,6.89301708984375,-9.748234748840332,-0.453341007232666,-0.9606990218162537
1757088352966570000,6.902570068359375,-9.747297286987305,-0.45013999938964844,-0.9713199734687805
1757088352976123100,6.912123046875,-9.746466636657715,-0.44748398661613464,-0.9806550145149231
1757088352985676000,6.921676025390625,-9.745580673217773,-0.44619500637054443,-0.9900280237197876
1757088352995228700,6.931228759765625,-9.744606018066406,-0.44620001316070557,-0.9997509717941284
1757088353004781600,6.940781494140625,-9.743634223937988,-0.4466949999332428,-1.0092350244522095
1757088353014334500,6.95033447265625,-9.742788314819336,-0.4457080066204071,-1.018239974975586
1757088353023887400,6.959887451171875,-9.742067337036133,-0.44353601336479187,-1.0267059803009033
1757088353033440300,6.969440185546875,-9.741511344909668,-0.44066399335861206,-1.0339850187301636
1757088353042993200,6.9789931640625,-9.741097450256348,-0.43843701481819153,-1.039489984512329
1757088353052546000,6.988546142578125,-9.740830421447754,-0.4380649924278259,-1.0423929691314697
1757088353062099000,6.998098876953125,-9.740633010864258,-0.44071298837661743,-1.042834997177124
1757088353071651800,7.00765185546875,-9.740407943725586,-0.4470759928226471,-1.0414899587631226
1757088353081204700,7.017204833984375,-9.740099906921387,-0.45690399408340454,-1.03916597366333
1757088353090758000,7.0267578125,-9.739690780639648,-0.46946099400520325,-1.036558985710144
1757088353100310800,7.036310791015625,-9.73923110961914,-0.48387500643730164,-1.033769965171814
1757088353109863700,7.04586376953125,-9.738791465759277,-0.49972400069236755,-1.0303080081939697
1757088353119416600,7.05541650390625,-9.738439559936523,-0.5164700150489807,-1.0256990194320679
1757088353128969500,7.064969482421875,-9.738194465637207,-0.5335929989814758,-1.0198709964752197
1757088353138522400,7.0745224609375,-9.738051414489746,-0.5503690242767334,-1.0130300521850586
1757088353148075000,7.084074951171875,-9.73797607421875,-0.5662360191345215,-1.0056920051574707
1757088353157628200,7.093628173828125,-9.737939834594727,-0.5808029770851135,-0.9982929825782776
1757088353167180800,7.103180908203125,-9.737902641296387,-0.5941200256347656,-0.9912689924240112
1757088353176734000,7.11273388671875,-9.737809181213379,-0.6066129803657532,-0.9849749803543091
1757088353186286800,7.122286865234375,-9.737641334533691,-0.6187360286712646,-0.9793729782104492
1757088353195839700,7.13183984375,-9.737405776977539,-0.6307119727134705,-0.9743760228157043
1757088353205393000,7.141392822265625,-9.737075805664062,-0.6428059935569763,-0.9701150059700012
1757088353214945500,7.150945556640625,-9.736614227294922,-0.6550719738006592,-0.9668790102005005
1757088353224498400,7.16049853515625,-9.735995292663574,-0.6672880053520203,-0.965041995048523
1757088353234051300,7.17005126953125,-9.735189437866211,-0.679252028465271,-0.9649789929389954
1757088353243604200,7.179604248046875,-9.734223365783691,-0.690517008304596,-0.9667710065841675
1757088353253157000,7.1891572265625,-9.733141899108887,-0.700534999370575,-0.9703549742698669
1757088353262710300,7.198710205078125,-9.732024192810059,-0.7088919878005981,-0.9753410220146179
1757088353272263000,7.208262939453125,-9.730886459350586,-0.7158920168876648,-0.9813600182533264
1757088353281815800,7.21781591796875,-9.729731559753418,-0.7222260236740112,-0.9879810214042664
1757088353291368700,7.22736865234375,-9.728508949279785,-0.7286710143089294,-0.9951410293579102
1757088353300921900,7.236921875,-9.727229118347168,-0.7351329922676086,-1.00278902053833
1757088353310474800,7.246474853515625,-9.725916862487793,-0.7414299845695496,-1.01084303855896
1757088353320027600,7.256027587890625,-9.724587440490723,-0.7473340034484863,-1.0192840099334717
1757088353339133200,7.27513330078125,-9.721988677978516,-0.7575280070304871,-1.0366259813308716
1757088353348686300,7.284686279296875,-9.720781326293945,-0.7615699768066406,-1.0451380014419556
1757088353358239200,7.2942392578125,-9.719658851623535,-0.76493901014328,-1.0533260107040405
1757088353367792000,7.303792236328125,-9.71866226196289,-0.7675619721412659,-1.0608539581298828
1757088353377345000,7.313344970703125,-9.717805862426758,-0.7694910168647766,-1.0675519704818726
1757088353386898000,7.32289794921875,-9.717081069946289,-0.770861029624939,-1.0734070539474487
1757088353396450800,7.332450927734375,-9.71650218963623,-0.7716990113258362,-1.0782920122146606
1757088353406003700,7.342003662109375,-9.716071128845215,-0.7718510031700134,-1.0822620391845703
1757088353415556900,7.351556884765625,-9.715800285339355,-0.7714220285415649,-1.0851390361785889
1757088353425109500,7.361109619140625,-9.715723037719727,-0.7704560160636902,-1.086596965789795
1757088353434662400,7.370662353515625,-9.715805053710938,-0.769245982170105,-1.0867300033569336
1757088353444215300,7.38021533203125,-9.716032028198242,-0.7679700255393982,-1.0855580568313599
1757088353453768200,7.389768310546875,-9.716333389282227,-0.7670869827270508,-1.0833959579467773
1757088353463321300,7.3993212890625,-9.716721534729004,-0.7663990259170532,-1.0803070068359375
1757088353472874200,7.408874267578125,-9.717179298400879,-0.7657229900360107,-1.0765600204467773
1757088353482427100,7.41842724609375,-9.717704772949219,-0.7651050090789795,-1.072139024734497
1757088353491980000,7.42797998046875,-9.718295097351074,-0.7646290063858032,-1.0670429468154907
1757088353501533000,7.437532958984375,-9.718927383422852,-0.7642920017242432,-1.0614700317382812
1757088353511085600,7.44708544921875,-9.719602584838867,-0.7640960216522217,-1.0553950071334839
1757088353520638700,7.456638671875,-9.72030258178711,-0.7639380097389221,-1.049064040184021
1757088353530191600,7.466191650390625,-9.72098445892334,-0.7640190124511719,-1.0427379608154297
1757088353539744500,7.47574462890625,-9.721659660339355,-0.7640659809112549,-1.0364899635314941
1757088353549297400,7.48529736328125,-9.722309112548828,-0.7641760110855103,-1.0304219722747803
1757088353558850300,7.494850341796875,-9.722892761230469,-0.7644079923629761,-1.0248420238494873
1757088353568403200,7.5044033203125,-9.723410606384277,-0.7646690011024475,-1.019834041595459
1757088353577956000,7.5139560546875,-9.723843574523926,-0.7651280164718628,-1.0154550075531006
1757088353587509000,7.523509033203125,-9.724167823791504,-0.7658740282058716,-1.0118629932403564
1757088353597062000,7.533061767578125,-9.724451065063477,-0.7664290070533752,-1.0087939500808716
1757088353606614800,7.54261474609375,-9.724676132202148,-0.7667779922485352,-1.0064129829406738
1757088353616167700,7.552167724609375,-9.724846839904785,-0.7668600082397461,-1.0047500133514404
1757088353625720600,7.561720458984375,-9.724960327148438,-0.7667400240898132,-1.003756046295166
1757088353635273500,7.5712734375,-9.72502613067627,-0.7665420174598694,-1.0032780170440674
1757088353644826400,7.580826416015625,-9.725062370300293,-0.7661830186843872,-1.0031980276107788
1757088353654379300,7.590379150390625,-9.72506046295166,-0.7658320069313049,-1.0034940242767334
1757088353663932200,7.59993212890625,-9.725027084350586,-0.765392005443573,-1.0041249990463257
1757088353673485000,7.609485107421875,-9.724976539611816,-0.7646999955177307,-1.0051219463348389
1757088353683038000,7.619037841796875,-9.724919319152832,-0.7638440132141113,-1.0063159465789795
1757088353692590800,7.6285908203125,-9.724846839904785,-0.7630239725112915,-1.0076260566711426
1757088353702143700,7.638143798828125,-9.724760055541992,-0.7621260285377502,-1.0091350078582764
1757088353711697000,7.64769677734375,-9.724655151367188,-0.7612069845199585,-1.0108469724655151
1757088353721249800,7.657249755859375,-9.724564552307129,-0.7600520253181458,-1.0125969648361206
1757088353730802400,7.666802490234375,-9.724467277526855,-0.7589370012283325,-1.0143539905548096
1757088353740355300,7.676355224609375,-9.724355697631836,-0.7581049799919128,-1.0160620212554932
1757088353749908200,7.685908203125,-9.724241256713867,-0.7575380206108093,-1.0175809860229492
1757088353759461000,7.695461181640625,-9.724159240722656,-0.7569680213928223,-1.018805980682373
1757088353769014000,7.705013916015625,-9.724113464355469,-0.7562770247459412,-1.019773006439209
1757088353778567000,7.71456689453125,-9.724119186401367,-0.7554029822349548,-1.0203759670257568
1757088353788120000,7.7241201171875,-9.724123001098633,-0.7548559904098511,-1.0207610130310059
1757088353797673000,7.7336728515625,-9.724142074584961,-0.7545920014381409,-1.0207799673080444
1757088353807225900,7.743225830078125,-9.724184036254883,-0.7546129822731018,-1.0203479528427124
1757088353816778800,7.75277880859375,-9.724247932434082,-0.75484299659729,-1.0195629596710205
1757088353826331600,7.76233154296875,-9.724336624145508,-0.7552130222320557,-1.01842200756073
1757088353835884500,7.771884521484375,-9.724461555480957,-0.7556689977645874,-1.0168720483779907
1757088353845437400,7.7814375,-9.724616050720215,-0.75621497631073,-1.0149630308151245
1757088353854990300,7.790990234375,-9.724796295166016,-0.7569140195846558,-1.0126830339431763
1757088353864543200,7.800543212890625,-9.72501277923584,-0.757673978805542,-1.0099910497665405
1757088353874096400,7.810096435546875,-9.725255012512207,-0.7583969831466675,-1.0070849657058716
1757088353883649300,7.819649169921875,-9.725534439086914,-0.7589020133018494,-1.0039609670639038
1757088353893202200,7.8292021484375,-9.725845336914062,-0.7592779994010925,-1.0006279945373535
1757088353902754800,7.8387548828125,-9.726181983947754,-0.7595440149307251,-0.9971410036087036
1757088353912307700,7.8483076171875,-9.726522445678711,-0.7598469853401184,-0.9935700297355652
1757088353921860600,7.857860595703125,-9.726862907409668,-0.7601490020751953,-0.9900069832801819
1757088353931413500,7.86741357421875,-9.72722053527832,-0.760200023651123,-0.9864670038223267
1757088353940966400,7.87696630859375,-9.727599143981934,-0.7598639726638794,-0.9829970002174377
1757088353950519600,7.88651953125,-9.727975845336914,-0.7593680024147034,-0.9796609878540039
1757088353960072200,7.896072265625,-9.728370666503906,-0.758650004863739,-0.9763010144233704
1757088353969625300,7.905625244140625,-9.72877311706543,-0.7578889727592468,-0.9728900194168091
1757088353979178200,7.91517822265625,-9.729194641113281,-0.7570379972457886,-0.9693580269813538
1757088353988731100,7.924731201171875,-9.729636192321777,-0.755948007106781,-0.9657859802246094
1757088353998284000,7.934283935546875,-9.730072021484375,-0.7546799778938293,-0.9623799920082092
1757088354007837000,7.9438369140625,-9.7305269241333,-0.7531489729881287,-0.9589830040931702
1757088354017389800,7.953389892578125,-9.731000900268555,-0.7513149976730347,-0.9556099772453308
1757088354026942700,7.962942626953125,-9.731472969055176,-0.7492910027503967,-0.952368974685669
1757088354036495600,7.97249560546875,-9.731966018676758,-0.7470309734344482,-0.9490820169448853
1757088354046048800,7.982048828125,-9.732481956481934,-0.7444999814033508,-0.9457359910011292
1757088354055601400,7.991601318359375,-9.733009338378906,-0.7418479919433594,-0.9423480033874512
1757088354065154300,8.001154296875,-9.73353099822998,-0.7392029762268066,-0.9389989972114563
1757088354074707200,8.010707275390626,-9.734028816223145,-0.7366309762001038,-0.935820996761322
1757088354084260400,8.02026025390625,-9.734535217285156,-0.7340220212936401,-0.9325720071792603
1757088354093813000,8.02981298828125,-9.735050201416016,-0.7313399910926819,-0.9292529821395874
1757088354103366000,8.039365966796876,-9.73557186126709,-0.7285259962081909,-0.9259790182113647
1757088354112918800,8.048918701171875,-9.736072540283203,-0.7257540225982666,-0.9228950142860413
1757088354122471700,8.0584716796875,-9.736583709716797,-0.7227410078048706,-0.919871985912323
1757088354132024600,8.068024658203125,-9.737081527709961,-0.7197149991989136,-0.9169830083847046
1757088354141577500,8.077577392578124,-9.737558364868164,-0.7167750000953674,-0.9142540097236633
1757088354151130400,8.08713037109375,-9.738005638122559,-0.7140210270881653,-0.9116780161857605
1757088354160683300,8.096683349609375,-9.738434791564941,-0.7112619876861572,-0.9092959761619568
1757088354170236400,8.106236328125,-9.738832473754883,-0.708611011505127,-0.907168984413147
1757088354179789000,8.1157890625,-9.739180564880371,-0.7062370181083679,-0.9053120017051697
1757088354189342000,8.125342041015625,-9.739500045776367,-0.7040429711341858,-0.9036250114440918
1757088354198895000,8.13489501953125,-9.739786148071289,-0.7020059823989868,-0.9021689891815186
1757088354208448000,8.144447998046875,-9.74003791809082,-0.7001510262489319,-0.9009209871292114
1757088354218001000,8.1540009765625,-9.740266799926758,-0.698415994644165,-0.8998159766197205
1757088354227553800,8.1635537109375,-9.74046516418457,-0.6968070268630981,-0.8989549875259399
1757088354237106700,8.173106689453125,-9.740615844726562,-0.6954079866409302,-0.8984140157699585
1757088354246659600,8.18265966796875,-9.740732192993164,-0.6941019892692566,-0.8981599807739258
1757088354256212500,8.19221240234375,-9.740835189819336,-0.6927400231361389,-0.8981029987335205
1757088354265765000,8.20176513671875,-9.740942001342773,-0.6911600232124329,-0.8981660008430481
1757088354275318000,8.211318115234375,-9.741013526916504,-0.6895580291748047,-0.8986200094223022
1757088354284871200,8.22087109375,-9.741048812866211,-0.6880199909210205,-0.8994230031967163
1757088354294424000,8.230424072265626,-9.741057395935059,-0.6866359710693359,-0.9003700017929077
1757088354303977000,8.23997705078125,-9.741056442260742,-0.6852959990501404,-0.9014019966125488
1757088354313529900,8.24952978515625,-9.741037368774414,-0.6842749714851379,-0.9023759961128235
1757088354323082800,8.259082763671875,-9.741013526916504,-0.6835010051727295,-0.9032220244407654
1757088354332635600,8.2686357421875,-9.74099063873291,-0.6828640103340149,-0.9039430022239685
1757088354342188500,8.2781884765625,-9.740966796875,-0.6823740005493164,-0.9045659899711609
1757088354351741400,8.287741455078125,-9.740948677062988,-0.6819450259208679,-0.9050899744033813
1757088354361294300,8.29729443359375,-9.740938186645508,-0.6815360188484192,-0.9055140018463135
1757088354370847200,8.30684716796875,-9.74093246459961,-0.6811509728431702,-0.9058700203895569
1757088354380400400,8.316400390625,-9.74092960357666,-0.680774986743927,-0.9061909914016724
1757088354389953300,8.325953369140626,-9.740923881530762,-0.680433988571167,-0.9065049886703491
1757088354399506200,8.335506103515625,-9.740900993347168,-0.6802110075950623,-0.9069269895553589
1757088354409059000,8.34505908203125,-9.740865707397461,-0.6800680160522461,-0.9074320197105408
1757088354418612000,8.354612060546875,-9.740822792053223,-0.6800069808959961,-0.9079369902610779
1757088354428164900,8.364164794921875,-9.7407865524292,-0.6799889802932739,-0.9083330035209656
1757088354437717800,8.3737177734375,-9.74075698852539,-0.6800280213356018,-0.9086229801177979
1757088354447270700,8.383270751953125,-9.740738868713379,-0.6800780296325684,-0.9087700247764587
1757088354456823600,8.392823486328124,-9.740731239318848,-0.6802759766578674,-0.9086959958076477
1757088354466376400,8.40237646484375,-9.740754127502441,-0.680528998374939,-0.9082580208778381
1757088354475929300,8.411929443359375,-9.740817070007324,-0.6807960271835327,-0.9073669910430908
1757088354485482200,8.421482177734376,-9.740925788879395,-0.6810330152511597,-0.9060230255126953
1757088354495035100,8.43103515625,-9.741082191467285,-0.6811910271644592,-0.9042029976844788
1757088354504588000,8.440588134765624,-9.741255760192871,-0.6813039779663086,-0.9022240042686462
1757088354523693800,8.45969384765625,-9.741647720336914,-0.6810470223426819,-0.8981469869613647
1757088354533247000,8.4692470703125,-9.7418794631958,-0.6805930137634277,-0.8959529995918274
1757088354542800000,8.4787998046875,-9.742121696472168,-0.6800959706306458,-0.8936579823493958
1757088354552352800,8.488352783203124,-9.7423734664917,-0.6794700026512146,-0.8913789987564087
1757088354561905700,8.49790576171875,-9.742631912231445,-0.6787760257720947,-0.8890429735183716
1757088354571458600,8.50745849609375,-9.742898941040039,-0.6780059933662415,-0.8866980075836182
1757088354581011500,8.517011474609374,-9.743173599243164,-0.6772189736366272,-0.8842800259590149
1757088354590564400,8.526564453125,-9.743440628051758,-0.6763629913330078,-0.8820070028305054
1757088354600117200,8.5361171875,-9.743721008300781,-0.675508975982666,-0.8795750141143799
1757088354609670000,8.545669921875,-9.74400806427002,-0.6746789813041687,-0.87705397605896
1757088354619222800,8.555222900390625,-9.744284629821777,-0.6739559769630432,-0.8745570182800293
1757088354628775700,8.564775634765626,-9.744536399841309,-0.6733310222625732,-0.8722630143165588
1757088354638328600,8.57432861328125,-9.744752883911133,-0.6728190183639526,-0.870261013507843
1757088354647881500,8.583881591796874,-9.74494743347168,-0.6724050045013428,-0.8684269785881042
1757088354657434600,8.5934345703125,-9.74510383605957,-0.6721559762954712,-0.8668850064277649
1757088354666987500,8.602987548828125,-9.745214462280273,-0.6720209717750549,-0.8657630085945129
1757088354676540400,8.61254052734375,-9.745278358459473,-0.6719080209732056,-0.8651419878005981
1757088354686093300,8.62209326171875,-9.74528980255127,-0.6719539761543274,-0.8649790287017822
1757088354695646200,8.631646240234375,-9.745267868041992,-0.6720359921455383,-0.8651540279388428
1757088354705199000,8.64119921875,-9.745210647583008,-0.672182023525238,-0.8656799793243408
1757088354714752000,8.650751953125,-9.74513053894043,-0.6724609732627869,-0.8663340210914612
1757088354733857500,8.669857421875,-9.744873046875,-0.673192024230957,-0.8686439990997314
1757088354743410700,8.67941064453125,-9.74471664428711,-0.6736220121383667,-0.8700559735298157
1757088354752963300,8.68896337890625,-9.744549751281738,-0.6740469932556152,-0.8715839982032776
1757088354762516500,8.6985166015625,-9.744373321533203,-0.6744809746742249,-0.8732110261917114
1757088354772069000,8.708069091796874,-9.744190216064453,-0.6749280095100403,-0.8749020099639893
1757088354781622300,8.717622314453125,-9.744023323059082,-0.6753749847412109,-0.8764129877090454
1757088354791175200,8.727175048828125,-9.743846893310547,-0.6758630275726318,-0.8779919743537903
1757088354800728000,8.73672802734375,-9.743672370910645,-0.6763150095939636,-0.8795809745788574
1757088354810281200,8.74628125,-9.74350357055664,-0.6767119765281677,-0.8811659812927246
1757088354819833900,8.755833740234374,-9.743346214294434,-0.6770420074462891,-0.882652997970581
1757088354829386800,8.76538671875,-9.743207931518555,-0.6773040294647217,-0.8839920163154602
1757088354838939600,8.774939697265625,-9.743073463439941,-0.6774939894676208,-0.8853650093078613
1757088354848492500,8.784492431640626,-9.742937088012695,-0.6775389909744263,-0.8868240118026733
1757088354858045400,8.79404541015625,-9.742799758911133,-0.6775509715080261,-0.8883309960365295
1757088354867598300,8.803598388671874,-9.742650032043457,-0.6776319742202759,-0.8899170160293579
1757088354877151200,8.813151123046875,-9.74249267578125,-0.6776260137557983,-0.8916299939155579
1757088354886704000,8.8227041015625,-9.742332458496094,-0.6773729920387268,-0.8935559988021851
1757088354896257000,8.832257080078126,-9.742169380187988,-0.6766560077667236,-0.8958359956741333
1757088354905810200,8.84181005859375,-9.742009162902832,-0.6750540137290955,-0.898701012134552
1757088354915363000,8.851363037109374,-9.741900444030762,-0.6720550060272217,-0.9019709825515747
1757088354924915700,8.860915771484375,-9.741846084594727,-0.667639970779419,-0.9055619835853577
1757088354934468600,8.870468505859375,-9.741874694824219,-0.6620889902114868,-0.9090210199356079
1757088354944021500,8.880021484375,-9.741966247558594,-0.6560540199279785,-0.912093997001648
1757088354953574400,8.889574462890625,-9.7421236038208,-0.6503139734268188,-0.9143170118331909
1757088354963127300,8.899127197265624,-9.742334365844727,-0.645313024520874,-0.9155319929122925
1757088354972680200,8.90868017578125,-9.742576599121094,-0.6411679983139038,-0.9158419966697693
1757088354982233300,8.9182333984375,-9.742853164672852,-0.6372179985046387,-0.9156510233879089
1757088354991786000,8.927785888671876,-9.743160247802734,-0.6328979730606079,-0.915378987789154
1757088355001339000,8.9373388671875,-9.743511199951172,-0.6279159784317017,-0.9150519967079163
1757088355010892000,8.94689208984375,-9.743894577026367,-0.6224449872970581,-0.914683997631073
1757088355020445000,8.95644482421875,-9.74431037902832,-0.6166260242462158,-0.9141640067100525
1757088355029997800,8.965997802734375,-9.744759559631348,-0.6105430126190186,-0.913453996181488
1757088355039550700,8.97555078125,-9.745244979858398,-0.6042670011520386,-0.9124540090560913
1757088355049103600,8.985103515625,-9.74576187133789,-0.5977990031242371,-0.9112160205841064
1757088355058656500,8.994656494140624,-9.746308326721191,-0.5912820100784302,-0.9097009897232056
1757088355068209400,9.00420947265625,-9.746874809265137,-0.584867000579834,-0.9079059958457947
1757088355077762000,9.013761962890625,-9.747438430786133,-0.5789129734039307,-0.9058390259742737
1757088355087315000,9.02331494140625,-9.748005867004395,-0.5735489726066589,-0.9033460021018982
1757088355096868000,9.0328681640625,-9.748562812805176,-0.5691279768943787,-0.900305986404419
1757088355106421000,9.0424208984375,-9.749058723449707,-0.5661240220069885,-0.8969640135765076
1757088355115974000,9.051973876953125,-9.749497413635254,-0.5645250082015991,-0.8933389782905579
1757088355125527000,9.061527099609375,-9.749846458435059,-0.564087986946106,-0.889922022819519
1757088355135079700,9.07107958984375,-9.750129699707031,-0.5640860199928284,-0.886929988861084
1757088355144632600,9.080632568359375,-9.750349998474121,-0.5637660026550293,-0.8847799897193909
1757088355154185500,9.090185546875,-9.750511169433594,-0.5627009868621826,-0.8837209939956665
1757088355163738400,9.09973828125,-9.750631332397461,-0.5608289837837219,-0.8836119771003723
1757088355173291500,9.10929150390625,-9.750706672668457,-0.5587509870529175,-0.8841450214385986
1757088355182844200,9.11884423828125,-9.750720977783203,-0.5570859909057617,-0.8850569725036621
1757088355192397300,9.128397216796875,-9.750658988952637,-0.5561100244522095,-0.8863540291786194
1757088355201950200,9.1379501953125,-9.75052547454834,-0.5557659864425659,-0.8880360126495361
1757088355211503000,9.147503173828126,-9.750314712524414,-0.5559139847755432,-0.8902040123939514
1757088355221055700,9.1570556640625,-9.750036239624023,-0.5564579963684082,-0.892877995967865
1757088355230608600,9.166608642578124,-9.74969482421875,-0.5573049783706665,-0.8960379958152771
1757088355240161500,9.17616162109375,-9.749300956726074,-0.5583999752998352,-0.8995869755744934
1757088355249714400,9.18571435546875,-9.748861312866211,-0.5595790147781372,-0.9035559892654419
1757088355259267300,9.195267333984376,-9.74838924407959,-0.5607230067253113,-0.9078890085220337
1757088355268820500,9.204820556640625,-9.747904777526855,-0.5616300106048584,-0.9124580025672913
1757088355278373400,9.214373291015624,-9.747406959533691,-0.5623859763145447,-0.917227029800415
1757088355287926300,9.22392626953125,-9.74690055847168,-0.5630450248718262,-0.9221370220184326
1757088355297479200,9.233479248046875,-9.746383666992188,-0.5636759996414185,-0.9271360039710999
1757088355307032000,9.243031982421876,-9.745868682861328,-0.5641819834709167,-0.9321749806404114
1757088355316585000,9.2525849609375,-9.745354652404785,-0.5645610094070435,-0.9372770190238953
1757088355326137900,9.262137939453124,-9.744831085205078,-0.5649399757385254,-0.942458987236023
1757088355335690800,9.271690673828125,-9.744306564331055,-0.5653190016746521,-0.947629988193512
1757088355345243600,9.28124365234375,-9.743792533874512,-0.565650999546051,-0.9527379870414734
1757088355354796500,9.290796630859376,-9.743290901184082,-0.5658969879150391,-0.957738995552063
1757088355364349400,9.300349365234375,-9.742813110351562,-0.5660250186920166,-0.9625710248947144
1757088355373902300,9.30990234375,-9.7423677444458,-0.566070020198822,-0.9671210050582886
1757088355383455200,9.319455322265625,-9.741965293884277,-0.5660629868507385,-0.9712460041046143
1757088355393008000,9.329008056640625,-9.74162769317627,-0.5659260153770447,-0.9747899770736694
1757088355402561000,9.33856103515625,-9.741353988647461,-0.5657079815864563,-0.9777079820632935
1757088355412114000,9.348114013671875,-9.7411527633667,-0.5653759837150574,-0.9799709916114807
1757088355421666800,9.357666748046874,-9.741022109985352,-0.5650140047073364,-0.9815400242805481
1757088355431219700,9.3672197265625,-9.740958213806152,-0.5647209882736206,-0.9823639988899231
1757088355440772600,9.376772705078125,-9.740973472595215,-0.5645279884338379,-0.9823129773139954
1757088355450325500,9.386325439453126,-9.741076469421387,-0.5643979907035828,-0.9813439846038818
1757088355459878400,9.39587841796875,-9.741252899169922,-0.5643810033798218,-0.9795290231704712
1757088355469431300,9.405431396484374,-9.741510391235352,-0.5644109845161438,-0.9768800139427185
1757088355478984200,9.414984130859375,-9.741823196411133,-0.5645310282707214,-0.9735829830169678
1757088355488537000,9.424537109375,-9.742181777954102,-0.5648000240325928,-0.9697250127792358
1757088355498090000,9.434090087890626,-9.74257755279541,-0.5652379989624023,-0.9653880000114441
1757088355507643000,9.443642822265625,-9.743003845214844,-0.5658299922943115,-0.9606490135192871
1757088355517195800,9.45319580078125,-9.743459701538086,-0.5664880275726318,-0.9555529952049255
1757088355526749000,9.4627490234375,-9.743932723999023,-0.5671740174293518,-0.9502549767494202
1757088355536301800,9.4723017578125,-9.744416236877441,-0.5679200291633606,-0.9448069930076599
1757088355545854500,9.4818544921875,-9.744897842407227,-0.5687509775161743,-0.9393200278282166
1757088355555407600,9.49140771484375,-9.74537181854248,-0.5697029829025269,-0.9338369965553284
1757088355564960300,9.500960205078124,-9.745824813842773,-0.5707470178604126,-0.9285269975662231
1757088355574513200,9.51051318359375,-9.746241569519043,-0.5718560218811035,-0.9235190153121948
1757088355584066000,9.520066162109375,-9.74661636352539,-0.5729380249977112,-0.9189919829368591
1757088355593619000,9.529618896484376,-9.746943473815918,-0.5738739967346191,-0.9150450229644775
1757088355603171800,9.539171875,-9.747212409973145,-0.5747810006141663,-0.9117079973220825
1757088355612724700,9.548724853515624,-9.747424125671387,-0.5755969882011414,-0.9090219736099243
1757088355622278000,9.55827783203125,-9.747580528259277,-0.5762420296669006,-0.9070019721984863
1757088355631830800,9.567830810546875,-9.74768352508545,-0.5767289996147156,-0.9056400060653687
1757088355641383700,9.5773837890625,-9.747735977172852,-0.5770710110664368,-0.9049000144004822
1757088355650936600,9.5869365234375,-9.747730255126953,-0.5773249864578247,-0.9047970175743103
1757088355660489500,9.596489501953124,-9.747665405273438,-0.5775290131568909,-0.9053509831428528
1757088355670042000,9.6060419921875,-9.747552871704102,-0.5776270031929016,-0.9064710140228271
1757088355679595000,9.615594970703125,-9.747404098510742,-0.5775079727172852,-0.9081159830093384
1757088355689148000,9.62514794921875,-9.747215270996094,-0.5772129893302917,-0.9102849960327148
1757088355698701000,9.634701171875,-9.747005462646484,-0.5767009854316711,-0.9128320217132568
1757088355708253700,9.644253662109374,-9.746771812438965,-0.5760120153427124,-0.915723979473114
1757088355717806800,9.653806884765626,-9.746522903442383,-0.5751420259475708,-0.9188830256462097
1757088355727359700,9.66335986328125,-9.746268272399902,-0.5740829706192017,-0.9222279787063599
1757088355736912600,9.67291259765625,-9.746007919311523,-0.5729140043258667,-0.9256910085678101
1757088355746465500,9.682465576171875,-9.745743751525879,-0.5716890096664429,-0.9292479753494263
1757088355756018400,9.692018310546874,-9.7454833984375,-0.570339024066925,-0.932811975479126
1757088355765571300,9.7015712890625,-9.745237350463867,-0.5688729882240295,-0.9363020062446594
1757088355775124200,9.711124267578125,-9.74500846862793,-0.5673689842224121,-0.9396119713783264
1757088355784676900,9.7206767578125,-9.744803428649902,-0.5659340023994446,-0.9426239728927612
1757088355794230000,9.73022998046875,-9.744630813598633,-0.5645290017127991,-0.9452700018882751
1757088355803783200,9.739783203125,-9.74449634552002,-0.5631939768791199,-0.9474740028381348
1757088355813335800,9.749335693359376,-9.744401931762695,-0.5618919730186462,-0.9492369890213013
1757088355822888700,9.758888671875,-9.744344711303711,-0.5606060028076172,-0.9506049752235413
1757088355832441600,9.768441650390624,-9.744312286376953,-0.559382975101471,-0.9516770243644714
1757088355841994500,9.777994384765625,-9.744301795959473,-0.558210015296936,-0.9524930119514465
1757088355851547400,9.78754736328125,-9.744314193725586,-0.5571349859237671,-0.9530090093612671
1757088355861100300,9.797100341796876,-9.744348526000977,-0.5561890006065369,-0.9532250165939331
1757088355870653200,9.806653076171875,-9.744403839111328,-0.5554800033569336,-0.9530649781227112
1757088355880206000,9.8162060546875,-9.744487762451172,-0.5550010204315186,-0.9524850249290466
1757088355889759200,9.82575927734375,-9.74459171295166,-0.5546990036964417,-0.9515979886054993
1757088355899311900,9.835311767578125,-9.744710922241211,-0.5545799732208252,-0.950423002243042
1757088355908865000,9.844864990234376,-9.744832992553711,-0.5547249913215637,-0.9490759968757629
1757088355918418000,9.85441796875,-9.744954109191895,-0.5550959706306458,-0.9476029872894287
1757088355927970600,9.863970458984374,-9.745080947875977,-0.5555430054664612,-0.9460240006446838
1757088355937523700,9.873523681640625,-9.745218276977539,-0.5560169816017151,-0.9443190097808838
1757088355947076400,9.883076416015625,-9.74537181854248,-0.5565379858016968,-0.9424129724502563
1757088355956629200,9.892629150390626,-9.745542526245117,-0.5571280121803284,-0.9402819871902466
1757088355966182100,9.90218212890625,-9.74574089050293,-0.5577539801597595,-0.9378610253334045
1757088355975735300,9.9117353515625,-9.745981216430664,-0.5583969950675964,-0.9349769949913025
1757088355985288000,9.921287841796875,-9.746223449707031,-0.5591869950294495,-0.9319599866867065
1757088355994840800,9.9308408203125,-9.746438980102539,-0.5599979758262634,-0.9292230010032654
1757088356004393700,9.940393798828126,-9.746624946594238,-0.5607590079307556,-0.9268320202827454
1757088356013946600,9.949946533203125,-9.746790885925293,-0.5614020228385925,-0.9246960282325745
1757088356023499500,9.95949951171875,-9.746949195861816,-0.5618659853935242,-0.922760009765625
1757088356033052700,9.969052734375,-9.747108459472656,-0.5621449947357178,-0.9209359884262085
1757088356042605600,9.97860546875,-9.747262954711914,-0.5621770024299622,-0.919281005859375
1757088356052158500,9.988158447265626,-9.747411727905273,-0.5619710087776184,-0.9178419709205627
1757088356061711400,9.99771142578125,-9.747542381286621,-0.5615490078926086,-0.9167060256004333
1757088356071264000,10.007263916015624,-9.747635841369629,-0.5610499978065491,-0.9160370230674744
1757088356080817200,10.016817138671875,-9.747679710388184,-0.5606319904327393,-0.9158250093460083
1757088356090369800,10.026369873046875,-9.747690200805664,-0.5601279735565186,-0.9160209894180298
1757088356099922700,10.035922607421876,-9.747697830200195,-0.5593580007553101,-0.9164130091667175
1757088356109475600,10.0454755859375,-9.747696876525879,-0.5583980083465576,-0.9170020222663879
1757088356119028700,10.05502880859375,-9.7476806640625,-0.5573530197143555,-0.9177910089492798
1757088356128581600,10.06458154296875,-9.747639656066895,-0.5562949776649475,-0.9188380241394043
1757088356138134500,10.074134521484375,-9.747557640075684,-0.5553320050239563,-0.9202479720115662
1757088356147687400,10.0836875,-9.747431755065918,-0.5544880032539368,-0.9220579862594604
1757088356157240300,10.093240234375,-9.747247695922852,-0.553862988948822,-0.9243540167808533
1757088356166793200,10.102793212890624,-9.746988296508789,-0.5534499883651733,-0.9273030161857605
1757088356176346000,10.11234619140625,-9.746707916259766,-0.5529950261116028,-0.9305059909820557
1757088356185899000,10.12189892578125,-9.746434211730957,-0.552515983581543,-0.9336479902267456
1757088356195452000,10.131451904296876,-9.746156692504883,-0.5520719885826111,-0.9367949962615967
1757088356205004500,10.141004638671875,-9.745862007141113,-0.5516359806060791,-0.9401159882545471
1757088356214557700,10.1505576171875,-9.745550155639648,-0.551256000995636,-0.9435549974441528
1757088356224110600,10.160110595703125,-9.745223999023438,-0.5510159730911255,-0.9470509886741638
1757088356233663500,10.16966357421875,-9.744915008544922,-0.5508630275726318,-0.950344979763031
1757088356243216400,10.17921630859375,-9.744595527648926,-0.5508750081062317,-0.9536269903182983
1757088356252769300,10.188769287109375,-9.744264602661133,-0.55110102891922,-0.9569010138511658
1757088356262322200,10.198322265625,-9.74389934539795,-0.5516200065612793,-0.9603130221366882
1757088356271875000,10.207875,-9.7434720993042,-0.5523809790611267,-0.9641749858856201
1757088356281428000,10.217427978515625,-9.743012428283691,-0.5535150170326233,-0.9681249856948853
1757088356290980900,10.22698095703125,-9.742546081542969,-0.5551750063896179,-0.9718279838562012
1757088356310086700,10.246086669921874,-9.741777420043945,-0.5599719882011414,-0.976747989654541
1757088356319639800,10.255639892578126,-9.74152660369873,-0.5633950233459473,-0.9772319793701172
1757088356329192700,10.265192626953125,-9.74135684967041,-0.5675569772720337,-0.97639000415802
1757088356338745300,10.274745361328126,-9.741376876831055,-0.572426974773407,-0.9730250239372253
1757088356348298200,10.28429833984375,-9.741576194763184,-0.5779569745063782,-0.9671480059623718
1757088356357851100,10.29385107421875,-9.741937637329102,-0.584306001663208,-0.9586989879608154
1757088356367404000,10.303404052734376,-9.742436408996582,-0.5916990041732788,-0.9475420117378235
1757088356376957000,10.31295703125,-9.743063926696777,-0.6002749800682068,-0.9334700107574463
1757088356386509800,10.322509765625,-9.743794441223145,-0.6099179983139038,-0.916795015335083
1757088356396062700,10.332062744140625,-9.744565963745117,-0.6201369762420654,-0.8989580273628235
1757088356405615600,10.34161572265625,-9.745397567749023,-0.63018399477005,-0.8804630041122437
1757088356415168500,10.35116845703125,-9.746305465698242,-0.6397969722747803,-0.8612949848175049
1757088356424721400,10.360721435546875,-9.747308731079102,-0.6486170291900635,-0.8414649963378906
1757088356434274300,10.3702744140625,-9.748485565185547,-0.6563959717750549,-0.8200129866600037
1757088356443827200,10.3798271484375,-9.74983024597168,-0.663457989692688,-0.7964900135993958
1757088356453380000,10.389380126953125,-9.75130558013916,-0.6701629757881165,-0.7712110280990601
1757088356462933000,10.39893310546875,-9.752897262573242,-0.6767359972000122,-0.7444970011711121
1757088356472486000,10.40848583984375,-9.754537582397461,-0.6833230257034302,-0.7170569896697998
1757088356482038800,10.418038818359374,-9.756213188171387,-0.6896539926528931,-0.6890680193901062
1757088356491591700,10.427591796875,-9.757905960083008,-0.6951599717140198,-0.6613889932632446
1757088356501144600,10.43714453125,-9.759604454040527,-0.6990770101547241,-0.634473979473114
1757088356510697500,10.446697509765626,-9.761359214782715,-0.7011010050773621,-0.6076319813728333
1757088356520250400,10.45625048828125,-9.763126373291016,-0.7020949721336365,-0.5807080268859863
1757088356529803300,10.46580322265625,-9.764718055725098,-0.7027829885482788,-0.5555869936943054
1757088356539356200,10.475356201171875,-9.766114234924316,-0.7034440040588379,-0.5325850248336792
1757088356548909000,10.484908935546875,-9.76730728149414,-0.7041580080986023,-0.5119439959526062
1757088356558462200,10.494462158203126,-9.768278121948242,-0.7045999765396118,-0.4947749972343445
1757088356568015000,10.50401513671875,-9.769041061401367,-0.7043989896774292,-0.4815579950809479
1757088356577567700,10.513567626953124,-9.769725799560547,-0.7033129930496216,-0.4703260064125061
1757088356587120600,10.52312060546875,-9.77045726776123,-0.70175701379776,-0.4583120048046112
1757088356596673500,10.532673583984375,-9.771219253540039,-0.7002440094947815,-0.4450010061264038
1757088356606226400,10.542226318359376,-9.771970748901367,-0.6986899971961975,-0.43151700496673584
1757088356615779300,10.551779296875,-9.772662162780762,-0.6975020170211792,-0.4183410108089447
1757088356625332200,10.561332275390624,-9.773222923278809,-0.6969010233879089,-0.40661299228668213
1757088356634885000,10.570885009765625,-9.77351188659668,-0.6977429986000061,-0.3986710011959076
1757088356644438000,10.58043798828125,-9.77364444732666,-0.6990129947662354,-0.3936139941215515
1757088356653991000,10.589990966796876,-9.773786544799805,-0.6995059847831726,-0.3895829916000366
1757088356663544000,10.5995439453125,-9.7739896774292,-0.6993209719657898,-0.3851490020751953
1757088356673097000,10.609096923828124,-9.774209022521973,-0.6989459991455078,-0.38050898909568787
1757088356682649900,10.61864990234375,-9.77468490600586,-0.6966919898986816,-0.37180501222610474
1757088356692202800,10.62820263671875,-9.775422096252441,-0.6925190091133118,-0.35509899258613586
1757088356701755400,10.63775537109375,-9.776095390319824,-0.6888769865036011,-0.33258599042892456
1757088356711308300,10.647308349609375,-9.776580810546875,-0.6866580247879028,-0.3055739998817444
1757088356720861200,10.656861083984374,-9.776973724365234,-0.6843739748001099,-0.2749069929122925
1757088356730414000,10.6664140625,-9.777377128601074,-0.6808670163154602,-0.24187399446964264
1757088356739967200,10.67596728515625,-9.777826309204102,-0.6756439805030823,-0.20662300288677216
1757088356749520000,10.685519775390626,-9.7783203125,-0.6685709953308105,-0.16753099858760834
1757088356759073000,10.695072998046875,-9.77889347076416,-0.663254976272583,-0.13107800483703613
1757088356768626000,10.7046259765625,-9.779282569885254,-0.6636670231819153,-0.10664399713277817
1757088356778178800,10.7141787109375,-9.779436111450195,-0.6662499904632568,-0.09124799817800522
1757088356787731700,10.723731689453125,-9.779332160949707,-0.6708369851112366,-0.08064600080251694
1757088356797284600,10.73328466796875,-9.779243469238281,-0.6749510169029236,-0.07083400338888168
1757088356806837500,10.74283740234375,-9.77942180633545,-0.6757869720458984,-0.05886299908161163
1757088356816390100,10.75239013671875,-9.779894828796387,-0.6725130081176758,-0.04424099996685982
1757088356825943000,10.761943115234375,-9.780671119689941,-0.6654649972915649,-0.02511500008404255
1757088356835496200,10.77149609375,-9.781536102294922,-0.6578279733657837,-0.0024270000867545605
1757088356845049000,10.781049072265626,-9.782320022583008,-0.651606023311615,0.020999999716877937
1757088356854601700,10.790601806640625,-9.782930374145508,-0.6477190256118774,0.04296699911355972
1757088356864155000,10.80015478515625,-9.783348083496094,-0.646327018737793,0.06365100294351578
1757088356873707800,10.809707763671875,-9.783403396606445,-0.6482210159301758,0.07974600046873093
1757088356883260700,10.8192607421875,-9.783149719238281,-0.652351975440979,0.08847600221633911
1757088356892813600,10.8288134765625,-9.782929420471191,-0.6554269790649414,0.0924379974603653
1757088356902366500,10.838366455078125,-9.782928466796875,-0.6554690003395081,0.09233199805021286
1757088356911919400,10.84791943359375,-9.783159255981445,-0.6526790261268616,0.08914200216531754
1757088356921472300,10.85747216796875,-9.783529281616211,-0.6479759812355042,0.08487799763679504
1757088356931025000,10.86702490234375,-9.783975601196289,-0.6422979831695557,0.08001799881458282
1757088356940578000,10.876578125,-9.784499168395996,-0.6363720297813416,0.07340800017118454
1757088356950131000,10.886130859375,-9.785072326660156,-0.6277199983596802,0.06961199641227722
1757088356959683800,10.895683837890624,-9.785896301269531,-0.6127889752388,0.07482299953699112
1757088356969236500,10.905236572265625,-9.786971092224121,-0.5948870182037354,0.08406300097703934
1757088356978789600,10.91478955078125,-9.788166999816895,-0.5764570236206055,0.09643500298261642
1757088356988342500,10.924342529296876,-9.789254188537598,-0.5596089959144592,0.10884000360965729
1757088356997895400,10.9338955078125,-9.789999008178711,-0.5469740033149719,0.11868300288915634
1757088357007448300,10.9434482421875,-9.790353775024414,-0.539995014667511,0.12642300128936768
1757088357017001200,10.953001220703126,-9.790435791015625,-0.5375649929046631,0.13232600688934326
1757088357026553900,10.962553955078125,-9.79045295715332,-0.5364220142364502,0.13650499284267426
1757088357036107000,10.97210693359375,-9.790515899658203,-0.5344769954681396,0.14050500094890594
1757088357045659600,10.98165966796875,-9.790651321411133,-0.5312740206718445,0.14544400572776794
1757088357055212500,10.991212646484374,-9.790903091430664,-0.5261840224266052,0.15154600143432617
1757088357064765400,11.000765380859375,-9.791149139404297,-0.5214849710464478,0.15735599398612976
1757088357074318300,11.010318359375,-9.791316032409668,-0.5182939767837524,0.1612350046634674
1757088357083871500,11.01987158203125,-9.791318893432617,-0.5179359912872314,0.16279900074005127
1757088357093424000,11.029424072265625,-9.791157722473145,-0.5205209851264954,0.16242200136184692
1757088357102977300,11.038977294921875,-9.790857315063477,-0.525842010974884,0.16028699278831482
1757088357112530200,11.0485302734375,-9.790383338928223,-0.5346450209617615,0.15627899765968323
1757088357122083000,11.0580830078125,-9.789825439453125,-0.5457109808921814,0.14981700479984283
1757088357131636000,11.067635986328124,-9.789454460144043,-0.5552129745483398,0.1384260058403015
1757088357141188600,11.077188720703125,-9.789158821105957,-0.5631899833679199,0.1241220012307167
1757088357150741800,11.08674169921875,-9.78884506225586,-0.5697469711303711,0.10729999840259552
1757088357160294400,11.09629443359375,-9.78849983215332,-0.5742120146751404,0.08882500231266022
1757088357169847300,11.105847412109375,-9.788179397583008,-0.5761039853096008,0.06681499630212784
1757088357179400200,11.115400146484374,-9.787785530090332,-0.5778520107269287,0.042580001056194305
1757088357188953300,11.124953369140625,-9.787307739257812,-0.5805619955062866,0.017301000654697418
1757088357198506000,11.134506103515625,-9.786848068237305,-0.5836189985275269,-0.007658999878913164
1757088357208059100,11.14405908203125,-9.786474227905273,-0.5860109925270081,-0.03216499835252762
1757088357217612000,11.153612060546875,-9.786148071289062,-0.5879619717597961,-0.05629200115799904
1757088357227165000,11.1631650390625,-9.785900115966797,-0.5903840065002441,-0.07719700038433075
1757088357236717800,11.1727177734375,-9.785776138305664,-0.5928170084953308,-0.09224499762058258
1757088357246270500,11.1822705078125,-9.785654067993164,-0.596098005771637,-0.10199099779129028
1757088357255823400,11.1918232421875,-9.785506248474121,-0.5991430282592773,-0.10561300069093704
1757088357265376500,11.20137646484375,-9.785231590270996,-0.6022610068321228,-0.10190799832344055
1757088357274929200,11.21092919921875,-9.784796714782715,-0.6050959825515747,-0.09207800030708313
1757088357284482300,11.220482421875,-9.784002304077148,-0.6098620295524597,-0.07680100202560425
1757088357294035200,11.23003515625,-9.782191276550293,-0.6225810050964355,-0.05460900068283081
1757088357303588000,11.239588134765626,-9.7800874710083,-0.6364349722862244,-0.0295609999448061
1757088357313141000,11.24914111328125,-9.777593612670898,-0.6516690254211426,-0.0003459999861661345
1757088357322694000,11.25869384765625,-9.774535179138184,-0.6709669828414917,0.035530999302864075
1757088357332246800,11.268246826171875,-9.770628929138184,-0.6982150077819824,0.07602100074291229
1757088357341799700,11.277799560546875,-9.766348838806152,-0.7298809885978699,0.12166000157594681
1757088357351352600,11.2873525390625,-9.762118339538574,-0.7630540132522583,0.17307600378990173
1757088357360905500,11.296905517578125,-9.757768630981445,-0.7947700023651123,0.2335049957036972
1757088357370458000,11.3064580078125,-9.752671241760254,-0.8262019753456116,0.30436599254608154
1757088357380011300,11.31601123046875,-9.746574401855469,-0.8586530089378357,0.3832310140132904
1757088357389564200,11.325564208984375,-9.739322662353516,-0.8930799961090088,0.467070996761322
1757088357399117000,11.335116943359376,-9.731270790100098,-0.9281629920005798,0.5538880228996277
1757088357408670000,11.344669921875,-9.722885131835938,-0.9606519937515259,0.6440820097923279
1757088357418222800,11.354222900390624,-9.71395206451416,-0.9897559881210327,0.7360720038414001
1757088357427775700,11.363775634765625,-9.70386028289795,-1.0163249969482422,0.8294829726219177
1757088357437328600,11.37332861328125,-9.691762924194336,-1.041234016418457,0.9276959896087646
1757088357446881500,11.382881591796876,-9.676606178283691,-1.0663820505142212,1.0341440439224243
1757088357456434400,11.392434326171875,-9.657293319702148,-1.0922189950942993,1.150473952293396
1757088357465987300,11.4019873046875,-9.635805130004883,-1.1182290315628052,1.2689969539642334
1757088357475540200,11.411540283203125,-9.611834526062012,-1.141752004623413,1.3918509483337402
1757088357485092900,11.4210927734375,-9.584745407104492,-1.1668460369110107,1.516983985900879
1757088357494645800,11.430645751953126,-9.554582595825195,-1.1991980075836182,1.645169973373413
1757088357504198700,11.44019873046875,-9.521906852722168,-1.2328499555587769,1.7765849828720093
1757088357513751600,11.44975146484375,-9.486635208129883,-1.2698099613189697,1.9105969667434692
1757088357523304400,11.459304443359375,-9.44947338104248,-1.3048690557479858,2.04850697517395
1757088357532857300,11.468857421875,-9.410526275634766,-1.3432650566101074,2.1884779930114746
1757088357542410500,11.478410400390626,-9.371011734008789,-1.3885680437088013,2.3256421089172363
1757088357551963400,11.48796337890625,-9.328654289245605,-1.4433660507202148,2.4606189727783203
1757088357561516300,11.497516357421874,-9.283880233764648,-1.5059280395507812,2.590259075164795
1757088357571069200,11.507069091796875,-9.24182415008545,-1.5659719705581665,2.7089428901672363
1757088357580621800,11.516621826171875,-9.200764656066895,-1.6276559829711914,2.818726062774658
1757088357590174700,11.5261748046875,-9.15986156463623,-1.6951639652252197,2.920430898666382
1757088357599727600,11.5357275390625,-9.115045547485352,-1.7731239795684814,3.022212028503418
1757088357609280800,11.54528076171875,-9.066271781921387,-1.8605530261993408,3.124232053756714
1757088357618833400,11.55483349609375,-9.009641647338867,-1.9663690328598022,3.2255160808563232
1757088357628386600,11.564386474609375,-8.947145462036133,-2.0822019577026367,3.3247320652008057
1757088357637939200,11.573939208984376,-8.877649307250977,-2.2065670490264893,3.4221949577331543
1757088357647492400,11.583492431640625,-8.800142288208008,-2.3404409885406494,3.5165300369262695
1757088357657045200,11.593045166015624,-8.711973190307617,-2.483609914779663,3.615860939025879
1757088357666598100,11.60259814453125,-8.614108085632324,-2.636920928955078,3.7160398960113525
1757088357676150800,11.61215087890625,-8.512779235839844,-2.795867919921875,3.8049299716949463
1757088357685703700,11.62170361328125,-8.41318416595459,-2.956346035003662,3.8799679279327393
1757088357695256600,11.631256591796875,-8.310256004333496,-3.1262800693511963,3.944416046142578
1757088357704809500,11.6408095703125,-8.195385932922363,-3.306391954421997,4.008724212646484
1757088357714362400,11.6503623046875,-8.069138526916504,-3.4941930770874023,4.074135780334473
1757088357723915500,11.65991552734375,-7.92856502532959,-3.6870479583740234,4.1456379890441895
1757088357733468400,11.669468505859374,-7.771457195281982,-3.88407301902771,4.227715015411377
1757088357743021000,11.67902099609375,-7.599402904510498,-4.082799911499023,4.315666198730469
1757088357752574200,11.68857421875,-7.411876201629639,-4.281061172485352,4.410062789916992
1757088357762127000,11.698127197265626,-7.204651832580566,-4.486396789550781,4.5160298347473145
1757088357771680000,11.707679931640625,-6.977031230926514,-4.692905902862549,4.633828163146973
1757088357781232600,11.717232666015626,-6.729380130767822,-4.897233009338379,4.763649940490723
1757088357790785500,11.72678564453125,-6.466104984283447,-5.096498966217041,4.897421836853027
1757088357800338400,11.73633837890625,-6.188031196594238,-5.2909111976623535,5.033820152282715
1757088357809891300,11.745891357421876,-5.9010090827941895,-5.468935966491699,5.1712541580200195
1757088357819444200,11.7554443359375,-5.604388236999512,-5.636244773864746,5.307713031768799
1757088357828997400,11.764997314453124,-5.299643039703369,-5.791689872741699,5.440218925476074
1757088357838550000,11.774550048828125,-4.988318920135498,-5.933599948883057,5.56694221496582
1757088357848103000,11.78410302734375,-4.679574012756348,-6.0602641105651855,5.68747615814209
1757088357857656000,11.793656005859376,-4.369201183319092,-6.172543048858643,5.803647041320801
1757088357867209000,11.803208984375,-4.04612922668457,-6.267506122589111,5.926816940307617
1757088357876761600,11.81276171875,-3.706249952316284,-6.349800109863281,6.061123847961426
1757088357886314800,11.822314697265625,-3.3563480377197266,-6.417840003967285,6.201179027557373
1757088357895867400,11.831867431640624,-3.0099399089813232,-6.465290069580078,6.34065580368042
1757088357905420500,11.841420654296876,-2.6636478900909424,-6.498777866363525,6.475561141967773
1757088357914973200,11.85097314453125,-2.3226490020751953,-6.517148017883301,6.6047749519348145
1757088357924526000,11.860526123046874,-1.9897910356521606,-6.519590854644775,6.729499816894531
1757088357934079000,11.870078857421875,-1.6666020154953003,-6.506010055541992,6.849780082702637
1757088357943632000,11.8796318359375,-1.353369951248169,-6.476470947265625,6.965738773345947
1757088357953184800,11.889184814453126,-1.0495820045471191,-6.430726051330566,7.079168796539307
1757088357962737700,11.898737548828125,-0.7591739892959595,-6.368454933166504,7.189417839050293
1757088357972290800,11.908290771484374,-0.484591007232666,-6.289362907409668,7.29795503616333
1757088357981843700,11.91784375,-0.22708599269390106,-6.194273948669434,7.405442237854004
1757088357991396400,11.927396240234375,0.012719999998807907,-6.0845208168029785,7.511807918548584
1757088358000949200,11.93694921875,0.23623700439929962,-5.961451053619385,7.616909980773926
1757088358010502400,11.94650244140625,0.44454100728034973,-5.826010227203369,7.720274925231934
1757088358020055000,11.956054931640624,0.6373180150985718,-5.678756237030029,7.821339130401611
1757088358029608000,11.96560791015625,0.813730001449585,-5.519485950469971,7.920443058013916
1757088358039160800,11.975160888671875,0.9818840026855469,-5.349762916564941,8.017900466918945
1757088358048713700,11.984713623046876,1.13810396194458,-5.1675519943237305,8.114374160766602
1757088358058266600,11.9942666015625,1.2769700288772583,-4.970386981964111,8.210951805114746
1757088358067819500,12.003819580078124,1.4074640274047852,-4.757079124450684,8.306960105895996
1757088358077372400,12.013372314453125,1.5354230403900146,-4.529162883758545,8.40121841430664
1757088358086925300,12.02292529296875,1.6696510314941406,-4.2931389808654785,8.488043785095215
1757088358096478200,12.032478271484376,1.8095510005950928,-4.045141220092773,8.569358825683594
1757088358106031400,12.04203125,1.9617060422897339,-3.7898879051208496,8.640592575073242
1757088358115584000,12.051583984375,2.1278810501098633,-3.5304551124572754,8.698678016662598
1757088358125137000,12.061136962890625,2.310647964477539,-3.271164894104004,8.739845275878906
1757088358134689800,12.070689697265625,2.497483015060425,-3.008749008178711,8.769515991210938
1757088358144242700,12.08024267578125,2.687429904937744,-2.7441558837890625,8.787409782409668
1757088358153795300,12.08979541015625,2.881294012069702,-2.4783411026000977,8.792689323425293
1757088358163348500,12.099348388671874,3.0808401107788086,-2.212472915649414,8.784196853637695
1757088358172901000,12.108901123046875,3.287321090698242,-1.9479459524154663,8.761244773864746
1757088358182454300,12.118454345703125,3.501615047454834,-1.6857819557189941,8.723528861999512
1757088358192007200,12.128007080078126,3.722644090652466,-1.4267640113830566,8.671663284301758
1757088358201560000,12.13756005859375,3.9491279125213623,-1.1716400384902954,8.606121063232422
1757088358211113000,12.147113037109374,4.179555892944336,-0.9210669994354248,8.527690887451172
1757088358220665900,12.156665771484375,4.412919044494629,-0.6756389737129211,8.437166213989258
1757088358230218800,12.16621875,4.648184776306152,-0.4358780086040497,8.335466384887695
1757088358239771600,12.175771728515626,4.884060859680176,-0.20227299630641937,8.223624229431152
1757088358249324500,12.185324462890625,5.118949890136719,0.024575000628829002,8.102787971496582
1757088358258877400,12.19487744140625,5.345468997955322,0.24336299300193787,7.975022792816162
1757088358268430300,12.204430419921875,5.560460090637207,0.4551889896392822,7.841888904571533
1757088358277983000,12.21398291015625,5.76049280166626,0.661171019077301,7.705458164215088
