time,seconds_elapsed,z,y,x
1757088323520817700,0.101817626953125,-0.14555999636650085,0.09601499885320663,15.954366683959961
1757088323530370600,0.11137060546875,-0.39781200885772705,-0.1456020027399063,16.2153377532959
1757088323549476000,0.13047607421875,-1.0664119720458984,0.8467749953269958,15.586454391479492
1757088323559029000,0.140029052734375,-2.0228331089019775,0.9752950072288513,14.946681022644043
1757088323568582000,0.149581787109375,-2.872591018676758,0.67610102891922,14.496109008789062
1757088323578134800,0.159134765625,-3.50205397605896,0.22054700553417206,14.321802139282227
1757088323587687400,0.1686875,-3.7808289527893066,0.20206600427627563,13.895625114440918
1757088323597240300,0.178240234375,-3.806881904602051,0.26736098527908325,13.573944091796875
1757088323606793200,0.187793212890625,-3.649419069290161,0.3568449914455414,13.428056716918945
1757088323616346000,0.19734619140625,-3.6768980026245117,0.43390899896621704,13.141068458557129
1757088323625899000,0.20689892578125,-3.7111759185791016,0.07711700350046158,13.559749603271484
1757088323635451600,0.21645166015625,-3.5252130031585693,-0.043981000781059265,13.714151382446289
1757088323645004800,0.2260048828125,-3.6888139247894287,-0.3336229920387268,13.870583534240723
1757088323654557400,0.235557373046875,-4.082483768463135,-0.4544999897480011,13.239385604858398
1757088323664110300,0.2451103515625,-4.637749195098877,-0.43977800011634827,12.11389446258545
1757088323673663200,0.254663330078125,-5.114315986633301,-0.27785900235176086,11.293682098388672
1757088323683216100,0.264216064453125,-5.540156841278076,-0.2719990015029907,10.460572242736816
1757088323692769000,0.27376904296875,-5.733954906463623,-0.6653439998626709,9.902313232421875
1757088323702321700,0.28332177734375,-5.931996822357178,-1.3695670366287231,9.699926376342773
1757088323711874600,0.29287451171875,-6.1011199951171875,-1.6068190336227417,8.933661460876465
1757088323721427500,0.302427490234375,-5.814939022064209,-1.4528720378875732,7.246006011962891
1757088323730980400,0.31198046875,-5.693531036376953,-1.6358840465545654,6.090579032897949
1757088323740533200,0.321533203125,-5.68251895904541,-1.6012719869613647,5.275463104248047
1757088323750086100,0.331086181640625,-6.120437145233154,-2.503446102142334,5.904493808746338
1757088323759639000,0.34063916015625,-6.44149923324585,-3.3102269172668457,6.167877197265625
1757088323769192000,0.35019189453125,-6.318342208862305,-3.5139129161834717,5.6093621253967285
1757088323778744800,0.359744873046875,-6.242893218994141,-3.310528039932251,4.421599864959717
1757088323788297500,0.36929736328125,-6.097305774688721,-3.333954095840454,3.2366960048675537
1757088323797850400,0.378850341796875,-6.496039867401123,-3.7918190956115723,2.8143129348754883
1757088323807403300,0.3884033203125,-7.7841010093688965,-4.264746189117432,3.414217948913574
1757088323816956200,0.3979560546875,-8.792003631591797,-4.803417205810547,3.843177080154419
1757088323826509000,0.407509033203125,-9.345403671264648,-4.955508232116699,3.4169580936431885
1757088323836062000,0.41706201171875,-9.64425277709961,-4.575547218322754,3.5068070888519287
1757088323845614800,0.42661474609375,-10.049495697021484,-3.981863021850586,4.415243148803711
1757088323855167700,0.436167724609375,-10.457693099975586,-3.659296989440918,5.629999160766602
1757088323864720600,0.445720703125,-10.971986770629883,-3.917963981628418,6.9054789543151855
1757088323874273500,0.4552734375,-10.97073745727539,-3.3905739784240723,6.346494197845459
1757088323883826400,0.464826416015625,-10.250726699829102,-2.9330968856811523,5.212468147277832
1757088323893379000,0.474379150390625,-9.987815856933594,-2.7828850746154785,4.784862995147705
1757088323902932000,0.483931884765625,-9.76850700378418,-2.8317298889160156,4.419249057769775
1757088323912484900,0.49348486328125,-9.215167999267578,-2.7352640628814697,3.7306060791015625
1757088323922037800,0.503037841796875,-8.245890617370605,-2.1803879737854004,2.9701459407806396
1757088323931590700,0.512590576171875,-7.8473992347717285,-1.7371699810028076,2.7131869792938232
1757088323941143600,0.5221435546875,-7.80572509765625,-1.604786992073059,2.3153390884399414
1757088323950696200,0.5316962890625,-7.769513130187988,-1.6626759767532349,1.3260940313339233
1757088323960249300,0.541249267578125,-7.73433780670166,-1.751958966255188,0.32458698749542236
1757088323969802200,0.55080224609375,-7.2218852043151855,-1.8391239643096924,-0.2621319890022278
1757088323979355100,0.560355224609375,-7.105733871459961,-1.8392870426177979,-0.8144829869270325
1757088323988908000,0.569907958984375,-7.428202152252197,-1.8479650020599365,-0.9572839736938477
1757088323998461000,0.5794609375,-7.194634914398193,-1.795827031135559,-0.5004590153694153
1757088324008013800,0.589013916015625,-6.922952175140381,-1.8253079652786255,-0.11802700161933899
1757088324017566700,0.598566650390625,-6.935816764831543,-1.9447590112686157,0.39475101232528687
1757088324027119400,0.608119384765625,-7.93312406539917,-1.8602099418640137,0.2013159990310669
1757088324036672300,0.61767236328125,-15.361098289489746,-2.5280849933624268,-0.6470549702644348
1757088324046225200,0.62722509765625,-17.304134368896484,-1.9038530588150024,-1.4288250207901
1757088324055778000,0.636778076171875,-11.343950271606445,-1.1179330348968506,-0.08026300370693207
1757088324065331000,0.6463310546875,-4.83276891708374,-0.9736769795417786,1.2327680587768555
1757088324074883800,0.6558837890625,-2.2256059646606445,-1.3958289623260498,1.1854560375213623
1757088324084436700,0.665436767578125,-4.697608947753906,-2.558892011642456,-0.32427099347114563
1757088324093989600,0.67498974609375,-6.800168991088867,-3.4101979732513428,-2.502485990524292
1757088324103542500,0.68454248046875,-4.778662204742432,-3.731998920440674,-2.9532759189605713
1757088324113095400,0.694095458984375,-2.1506199836730957,-3.744163990020752,-2.0745270252227783
1757088324122648300,0.7036484375,-1.037443995475769,-4.070102214813232,-1.476925015449524
1757088324132201000,0.713200927734375,-2.0619049072265625,-4.335665225982666,-1.239096999168396
1757088324141753900,0.72275390625,-2.2052009105682373,-5.235572814941406,-1.9726099967956543
1757088324151306800,0.732306640625,-3.7087221145629883,-4.745570182800293,-0.7060850262641907
1757088324160859600,0.741859619140625,-4.202083110809326,-4.831503868103027,0.2911829948425293
1757088324170412500,0.75141259765625,-4.120844841003418,-4.0522260665893555,1.0556670427322388
1757088324179965700,0.760965576171875,-4.677458763122559,-3.3847110271453857,1.1913139820098877
1757088324189518300,0.770518310546875,-5.2919440269470215,-3.3756349086761475,-0.1272750049829483
1757088324199071200,0.7800712890625,-4.396489143371582,-2.8532040119171143,-0.7990300059318542
1757088324208624000,0.7896240234375,-6.228744029998779,-0.7874670028686523,-0.7942919731140137
1757088324218176800,0.7991767578125,-5.7731781005859375,0.22556400299072266,-1.0821189880371094
1757088324227730000,0.80872998046875,-1.83010995388031,-0.508620023727417,-1.4720220565795898
1757088324237282800,0.81828271484375,-2.5326321125030518,-0.7902060151100159,-1.4329370260238647
1757088324246835700,0.827835693359375,-2.94425892829895,-1.2479729652404785,-1.6909940242767334
1757088324256388400,0.837388427734375,-2.0928590297698975,-1.642369031906128,-1.865975022315979
1757088324265941200,0.846941162109375,-1.5599180459976196,-2.0529580116271973,-2.134553909301758
1757088324275494100,0.856494140625,-1.5830130577087402,-2.339365005493164,-2.174323081970215
1757088324285047000,0.866047119140625,-2.336517095565796,-2.0956790447235107,-1.8305189609527588
1757088324294600000,0.875599853515625,-3.1548380851745605,-1.976282000541687,-0.4267500042915344
1757088324304152800,0.88515283203125,-3.29811692237854,-2.511262893676758,0.9444670081138611
1757088324313705700,0.894705810546875,-2.0433449745178223,-3.4333980083465576,0.22561900317668915
1757088324323258600,0.904258544921875,-2.534285068511963,-4.515040874481201,-1.5988140106201172
1757088324332811500,0.9138115234375,-2.945673942565918,-5.728215217590332,-1.3190350532531738
1757088324342364200,0.9233642578125,-3.6197750568389893,-6.256777763366699,-0.6085619926452637
1757088324351917300,0.932917236328125,-4.701620101928711,-5.611236095428467,-0.9592790007591248
1757088324361470200,0.94247021484375,-4.223117828369141,-4.312421798706055,-0.7527750134468079
1757088324371022800,0.95202294921875,-3.9463729858398438,-3.564171075820923,0.022425999864935875
1757088324380576000,0.961575927734375,-3.539123058319092,-2.8459320068359375,0.27331700921058655
1757088324390129000,0.97112890625,-3.4085030555725098,-1.9350359439849854,0.05595000088214874
1757088324399681500,0.980681640625,-3.1763219833374023,-0.9098479747772217,0.07535599917173386
1757088324409234400,0.990234375,-3.154604911804199,-0.44803500175476074,-0.02565700002014637
1757088324418787300,0.999787353515625,-2.509373903274536,-0.1495169997215271,-0.7509660124778748
1757088324428340200,1.00934033203125,-2.045259952545166,-0.21280699968338013,-1.493826985359192
1757088324437893000,1.01889306640625,-1.6546889543533325,-0.2097949981689453,-1.7479579448699951
1757088324447446000,1.028446044921875,-1.528035044670105,0.287678986787796,-1.5478299856185913
1757088324456999000,1.0379990234375,-1.3496919870376587,0.6409239768981934,-1.4831130504608154
1757088324466551800,1.0475517578125,-2.0129499435424805,0.6560840010643005,-1.2374939918518066
1757088324476104700,1.057104736328125,-3.0131430625915527,0.8503950238227844,-0.8446890115737915
1757088324485657300,1.0666572265625,-2.6646289825439453,0.44788599014282227,-1.6031990051269531
1757088324495210200,1.076210205078125,-1.7146780490875244,0.2623560130596161,-1.3751939535140991
1757088324504763100,1.08576318359375,-2.726222038269043,0.6052179932594299,-1.2690379619598389
1757088324514316000,1.09531591796875,-3.7744030952453613,-0.0744519978761673,-0.5573310256004333
1757088324523869000,1.104868896484375,-3.32853102684021,-0.9373559951782227,-0.3039720058441162
1757088324533421800,1.114421875,-4.120969772338867,-0.5681430101394653,-1.5684770345687866
1757088324542974700,1.123974609375,-0.8901249766349792,-0.5559499859809875,-2.110852003097534
1757088324552527600,1.133527587890625,0.2851330041885376,-1.4931249618530273,-0.329569011926651
1757088324562080300,1.143080322265625,0.7957689762115479,-1.5668669939041138,0.7741410136222839
1757088324571633200,1.152633056640625,0.1276720017194748,-0.6479589939117432,0.5316169857978821
1757088324581186000,1.16218603515625,-0.5725730061531067,0.31043699383735657,-0.32754600048065186
1757088324590739000,1.171739013671875,-0.16211000084877014,-0.06096300110220909,0.5736150145530701
1757088324600291800,1.181291748046875,0.6431390047073364,-1.0633009672164917,1.0689150094985962
1757088324609844700,1.1908447265625,0.3917990028858185,-1.106315016746521,-0.2372329980134964
1757088324619397600,1.200397705078125,-0.5195850133895874,-0.7695749998092651,-1.382815957069397
1757088324628950500,1.209950439453125,-0.9148910045623779,-1.0525219440460205,-1.6159950494766235
1757088324638503400,1.21950341796875,-1.274724006652832,-0.9245989918708801,-2.0042669773101807
1757088324648056300,1.229056396484375,-1.6543229818344116,-0.25305798649787903,-2.970460891723633
1757088324657609200,1.238609130859375,-1.6924779415130615,-0.010857000015676022,-2.8268229961395264
1757088324667161900,1.248161865234375,-1.8762279748916626,-0.06248899921774864,-2.1930429935455322
1757088324676714800,1.25771484375,-2.5942931175231934,0.343174010515213,-2.0240070819854736
1757088324686267600,1.267267578125,-3.320065975189209,0.62465500831604,-2.0051839351654053
1757088324695820500,1.276820556640625,-3.75504994392395,0.2952919900417328,-1.9523370265960693
1757088324705373400,1.28637353515625,-4.03350305557251,1.377305030822754,-2.2317850589752197
1757088324714926300,1.29592626953125,-3.485582113265991,1.2429629564285278,-3.573976993560791
1757088324724479200,1.305479248046875,-2.675044059753418,0.5441579818725586,-4.1252288818359375
1757088324734032100,1.3150322265625,-2.3335371017456055,-0.19025300443172455,-3.5289580821990967
1757088324743585000,1.3245849609375,-1.6265310049057007,-0.6891189813613892,-2.6355109214782715
1757088324753138000,1.334137939453125,-0.5138059854507446,1.523224949836731,-0.2809930145740509
1757088324762690800,1.34369091796875,0.26684999465942383,2.8192899227142334,0.9768689870834351
1757088324772243700,1.35324365234375,-0.042406000196933746,3.302258014678955,0.8185949921607971
1757088324781796400,1.36279638671875,-1.265086054801941,3.7879369258880615,0.9183610081672668
1757088324791349200,1.372349365234375,-1.8886760473251343,4.3722310066223145,0.8824859857559204
1757088324800902100,1.381902099609375,-0.8197889924049377,4.866189002990723,1.1719000339508057
1757088324810455000,1.391455078125,0.7813019752502441,4.628815174102783,1.465127944946289
1757088324820008000,1.401008056640625,2.065437078475952,4.812966823577881,2.1741979122161865
1757088324829560800,1.410560791015625,2.5523629188537598,4.610241889953613,2.7821080684661865
1757088324839113700,1.42011376953125,1.6495929956436157,4.427937984466553,2.966284990310669
1757088324848666600,1.42966650390625,-0.24622400104999542,4.493234157562256,3.926126003265381
1757088324858219500,1.439219482421875,1.8132450580596924,-0.279682993888855,5.910533905029297
1757088324867772400,1.4487724609375,0.8619470000267029,-8.645254135131836,4.197329044342041
1757088324877325300,1.4583251953125,-3.5704290866851807,-20.180294036865234,3.5641260147094727
1757088324886878200,1.467878173828125,-4.627651214599609,-30.906278610229492,4.834106922149658
1757088324896430800,1.477430908203125,-2.689918041229248,-28.00015640258789,-5.090925216674805
1757088324905984000,1.48698388671875,2.458357095718384,-19.703889846801758,-12.045150756835938
1757088324915536600,1.49653662109375,3.55161190032959,-10.934752464294434,-8.175910949707031
1757088324925089500,1.506089599609375,1.1204609870910645,-4.957098960876465,-3.2541921138763428
1757088324934642400,1.515642333984375,-2.1532130241394043,-0.8343200087547302,0.25398799777030945
1757088324944195300,1.5251953125,-8.064542770385742,2.627803087234497,2.6166958808898926
1757088324953748200,1.534748291015625,-9.034154891967773,4.743743896484375,2.0213990211486816
1757088324963301000,1.544301025390625,-4.685564041137695,5.566347122192383,0.08594699949026108
1757088324972854000,1.55385400390625,1.4315030574798584,5.981578826904297,-1.042847990989685
1757088324982407000,1.563406982421875,4.431731224060059,5.159374237060547,-1.1857739686965942
1757088324991959800,1.572959716796875,1.7955759763717651,2.722259998321533,-0.5032110214233398
1757088325001512700,1.5825126953125,-0.6331660151481628,0.7901870012283325,-0.008841999806463718
1757088325011065600,1.592065673828125,-1.4766499996185303,-0.6798760294914246,-0.16823700070381165
1757088325020618500,1.601618408203125,-1.375452995300293,-1.7688109874725342,-0.559561014175415
1757088325030171100,1.611171142578125,-0.7168779969215393,-2.296333074569702,-0.7292389869689941
1757088325039724000,1.62072412109375,-0.13034400343894958,-2.1418259143829346,-0.48316600918769836
1757088325049277000,1.63027685546875,0.08791899681091309,-1.2803269624710083,0.08176299929618835
1757088325058829800,1.639829833984375,0.0920180007815361,-0.5866199731826782,0.25157201290130615
1757088325068382500,1.649382568359375,0.1823969930410385,-0.07794699817895889,0.17855699360370636
1757088325077935400,1.658935302734375,0.3331669867038727,0.3331890106201172,0.17483900487422943
1757088325087488300,1.66848828125,0.47842299938201904,0.5591179728507996,0.17782099545001984
1757088325097041200,1.678041259765625,0.6235129833221436,0.41969698667526245,0.03904400020837784
1757088325106594000,1.687593994140625,0.6699159741401672,0.03774600103497505,-0.11083199828863144
1757088325116147000,1.69714697265625,0.5630249977111816,-0.2190459966659546,-0.11984699964523315
1757088325125699800,1.706699951171875,0.41353100538253784,-0.3848710060119629,-0.004064999986439943
1757088325135252700,1.716252685546875,0.29426100850105286,-0.4293060004711151,0.09063100069761276
1757088325144805600,1.7258056640625,0.2689889967441559,-0.39212799072265625,0.11006899923086166
1757088325154358500,1.735358642578125,0.30550700426101685,-0.2955540120601654,0.08566299825906754
1757088325163911400,1.744911376953125,0.30101099610328674,-0.23869700729846954,-0.005642999894917011
1757088325173464300,1.75446435546875,0.2338860034942627,-0.1391180008649826,-0.164001002907753
1757088325183017000,1.764016845703125,0.061142999678850174,-0.027470000088214874,-0.2715449929237366
1757088325192570000,1.773570068359375,-0.14489899575710297,0.07275699824094772,-0.33938199281692505
1757088325202122800,1.783122802734375,-0.29055699706077576,0.09253399819135666,-0.4023819863796234
1757088325211675600,1.792675537109375,-0.40247899293899536,0.03251300007104874,-0.43902501463890076
1757088325221228500,1.802228515625,-0.5334010124206543,-0.09179399907588959,-0.427139014005661
1757088325230781400,1.811781494140625,-0.6889669895172119,-0.18859100341796875,-0.3553900122642517
1757088325240334300,1.821334228515625,-0.7006310224533081,-0.2696700096130371,-0.2745409905910492
1757088325249887000,1.830886962890625,-0.5591760277748108,-0.28177499771118164,-0.1548919975757599
1757088325259440000,1.840440185546875,-0.43285199999809265,-0.2439890056848526,-0.0372299998998642
1757088325268992800,1.84999267578125,-0.34047600626945496,-0.1739249974489212,0.03583399951457977
1757088325278546000,1.8595458984375,-0.2664780020713806,-0.11161600053310394,0.003068000078201294
1757088325288098800,1.869098876953125,-0.1790899932384491,-0.06942400336265564,-0.05259000137448311
1757088325307204400,1.888204345703125,-0.017710000276565552,-0.07832299917936325,-0.13118800520896912
1757088325316757200,1.89775732421875,0.033472999930381775,-0.13480600714683533,-0.10753999650478363
1757088325326310100,1.90731005859375,0.0859609991312027,-0.20198799669742584,-0.051982998847961426
1757088325335863000,1.916863037109375,0.1572050005197525,-0.25132501125335693,-0.006802000105381012
1757088325345416000,1.926416015625,0.21136300265789032,-0.25208500027656555,0.026907000690698624
1757088325354968800,1.93596875,0.2558329999446869,-0.2334669977426529,0.04104100167751312
1757088325364521700,1.945521728515625,0.25974100828170776,-0.16929300129413605,0.05744199827313423
1757088325374074600,1.95507470703125,0.22109299898147583,-0.1461150050163269,0.048330001533031464
1757088325383627500,1.96462744140625,0.16082799434661865,-0.15249399840831757,-0.0013119999784976244
1757088325393180400,1.974180419921875,0.09591999650001526,-0.16686999797821045,-0.053203001618385315
1757088325402733300,1.9837333984375,0.03143899887800217,-0.1795700043439865,-0.0932760015130043
1757088325412286200,1.9932861328125,-0.0566990002989769,-0.18523100018501282,-0.09006699919700623
1757088325421838800,2.0028388671875,-0.1529339998960495,-0.20740100741386414,-0.06890799850225449
1757088325431391700,2.012391845703125,-0.21758300065994263,-0.17882700264453888,-0.020889999344944954
1757088325440944600,2.021944580078125,-0.27667099237442017,-0.13266700506210327,0.05030500143766403
1757088325450497500,2.03149755859375,-0.2719919979572296,-0.09811100363731384,0.08415699750185013
1757088325460050400,2.041050537109375,-0.23527899384498596,-0.11091399937868118,0.10427399724721909
1757088325469603300,2.050603271484375,-0.17132900655269623,-0.1855970025062561,0.09461099654436111
1757088325479156200,2.06015625,-0.13353100419044495,-0.2147359997034073,0.07771100103855133
1757088325488708900,2.069708984375,-0.09112299978733063,-0.2730720043182373,0.02665100060403347
1757088325498262000,2.079261962890625,-0.0616689994931221,-0.2791860103607178,-0.001221999991685152
1757088325507814700,2.088814697265625,-0.02865999937057495,-0.25015199184417725,-0.04072500020265579
1757088325517367600,2.098367431640625,0.023000000044703484,-0.1878640055656433,-0.040768999606370926
1757088325526920700,2.107920654296875,0.06715799868106842,-0.1422940045595169,-0.021588999778032303
1757088325536473600,2.1174736328125,0.09688100218772888,-0.0873040035367012,-0.013644999824464321
1757088325546026200,2.127026123046875,0.10814099758863449,-0.08002299815416336,-0.0014169999631121755
1757088325555579100,2.1365791015625,0.0846100002527237,-0.12243299931287766,0.023056000471115112
1757088325565132000,2.146132080078125,0.0642779991030693,-0.20027300715446472,0.03139699995517731
1757088325574685000,2.155684814453125,0.07178500294685364,-0.23962199687957764,0.029580000787973404
1757088325584237800,2.16523779296875,0.05365300178527832,-0.28124499320983887,0.02728099934756756
1757088325593790500,2.17479052734375,0.03629299998283386,-0.25091299414634705,0.04122399911284447
1757088325603343400,2.18434326171875,0.022130999714136124,-0.216047003865242,0.032040998339653015
1757088325612896300,2.193896240234375,-0.0025239998940378428,-0.21911999583244324,0.05019700154662132
1757088325622449200,2.20344921875,-0.012395000085234642,-0.16538099944591522,0.022698000073432922
1757088325632002000,2.213001953125,-0.0396450012922287,-0.15284700691699982,-0.007946000434458256
1757088325641555000,2.222554931640625,-0.0649230033159256,-0.14523400366306305,-0.01669899933040142
1757088325651107800,2.23210791015625,-0.08396200090646744,-0.17634299397468567,-0.05281800031661987
1757088325660661000,2.241660888671875,-0.0882280021905899,-0.18654300272464752,-0.09392099827528
1757088325670213600,2.251213623046875,-0.08055099844932556,-0.22077900171279907,-0.1059660017490387
1757088325679766500,2.2607666015625,-0.06581000238656998,-0.2140749990940094,-0.08291900157928467
1757088325689319400,2.2703193359375,-0.040111999958753586,-0.19298100471496582,-0.07426399737596512
1757088325698872300,2.279872314453125,-0.017988000065088272,-0.1932069957256317,-0.05914900079369545
1757088325708425200,2.28942529296875,-0.019646000117063522,-0.14464199542999268,0.005472999997437
1757088325717977900,2.298977783203125,0.06410899758338928,-0.10451599955558777,0.0712520033121109
1757088325727530800,2.30853076171875,0.04837600141763687,-0.11184000223875046,0.08274000138044357
1757088325737083600,2.318083740234375,0.029678000137209892,-0.1510699987411499,0.020215999335050583
1757088325746636500,2.327636474609375,0.039122000336647034,-0.17145299911499023,-0.007664999924600124
1757088325756189400,2.337189453125,0.05210400000214577,-0.19258500635623932,-0.06158500164747238
1757088325765742300,2.346742431640625,0.04821699857711792,-0.20954300463199615,-0.09657099843025208
1757088325775295200,2.356295166015625,0.03554299846291542,-0.1840360015630722,-0.11740700155496597
1757088325784848100,2.36584814453125,0.04398300126194954,-0.18782900273799896,-0.1458040028810501
1757088325794401000,2.375401123046875,0.0768129974603653,-0.17506299912929535,-0.14708000421524048
1757088325803954000,2.384953857421875,0.11839500069618225,-0.14087200164794922,-0.14059799909591675
1757088325813506800,2.3945068359375,0.13183699548244476,-0.13019900023937225,-0.10920999944210052
1757088325823059700,2.404059814453125,0.11859700083732605,-0.12858299911022186,-0.07728800177574158
1757088325832612400,2.4136123046875,0.07857300341129303,-0.1670980006456375,-0.05704899877309799
1757088325842165200,2.423165283203125,0.022867999970912933,-0.1791120022535324,-0.051910001784563065
1757088325851718100,2.43271826171875,-0.029441000893712044,-0.198403999209404,-0.06572099775075912
1757088325861271000,2.44227099609375,-0.05808199942111969,-0.22232100367546082,-0.06102500110864639
1757088325870824000,2.451823974609375,-0.0687360018491745,-0.24177800118923187,-0.09114500135183334
1757088325880376800,2.461376953125,-0.08274800330400467,-0.20415399968624115,-0.10801900178194046
1757088325889929700,2.4709296875,-0.06597500294446945,-0.18130899965763092,-0.1258379966020584
1757088325899482600,2.480482666015625,-0.06095699965953827,-0.15126200020313263,-0.1198040023446083
1757088325909035500,2.490035400390625,-0.0759190022945404,-0.14304499328136444,-0.13201400637626648
1757088325918588400,2.49958837890625,-0.06684199720621109,-0.17137500643730164,-0.1755950003862381
1757088325928141300,2.509141357421875,-0.03962799906730652,-0.18785899877548218,-0.18278999626636505
1757088325937694000,2.51869384765625,0.004201999865472317,-0.2227720022201538,-0.14690299332141876
1757088325947246800,2.528246826171875,0.03885800018906593,-0.2073040008544922,-0.13523100316524506
1757088325956799700,2.5377998046875,0.04671100154519081,-0.20047199726104736,-0.07889000326395035
1757088325966352600,2.5473525390625,0.03192099928855896,-0.18358199298381805,-0.043400999158620834
1757088325975905500,2.556905517578125,0.02269200049340725,-0.19242000579833984,-0.0076419999822974205
1757088325985458400,2.56645849609375,0.013942000456154346,-0.17486900091171265,-0.0032140000257641077
1757088325995011000,2.576010986328125,0.03477400168776512,-0.16432900726795197,0.003082999959588051
1757088326004564000,2.58556396484375,0.03395799919962883,-0.15634599328041077,-0.006819000001996756
1757088326014116900,2.595116943359375,0.03786800056695938,-0.1676580011844635,-0.02102299965918064
1757088326023669800,2.604669677734375,0.041572000831365585,-0.15806999802589417,-0.05453500151634216
1757088326033222700,2.61422265625,0.04253099858760834,-0.15140700340270996,-0.08141899853944778
1757088326042775600,2.623775634765625,0.040578000247478485,-0.13505500555038452,-0.06317699700593948
1757088326052328400,2.633328369140625,0.04707900062203407,-0.13032899796962738,-0.03650100156664848
1757088326061881600,2.642881591796875,0.03242100030183792,-0.13927100598812103,0.006909999996423721
1757088326071434200,2.652434326171875,0.016013000160455704,-0.16888199746608734,0.04965199902653694
1757088326080987100,2.661987060546875,-0.015465999953448772,-0.1863040030002594,0.05564099922776222
1757088326090540000,2.6715400390625,-0.0138349998742342,-0.20868800580501556,0.03830400109291077
1757088326100093000,2.681093017578125,-0.05087900161743164,-0.19558200240135193,0.012764000333845615
1757088326109645800,2.690645751953125,-0.07465499639511108,-0.2017820030450821,0.004459999967366457
1757088326119198500,2.700198486328125,-0.08114100247621536,-0.17254400253295898,-0.018970999866724014
1757088326128751400,2.70975146484375,-0.11636000126600266,-0.1839440017938614,-0.016395000740885735
1757088326138304300,2.71930419921875,-0.11292099952697754,-0.19060499966144562,-0.02086300030350685
1757088326147857200,2.728857177734375,-0.11160799860954285,-0.19254900515079498,-0.02988399937748909
1757088326157410000,2.73841015625,-0.0898590013384819,-0.20159600675106049,-0.03197599947452545
1757088326166963000,2.747962890625,-0.06912499666213989,-0.18674799799919128,-0.03146199882030487
1757088326176515600,2.757515625,-0.04251199960708618,-0.19369100034236908,-0.053989000618457794
1757088326186068700,2.76706884765625,-0.02619200013577938,-0.17420700192451477,-0.04566499963402748
1757088326195621600,2.77662158203125,-0.003874999936670065,-0.17403000593185425,-0.06069299951195717
1757088326205174500,2.786174560546875,-0.0030869999900460243,-0.15471599996089935,-0.05649999901652336
1757088326214727400,2.7957275390625,0.00661400007084012,-0.1499290019273758,-0.06368599832057953
1757088326224280300,2.8052802734375,0.03137899935245514,-0.14528700709342957,-0.07506299763917923
1757088326233833000,2.8148330078125,0.02284100092947483,-0.1597370058298111,-0.07709000259637833
1757088326243385900,2.8243857421875,0.021656999364495277,-0.15298999845981598,-0.09705399721860886
1757088326252938800,2.833938720703125,0.013767000287771225,-0.18037599325180054,-0.14124099910259247
1757088326262491600,2.84349169921875,0.019940000027418137,-0.19626100361347198,-0.17179599404335022
1757088326272044500,2.85304443359375,0.02566700056195259,-0.17844000458717346,-0.14793699979782104
1757088326281597400,2.862597412109375,0.0334089994430542,-0.1361750066280365,-0.10186000168323517
1757088326291150000,2.872150146484375,0.042840998619794846,-0.12914800643920898,-0.058093998581171036
1757088326300703000,2.881702880859375,0.07853499799966812,-0.13616299629211426,-0.044075001031160355
1757088326310256000,2.891256103515625,0.06686999648809433,-0.16447000205516815,-0.035771001130342484
1757088326319808800,2.900808837890625,0.04010000079870224,-0.15672600269317627,-0.028017999604344368
1757088326329362000,2.91036181640625,0.030750999227166176,-0.17553000152111053,-0.04591299965977669
1757088326338914800,2.919914794921875,0.024142000824213028,-0.17310099303722382,-0.06272000074386597
1757088326348467500,2.929467529296875,0.022199999541044235,-0.16879600286483765,-0.09207899868488312
1757088326358020400,2.939020263671875,0.03112100064754486,-0.15738700330257416,-0.09000000357627869
1757088326367573200,2.9485732421875,0.005714000202715397,-0.15098699927330017,-0.09440699964761734
1757088326377126100,2.958126220703125,-0.035930998623371124,-0.1588679999113083,-0.08725299686193466
1757088326386679000,2.967678955078125,-0.047756001353263855,-0.16408899426460266,-0.06909900158643723
1757088326396231700,2.977231689453125,-0.01795700006186962,-0.18568000197410583,-0.04984100162982941
1757088326405784600,2.98678466796875,-0.01013800036162138,-0.19478599727153778,-0.02276800014078617
1757088326415337700,2.996337646484375,0.0017450000159442425,-0.2057880014181137,0.002607000060379505
1757088326424890400,3.005890380859375,-0.00041199999395757914,-0.2119310051202774,0.0013670000480487943
1757088326434443300,3.015443359375,0.011288999579846859,-0.20817099511623383,0.0157919991761446
1757088326443996200,3.02499609375,0.017812000587582588,-0.20482200384140015,-0.011451000347733498
1757088326453549000,3.034549072265625,0.026078000664711,-0.2111479938030243,-0.023965999484062195
1757088326463102000,3.04410205078125,0.02249000035226345,-0.19600999355316162,-0.029013000428676605
1757088326472654800,3.05365478515625,0.016764000058174133,-0.19322499632835388,-0.05428000167012215
1757088326482207700,3.063207763671875,0.004466999787837267,-0.19560299813747406,-0.07587599754333496
1757088326491760600,3.0727607421875,-0.004792000167071819,-0.1721400022506714,-0.0957610011100769
1757088326501313500,3.0823134765625,-0.002211000071838498,-0.13711200654506683,-0.10703500360250473
1757088326510866400,3.091866455078125,0.0002640000020619482,-0.1431329995393753,-0.12428499758243561
1757088326520419000,3.101419189453125,-0.013066000305116177,-0.15853099524974823,-0.11115899682044983
1757088326529972200,3.11097216796875,-0.011806000024080276,-0.16636599600315094,-0.08739099651575089
1757088326539524900,3.12052490234375,-0.014797000214457512,-0.18797500431537628,-0.05612799897789955
1757088326549077800,3.130077880859375,-0.017312999814748764,-0.1760140061378479,-0.05139999836683273
1757088326558630700,3.139630615234375,-0.010607999749481678,-0.20925399661064148,-0.04287999868392944
1757088326568183600,3.14918359375,0.002219999907538295,-0.19944199919700623,-0.0437299981713295
1757088326577736400,3.158736328125,0.01208100002259016,-0.20167000591754913,-0.04672199860215187
1757088326587289300,3.168289306640625,0.005394999869167805,-0.2037850022315979,-0.03813000023365021
1757088326596842200,3.17784228515625,0.010174999944865704,-0.2035530060529709,-0.03894500061869621
1757088326606395100,3.18739501953125,-0.005776999983936548,-0.18654599785804749,-0.032659001648426056
1757088326615948000,3.196947998046875,-0.0005109999910928309,-0.18830299377441406,-0.010956999845802784
1757088326625500700,3.206500732421875,-0.004530999809503555,-0.18960000574588776,0.011517999693751335
1757088326635053600,3.216053466796875,-0.01502699963748455,-0.21697600185871124,0.018688000738620758
1757088326644606500,3.2256064453125,-0.02477799914777279,-0.2346159964799881,0.022854000329971313
1757088326654159400,3.235159423828125,-0.045249998569488525,-0.27094998955726624,0.03731299936771393
1757088326663712300,3.244712158203125,-0.037466999143362045,-0.297885000705719,0.023649999871850014
1757088326673265200,3.25426513671875,-0.04612400010228157,-0.30293500423431396,0.04708800092339516
1757088326682817800,3.26381787109375,-0.04524800181388855,-0.29319000244140625,0.0785520002245903
1757088326692371000,3.273370849609375,-0.05788600072264671,-0.2472739964723587,0.1114019975066185
1757088326701923600,3.282923583984375,-0.06015799939632416,-0.2410770058631897,0.17415300011634827
1757088326711476500,3.2924765625,-0.06821099668741226,-0.24918699264526367,0.17429199814796448
1757088326721029600,3.302029541015625,-0.0729840025305748,-0.24145600199699402,0.11533199995756149
1757088326730582500,3.31158251953125,-0.018570000305771828,-0.2389959990978241,0.08221200108528137
1757088326740135400,3.321135498046875,0.0033140000887215137,-0.2459149956703186,0.08671499788761139
1757088326749688000,3.33068798828125,0.03509699925780296,-0.24154900014400482,0.04115099832415581
1757088326759241000,3.340240966796875,0.06942199915647507,-0.230321004986763,0.020837999880313873
1757088326768793900,3.3497939453125,0.07658600062131882,-0.22865700721740723,0.0196710005402565
1757088326778346800,3.3593466796875,0.07800299674272537,-0.20998600125312805,0.036779001355171204
1757088326787899600,3.368899658203125,0.06290499866008759,-0.19627399742603302,0.028147000819444656
1757088326797452300,3.378452392578125,0.048128001391887665,-0.14671599864959717,0.03169099986553192
1757088326807005200,3.388005126953125,0.027155999094247818,-0.12409999966621399,-0.0032730000093579292
1757088326816558000,3.39755810546875,0.014135000295937061,-0.10696599632501602,-0.045308999717235565
1757088326826111000,3.407111083984375,-0.018254999071359634,-0.1813330054283142,-0.09991700202226639
1757088326835664000,3.416663818359375,-0.01916399970650673,-0.1771720051765442,-0.13118700683116913
1757088326845216800,3.426216796875,-0.012800999917089939,-0.13704000413417816,-0.12676499783992767
1757088326854769700,3.435769775390625,0.004871999844908714,-0.16449999809265137,-0.18491500616073608
1757088326864322600,3.445322509765625,0.03308499976992607,-0.16867400705814362,-0.24055300652980804
1757088326873875500,3.45487548828125,0.06892000138759613,-0.18545900285243988,-0.30570998787879944
1757088326883428400,3.464428466796875,0.0872960016131401,-0.2319979965686798,-0.400628000497818
1757088326892981200,3.473981201171875,0.0829790011048317,-0.26184800267219543,-0.42840200662612915
1757088326902534000,3.483533935546875,0.08497799932956696,-0.27548500895500183,-0.4878680109977722
1757088326912087000,3.493087158203125,0.09739299863576889,-0.22640599310398102,-0.6051869988441467
1757088326921639700,3.5026396484375,0.09279900044202805,-0.22695499658584595,-0.7118369936943054
1757088326931192600,3.512192626953125,0.09237399697303772,-0.1878020018339157,-0.7459480166435242
1757088326940745500,3.521745361328125,0.10452800244092941,-0.1140580028295517,-0.7759069800376892
1757088326950298400,3.53129833984375,0.15317900478839874,-0.05789300054311752,-0.7723180055618286
1757088326959851300,3.540851318359375,0.17740300297737122,-0.06788799911737442,-0.6931759715080261
1757088326969404000,3.55040380859375,0.17891700565814972,-0.09832800179719925,-0.6038439869880676
1757088326978957000,3.55995703125,0.18849700689315796,-0.13371099531650543,-0.45523399114608765
1757088326988510000,3.569510009765625,0.19870300590991974,-0.14518900215625763,-0.2954089939594269
1757088326998062800,3.579062744140625,0.2285809963941574,-0.12370499968528748,-0.1678760051727295
1757088327007615700,3.58861572265625,0.2625829875469208,-0.11873500049114227,-0.005679999943822622
1757088327017168600,3.598168701171875,0.2843030095100403,-0.15727899968624115,0.09992299973964691
1757088327026721300,3.60772119140625,0.27390000224113464,-0.19148099422454834,0.2015630006790161
1757088327036274200,3.617274169921875,0.23337200284004211,-0.23127000033855438,0.27862200140953064
1757088327045827000,3.6268271484375,0.16975100338459015,-0.29168498516082764,0.31395700573921204
1757088327055380000,3.6363798828125,0.10957200080156326,-0.37290000915527344,0.3319770097732544
1757088327064932900,3.645932861328125,0.03505399823188782,-0.4062519967556,0.33272799849510193
1757088327074485500,3.655485595703125,0.002988999942317605,-0.32774001359939575,0.3329780101776123
1757088327084038400,3.665038330078125,0.014620999805629253,-0.1649409979581833,0.41040900349617004
1757088327093591300,3.67459130859375,0.04012199863791466,0.03634599968791008,0.4727819859981537
1757088327103144200,3.684144287109375,0.056078001856803894,0.17489400506019592,0.4889090061187744
1757088327112697000,3.693697021484375,0.0361349992454052,0.1282929927110672,0.44535401463508606
1757088327122250000,3.70325,-0.024411000311374664,-0.07030399888753891,0.34091898798942566
1757088327131803000,3.712802978515625,-0.08968199789524078,-0.2240229994058609,0.27423998713493347
1757088327141355800,3.722355712890625,-0.1345449984073639,-0.3158459961414337,0.23492799699306488
1757088327150908700,3.73190869140625,-0.16011199355125427,-0.35317501425743103,0.1856060028076172
1757088327160461600,3.741461669921875,-0.21893300116062164,-0.3026599884033203,0.14821499586105347
1757088327170014500,3.751014404296875,-0.295074999332428,-0.21947099268436432,0.1133740022778511
1757088327179567400,3.7605673828125,-0.3786129951477051,-0.16559800505638123,0.08717899769544601
1757088327189120000,3.7701201171875,-0.4438380002975464,-0.14146099984645844,0.028077999129891396
1757088327198673000,3.7796728515625,-0.498555988073349,-0.1614989936351776,-0.042114000767469406
1757088327208225800,3.789225830078125,-0.5153930187225342,-0.19439400732517242,-0.10485599935054779
1757088327217778700,3.79877880859375,-0.5249279737472534,-0.22307899594306946,-0.14472299814224243
1757088327227331600,3.80833154296875,-0.5064129829406738,-0.18058699369430542,-0.1685519963502884
1757088327236884200,3.81788427734375,-0.43224799633026123,-0.11930900067090988,-0.1791979968547821
1757088327246437000,3.82743701171875,-0.30606400966644287,-0.07257399708032608,-0.1956930011510849
1757088327255990300,3.836990234375,-0.1700579971075058,-0.08548499643802643,-0.20702500641345978
1757088327265543200,3.846543212890625,-0.03680099919438362,-0.1339610069990158,-0.2277359962463379
1757088327275096000,3.856095947265625,0.07766299694776535,-0.22514699399471283,-0.2508560121059418
1757088327284649000,3.86564892578125,0.15615199506282806,-0.3181320130825043,-0.2559390068054199
1757088327294201600,3.87520166015625,0.18307800590991974,-0.3910770118236542,-0.2232780009508133
1757088327303754500,3.88475439453125,0.18199199438095093,-0.393871009349823,-0.17424200475215912
1757088327313307400,3.894307373046875,0.17262299358844757,-0.3770720064640045,-0.13663800060749054
1757088327322860300,3.9038603515625,0.15583300590515137,-0.3664360046386719,-0.0697299987077713
1757088327332413200,3.9134130859375,0.1453610062599182,-0.3937329947948456,-0.06918700039386749
1757088327341966000,3.922966064453125,0.08210700005292892,-0.4128740131855011,-0.17472000420093536
1757088327351518700,3.932518798828125,0.013890000060200691,-0.4678489863872528,-0.34475401043891907
1757088327361071600,3.942071533203125,-0.10378800332546234,-0.43615099787712097,-0.44047001004219055
1757088327370624800,3.951624755859375,-0.18659000098705292,-0.4174700081348419,-0.48394501209259033
1757088327380177400,3.961177490234375,-0.241907000541687,-0.43964099884033203,-0.48098599910736084
1757088327389730300,3.970730224609375,-0.24673999845981598,-0.42063701152801514,-0.43139100074768066
1757088327399283200,3.980283203125,-0.16615800559520721,-0.36517399549484253,-0.3824700117111206
1757088327408836000,3.989836181640625,0.029620999470353127,-0.2926360070705414,-0.22759699821472168
1757088327418389000,3.999388916015625,0.3156749904155731,-0.21241499483585358,-0.09469100087881088
1757088327427942000,4.00894189453125,0.756197988986969,-0.12973999977111816,-0.054409999400377274
1757088327437494800,4.018494873046875,1.216048002243042,-0.08740899711847305,-0.020493000745773315
1757088327447047700,4.028047607421875,1.486035943031311,0.0015910000074654818,-0.0056119998916983604
1757088327456600300,4.037600341796875,1.5706679821014404,0.061167001724243164,-0.03567500039935112
1757088327466153200,4.0471533203125,1.506917953491211,0.01717199943959713,-0.03749699890613556
1757088327475706000,4.0567060546875,1.4350930452346802,-0.07748199999332428,-0.040807999670505524
1757088327485259000,4.066259033203125,1.4245879650115967,-0.09581399708986282,-0.04679400101304054
1757088327494812000,4.07581201171875,1.4546489715576172,-0.0775189995765686,-0.0006479999865405262
1757088327504364500,4.085364501953125,1.3739099502563477,-0.08206000179052353,0.08231200277805328
1757088327513917400,4.09491748046875,1.1488209962844849,0.02140199951827526,0.03011300042271614
1757088327523470300,4.10447021484375,0.9932969808578491,0.2755649983882904,-0.010890999808907509
1757088327533023500,4.1140234375,0.9164369702339172,0.5804319977760315,-0.012752999551594257
1757088327542576000,4.123576171875,0.7651079893112183,0.9118989706039429,-0.12336599826812744
1757088327552129300,4.13312939453125,0.6093080043792725,1.2182279825210571,-0.4080420136451721
1757088327561682000,4.142681884765625,0.4942080080509186,1.443405032157898,-0.8096870183944702
1757088327571234800,4.15223486328125,0.41270899772644043,1.663172960281372,-1.2466200590133667
1757088327580787700,4.16178759765625,0.38609200716018677,1.7909409999847412,-1.5935369729995728
1757088327590340600,4.171340576171875,0.3321619927883148,1.7930760383605957,-1.7331960201263428
1757088327599893500,4.1808935546875,0.12058299779891968,1.613966941833496,-1.6770210266113281
1757088327609446100,4.190446044921875,-0.44193801283836365,1.304610013961792,-1.5231809616088867
1757088327618999300,4.199999267578125,-1.0175470113754272,0.8067939877510071,-1.4925179481506348
1757088327628552200,4.20955224609375,-1.8719160556793213,0.0027379998937249184,-0.8761720061302185
1757088327638105000,4.21910498046875,-1.6625959873199463,-0.12293100357055664,-0.24326099455356598
1757088327647657700,4.22865771484375,-1.2299439907073975,-0.17652000486850739,0.4929470121860504
1757088327657211000,4.2382109375,-0.7657319903373718,-0.31598100066185,0.8055670261383057
1757088327666763500,4.247763427734375,-0.36375799775123596,-0.3380270004272461,0.9575759768486023
1757088327676316400,4.25731640625,-0.4474790096282959,-0.2648729979991913,1.0216079950332642
1757088327685869300,4.266869384765625,-0.8486409783363342,-0.05199100077152252,0.7882580161094666
1757088327695422200,4.276422119140625,-1.0475929975509644,0.10646700114011765,0.638625979423523
1757088327704975000,4.28597509765625,-1.5409389734268188,0.11524699628353119,0.45801201462745667
1757088327714528000,4.295528076171875,-0.7904559969902039,0.37252599000930786,0.4565950036048889
1757088327724081000,4.305080810546875,0.2677910029888153,0.4957529902458191,0.29816800355911255
1757088327733633500,4.314633544921875,1.0232690572738647,0.05146099999547005,0.23369100689888
1757088327743186400,4.3241865234375,1.6313190460205078,-0.2792080044746399,0.5682139992713928
1757088327752739300,4.3337392578125,1.231909990310669,-0.7273499965667725,1.0380640029907227
1757088327762292200,4.343292236328125,0.6437010169029236,-1.1606390476226807,1.8869969844818115
1757088327771845000,4.35284521484375,-0.4037570059299469,-1.2504080533981323,2.9329819679260254
1757088327781398000,4.36239794921875,-1.8458529710769653,-1.5015079975128174,3.2334189414978027
1757088327790951000,4.371950927734375,-1.899610996246338,-1.8299319744110107,2.970928907394409
1757088327800503800,4.38150390625,-0.9304019808769226,-2.071547031402588,3.074131965637207
1757088327810056700,4.391056640625,-0.14575700461864471,-1.7862180471420288,2.066077947616577
1757088327819609600,4.400609619140625,-0.0006389999762177467,-0.9780070185661316,1.2802460193634033
1757088327829162500,4.41016259765625,-0.00928299967199564,0.13328999280929565,0.7509340047836304
1757088327838715100,4.419715087890625,-0.009638000279664993,0.8069930076599121,-0.09805399924516678
1757088327848268000,4.42926806640625,0.17548500001430511,1.0967439413070679,-1.0356769561767578
1757088327857821000,4.438821044921875,0.8433089852333069,1.4602370262145996,-1.180408000946045
1757088327867373800,4.448373779296875,0.8258200287818909,1.534208059310913,-0.7963809967041016
1757088327876926700,4.4579267578125,0.6156539916992188,1.4872490167617798,-0.5555139780044556
1757088327886479400,4.467479248046875,0.7479760050773621,1.4401839971542358,-0.5281379818916321
1757088327896032300,4.4770322265625,0.620868980884552,1.2154929637908936,-0.21871599555015564
1757088327905585200,4.486585205078125,-0.02812100015580654,0.7387369871139526,0.08360999822616577
1757088327915138000,4.496137939453125,0.13323499262332916,-0.0018860000418499112,0.36173000931739807
1757088327924691000,4.50569091796875,0.8109890222549438,-0.5297600030899048,0.4811530113220215
1757088327934243600,4.51524365234375,0.5313680171966553,-0.437716007232666,0.35167399048805237
1757088327943796700,4.524796630859375,0.5105460286140442,-0.19022199511528015,0.4268929958343506
1757088327953349600,4.534349609375,0.20927399396896362,0.19627100229263306,0.13387300074100494
1757088327962902300,4.54390234375,-0.13825500011444092,0.32959800958633423,-0.10990499705076218
1757088327972455400,4.553455322265625,-0.18107399344444275,0.3766399919986725,-0.31367799639701843
1757088327982008000,4.563008056640625,0.024001000449061394,0.17389200627803802,-0.10064800083637238
1757088327991561000,4.57256103515625,0.12390899658203125,0.06391800194978714,-0.46135300397872925
1757088328001113900,4.58211376953125,0.3548249900341034,-0.023083999752998352,0.010095999576151371
1757088328010666800,4.591666748046875,0.3627859950065613,0.057307999581098557,0.1809229999780655
1757088328020219600,4.6012197265625,0.19993199408054352,0.1203790009021759,0.12165799736976624
1757088328029772300,4.610772216796875,-0.04800499975681305,0.0038670001085847616,0.04738999903202057
1757088328039325200,4.6203251953125,-0.21300899982452393,-0.05355999991297722,-0.23092100024223328
1757088328048878000,4.629878173828125,-0.0667010024189949,-0.13586600124835968,-0.27163898944854736
1757088328058431000,4.639430908203125,0.165119007229805,-0.0592069998383522,-0.3445949852466583
1757088328067984000,4.64898388671875,0.3079189956188202,0.1567309945821762,-0.26050901412963867
1757088328077536500,4.65853662109375,0.2534100115299225,0.2695640027523041,-0.24463500082492828
1757088328087089700,4.668089599609375,-0.11133000254631042,0.4638879895210266,-0.23695799708366394
1757088328096642600,4.677642578125,0.016085000708699226,0.5012320280075073,-0.2503350079059601
1757088328106195500,4.687195556640625,-0.0874290019273758,0.5230860114097595,-0.10589200258255005
1757088328115748400,4.696748291015625,-0.16487500071525574,0.6072819828987122,-0.034898001700639725
1757088328125301200,4.70630126953125,0.1383190006017685,0.6803299784660339,-0.0038610000628978014
1757088328134854000,4.71585400390625,0.3685140013694763,0.7141140103340149,0.32930099964141846
1757088328144407000,4.725406982421875,0.35231199860572815,0.8046209812164307,0.5357159972190857
1757088328153959700,4.734959716796875,0.1252020001411438,0.6583619713783264,0.4881629943847656
1757088328163512600,4.7445126953125,-0.20614300668239594,0.4885700047016144,0.3902469873428345
1757088328173065500,4.7540654296875,-0.2574940025806427,0.01654599979519844,0.23891499638557434
1757088328182618400,4.763618408203125,-0.025477999821305275,-0.3030740022659302,0.1191369965672493
1757088328192171000,4.7731708984375,0.25874900817871094,-0.7204340100288391,0.17956000566482544
1757088328201724000,4.782723876953125,-0.005423999857157469,-0.5012509822845459,0.2393990010023117
1757088328211276800,4.79227685546875,-0.15556700527668,-0.39972400665283203,0.0018469999777153134
1757088328220829700,4.80182958984375,-0.20359499752521515,-0.617169976234436,-0.0016759999562054873
1757088328230382600,4.811382568359375,0.01506900042295456,-0.47147199511528015,0.03733599931001663
1757088328239935500,4.820935546875,0.18354099988937378,-0.2512420117855072,-0.17996999621391296
1757088328249488400,4.83048828125,-0.05720200017094612,-0.11006899923086166,-0.29052600264549255
1757088328259041000,4.840041015625,-0.2199449986219406,-0.37991100549697876,-0.1417050063610077
1757088328268594200,4.84959423828125,-0.20705699920654297,-0.47134700417518616,-0.03126699849963188
1757088328278146800,4.859146728515625,-0.18215900659561157,-0.4183659851551056,-0.025774000212550163
1757088328287699700,4.86869970703125,-0.19739800691604614,-0.4757089912891388,-0.0640920028090477
1757088328297252600,4.878252685546875,-0.13892899453639984,-0.540673017501831,-0.1647219955921173
1757088328306805500,4.887805419921875,-0.0957460030913353,-0.5860620141029358,-0.3633140027523041
1757088328316358400,4.8973583984375,-0.6556850075721741,-0.7437009811401367,-0.172202005982399
1757088328325911300,4.906911376953125,-0.6727229952812195,-0.9077069759368896,0.12221500277519226
1757088328335464000,4.9164638671875,-0.6480569839477539,-0.8079469799995422,0.5092719793319702
1757088328345016800,4.926016845703125,-0.501101016998291,-0.3701770007610321,0.5528659820556641
1757088328354569700,4.93556982421875,-0.6672660112380981,0.03512100130319595,0.4575900137424469
1757088328364122600,4.94512255859375,-0.7700989842414856,0.18263599276542664,0.1666249930858612
1757088328373675500,4.954675537109375,-0.784741997718811,0.08220300078392029,0.2855930030345917
1757088328383228400,4.964228515625,-0.45773300528526306,-0.04373199865221977,0.6645140051841736
1757088328392781300,4.97378125,0.12212900072336197,-0.013562999665737152,0.6971889734268188
1757088328402334200,4.983334228515625,-0.07160300016403198,0.10784299671649933,0.5033360123634338
1757088328411887000,4.99288720703125,-0.8243190050125122,0.17706100642681122,0.383994996547699
1757088328421440000,5.00243994140625,-0.9720579981803894,-0.08760199695825577,0.8905220031738281
1757088328430992600,5.01199267578125,-0.2966710031032562,-0.1502770036458969,0.5264769792556763
1757088328440545800,5.0215458984375,0.47080299258232117,0.23313599824905396,0.533873975276947
1757088328450098700,5.0310986328125,0.26122498512268066,0.35011500120162964,0.18007799983024597
1757088328459651300,5.0406513671875,0.12724900245666504,0.3389660120010376,-0.13052800297737122
1757088328469204200,5.050204345703125,-0.021208999678492546,0.11004900187253952,-0.2233549952507019
1757088328478757000,5.059757080078125,0.09331099689006805,0.10076499730348587,-0.29381200671195984
1757088328488310000,5.06931005859375,0.23695500195026398,0.20508599281311035,-0.23673200607299805
1757088328497863000,5.07886279296875,0.2266409993171692,0.16509200632572174,-0.47422200441360474
1757088328507415600,5.08841552734375,0.5310990214347839,0.24146999418735504,-0.2691670060157776
1757088328516968700,5.09796875,0.2645210027694702,0.2810490131378174,0.14035099744796753
1757088328526521600,5.107521484375,-0.2667270004749298,-0.19008299708366394,-0.1382099986076355
1757088328536074500,5.117074462890625,-0.7229809761047363,-0.08776699751615524,-0.16165600717067719
1757088328545627100,5.126627197265625,-1.1051290035247803,0.1376049965620041,-0.14058899879455566
1757088328555180000,5.136179931640625,-1.1329150199890137,0.40685999393463135,-0.2769260108470917
1757088328564733000,5.14573291015625,-0.5541039705276489,0.5264509916305542,-0.38541701436042786
1757088328574285800,5.155285888671875,-0.3457059860229492,0.4057370126247406,-0.5306479930877686
1757088328583838500,5.16483837890625,-0.3974660038948059,0.18330299854278564,-0.8404150009155273
1757088328593391400,5.174391357421875,-0.5658649802207947,-0.06286299973726273,-0.9592030048370361
1757088328602944300,5.1839443359375,-0.8412799835205078,-0.302496999502182,-0.9040949940681458
1757088328612497200,5.1934970703125,-1.3655489683151245,-0.5446169972419739,-0.6749460101127625
1757088328622050000,5.203050048828125,-1.259734034538269,-0.6797009706497192,-0.43667200207710266
1757088328631603000,5.21260302734375,-1.0030059814453125,-0.5953819751739502,-0.11157800257205963
1757088328641156000,5.222156005859375,-0.7646740078926086,-0.35352399945259094,0.12780700623989105
1757088328650708700,5.231708740234375,-0.42752400040626526,-0.1276399940252304,0.11691000312566757
1757088328660261600,5.24126171875,-0.2313919961452484,-0.13571900129318237,-0.06918799877166748
1757088328669814500,5.250814453125,-0.24040399491786957,-0.008569000288844109,-0.11323200166225433
1757088328679367400,5.260367431640625,-0.12291699647903442,-0.02904300019145012,0.0609470009803772
1757088328688920000,5.269920166015625,-0.05334300175309181,0.023812999948859215,0.20422999560832977
1757088328698473200,5.27947314453125,-0.008086999878287315,-0.045756999403238297,0.22626200318336487
1757088328708025900,5.28902587890625,-0.013489999808371067,-0.10401300340890884,0.23613299429416656
1757088328717578800,5.298578857421875,-0.0008529999759048223,-0.24173599481582642,0.361178994178772
1757088328727131600,5.308131591796875,-0.005510000046342611,-0.2811320126056671,0.44840601086616516
1757088328736684500,5.3176845703125,0.05665700137615204,-0.26596999168395996,0.4977419972419739
1757088328746237400,5.327237548828125,0.15022200345993042,-0.20117199420928955,0.463593989610672
1757088328755790300,5.336790283203125,0.08659899979829788,-0.09131500124931335,0.3514249920845032
1757088328765343200,5.34634326171875,0.1096310019493103,0.04794900119304657,0.3767929971218109
1757088328774896000,5.355896240234375,0.1257230043411255,0.17438699305057526,0.44988399744033813
1757088328784448800,5.36544873046875,0.0705069974064827,0.27800801396369934,0.3996649980545044
1757088328794001700,5.375001708984375,0.008228999562561512,0.3726930022239685,0.38831400871276855
1757088328803554600,5.384554443359375,-0.006446999963372946,0.37892600893974304,0.360942006111145
1757088328813107500,5.394107421875,0.035530999302864075,0.3500620126724243,0.39707499742507935
1757088328822660400,5.403660400390625,0.0671980008482933,0.421317994594574,0.4722529947757721
1757088328832213200,5.413213134765625,0.013346999883651733,0.3507550060749054,0.25641798973083496
1757088328841766000,5.422765869140625,0.0029990000184625387,0.1979690045118332,0.08767200261354446
1757088328851318800,5.43231884765625,-0.014173000119626522,0.08689399808645248,-0.008143999613821507
1757088328860871700,5.44187158203125,-0.035996999591588974,-0.017754999920725822,-0.059516001492738724
1757088328870424600,5.451424560546875,-0.12261199951171875,-0.06000100076198578,-0.0617390014231205
1757088328879977500,5.4609775390625,-0.17116600275039673,-0.0822020024061203,-0.08122500032186508
1757088328889530400,5.4705302734375,-0.2677159905433655,-0.15305599570274353,-0.16624799370765686
1757088328899083000,5.4800830078125,-0.23256100714206696,-0.19612999260425568,-0.24490199983119965
1757088328908636200,5.48963623046875,-0.19034099578857422,-0.26234498620033264,-0.3007569909095764
1757088328918188800,5.499188720703125,-0.12434300035238266,-0.2556470036506653,-0.2993510067462921
1757088328927742000,5.508741943359375,-0.030431000515818596,-0.2739199995994568,-0.21956199407577515
1757088328937294600,5.518294677734375,0.029190000146627426,-0.3062419891357422,-0.15456800162792206
1757088328946847500,5.527847412109375,0.15527799725532532,-0.3875409960746765,-0.13948799669742584
1757088328956400400,5.537400390625,0.2767930030822754,-0.439316987991333,-0.182328000664711
1757088328965953300,5.546953369140625,0.3793410062789917,-0.46438899636268616,-0.18306200206279755
1757088328975506000,5.556505859375,0.24520500004291534,-0.4316979944705963,-0.19449999928474426
1757088328985058800,5.566058837890625,-0.02732199989259243,-0.41565999388694763,-0.25916600227355957
1757088328994611700,5.57561181640625,-0.15042300522327423,-0.26822400093078613,-0.3147599995136261
1757088329004164600,5.58516455078125,-0.1312199980020523,-0.10263500362634659,-0.3810940086841583
1757088329013717500,5.594717529296875,-0.13792699575424194,0.058334000408649445,-0.3249860107898712
1757088329023270400,5.6042705078125,-0.1516299992799759,0.1432349979877472,-0.3141140043735504
1757088329032823300,5.6138232421875,-0.13618099689483643,0.21270999312400818,-0.3737269937992096
1757088329042376000,5.6233759765625,-0.11857300251722336,0.23846299946308136,-0.3623589873313904
1757088329051928800,5.6329287109375,-0.1295730024576187,0.2788810133934021,-0.3493190109729767
1757088329061481700,5.642481689453125,-0.1373790055513382,0.2856769859790802,-0.40384000539779663
1757088329071034600,5.65203466796875,-0.1425659954547882,0.031651999801397324,-0.5289700031280518
1757088329080587500,5.66158740234375,-0.08668699860572815,-0.4696269929409027,-0.6821579933166504
1757088329090140400,5.671140380859375,0.11219599843025208,-0.6875119805335999,-0.37504300475120544
1757088329099693300,5.680693359375,0.2029149979352951,-0.45412901043891907,-0.15524500608444214
1757088329109246000,5.690245849609375,0.13897499442100525,-0.1573060005903244,-0.04799500107765198
1757088329118799000,5.699799072265625,0.06844300031661987,0.2829880118370056,0.39146101474761963
1757088329128351700,5.709351806640625,0.33642199635505676,0.6640750169754028,0.6437299847602844
1757088329137904600,5.718904541015625,0.5249119997024536,0.4347530007362366,0.41595301032066345
1757088329147457500,5.72845751953125,0.586525022983551,0.14083200693130493,0.44386398792266846
1757088329157010400,5.738010498046875,0.36466801166534424,0.004333000164479017,0.11803700029850006
1757088329166563300,5.747563232421875,0.10553999990224838,-0.05695899948477745,0.0028379999566823244
1757088329176116000,5.757115966796875,-0.1215210035443306,-0.013458999805152416,-0.019015999510884285
1757088329185668900,5.7666689453125,-0.14584499597549438,-0.057691000401973724,0.06669099628925323
1757088329195221800,5.7762216796875,-0.0752590000629425,-0.02958899922668934,0.16061599552631378
1757088329204774700,5.785774658203125,-0.046776000410318375,-0.0633540004491806,0.3243040144443512
1757088329214327800,5.795327880859375,-0.0662980005145073,0.0350399985909462,0.43532800674438477
1757088329223880200,5.804880126953125,0.05100199952721596,0.170865997672081,0.49261701107025146
1757088329233433300,5.814433349609375,0.112015001475811,0.3274630010128021,0.47371000051498413
1757088329242986200,5.823986328125,-0.007019000127911568,0.44279301166534424,0.36915698647499084
1757088329252539100,5.8335390625,-0.021994000300765038,0.47203099727630615,0.29107698798179626
1757088329262092000,5.843092041015625,-0.07552800327539444,0.32119300961494446,0.23352399468421936
1757088329271645000,5.85264501953125,-0.029287999495863914,0.09062200039625168,0.1367100030183792
1757088329281197600,5.862197509765625,0.09055200219154358,-0.27825498580932617,-0.11681800335645676
1757088329290750500,5.87175048828125,0.058389000594615936,-0.5837119817733765,-0.23242999613285065
1757088329300303400,5.881303466796875,-0.012868000194430351,-0.6199719905853271,-0.20028799772262573
1757088329309856300,5.890856201171875,-0.06915400177240372,-0.4012579917907715,-0.15365299582481384
1757088329319409000,5.900408935546875,0.010622000321745872,-0.07273600250482559,-0.1795549988746643
1757088329328961800,5.9099619140625,0.09630600363016129,0.045159999281167984,-0.21522000432014465
1757088329338515000,5.919514892578125,0.06750500202178955,0.08117199689149857,-0.2297780066728592
1757088329348067600,5.929067626953125,0.04610700160264969,0.0062339999713003635,-0.3405570089817047
1757088329357620500,5.938620361328125,0.022050999104976654,-0.06097500026226044,-0.37144601345062256
1757088329367173400,5.94817333984375,0.07779300212860107,0.09680099785327911,-0.37424200773239136
1757088329376726300,5.957726318359375,0.1143219992518425,0.13602399826049805,-0.3829079866409302
1757088329386279200,5.967279052734375,0.08323000371456146,0.11967200040817261,-0.34291398525238037
1757088329395832000,5.97683203125,0.03480999916791916,0.034547001123428345,-0.3485510051250458
1757088329405385000,5.986385009765625,0.05820700153708458,-0.1312669962644577,-0.5142760276794434
1757088329414937600,5.9959375,0.07118699699640274,-0.17573599517345428,-0.40002700686454773
1757088329424490500,6.005490478515625,0.061521999537944794,0.06723400205373764,-0.3602519929409027
1757088329434043400,6.01504345703125,0.0855410024523735,0.10128699988126755,-0.33570799231529236
1757088329443596300,6.02459619140625,0.08049499988555908,0.06119700148701668,-0.31898000836372375
1757088329453149200,6.034149169921875,0.000534999999217689,-0.01309099979698658,-0.26298001408576965
1757088329462701800,6.043701904296875,-0.03700200095772743,-0.12408100068569183,-0.25807300209999084
1757088329472254700,6.053254638671875,-0.007953000254929066,-0.13587599992752075,-0.1840279996395111
1757088329481807600,6.0628076171875,0.032763998955488205,-0.12868499755859375,-0.11948899924755096
1757088329491360500,6.072360595703125,0.05430300161242485,-0.11984200030565262,-0.10168500244617462
1757088329500913400,6.081913330078125,0.05215999856591225,-0.06476700305938721,-0.06906600296497345
1757088329510466000,6.091466064453125,0.052466001361608505,-0.05175299942493439,-0.047067999839782715
1757088329520019200,6.101019287109375,0.038304999470710754,-0.05591300129890442,-0.0009459999855607748
1757088329529571800,6.11057177734375,0.024044999852776527,-0.05087900161743164,0.03346199914813042
1757088329539125000,6.120125,0.01437699981033802,-0.05259900167584419,0.07026799768209457
1757088329548678000,6.129677978515625,0.00202700006775558,-0.08081000298261642,0.09139099717140198
1757088329558230800,6.139230712890625,0.001357999979518354,-0.1137320026755333,0.09733100235462189
1757088329567783400,6.148783447265625,-0.001690999954007566,-0.10153000056743622,0.10058700293302536
1757088329577336300,6.15833642578125,-0.021560000255703926,-0.11689300090074539,0.0808119997382164
1757088329586889200,6.16788916015625,-0.0006559999892488122,-0.09726099669933319,0.08227299898862839
1757088329596442000,6.177442138671875,0.02522199973464012,-0.053741998970508575,0.08567400276660919
1757088329605995000,6.1869951171875,0.03222699835896492,-0.014692000113427639,0.07109999656677246
1757088329615548000,6.1965478515625,0.05134100094437599,0.042890001088380814,0.11200699955224991
1757088329625100500,6.2061005859375,0.05126899853348732,0.04550499841570854,0.12384700030088425
1757088329634653400,6.2156533203125,0.048608001321554184,0.021007999777793884,0.13766199350357056
1757088329644206300,6.225206298828125,0.05529500171542168,0.0024840000551193953,0.16660700738430023
1757088329653759200,6.23475927734375,0.030765999108552933,-0.015300000086426735,0.1762399971485138
1757088329663312100,6.24431201171875,0.01843000017106533,-0.009726000018417835,0.14275600016117096
1757088329672865000,6.253864990234375,0.02051199972629547,-0.011195000261068344,0.11988600343465805
1757088329682417700,6.263417724609375,0.024815000593662262,-0.0418890006840229,0.11864600330591202
1757088329691970600,6.272970458984375,0.0365849994122982,0.019700000062584877,0.12409400194883347
1757088329701523500,6.2825234375,0.03631399944424629,-0.00785600021481514,0.09981700032949448
1757088329711076400,6.292076416015625,0.05050399899482727,-0.013274000026285648,0.06799300014972687
1757088329720629500,6.30162939453125,0.06496699899435043,0.044700998812913895,0.08081799745559692
1757088329730182100,6.31118212890625,0.0770220011472702,0.020452000200748444,0.054742999374866486
1757088329739735000,6.320735107421875,0.07001599669456482,0.0359329991042614,0.059873998165130615
1757088329749288000,6.330287841796875,0.05829799920320511,0.03266200050711632,0.04255300015211105
1757088329758840800,6.3398408203125,0.04423400014638901,0.048016998916864395,0.046817000955343246
1757088329768393500,6.3493935546875,0.020594999194145203,0.028873000293970108,0.01924300007522106
1757088329777946400,6.3589462890625,0.013845999725162983,0.06066900119185448,0.029593000188469887
1757088329787499300,6.368499267578125,0.007151000201702118,0.04332900047302246,-0.008135000243782997
1757088329797052200,6.37805224609375,0.021916000172495842,0.013596000149846077,-0.03272999823093414
1757088329806604800,6.387604736328125,0.05337800085544586,0.01064400002360344,-0.03371800109744072
1757088329816158000,6.397157958984375,0.058458998799324036,0.02838199958205223,-0.010005000047385693
1757088329825710600,6.406710693359375,0.06129100173711777,0.03391899913549423,-0.044353000819683075
1757088329835263700,6.416263671875,0.07360800355672836,0.018626999109983444,-0.03606399893760681
1757088329844816400,6.42581640625,0.06932699680328369,0.03551499918103218,-0.04385799914598465
1757088329854369300,6.435369384765625,0.04358299821615219,0.06446699798107147,-0.01966799981892109
1757088329863922200,6.444922119140625,0.04890900105237961,0.057672999799251556,-0.008077999576926231
1757088329873475000,6.45447509765625,0.01817999966442585,0.04904099926352501,0.01195599976927042
1757088329883027700,6.46402783203125,0.01135099958628416,0.05020499974489212,0.010060000233352184
1757088329892580600,6.47358056640625,-0.0004039999912492931,0.05381200090050697,0.032781001180410385
1757088329902133500,6.483133544921875,0.004310000222176313,0.02151699922978878,0.04714300110936165
1757088329911686400,6.492686279296875,0.006506999954581261,0.016320999711751938,0.05114100128412247
1757088329921239300,6.5022392578125,0.015887999907135963,0.009171999990940094,0.036531001329422
1757088329930792200,6.511792236328125,0.020387999713420868,0.004778999835252762,0.04514800012111664
1757088329940345000,6.521344970703125,0.04386100172996521,-0.028754999861121178,0.043974000960588455
1757088329949898200,6.530898193359375,0.04815699905157089,-0.015356999821960926,0.06537099927663803
1757088329959451000,6.540450927734375,0.05012299865484238,-0.0028699999675154686,0.0650470033288002
1757088329969003800,6.550003662109375,0.05454200133681297,0.006403000093996525,0.06941299885511398
1757088329978556400,6.559556396484375,0.04703199863433838,0.02185099944472313,0.08040899783372879
1757088329988109600,6.569109619140625,0.04425999894738197,0.018427999690175056,0.08398299664258957
1757088329997662200,6.578662109375,0.03181000053882599,0.008352000266313553,0.09880399703979492
1757088330007215000,6.588215087890625,0.021517999470233917,-0.0350940003991127,0.10389699786901474
1757088330016768000,6.59776806640625,0.006434999871999025,-0.04429800063371658,0.08834099769592285
1757088330026321000,6.60732080078125,0.008206999860703945,-0.04608500003814697,0.059863001108169556
1757088330035873500,6.61687353515625,0.02463199943304062,-0.004788000136613846,0.03955899924039841
1757088330045426400,6.626426513671875,0.029106000438332558,-0.010867999866604805,0.02727000042796135
1757088330054979300,6.635979248046875,0.03610499948263168,-0.009669000282883644,0.002331000054255128
1757088330064532200,6.6455322265625,0.038430001586675644,-0.006147000007331371,-0.016450000926852226
1757088330074085000,6.655085205078125,0.0361189991235733,0.004046999849379063,-0.036302000284194946
1757088330083637800,6.6646376953125,0.041060999035835266,0.006926000118255615,-0.048257000744342804
1757088330093190700,6.674190673828125,0.03646500036120415,0.014142000116407871,-0.05058100074529648
1757088330102743600,6.68374365234375,0.041508998721838,0.014096999540925026,-0.0618089996278286
1757088330112296400,6.69329638671875,0.041777998208999634,0.011580999940633774,-0.06334999948740005
1757088330121849000,6.70284912109375,0.049327999353408813,0.02269499935209751,-0.06684400141239166
1757088330131402200,6.71240234375,0.05206099897623062,0.026302000507712364,-0.05185199901461601
1757088330140955100,6.721955078125,0.042791999876499176,0.011512000113725662,-0.05558500066399574
1757088330150508000,6.731508056640625,0.023883000016212463,0.006508000195026398,-0.040724001824855804
1757088330160061000,6.74106103515625,0.014492000453174114,-0.009402000345289707,-0.046953000128269196
1757088330169613600,6.750613525390625,0.009738000109791756,-0.02668200060725212,-0.03721100091934204
1757088330179166500,6.76016650390625,-0.004614000208675861,-0.02714099921286106,-0.034860000014305115
1757088330188719400,6.76971923828125,0.00737700005993247,-0.016099000349640846,-0.0329120010137558
1757088330198272300,6.779272216796875,0.029069999232888222,0.005704000126570463,-0.040323998779058456
1757088330207825200,6.7888251953125,0.02439500018954277,-0.0031059999018907547,-0.04514399915933609
1757088330217377800,6.798377685546875,0.05082400143146515,0.004393000155687332,-0.0340070016682148
1757088330226930700,6.8079306640625,0.05572599917650223,0.025032000616192818,-0.012013000436127186
1757088330236483600,6.817483642578125,0.04633300006389618,0.03080100007355213,-0.008822999894618988
1757088330246036500,6.827036376953125,0.03443999961018562,0.029407000169157982,0.016930999234318733
1757088330255589400,6.83658935546875,0.02709200046956539,0.00558600015938282,0.04125300049781799
1757088330265142300,6.846142333984375,0.03402699902653694,0.005836000200361013,0.05025399848818779
1757088330274695200,6.855695068359375,0.04324600100517273,-0.0005329999839887023,0.05610800161957741
1757088330284248000,6.865248046875,0.06204700097441673,0.00043399998685345054,0.05023600161075592
1757088330293801000,6.874801025390625,0.06649599969387054,-0.012279000133275986,0.03576799854636192
1757088330303353900,6.884353759765625,0.06148099899291992,-0.0019680000841617584,0.028886999934911728
1757088330312906800,6.89390673828125,0.04954899847507477,0.009723999537527561,-0.0020469999872148037
1757088330322459400,6.90345947265625,0.04008200019598007,0.004763999953866005,-0.015169000253081322
1757088330332012300,6.91301220703125,0.013980000279843807,0.013515000231564045,-0.02267800085246563
1757088330341565200,6.922565185546875,-0.007319000083953142,0.015110000036656857,-0.029903000220656395
1757088330351118000,6.9321181640625,-0.012010999955236912,0.010036000050604343,-0.009828000329434872
1757088330360670700,6.941670654296875,0.004813000094145536,0.017077000811696053,-0.009147999808192253
1757088330370223600,6.9512236328125,0.024024000391364098,0.01027700025588274,-0.02234799973666668
1757088330379776500,6.960776611328125,0.028971999883651733,0.0036730000283569098,-0.04835300147533417
1757088330389329400,6.970329345703125,0.04818899929523468,-0.007211000192910433,-0.036722999066114426
1757088330398882000,6.979882080078125,0.057927001267671585,0.00279000005684793,-0.04610300064086914
1757088330408435000,6.98943505859375,0.06777899712324142,0.016661999747157097,-0.052625998854637146
1757088330417988000,6.998988037109375,0.05130099877715111,0.0024629998952150345,-0.06546899676322937
1757088330427540700,7.008540771484375,0.03482300043106079,-0.0018629999831318855,-0.06599199771881104
1757088330437094000,7.018093994140625,0.01834000088274479,0.0008500000112690032,-0.06191299855709076
1757088330446646800,7.027646728515625,0.0065819998271763325,0.01473500020802021,-0.03568499907851219
1757088330456199400,7.037199462890625,0.0019509999547153711,0.003085999982431531,-0.045134998857975006
1757088330465752300,7.04675244140625,0.011615999974310398,0.0015290000010281801,-0.04300900176167488
1757088330475305200,7.05630517578125,0.0068060001358389854,-0.0021200000774115324,-0.02756199985742569
1757088330484858000,7.065858154296875,0.021095000207424164,-0.007633000146597624,-0.02659600041806698
1757088330494410800,7.07541064453125,0.04497100040316582,0.01650499925017357,-0.003343000076711178
1757088330503963600,7.084963623046875,0.06883999705314636,0.02122100070118904,0.005175999831408262
1757088330513516500,7.0945166015625,0.06395299732685089,0.021017000079154968,0.02034899964928627
1757088330523069400,7.1040693359375,0.07097800076007843,0.01862199977040291,0.03261899948120117
1757088330532622300,7.113622314453125,0.05646499991416931,0.018441999331116676,0.037599001079797745
1757088330542175200,7.12317529296875,0.034671999514102936,0.006889000069350004,0.04918599873781204
1757088330551728400,7.132728271484375,0.03680799901485443,0.011928999796509743,0.05559000000357628
1757088330561281000,7.142281005859375,0.03423000127077103,0.009910999797284603,0.034446001052856445
1757088330570834000,7.151833984375,0.022109000012278557,0.01007699966430664,0.027859000489115715
1757088330580386800,7.16138671875,0.024504000321030617,0.012621000409126282,-0.00546099990606308
1757088330589939700,7.170939697265625,0.026940999552607536,0.001256000017747283,-0.023347999900579453
1757088330599492400,7.180492431640625,0.022221999242901802,0.006531999912112951,-0.02903899922966957
1757088330609045200,7.190045166015625,0.017493000254034996,-0.009066999889910221,-0.03878999873995781
1757088330618598100,7.19959814453125,0.015158000402152538,-0.012400000356137753,-0.04584600031375885
1757088330628151000,7.209151123046875,0.022419000044465065,-0.004226000048220158,-0.04362199828028679
1757088330637704000,7.218703857421875,0.03215000033378601,0.02405400015413761,-0.03493399918079376
1757088330647256600,7.228256591796875,0.04671800136566162,0.046160999685525894,-0.02002899907529354
1757088330656809500,7.2378095703125,0.04920100048184395,0.04444900155067444,0.0030590000096708536
1757088330666362400,7.2473623046875,0.05875200033187866,0.031474001705646515,0.01587199978530407
1757088330675915300,7.256915283203125,0.06815099716186523,0.0032850001007318497,0.018921000882983208
1757088330685468200,7.26646826171875,0.053442999720573425,-0.010040000081062317,0.04670900106430054
1757088330695021000,7.27602099609375,0.03628300130367279,-0.029683999717235565,0.04602700099349022
1757088330704574000,7.285573974609375,0.038304999470710754,-0.02112100087106228,0.04749099910259247
1757088330714126800,7.295126953125,0.023693999275565147,-0.008484999649226665,0.033128999173641205
1757088330723679700,7.3046796875,0.013867000117897987,-0.01909000054001808,0.024250999093055725
1757088330733232400,7.314232421875,0.025622999295592308,-0.0017269999952986836,0.03171499818563461
1757088330742785300,7.323785400390625,0.035064999014139175,0.017176000401377678,0.029670000076293945
1757088330752338200,7.333338134765625,0.05165499821305275,0.019391000270843506,0.0344339981675148
1757088330761891000,7.34289111328125,0.07300200313329697,0.01921200007200241,0.04119399935007095
1757088330771444000,7.35244384765625,0.07511699944734573,0.0029299999587237835,0.0453220009803772
1757088330780996600,7.36199658203125,0.09400700032711029,-0.0059910002164542675,0.03547900170087814
1757088330790549800,7.3715498046875,0.09159500151872635,0.007710999809205532,0.008154000155627728
1757088330800102700,7.3811025390625,0.07024899870157242,0.02906700037419796,0.002991999965161085
1757088330809655300,7.3906552734375,0.03725900128483772,0.06471899896860123,-0.007952000014483929
1757088330819208200,7.400208251953125,0.02575499936938286,0.0623599998652935,0.004674000199884176
1757088330828760800,7.4097607421875,0.0021349999587982893,0.04714899882674217,0.007536999881267548
1757088330838314000,7.41931396484375,0.0021669999696314335,0.033351998776197433,0.03223999962210655
1757088330847866600,7.42886669921875,0.030758999288082123,0.03221600130200386,0.04354099929332733
1757088330857419500,7.43841943359375,0.05455600097775459,0.04490499943494797,0.04458000138401985
1757088330866972400,7.447972412109375,0.07837799936532974,0.03856400027871132,0.036511000245809555
1757088330876525300,7.457525390625,0.0782649964094162,0.034247998148202896,0.0497639998793602
1757088330886078200,7.467078125,0.0853710025548935,0.023082999512553215,0.04945699870586395
1757088330895631000,7.476631103515625,0.049327000975608826,-0.014708999544382095,0.0339989997446537
1757088330905184000,7.48618408203125,0.022908000275492668,-0.032311998307704926,0.0131029998883605
1757088330914737000,7.49573681640625,-0.027574000880122185,-0.04456600174307823,0.02962700091302395
1757088330924289500,7.50528955078125,-0.049515001475811005,-0.06936299800872803,0.03140199929475784
1757088330933842400,7.514842529296875,-0.0404760017991066,-0.07634399831295013,0.030187999829649925
1757088330943395300,7.524395263671875,-0.0076859998516738415,-0.09598600119352341,0.033268000930547714
1757088330952948200,7.5339482421875,0.010751999914646149,-0.09646199643611908,0.03415500000119209
1757088330962500900,7.5435009765625,0.04130600020289421,-0.10382299870252609,0.003819999983534217
1757088330972054000,7.553053955078125,0.04086900129914284,-0.11118800193071365,-0.012899000197649002
1757088330981607000,7.56260693359375,0.04058299958705902,-0.12305600196123123,-0.03923099860548973
1757088330991159800,7.572159912109375,0.011731999926269054,-0.13223400712013245,-0.07497099786996841
1757088331000712700,7.581712646484375,0.011881999671459198,-0.10697799921035767,-0.09939800202846527
1757088331010265600,7.591265625,-0.00927599985152483,-0.09217099845409393,-0.13351400196552277
1757088331019818200,7.600818359375,-0.00610999995842576,-0.05094100162386894,-0.17709000408649445
1757088331029371100,7.61037109375,0.0021830000914633274,-0.002730000065639615,-0.20487399399280548
1757088331038924000,7.619924072265625,0.018137000501155853,0.07692299783229828,-0.23381799459457397
1757088331048477000,7.629476806640625,0.07992900162935257,0.12787799537181854,-0.28690800070762634
1757088331058029600,7.639029541015625,0.15581700205802917,0.12978599965572357,-0.2913669943809509
1757088331067582500,7.64858251953125,0.34198200702667236,0.28957399725914,-0.23393000662326813
1757088331077135400,7.65813525390625,0.2184550017118454,0.4970239996910095,-0.28205299377441406
1757088331086688300,7.667688232421875,-0.5653520226478577,-0.1649640053510666,-0.18971499800682068
1757088331096241200,7.6772412109375,-0.025116000324487686,-0.2721630036830902,0.08944100141525269
1757088331105793800,7.686793701171875,0.12489700317382812,0.2852950096130371,-0.0644569993019104
1757088331115346700,7.6963466796875,-0.32244500517845154,0.32223498821258545,-0.2866309881210327
1757088331124899600,7.705899658203125,-0.05209299921989441,-0.03815099969506264,-0.1401509940624237
1757088331134452500,7.715452392578125,0.17419299483299255,-0.057022999972105026,-0.051910001784563065
1757088331144005400,7.72500537109375,0.17686699330806732,0.13151299953460693,-0.12349800020456314
1757088331153558500,7.73455859375,0.3239229917526245,0.15076600015163422,-0.22124800086021423
1757088331163111200,7.744111083984375,0.3038490116596222,0.15636900067329407,-0.24372699856758118
1757088331172664000,7.7536640625,0.049313001334667206,0.17878800630569458,-0.1668580025434494
1757088331182217000,7.763217041015625,-0.05990099906921387,0.09004499763250351,-0.07042399793863297
1757088331191769900,7.772769775390625,-0.05252299830317497,0.048259999603033066,0.025936000049114227
1757088331201322500,7.782322509765625,-0.08158800005912781,0.04702800139784813,0.0780939981341362
1757088331210875400,7.79187548828125,-0.06825599819421768,0.00033099998836405575,0.11315800249576569
1757088331220428300,7.80142822265625,0.002107999986037612,-0.02449899911880493,0.135685995221138
1757088331229981200,7.810981201171875,0.045944999903440475,-0.03448399901390076,0.17051799595355988
1757088331239533800,7.820533935546875,0.07053899765014648,-0.04920300096273422,0.202223002910614
1757088331249086700,7.830086669921875,0.0806799978017807,-0.05528999865055084,0.25119298696517944
1757088331258639600,7.8396396484375,0.10732699930667877,-0.08891399949789047,0.29379498958587646
1757088331268192500,7.849192626953125,0.1098570004105568,-0.09377399832010269,0.3324199914932251
1757088331277745400,7.858745361328125,0.09541899710893631,-0.10287400335073471,0.36729300022125244
1757088331287298300,7.86829833984375,0.07118900120258331,-0.11828199774026871,0.39646100997924805
1757088331296851200,7.877851318359375,0.0660960003733635,-0.11005300283432007,0.39256399869918823
1757088331306404000,7.887404052734375,0.022703999653458595,-0.11372700333595276,0.3802280128002167
1757088331315957000,7.89695703125,-0.0038499999791383743,-0.12176000326871872,0.3461419939994812
1757088331325510000,7.906510009765625,-0.0038079998921602964,-0.12030600011348724,0.2845650017261505
1757088331335062500,7.9160625,0.006051999982446432,-0.13491499423980713,0.21993599832057953
1757088331344615400,7.925615478515625,0.013722999952733517,-0.1488949954509735,0.17536400258541107
1757088331354168300,7.935168212890625,0.014600999653339386,-0.12168999761343002,0.1477999985218048
1757088331363721200,7.94472119140625,0.01810700073838234,-0.11229699850082397,0.13381199538707733
1757088331373274000,7.954274169921875,0.026892000809311867,-0.08329500257968903,0.08256799727678299
1757088331382827000,7.963826904296875,0.016986999660730362,-0.047074999660253525,0.041138000786304474
1757088331392379600,7.973379638671875,0.00044999999227002263,-0.015482000075280666,-0.020465999841690063
1757088331401932500,7.9829326171875,-0.006192999891936779,0.0029869999270886183,-0.05823799967765808
1757088331411485400,7.9924853515625,0.009015999734401703,0.020625999197363853,-0.10307300090789795
1757088331421038300,8.002038330078125,0.01726900041103363,0.03957200050354004,-0.1272059977054596
1757088331440144100,8.02114404296875,0.0509210005402565,0.05417599901556969,-0.158268004655838
1757088331449697000,8.030697021484375,0.0549050010740757,0.08698000013828278,-0.18400000035762787
1757088331459249700,8.040249755859374,0.07336500287055969,0.1043429970741272,-0.19024300575256348
1757088331468802800,8.049802734375,0.07998400181531906,0.12740600109100342,-0.19148699939250946
1757088331478355700,8.059355712890625,0.06738399714231491,0.11750800162553787,-0.192672997713089
1757088331487908400,8.068908447265626,0.06434900313615799,0.12633800506591797,-0.18934200704097748
1757088331497461200,8.078461181640625,0.05888500064611435,0.13937899470329285,-0.1773490011692047
1757088331507014100,8.08801416015625,0.05798200145363808,0.13835600018501282,-0.14602699875831604
1757088331516567000,8.097567138671875,0.0425649993121624,0.1261720061302185,-0.13715699315071106
1757088331526119700,8.10711962890625,0.04370500147342682,0.11267399787902832,-0.12469600141048431
1757088331535672600,8.116672607421876,0.047067999839782715,0.08891499787569046,-0.12669099867343903
1757088331545225500,8.1262255859375,0.05021899938583374,0.07782500237226486,-0.09480299800634384
1757088331554778400,8.1357783203125,0.05804799869656563,0.06537999957799911,-0.09420499950647354
1757088331564331300,8.145331298828125,0.05369799956679344,0.04471899941563606,-0.0779080018401146
1757088331573884400,8.154884521484375,0.04200899973511696,0.036694999784231186,-0.05345899984240532
1757088331583437000,8.16443701171875,0.027766000479459763,0.02465900033712387,-0.03271099925041199
1757088331592990000,8.173989990234375,0.025165000930428505,-0.00928100012242794,-0.004430000204592943
1757088331602542800,8.18354296875,0.01523599959909916,-0.025529000908136368,0.008631999604403973
1757088331612095700,8.193095703125,0.024323999881744385,-0.043060000985860825,0.014030000194907188
1757088331621648600,8.202648681640625,0.023545000702142715,-0.07766400277614594,0.0370820015668869
1757088331631201300,8.212201171875,0.015544000081717968,-0.08798500150442123,0.033906999975442886
1757088331640754200,8.221754150390625,0.029146000742912292,-0.07495100051164627,0.0354669988155365
1757088331650307000,8.23130712890625,0.03079500049352646,-0.06964100152254105,0.04145300015807152
1757088331659860000,8.24085986328125,0.02768000029027462,-0.06916800141334534,0.035923998802900314
1757088331669412600,8.25041259765625,0.02450300008058548,-0.08252900093793869,0.04210900142788887
1757088331678965500,8.259965576171876,0.03334200009703636,-0.08627299964427948,0.034685999155044556
1757088331688518400,8.269518310546875,0.025543000549077988,-0.08128000050783157,0.025553999468684196
1757088331698071300,8.2790712890625,0.02725600078701973,-0.07668899744749069,0.05089699849486351
1757088331707624200,8.288624267578125,0.031481001526117325,-0.06341700255870819,0.04326299950480461
1757088331717176800,8.2981767578125,0.030983999371528625,-0.04875899851322174,0.04960300028324127
1757088331726730000,8.30772998046875,0.04261999949812889,-0.01921200007200241,0.05095300078392029
1757088331736282600,8.31728271484375,0.030554000288248062,0.006093999836593866,0.03882500156760216
1757088331745835500,8.32683544921875,0.0303530003875494,-0.024365000426769257,0.032225001603364944
1757088331755388400,8.336388427734375,0.01809599995613098,-0.023962000384926796,0.055358998477458954
1757088331764941300,8.34594140625,0.044658999890089035,0.12572699785232544,0.11496099829673767
1757088331774494200,8.355494140625,0.028297999873757362,0.07697200030088425,0.043751999735832214
1757088331784046800,8.365046875,0.049449000507593155,-0.05211399868130684,0.04413500055670738
1757088331793600000,8.37460009765625,0.05609099939465523,-0.01771100051701069,0.10052300244569778
1757088331803153000,8.38415283203125,0.051513999700546265,0.10059899836778641,0.08378300070762634
1757088331812705500,8.39370556640625,0.025550000369548798,0.12409999966621399,0.08189699798822403
1757088331822258400,8.403258544921876,0.013771000318229198,0.09672600030899048,0.08941099792718887
1757088331831811300,8.412811279296875,0.004122000187635422,0.05300600081682205,0.08739499747753143
1757088331841364200,8.4223642578125,0.011068000458180904,0.018776999786496162,0.07402700185775757
1757088331850916900,8.431916748046875,0.02025900036096573,-0.003877999959513545,0.0634939968585968
1757088331860469800,8.4414697265625,0.01742899976670742,-0.0022410000674426556,0.057610999792814255
1757088331870022700,8.451022705078126,0.028846999630331993,-0.03901899978518486,0.03609300032258034
1757088331879575600,8.460575439453125,0.01152500044554472,-0.0626320019364357,0.01824199967086315
1757088331889128400,8.47012841796875,-0.0057230000384151936,-0.0918859988451004,-0.023130999878048897
1757088331898681300,8.479681396484375,0.005778000224381685,-0.1060670018196106,-0.03474799916148186
1757088331908234200,8.489234130859375,0.012550000101327896,-0.11701700091362,-0.0660569965839386
1757088331917787100,8.498787109375,0.014782000333070755,-0.0891529992222786,-0.08442100137472153
1757088331927340000,8.508340087890625,0.022047000005841255,-0.056141000241041183,-0.09497900307178497
1757088331936893000,8.517892822265624,0.03429099917411804,-0.04556899890303612,-0.1160150021314621
1757088331946445600,8.527445556640625,0.032614998519420624,-0.004631999880075455,-0.13997399806976318
1757088331955998500,8.53699853515625,0.03836299851536751,0.008755000308156013,-0.1598149985074997
1757088331965551400,8.54655126953125,0.027612999081611633,0.02565399929881096,-0.18723100423812866
1757088331975104300,8.556104248046875,0.038527000695466995,0.05994400009512901,-0.1815979927778244
1757088331984657200,8.5656572265625,0.03995800018310547,0.07219599932432175,-0.2061839997768402
1757088331994209800,8.575209716796875,0.034338999539613724,0.10425300151109695,-0.21896900236606598
1757088332003762700,8.5847626953125,0.05728999897837639,0.11234600096940994,-0.2001429945230484
1757088332013315600,8.594315673828126,0.06114000082015991,0.14256900548934937,-0.1804569959640503
1757088332022868500,8.603868408203125,0.08870600163936615,0.12628500163555145,-0.15007400512695312
1757088332032421400,8.61342138671875,0.0732169970870018,0.13365699350833893,-0.15510199964046478
1757088332041974000,8.62297412109375,0.045768000185489655,0.11341200023889542,-0.18454299867153168
1757088332051527200,8.632527099609375,0.04690299928188324,0.10099200159311295,-0.1719769984483719
1757088332061079800,8.642079833984376,0.052553001791238785,0.09606699645519257,-0.12470299750566483
1757088332070633000,8.651633056640625,0.06272300332784653,0.08932700008153915,-0.07608400285243988
1757088332080185900,8.661185791015624,0.0488089993596077,0.08731500059366226,-0.04169100150465965
1757088332089738500,8.670738525390625,0.07999999821186066,0.053732000291347504,0.013321000151336193
1757088332099291400,8.68029150390625,0.08969700336456299,0.06502100080251694,0.013256999664008617
1757088332108844300,8.68984423828125,0.08010999858379364,0.055431000888347626,0.028943000361323357
1757088332118397200,8.699397216796875,0.07043299823999405,0.044335998594760895,0.027658000588417053
1757088332127950000,8.7089501953125,0.07254300266504288,0.02973099984228611,0.039666999131441116
1757088332137502700,8.718502685546875,0.07436999678611755,0.004813999868929386,0.06883800029754639
1757088332147055600,8.7280556640625,0.07128699868917465,-0.007267999928444624,0.08057600259780884
1757088332156608500,8.7376083984375,0.058552999049425125,-0.01881599985063076,0.08732499927282333
1757088332166161400,8.747161376953125,0.04805599898099899,-0.07757099717855453,0.06468600034713745
1757088332175714300,8.75671435546875,0.05174500122666359,-0.09780199825763702,0.07340200245380402
1757088332185267200,8.76626708984375,0.08646199852228165,-0.11119399964809418,0.13067899644374847
1757088332194820000,8.775820068359375,0.10195299983024597,-0.1627109944820404,0.09473299980163574
1757088332204373000,8.785373046875,0.04131099954247475,-0.13718700408935547,0.03691000118851662
1757088332213926000,8.79492578125,-0.011687000282108784,-0.06796000152826309,0.03753399848937988
1757088332223478500,8.804478515625,-0.040832001715898514,-0.06767799705266953,0.06636100262403488
1757088332233031400,8.814031494140625,-0.0680449977517128,-0.12330599874258041,0.09627100080251694
1757088332242584300,8.823584228515625,-0.05236100032925606,-0.17324599623680115,0.0799340009689331
1757088332252137200,8.83313720703125,-0.03181099891662598,-0.14791299402713776,0.07981599867343903
1757088332261690000,8.842690185546875,-0.013617999851703644,-0.14386799931526184,0.05433500185608864
1757088332271242800,8.85224267578125,0.04556899890303612,-0.07853499799966812,0.06917300075292587
1757088332280795600,8.861795654296875,0.08130600303411484,-0.014239000156521797,0.04312099888920784
1757088332290348500,8.8713486328125,0.07395300269126892,-0.0842759981751442,-0.06282000243663788
1757088332299901400,8.8809013671875,0.036152999848127365,0.016486000269651413,-0.06251499801874161
1757088332309454000,8.8904541015625,0.017726000398397446,0.10739400237798691,0.017683999612927437
1757088332319007000,8.900007080078124,-0.019735999405384064,0.12623700499534607,0.005876000039279461
1757088332328559900,8.909559814453125,-0.036309998482465744,0.10389699786901474,0.09991999715566635
1757088332338113000,8.919113037109375,0.0064860000275075436,0.10187800228595734,0.17666399478912354
1757088332347665700,8.928665771484376,-0.07887499779462814,0.06938999891281128,-0.21468199789524078
1757088332357218800,8.93821875,-0.11079499870538712,0.13155299425125122,-0.3408910036087036
1757088332366771500,8.947771484375,0.004463000223040581,0.14110200107097626,-0.06640300154685974
1757088332376324400,8.957324462890625,0.045083001255989075,0.15005899965763092,0.031026000156998634
1757088332385877200,8.966877197265624,0.04744400084018707,0.13355900347232819,-0.010821999981999397
1757088332395430100,8.97643017578125,0.05214500054717064,0.12715500593185425,-0.016721000894904137
1757088332404982800,8.985982666015625,0.07072299718856812,0.06822899729013443,-0.02291099913418293
1757088332414535700,8.99553564453125,0.0240860003978014,0.01694599911570549,-0.03465399891138077
1757088332424088600,9.005088623046875,-0.0037960000336170197,-0.004211000166833401,-0.06596200168132782
1757088332433641500,9.014641357421874,0.02269900031387806,0.017139999195933342,-0.015608999878168106
1757088332443194000,9.024194091796875,0.15287399291992188,0.03846000134944916,0.05737200006842613
1757088332452747000,9.0337470703125,0.25960901379585266,0.06505600363016129,0.09291999787092209
1757088332462300000,9.0432998046875,0.080935999751091,0.035082001239061356,-0.11907199770212173
1757088332471852800,9.052852783203125,0.028246000409126282,-0.03229299932718277,-0.09070999920368195
1757088332481405700,9.06240576171875,0.04841399937868118,0.04588799923658371,-0.1652899980545044
1757088332490958600,9.07195849609375,0.211557999253273,0.12168300151824951,-0.025093000382184982
1757088332500511700,9.08151171875,0.23297099769115448,0.07807599753141403,-0.0791499987244606
1757088332510064400,9.091064453125,0.4009160101413727,0.0806329995393753,0.41482898592948914
1757088332519617300,9.1006171875,-0.061388999223709106,0.045464999973773956,-0.24383799731731415
1757088332529170200,9.110170166015624,-0.21026800572872162,0.5731329917907715,-0.6151480078697205
1757088332538723000,9.11972314453125,-0.015124999918043613,0.5505499839782715,0.07298599928617477
1757088332548275700,9.129275634765625,0.11836100369691849,-1.3805700540542603,0.31745800375938416
1757088332557828600,9.13882861328125,-0.4885900020599365,-1.6894630193710327,0.46570900082588196
1757088332567381500,9.148381591796875,-0.16645200550556183,-1.069146990776062,0.37985101342201233
1757088332576934400,9.157934326171874,0.02509400062263012,-0.5316879749298096,0.37551501393318176
1757088332586487300,9.1674873046875,0.10912799835205078,0.13576599955558777,0.4465480148792267
1757088332596040200,9.177040283203125,0.12876899540424347,0.6988340020179749,0.3483250141143799
1757088332605592800,9.1865927734375,-0.12546400725841522,0.6907830238342285,-0.15242899954319
1757088332615146000,9.19614599609375,0.0004889999981969595,0.46880701184272766,-0.2979089915752411
1757088332624699000,9.205698974609374,0.09929099678993225,0.3220590054988861,-0.2629930078983307
1757088332634251500,9.21525146484375,0.03328299894928932,0.19737499952316284,-0.3607189953327179
1757088332643804400,9.224804443359375,0.2032410055398941,0.23384900391101837,-0.27727898955345154
1757088332653357300,9.234357421875,0.040720000863075256,0.3170729875564575,0.0679360032081604
1757088332662910200,9.24391015625,0.17640499770641327,0.10608799755573273,-0.05646200105547905
1757088332672462800,9.253462890625,-0.09023600071668625,0.17218700051307678,-0.11512599885463715
1757088332682015700,9.263015625,-0.0001500000071246177,0.6573219895362854,-0.023245999589562416
1757088332691568600,9.272568603515625,-0.09770800173282623,-0.15095800161361694,-0.40513700246810913
1757088332701121500,9.28212158203125,0.27246201038360596,-0.2545489966869354,-0.01634800061583519
1757088332710674400,9.29167431640625,0.06593699753284454,-0.02001200057566166,0.021983999758958817
1757088332720227000,9.30122705078125,-0.06553500145673752,0.027323000133037567,0.027072999626398087
1757088332729780000,9.310780029296875,-0.02462499961256981,-0.5720170140266418,-0.3560749888420105
1757088332739333000,9.3203330078125,0.01692800037562847,-0.509518027305603,-0.09996099770069122
1757088332748885800,9.3298857421875,-0.19793400168418884,-0.3846060037612915,-0.19694499671459198
1757088332758438700,9.339438720703125,-0.2731649875640869,0.018055999651551247,0.3718410134315491
1757088332767991600,9.348991455078124,0.0009500000160187483,0.37711700797080994,0.5263800024986267
1757088332777544400,9.35854443359375,0.4434109926223755,0.3549549877643585,-0.4912799894809723
1757088332787097300,9.368097412109375,0.09358599781990051,0.18170300126075745,-0.05496399849653244
1757088332796650200,9.377650146484376,0.14994500577449799,-0.2967810034751892,-0.21523800492286682
1757088332806203100,9.387203125,0.12879100441932678,-0.7600610256195068,-0.6633509993553162
1757088332815756000,9.396756103515624,-0.23231300711631775,-1.1557179689407349,-1.0471880435943604
1757088332825308700,9.40630859375,-0.5505959987640381,-1.2626819610595703,-0.8063210248947144
1757088332834861600,9.415861572265625,-0.23732900619506836,-0.9783279895782471,0.22250699996948242
1757088332844414500,9.42541455078125,0.11935900151729584,-0.20650799572467804,0.4817439913749695
1757088332853967400,9.43496728515625,0.23538699746131897,0.5158740282058716,0.32668599486351013
1757088332863520000,9.44452001953125,0.2748059928417206,0.8838679790496826,0.13884900510311127
1757088332873073000,9.454072998046875,0.34906598925590515,1.1179380416870117,0.015008999966084957
1757088332882625800,9.463625732421875,0.45049700140953064,1.0782639980316162,-0.04187899827957153
1757088332892178700,9.4731787109375,0.13294599950313568,1.0165380239486694,0.40461599826812744
1757088332901731300,9.4827314453125,0.12852899730205536,0.4679659903049469,-0.107014000415802
1757088332911284500,9.492284423828124,-0.12153100222349167,-0.08179599791765213,-0.09770499914884567
1757088332920837400,9.50183740234375,-0.3893379867076874,-0.36775699257850647,0.5233190059661865
1757088332930390000,9.51139013671875,-0.09658800065517426,-0.33769598603248596,0.27081799507141113
1757088332939943200,9.520943115234376,-0.24857400357723236,-0.31263700127601624,0.3562740087509155
1757088332949495800,9.530495849609375,-0.03909200057387352,-0.7108500003814697,0.17426100373268127
1757088332959048700,9.540048583984374,-0.21893000602722168,-1.0734549760818481,0.27251899242401123
1757088332968601600,9.5496015625,-0.22648899257183075,-0.4729430079460144,0.21461999416351318
1757088332978154500,9.559154541015625,-0.1433040052652359,0.05902799963951111,-0.6103259921073914
1757088332987707100,9.56870703125,-0.36090898513793945,0.08509500324726105,-0.5530679821968079
1757088332997260000,9.578260009765625,0.007584999781101942,0.1514499932527542,-0.6749860048294067
1757088333006813000,9.58781298828125,0.0929270014166832,0.24008899927139282,-0.590565025806427
1757088333016365800,9.59736572265625,0.38062000274658203,0.0982460007071495,-0.6056839823722839
1757088333025918700,9.606918701171875,0.374330997467041,-0.10374999791383743,-0.36519700288772583
1757088333035471400,9.616471435546876,0.2630369961261749,-0.12896700203418732,0.07311800122261047
1757088333045024300,9.626024169921875,-0.16671399772167206,-0.19979900121688843,-0.3373909890651703
1757088333054577400,9.635577392578124,-0.3534089922904968,-0.11270900070667267,-0.35081198811531067
1757088333064130000,9.645130126953125,-0.6226279735565186,0.14238600432872772,-0.2153490036725998
1757088333073683000,9.654682861328125,-0.4924750030040741,0.438959002494812,0.4065439999103546
1757088333083236000,9.664236083984376,-0.002739999908953905,0.5379959940910339,0.5571579933166504
1757088333092788700,9.673788818359375,0.4677410125732422,0.5016059875488281,0.5803300142288208
1757088333102341600,9.683341552734374,0.46888500452041626,0.16703400015830994,0.6122279763221741
1757088333111894500,9.69289453125,0.6560570001602173,-0.034954000264406204,0.6087769865989685
1757088333121447400,9.702447509765625,-0.0024870000779628754,-0.2332179993391037,0.26292699575424194
1757088333131000000,9.712,-0.004236000124365091,-0.2352059930562973,0.527105987071991
1757088333140553200,9.72155322265625,-0.09150300174951553,-0.017173999920487404,0.2717300057411194
1757088333150105900,9.73110595703125,-0.1200919970870018,-0.00171999994199723,-0.23942600190639496
1757088333159658800,9.74065869140625,0.02080399915575981,-0.2556149959564209,-0.29000699520111084
1757088333169211400,9.75021142578125,-0.04537099972367287,-0.5411530137062073,-0.19235000014305115
1757088333178764300,9.759764404296876,0.028970999643206596,-0.3241730034351349,-0.4209429919719696
1757088333188317200,9.769317138671875,0.03153200075030327,-0.2659420073032379,-0.5641049742698669
1757088333197870000,9.7788701171875,0.12157599627971649,-0.19435200095176697,-0.5221160054206848
1757088333207423000,9.788423095703125,0.036006998270750046,-0.2385309934616089,-0.2696850001811981
1757088333216976000,9.797975830078125,-0.1522510051727295,-0.40337899327278137,-0.125777006149292
1757088333226528800,9.80752880859375,-0.31364500522613525,-0.2707110047340393,0.17022199928760529
1757088333236081700,9.81708154296875,-0.361160010099411,-0.3141219913959503,0.41805699467658997
1757088333245634600,9.826634521484374,-0.5805360078811646,-0.26287999749183655,0.3095329999923706
1757088333255187200,9.836187255859375,-0.3294279873371124,-0.5417349934577942,0.08361600339412689
1757088333264740000,9.845739990234375,-0.35465100407600403,-0.5333449840545654,-0.13704800605773926
1757088333274293000,9.85529296875,-0.46510499715805054,-0.38244301080703735,-0.6330170035362244
1757088333283846000,9.864845947265625,-0.47064900398254395,-0.1401599943637848,-0.7839490175247192
1757088333293398800,9.874398681640624,-0.09383899718523026,-0.7468000054359436,-0.736175000667572
1757088333302951400,9.883951416015625,0.2999890148639679,-1.8981809616088867,-0.1932470053434372
1757088333312504300,9.89350439453125,0.13706299662590027,-2.544214963912964,0.5250089764595032
1757088333322057200,9.90305712890625,0.13972100615501404,-2.4571681022644043,0.6869670152664185
1757088333331610000,9.912610107421875,-0.43906599283218384,-2.068485975265503,0.6053159832954407
1757088333341162800,9.922162841796874,-0.5350779891014099,-1.5790740251541138,0.221670001745224
1757088333350715600,9.931715576171875,-0.12965500354766846,-1.051630973815918,-0.3060089945793152
1757088333360268800,9.941268798828125,-0.15773800015449524,-0.5762779712677002,-0.5816569924354553
1757088333369821400,9.950821533203126,-0.0261049997061491,0.41999098658561707,-0.8086040019989014
1757088333379374300,9.960374267578125,0.03531000018119812,0.9198330044746399,-1.1917550563812256
1757088333388927000,9.969927001953126,0.11760599911212921,1.251755952835083,-0.47071099281311035
1757088333398480000,9.97947998046875,0.07033900171518326,1.2722699642181396,0.5373700261116028
1757088333408033000,9.989032958984374,0.0887800008058548,1.5066510438919067,0.763526976108551
1757088333417585700,9.998585693359376,0.38697901368141174,1.8992069959640503,0.04094700142741203
1757088333427138600,10.008138671875,0.9213680028915405,1.4341470003128052,-1.155040979385376
1757088333436691500,10.01769140625,0.28588199615478516,0.35022100806236267,0.146246999502182
1757088333446244400,10.027244384765625,-0.5574809908866882,-1.3177030086517334,1.1473569869995117
1757088333455797000,10.036796875,-0.8870599865913391,-3.261423110961914,1.3890420198440552
1757088333465350100,10.04635009765625,-0.7300729751586914,-4.598079204559326,2.2029290199279785
1757088333474903000,10.055903076171875,-0.05424100160598755,-3.342097043991089,1.8528170585632324
1757088333484455700,10.06545556640625,-0.25827500224113464,-1.015529990196228,1.3657000064849854
1757088333494008600,10.075008544921875,-0.2671299874782562,-0.009901000186800957,1.1333260536193848
1757088333503561500,10.0845615234375,-0.90864098072052,0.25564199686050415,0.4026930034160614
1757088333513114400,10.0941142578125,-2.315032958984375,0.36039501428604126,-0.18748299777507782
1757088333522667000,10.1036669921875,-1.7188299894332886,1.1815940141677856,-0.6815990209579468
1757088333532220000,10.113219970703126,-0.8479400277137756,1.952252984046936,-1.8713150024414062
1757088333541772800,10.122772705078125,1.084913969039917,1.5240470170974731,-1.5219379663467407
1757088333551325700,10.13232568359375,2.044498920440674,0.576225996017456,-1.1067650318145752
1757088333560878300,10.14187841796875,1.8423609733581543,0.6877400279045105,-0.3371419906616211
1757088333570431500,10.151431396484375,0.5441830158233643,0.4716489911079407,0.369488000869751
1757088333579984600,10.160984619140624,-1.4382059574127197,1.5512640476226807,0.9553509950637817
1757088333589537000,10.170537109375,-2.2566120624542236,2.284195899963379,0.7784299850463867
1757088333599090200,10.180090087890624,-1.826786994934082,3.1861588954925537,1.054537057876587
1757088333608642800,10.189642822265625,-1.0511529445648193,2.9772350788116455,-0.23368200659751892
1757088333618195700,10.19919580078125,-1.537358045578003,2.071584939956665,-0.7380390167236328
1757088333627748600,10.20874853515625,-1.5898350477218628,1.6271419525146484,-0.5403019785881042
1757088333637301500,10.218301513671875,-0.6156439781188965,1.6210240125656128,-0.8261539936065674
1757088333646854100,10.227854248046874,0.3721410036087036,1.170936942100525,-0.7068570256233215
1757088333656407000,10.237406982421875,1.7848609685897827,-0.08438199758529663,-0.4747610092163086
1757088333665960000,10.2469599609375,1.885759949684143,-0.1562040001153946,0.17131799459457397
1757088333675512800,10.256512939453126,2.7594521045684814,0.7495539784431458,0.6601600050926208
1757088333685065700,10.266065673828125,1.4812079668045044,1.9797509908676147,1.0632790327072144
1757088333694618600,10.27561865234375,-0.981905996799469,1.730929970741272,0.4297029972076416
1757088333704171500,10.285171630859375,-3.4800920486450195,1.5180720090866089,-0.8685359954833984
1757088333713724400,10.294724365234375,-3.832007884979248,0.7372329831123352,-1.9530049562454224
1757088333723277300,10.30427734375,-2.5467209815979004,0.529043972492218,-2.2749691009521484
1757088333732830200,10.313830322265625,-0.9254580140113831,0.526373028755188,-1.5616240501403809
1757088333742383000,10.323383056640624,0.044401999562978745,0.7179669737815857,0.024627000093460083
1757088333751935700,10.332935791015625,0.3644680082798004,0.5801519751548767,1.4456499814987183
1757088333761488600,10.342488525390625,0.26461300253868103,1.370300054550171,1.82807195186615
1757088333771041500,10.35204150390625,0.04254300147294998,0.006639000028371811,2.164083957672119
1757088333780594400,10.361594482421875,0.04528899863362312,-0.5959420204162598,1.746749997138977
1757088333790147000,10.37114697265625,0.3683359920978546,0.27600499987602234,0.5905330181121826
1757088333799700200,10.3807001953125,0.47023099660873413,0.13472199440002441,-0.4353080093860626
1757088333809253000,10.390253173828125,0.2540310025215149,-0.04907900094985962,-0.6537989974021912
1757088333818805800,10.3998056640625,0.14658500254154205,0.061218999326229095,-0.3406819999217987
1757088333828358700,10.409358642578125,-0.02653699927031994,0.3682360053062439,0.25255098938941956
1757088333837911600,10.41891162109375,-0.3583030104637146,0.8647220134735107,0.40064701437950134
1757088333847464400,10.42846435546875,-0.6266319751739502,0.7649019956588745,0.7236800193786621
1757088333857017300,10.438017333984375,-0.569570004940033,-0.027458999305963516,1.4485100507736206
1757088333866570200,10.4475703125,0.7214099764823914,-1.3906810283660889,1.3587759733200073
1757088333876123000,10.457122802734375,1.0974409580230713,-2.6966259479522705,1.4814729690551758
1757088333885675800,10.46667578125,1.1358829736709595,-2.366015911102295,0.3651300072669983
1757088333895228700,10.476228759765625,1.3839679956436157,-1.765192985534668,-0.8353919982910156
1757088333904781600,10.485781494140625,0.5958089828491211,-2.127638101577759,-0.9621419906616211
1757088333914334200,10.495334228515626,0.10711999982595444,-1.6692800521850586,-1.0139919519424438
1757088333923887000,10.50488720703125,0.00621799984946847,-1.2633440494537354,-0.5720109939575195
1757088333933440000,10.51443994140625,0.36171799898147583,-1.6764249801635742,0.4453740119934082
1757088333942993000,10.523992919921875,0.022422000765800476,-1.081272006034851,1.153095006942749
1757088333952546000,10.533546142578125,0.9370329976081848,-0.2014639973640442,1.217123031616211
1757088333962098400,10.543098388671876,-0.020385999232530594,-1.6292150020599365,1.0886189937591553
1757088333971651300,10.5526513671875,-0.4275979995727539,-1.4411059617996216,0.8967350125312805
1757088333981204500,10.56220458984375,0.293861985206604,-0.29079899191856384,0.2985970079898834
1757088333990757000,10.571757080078125,1.1726919412612915,0.7873179912567139,-0.34758299589157104
1757088334000309800,10.581309814453125,-0.5191730260848999,-0.505774974822998,0.0632689967751503
1757088334009862700,10.590862548828126,-0.32449600100517273,-0.09570000320672989,0.1558150053024292
1757088334019415800,10.600415771484375,0.8113830089569092,-0.1172259971499443,0.32462000846862793
1757088334028968400,10.609968505859374,0.7262150049209595,-0.06846900284290314,0.07551000267267227
1757088334038521300,10.619521240234375,0.30488699674606323,-0.010238000191748142,-0.12434499710798264
1757088334048074200,10.62907421875,-0.18837900459766388,0.08162999898195267,0.1632319986820221
1757088334057627100,10.638627197265626,0.11065699905157089,-0.2550939917564392,-0.058350998908281326
1757088334067180000,10.648179931640625,-0.39130499958992004,-0.3467029929161072,0.038617998361587524
1757088334076733000,10.65773291015625,-0.4334529936313629,-0.41791099309921265,0.28306499123573303
1757088334086285800,10.667285888671875,-0.014731000177562237,-0.6297940015792847,0.6650879979133606
1757088334095838500,10.67683837890625,-0.09952200204133987,-0.6770750284194946,0.7441750168800354
1757088334105391400,10.686391357421876,-0.025661999359726906,-0.25874999165534973,0.2079080045223236
1757088334114944300,10.6959443359375,-0.3635680079460144,0.9709609746932983,-0.1491129994392395
1757088334124497200,10.7054970703125,-1.0050289630889893,1.3598469495773315,-0.408966988325119
1757088334134049800,10.7150498046875,-1.0150469541549683,1.34409499168396,-0.35312598943710327
1757088334143602700,10.724602783203125,-0.40049201250076294,1.1138559579849243,-0.2145799994468689
1757088334153155600,10.734155517578126,-0.26471298933029175,0.5821120142936707,-0.02074499987065792
1757088334162708500,10.74370849609375,-0.12309499830007553,0.28602901101112366,0.09048599749803543
1757088334172261000,10.75326123046875,-0.010928000323474407,0.33605000376701355,0.12092400342226028
1757088334181814300,10.762814208984375,-0.09934499859809875,0.31029701232910156,0.03219300135970116
1757088334191367200,10.7723671875,-0.1951580047607422,0.40382200479507446,0.07461400330066681
1757088334200920000,10.781920166015626,-0.5807530283927917,0.519087016582489,-0.04395199939608574
1757088334210473000,10.791472900390625,-0.8269379734992981,0.25105899572372437,-0.18035200238227844
1757088334220025900,10.80102587890625,-0.3438650071620941,-0.08647199720144272,-0.16776999831199646
1757088334229578500,10.81057861328125,-0.15556800365447998,-0.11226899921894073,-0.5587279796600342
1757088334239131400,10.82013134765625,-0.04559199884533882,-0.20637400448322296,-0.5956850051879883
1757088334248684300,10.829684326171876,-0.07063800096511841,-0.7739560008049011,0.10871200263500214
1757088334258237200,10.8392373046875,0.22925600409507751,-0.6939340233802795,0.6205530166625977
1757088334267789800,10.848789794921874,0.8428840041160583,-0.9286149740219116,0.28418800234794617
1757088334277342700,10.8583427734375,1.0387569665908813,-1.5354679822921753,1.1854629516601562
1757088334286895600,10.8678955078125,0.8955100178718567,-0.8927620053291321,0.4560219943523407
1757088334296448500,10.877448486328126,-0.13419100642204285,0.10996200144290924,0.2537260055541992
1757088334306001200,10.887001220703125,-0.25324198603630066,0.09813600033521652,0.5508480072021484
1757088334315554300,10.89655419921875,-0.8967329859733582,-0.14925099909305573,0.8369939923286438
1757088334325107000,10.90610693359375,0.674826979637146,-1.09299898147583,0.9679269790649414
1757088334334660000,10.91566015625,1.013787031173706,-1.6448969841003418,0.6571400165557861
1757088334344212700,10.925212646484376,0.5444300174713135,-1.6242159605026245,-0.10212499648332596
1757088334353765600,10.934765625,0.14869700372219086,-1.152232050895691,-0.16732199490070343
1757088334363318500,10.944318603515624,-0.1382250040769577,-0.8122310042381287,0.7248950004577637
1757088334372871400,10.953871337890625,-0.19897699356079102,-0.21841099858283997,1.2957849502563477
1757088334382424300,10.96342431640625,-0.3775550127029419,-0.2885169982910156,1.4854199886322021
1757088334391977000,10.97297705078125,0.5541070103645325,-0.8646029829978943,1.239192008972168
1757088334401529900,10.98252978515625,2.0413429737091064,-2.659769058227539,-1.6881710290908813
1757088334411082800,10.992082763671876,0.2700740098953247,0.4400309920310974,-0.8176230192184448
1757088334420635600,11.0016357421875,-0.933197021484375,0.9369379878044128,2.2659618854522705
1757088334430188300,11.011188232421874,-0.7696530222892761,0.28857898712158203,1.7785439491271973
1757088334439741200,11.0207412109375,-0.22326500713825226,0.17651699483394623,0.5853509902954102
1757088334449294000,11.030294189453125,0.193898007273674,-0.7206460237503052,0.16629700362682343
1757088334458847200,11.03984716796875,-0.5846160054206848,-0.19365599751472473,0.4070970118045807
1757088334468399900,11.04939990234375,-0.9462370276451111,0.07626499980688095,0.17059700191020966
1757088334477953000,11.058953125,-0.9722189903259277,0.7173439860343933,-0.05506499856710434
1757088334487505700,11.068505615234375,-0.6049379706382751,0.8455970287322998,-0.1813029944896698
1757088334497058600,11.07805859375,-0.059588998556137085,0.5180389881134033,-0.0037879999727010727
1757088334506611500,11.087611572265626,0.5790460109710693,0.11891499906778336,0.03962000086903572
1757088334516164000,11.0971640625,0.509443998336792,0.00431999983265996,-0.20346400141716003
1757088334525717000,11.106717041015624,0.16012799739837646,-0.08291099965572357,-0.2950640022754669
1757088334535270000,11.116269775390625,-0.13430500030517578,-0.09846600145101547,0.11819099634885788
1757088334544822800,11.12582275390625,-0.207504004240036,0.01761999912559986,0.6566789746284485
1757088334554375700,11.135375732421876,-0.30565598607063293,-0.0009309999877586961,0.90699702501297
1757088334563928300,11.14492822265625,-0.2100210040807724,-0.3299480080604553,1.1965179443359375
1757088334573481200,11.154481201171874,-0.021851999685168266,-0.6166279911994934,0.8064290285110474
1757088334583034000,11.1640341796875,-0.1547289937734604,-1.0974229574203491,0.1327430009841919
1757088334592587000,11.1735869140625,-0.19010299444198608,-1.2403000593185425,-0.32519400119781494
1757088334602140000,11.183139892578126,-0.37720000743865967,-1.3796119689941406,-0.2243880033493042
1757088334611692800,11.19269287109375,-0.3805939853191376,-0.8096439838409424,-0.34299400448799133
1757088334621245700,11.20224560546875,-0.7188599705696106,-0.7097240090370178,0.10855700075626373
1757088334630798300,11.21179833984375,-0.8390949964523315,-1.6122419834136963,1.1031500101089478
1757088334640351200,11.221351318359375,-0.1960269957780838,-1.2085269689559937,1.2253570556640625
1757088334649904400,11.230904296875,0.37303900718688965,-1.8480440378189087,1.750072956085205
1757088334659457000,11.24045703125,1.0882070064544678,-2.5943660736083984,2.3083980083465576
1757088334669010000,11.250010009765624,1.2371070384979248,-2.1564910411834717,1.9242759943008423
1757088334678562800,11.259562744140625,0.8728870153427124,-1.2956839799880981,0.5629540085792542
1757088334688115700,11.26911572265625,0.8345379829406738,-1.110645055770874,0.6866210103034973
1757088334697668400,11.27866845703125,1.8304640054702759,-1.4825119972229004,1.0833380222320557
1757088334707221200,11.28822119140625,0.47692298889160156,-0.9723719954490662,0.32239601016044617
1757088334716774100,11.297774169921874,1.9721779823303223,-2.6151249408721924,-1.5551120042800903
1757088334726327000,11.3073271484375,0.6732760071754456,-1.4942259788513184,-1.6716179847717285
1757088334735880000,11.3168798828125,-1.2760670185089111,-1.329455018043518,-0.5918170213699341
1757088334745432600,11.3264326171875,-2.052428960800171,-0.8710640072822571,1.2777810096740723
1757088334754985500,11.3359853515625,-4.366195201873779,1.4458529949188232,2.0740809440612793
1757088334764538400,11.345538330078124,-4.195487976074219,2.4233760833740234,0.2971310019493103
1757088334774091300,11.35509130859375,-5.961916923522949,2.355134963989258,0.3176890015602112
1757088334783644000,11.364643798828125,-1.2937660217285156,-0.5831180214881897,-3.4305460453033447
1757088334793196800,11.37419677734375,5.264265060424805,-1.1903389692306519,-6.500062942504883
1757088334802749700,11.383749755859375,4.130415916442871,-3.578497886657715,-4.145294189453125
1757088334812302800,11.393302734375,-0.5787760019302368,-6.259822845458984,-2.271822929382324
1757088334821855500,11.40285546875,-1.6960840225219727,-6.618955135345459,-0.4737350046634674
1757088334831408400,11.412408447265625,-2.462454080581665,-5.500615119934082,0.9674400091171265
1757088334840961300,11.421961181640626,-4.187820911407471,-4.638894081115723,2.0061779022216797
1757088334850514200,11.43151416015625,-3.605937957763672,-3.5615580081939697,3.199457883834839
1757088334860067000,11.441067138671874,-4.9079179763793945,-2.3066511154174805,4.385845184326172
1757088334869619700,11.45061962890625,-4.893220901489258,-0.7139179706573486,5.327861785888672
1757088334879172600,11.460172607421875,-5.4867658615112305,0.10629300028085709,5.417311191558838
1757088334888725500,11.4697255859375,-5.7418599128723145,0.8309199810028076,4.771821022033691
1757088334898278400,11.4792783203125,-5.675381183624268,1.453387975692749,4.088146209716797
1757088334907831300,11.488831298828124,-5.474530220031738,1.6955950260162354,2.9624500274658203
1757088334917384000,11.498384033203125,-5.67786979675293,1.5697120428085327,1.8757649660110474
1757088334926936800,11.507936767578125,-5.749533176422119,1.26173996925354,1.8089920282363892
1757088334936489700,11.51748974609375,-5.277711868286133,1.784214973449707,1.2021499872207642
1757088334946042600,11.527042724609375,-4.617815017700195,2.7569820880889893,-0.2713240087032318
1757088334955595500,11.536595458984374,-4.269998073577881,3.4050590991973877,-1.3822059631347656
1757088334965148400,11.5461484375,-3.884645938873291,3.499983072280884,-1.6095249652862549
1757088334974701300,11.555701416015625,-3.1164538860321045,2.7497949600219727,1.2978039979934692
1757088334984254200,11.565254150390626,-5.318954944610596,2.1305999755859375,7.809014797210693
1757088334993806800,11.574806884765625,-8.328973770141602,2.121018886566162,13.24104118347168
1757088335003359700,11.58435986328125,-7.677795886993408,2.6842761039733887,12.655405044555664
1757088335012912600,11.59391259765625,-5.20668888092041,2.4872379302978516,10.122014999389648
1757088335022465500,11.603465576171875,-3.2478530406951904,1.79380202293396,7.8764262199401855
1757088335032018400,11.613018310546876,-2.273210048675537,1.1262370347976685,5.37112283706665
1757088335041571000,11.622571044921875,-1.9390180110931396,0.8809919953346252,2.915846109390259
1757088335051124000,11.6321240234375,-2.1034018993377686,0.777396023273468,0.2803860008716583
1757088335060676900,11.6416767578125,-1.3626749515533447,1.0418269634246826,-1.1391509771347046
1757088335070229800,11.651229736328125,-0.5895879864692688,1.7916220426559448,-0.5647969841957092
1757088335079782400,11.660782470703126,-0.2401529997587204,1.9721219539642334,0.45364201068878174
1757088335089335300,11.670335205078125,-0.468425989151001,1.6549739837646484,1.4014439582824707
1757088335098888200,11.67988818359375,-1.3075640201568604,1.7332520484924316,2.1504170894622803
1757088335108441000,11.689441162109375,-1.811095952987671,2.16684889793396,2.2864019870758057
1757088335117994000,11.698993896484374,-2.2519290447235107,2.266450881958008,2.405078887939453
1757088335127547000,11.708546875,-2.481832981109619,1.6834009885787964,2.635683059692383
1757088335137099800,11.718099853515625,-2.567091941833496,1.0558760166168213,2.6362481117248535
1757088335146652700,11.727652587890624,-2.564049005508423,0.3699130117893219,1.8934290409088135
1757088335156205600,11.73720556640625,-2.445020914077759,-0.11268399655818939,0.8252099752426147
1757088335165758200,11.74675830078125,-2.238748073577881,-0.2929709851741791,-0.31468600034713745
1757088335175311000,11.75631103515625,-2.0560030937194824,-0.4394730031490326,-1.3040820360183716
1757088335184864000,11.765864013671875,-2.16841197013855,-0.7476329803466797,-1.6828420162200928
1757088335194417000,11.7754169921875,-2.586029052734375,-1.3162939548492432,-1.505012035369873
1757088335203969800,11.7849697265625,-3.061880111694336,-2.037277936935425,-1.1153290271759033
1757088335213522400,11.7945224609375,-3.2484569549560547,-2.23140811920166,-1.2207510471343994
1757088335223075300,11.804075439453126,-3.2362000942230225,-1.9983320236206055,-1.8537960052490234
1757088335232628200,11.813628173828125,-2.9321610927581787,-1.517477035522461,-2.2515790462493896
1757088335242181000,11.82318115234375,-2.8705248832702637,-1.1036080121994019,-2.588489055633545
1757088335251734000,11.832734130859375,-2.8286070823669434,-0.7303310036659241,-2.9402599334716797
1757088335261287000,11.842286865234374,-3.220810890197754,-1.0286389589309692,-3.0501699447631836
1757088335270839600,11.851839599609375,-3.421963930130005,-1.3402119874954224,-3.2084670066833496
