time,seconds_elapsed,z,y,x
1757088323520817700,0.101817626953125,4.608288764953613,-3.0397250652313232,-8.105191230773926
1757088323530370600,0.11137060546875,4.625330924987793,-3.0478758811950684,-8.091782569885254
1757088323549476000,0.13047607421875,4.7156829833984375,-3.082777976989746,-8.017728805541992
1757088323559029000,0.140029052734375,4.789793968200684,-3.107348918914795,-7.953816890716553
1757088323568582000,0.149581787109375,4.882209777832031,-3.1373109817504883,-7.869651794433594
1757088323578134800,0.159134765625,4.9913740158081055,-3.173585891723633,-7.763841152191162
1757088323587687400,0.1686875,5.116152763366699,-3.2157599925994873,-7.635284900665283
1757088323597240300,0.178240234375,5.255763053894043,-3.2628750801086426,-7.482742786407471
1757088323606793200,0.187793212890625,5.409646987915039,-3.313507080078125,-7.304830074310303
1757088323616346000,0.19734619140625,5.576876163482666,-3.366436004638672,-7.1003570556640625
1757088323625899000,0.20689892578125,5.748332977294922,-3.4128971099853516,-6.893953800201416
1757088323635451600,0.21645166015625,5.924259185791016,-3.4524669647216797,-6.685213088989258
1757088323645004800,0.2260048828125,6.104893207550049,-3.4847359657287598,-6.473639965057373
1757088323654557400,0.235557373046875,6.290486812591553,-3.5092859268188477,-6.258640766143799
1757088323664110300,0.2451103515625,6.487921237945557,-3.534930944442749,-6.014062881469727
1757088323673663200,0.254663330078125,6.6954169273376465,-3.5610110759735107,-5.739008903503418
1757088323683216100,0.264216064453125,6.910915851593018,-3.5872631072998047,-5.432834148406982
1757088323692769000,0.27376904296875,7.132034778594971,-3.6139609813690186,-5.095513820648193
1757088323702321700,0.28332177734375,7.3562331199646,-3.6419599056243896,-4.727124214172363
1757088323711874600,0.29287451171875,7.5812249183654785,-3.671623945236206,-4.327724933624268
1757088323721427500,0.302427490234375,7.788033962249756,-3.694490909576416,-3.9118199348449707
1757088323730980400,0.31198046875,7.973355770111084,-3.7121689319610596,-3.4825499057769775
1757088323740533200,0.321533203125,8.134488105773926,-3.726361036300659,-3.0423009395599365
1757088323750086100,0.331086181640625,8.269096374511719,-3.738579034805298,-2.591628074645996
1757088323759639000,0.34063916015625,8.385530471801758,-3.7378690242767334,-2.1495978832244873
1757088323769192000,0.35019189453125,8.4846830368042,-3.722935914993286,-1.7163699865341187
1757088323778744800,0.359744873046875,8.55678653717041,-3.7061679363250732,-1.277266025543213
1757088323788297500,0.36929736328125,8.601515769958496,-3.689631938934326,-0.8372600078582764
1757088323797850400,0.378850341796875,8.618145942687988,-3.6766140460968018,-0.40078800916671753
1757088323807403300,0.3884033203125,8.619274139404297,-3.655730962753296,0.018035000190138817
1757088323816956200,0.3979560546875,8.614014625549316,-3.6364080905914307,0.44280898571014404
1757088323826509000,0.407509033203125,8.602266311645508,-3.619965076446533,0.8718330264091492
1757088323836062000,0.41706201171875,8.583871841430664,-3.6076719760894775,1.3035880327224731
1757088323845614800,0.42661474609375,8.558634757995605,-3.6005799770355225,1.7367750406265259
1757088323855167700,0.436167724609375,8.519819259643555,-3.590204954147339,2.1446499824523926
1757088323864720600,0.445720703125,8.469361305236816,-3.5774760246276855,2.52579402923584
1757088323874273500,0.4552734375,8.409400939941406,-3.563049077987671,2.879106044769287
1757088323883826400,0.464826416015625,8.342657089233398,-3.546869993209839,3.203861951828003
1757088323893379000,0.474379150390625,8.272021293640137,-3.5281600952148438,3.4995360374450684
1757088323902932000,0.483931884765625,8.199919700622559,-3.5065391063690186,3.7659599781036377
1757088323912484900,0.49348486328125,8.128347396850586,-3.4821650981903076,4.004220008850098
1757088323922037800,0.503037841796875,8.04443073272705,-3.464517116546631,4.2302751541137695
1757088323931590700,0.512590576171875,7.949878215789795,-3.4522159099578857,4.443745136260986
1757088323941143600,0.5221435546875,7.847029209136963,-3.443756103515625,4.64235782623291
1757088323950696200,0.5316962890625,7.728231906890869,-3.450593948364258,4.841349124908447
1757088323960249300,0.541249267578125,7.610601902008057,-3.463989019393921,5.027653217315674
1757088323969802200,0.55080224609375,7.505239963531494,-3.472075939178467,5.1852240562438965
1757088323979355100,0.560355224609375,7.413321018218994,-3.473902940750122,5.317629814147949
1757088323988908000,0.569907958984375,7.335904121398926,-3.4677820205688477,5.428036212921143
1757088323998461000,0.5794609375,7.261178016662598,-3.4662458896636963,5.529554843902588
1757088324008013800,0.589013916015625,7.189154148101807,-3.468381881713867,5.6233439445495605
1757088324017566700,0.598566650390625,7.119672775268555,-3.4729878902435303,5.710886001586914
1757088324027119400,0.608119384765625,7.036272048950195,-3.4909560680389404,5.802536964416504
1757088324036672300,0.61767236328125,6.95623779296875,-3.5128860473632812,5.8870930671691895
1757088324046225200,0.62722509765625,6.879199981689453,-3.5409209728240967,5.96385383605957
1757088324055778000,0.636778076171875,6.783350944519043,-3.5857489109039307,6.046418190002441
1757088324065331000,0.6463310546875,6.676375865936279,-3.6384758949279785,6.132349014282227
1757088324074883800,0.6558837890625,6.562315940856934,-3.694869041442871,6.220808982849121
1757088324084436700,0.665436767578125,6.435116767883301,-3.76029896736145,6.312854766845703
1757088324093989600,0.67498974609375,6.290891170501709,-3.841273069381714,6.406105995178223
1757088324103542500,0.68454248046875,6.134549140930176,-3.938086986541748,6.495842933654785
1757088324113095400,0.694095458984375,5.986970901489258,-4.037075996398926,6.5656328201293945
1757088324122648300,0.7036484375,5.853817939758301,-4.128373146057129,6.621424198150635
1757088324132201000,0.713200927734375,5.735663890838623,-4.212462902069092,6.664109230041504
1757088324141753900,0.72275390625,5.6331892013549805,-4.288689136505127,6.6949639320373535
1757088324151306800,0.732306640625,5.530074119567871,-4.366586208343506,6.725428104400635
1757088324160859600,0.741859619140625,5.42601203918457,-4.446220874786377,6.755703926086426
1757088324170412500,0.75141259765625,5.320941925048828,-4.527235984802246,6.7861008644104
1757088324179965700,0.760965576171875,5.2150092124938965,-4.609259128570557,6.8167009353637695
1757088324189518300,0.770518310546875,5.108142852783203,-4.69248104095459,6.847364902496338
1757088324199071200,0.7800712890625,4.988762855529785,-4.786660194396973,6.877583026885986
1757088324208624000,0.7896240234375,4.850813865661621,-4.889776229858398,6.911656856536865
1757088324218176800,0.7991767578125,4.727014064788818,-4.982572078704834,6.937042236328125
1757088324227730000,0.80872998046875,4.600313186645508,-5.073369026184082,6.965839862823486
1757088324237282800,0.81828271484375,4.47084379196167,-5.159459114074707,6.999565124511719
1757088324246835700,0.827835693359375,4.3521809577941895,-5.236997127532959,7.0234761238098145
1757088324256388400,0.837388427734375,4.239247798919678,-5.314657211303711,7.0387067794799805
1757088324265941200,0.846941162109375,4.129345893859863,-5.397205829620361,7.045127868652344
1757088324275494100,0.856494140625,4.028205871582031,-5.479890823364258,7.041379928588867
1757088324285047000,0.866047119140625,3.937666893005371,-5.556150913238525,7.030646800994873
1757088324294600000,0.875599853515625,3.8506100177764893,-5.623705863952637,7.020205020904541
1757088324304152800,0.88515283203125,3.769953966140747,-5.680682182312012,7.013510227203369
1757088324313705700,0.894705810546875,3.690479040145874,-5.738255023956299,7.005719184875488
1757088324323258600,0.904258544921875,3.6118619441986084,-5.796686172485352,6.996769905090332
1757088324332811500,0.9138115234375,3.5344390869140625,-5.855374813079834,6.9870758056640625
1757088324342364200,0.9233642578125,3.45888090133667,-5.913654804229736,6.976931095123291
1757088324351917300,0.932917236328125,3.3850929737091064,-5.971278190612793,6.966548919677734
1757088324361470200,0.94247021484375,3.31299090385437,-6.028182029724121,6.956051826477051
1757088324371022800,0.95202294921875,3.2424380779266357,-6.084214210510254,6.9456610679626465
1757088324380576000,0.961575927734375,3.1734719276428223,-6.138951778411865,6.935686111450195
1757088324390129000,0.97112890625,3.117608070373535,-6.182705879211426,6.92669677734375
1757088324399681500,0.980681640625,3.072132110595703,-6.220641136169434,6.915298938751221
1757088324409234400,0.990234375,3.020693063735962,-6.2593889236450195,6.905333042144775
1757088324418787300,0.999787353515625,2.9649910926818848,-6.2997307777404785,6.895378112792969
1757088324428340200,1.00934033203125,2.9124889373779297,-6.339375019073486,6.884774208068848
1757088324437893000,1.01889306640625,2.8711159229278564,-6.371531009674072,6.874932765960693
1757088324447446000,1.028446044921875,2.837965965270996,-6.396324157714844,6.867406845092773
1757088324456999000,1.0379990234375,2.8112940788269043,-6.413218975067139,6.863685131072998
1757088324466551800,1.0475517578125,2.790411949157715,-6.42172908782959,6.864729881286621
1757088324476104700,1.057104736328125,2.7762370109558105,-6.42214298248291,6.870148181915283
1757088324485657300,1.0666572265625,2.769922971725464,-6.417171955108643,6.87725305557251
1757088324495210200,1.076210205078125,2.761742115020752,-6.413033962249756,6.88429594039917
1757088324504763100,1.08576318359375,2.7520699501037598,-6.410492897033691,6.890432834625244
1757088324514316000,1.09531591796875,2.72967791557312,-6.4126057624816895,6.8967790603637695
1757088324523869000,1.104868896484375,2.6945900917053223,-6.420144081115723,6.902173042297363
1757088324533421800,1.114421875,2.6423139572143555,-6.4360551834106445,6.904555797576904
1757088324542974700,1.123974609375,2.583544969558716,-6.4606451988220215,6.900122165679932
1757088324552527600,1.133527587890625,2.5225000381469727,-6.491950988769531,6.889496803283691
1757088324562080300,1.143080322265625,2.4596970081329346,-6.527649879455566,6.874897003173828
1757088324571633200,1.152633056640625,2.395473003387451,-6.568113803863525,6.855757236480713
1757088324581186000,1.16218603515625,2.327420949935913,-6.613945960998535,6.831954002380371
1757088324590739000,1.171739013671875,2.265777111053467,-6.660580158233643,6.803928852081299
1757088324600291800,1.181291748046875,2.211167097091675,-6.708468914031982,6.771347999572754
1757088324609844700,1.1908447265625,2.162597894668579,-6.758794784545898,6.733331203460693
1757088324619397600,1.200397705078125,2.111454963684082,-6.816193103790283,6.687914848327637
1757088324628950500,1.209950439453125,2.056627035140991,-6.881320953369141,6.63415002822876
1757088324638503400,1.21950341796875,1.997033953666687,-6.954906940460205,6.57077693939209
1757088324648056300,1.229056396484375,1.9363670349121094,-7.032915115356445,6.501966953277588
1757088324657609200,1.238609130859375,1.8754500150680542,-7.115691184997559,6.426641941070557
1757088324667161900,1.248161865234375,1.81501305103302,-7.203289031982422,6.344057083129883
1757088324676714800,1.25771484375,1.7553499937057495,-7.295620918273926,6.253523826599121
1757088324686267600,1.267267578125,1.696033000946045,-7.392985820770264,6.15393590927124
1757088324695820500,1.276820556640625,1.6222529411315918,-7.499837875366211,6.040373802185059
1757088324705373400,1.28637353515625,1.5544010400772095,-7.6091790199279785,5.914596080780029
1757088324714926300,1.29592626953125,1.4894670248031616,-7.721187114715576,5.775339126586914
1757088324724479200,1.305479248046875,1.430219054222107,-7.833785057067871,5.62148904800415
1757088324734032100,1.3150322265625,1.358373999595642,-7.950833797454834,5.442910194396973
1757088324743585000,1.3245849609375,1.2740260362625122,-8.071602821350098,5.23797082901001
1757088324753138000,1.334137939453125,1.1868690252304077,-8.194501876831055,5.012271881103516
1757088324762690800,1.34369091796875,1.101498007774353,-8.318183898925781,4.765903949737549
1757088324772243700,1.35324365234375,1.0223150253295898,-8.440959930419922,4.49849796295166
1757088324781796400,1.36279638671875,0.9469749927520752,-8.563253402709961,4.208312034606934
1757088324791349200,1.372349365234375,0.8731639981269836,-8.684189796447754,3.8950018882751465
1757088324800902100,1.381902099609375,0.7994239926338196,-8.800969123840332,3.5609350204467773
1757088324810455000,1.391455078125,0.7277950048446655,-8.910231590270996,3.2089180946350098
1757088324820008000,1.401008056640625,0.6611419916152954,-9.009808540344238,2.840794086456299
1757088324829560800,1.410560791015625,0.6023120284080505,-9.09752082824707,2.458656072616577
1757088324839113700,1.42011376953125,0.5484499931335449,-9.176061630249023,2.0589840412139893
1757088324848666600,1.42966650390625,0.49948200583457947,-9.2439603805542,1.6438809633255005
1757088324858219500,1.439219482421875,0.4622560143470764,-9.304929733276367,1.2306820154190063
1757088324867772400,1.4487724609375,0.43046799302101135,-9.354718208312988,0.8082810044288635
1757088324877325300,1.4583251953125,0.4007270038127899,-9.395610809326172,0.3865169882774353
1757088324886878200,1.467878173828125,0.3800700008869171,-9.428211212158203,-0.015174999833106995
1757088324896430800,1.477430908203125,0.35646700859069824,-9.457324028015137,-0.3956100046634674
1757088324905984000,1.48698388671875,0.340599000453949,-9.479989051818848,-0.7558209896087646
1757088324915536600,1.49653662109375,0.3421989977359772,-9.4939603805542,-1.0957119464874268
1757088324925089500,1.506089599609375,0.3720560073852539,-9.494568824768066,-1.4020329713821411
1757088324934642400,1.515642333984375,0.4186219871044159,-9.485990524291992,-1.6718480587005615
1757088324944195300,1.5251953125,0.44910699129104614,-9.475496292114258,-1.9095120429992676
1757088324953748200,1.534748291015625,0.44942599534988403,-9.462538719177246,-2.118324041366577
1757088324963301000,1.544301025390625,0.4408380091190338,-9.44669246673584,-2.300889015197754
1757088324972854000,1.55385400390625,0.4266810119152069,-9.428877830505371,-2.458298921585083
1757088324982407000,1.563406982421875,0.4122210144996643,-9.410293579101562,-2.59108304977417
1757088324991959800,1.572959716796875,0.3992510139942169,-9.392284393310547,-2.6993489265441895
1757088325001512700,1.5825126953125,0.3842589855194092,-9.375974655151367,-2.7837929725646973
1757088325011065600,1.592065673828125,0.3622789978981018,-9.362787246704102,-2.843967914581299
1757088325020618500,1.601618408203125,0.33492401242256165,-9.353896141052246,-2.8806378841400146
1757088325030171100,1.611171142578125,0.3012099862098694,-9.350369453430176,-2.894468069076538
1757088325039724000,1.62072412109375,0.26129698753356934,-9.353096961975098,-2.8866169452667236
1757088325049277000,1.63027685546875,0.20881499350070953,-9.358133316040039,-2.873753070831299
1757088325058829800,1.639829833984375,0.15106099843978882,-9.369599342346191,-2.8427491188049316
1757088325068382500,1.649382568359375,0.09271100163459778,-9.384319305419922,-2.802762031555176
1757088325077935400,1.658935302734375,0.041002001613378525,-9.396590232849121,-2.767806053161621
1757088325087488300,1.66848828125,-0.0006929999799467623,-9.40510082244873,-2.741774082183838
1757088325097041200,1.678041259765625,-0.040157999843358994,-9.411786079406738,-2.72119402885437
1757088325106594000,1.687593994140625,-0.08569999784231186,-9.418225288391113,-2.7030539512634277
1757088325116147000,1.69714697265625,-0.14031200110912323,-9.425036430358887,-2.68666410446167
1757088325125699800,1.706699951171875,-0.19694000482559204,-9.431108474731445,-2.6737608909606934
1757088325135252700,1.716252685546875,-0.23311099410057068,-9.43352222442627,-2.667891025543213
1757088325144805600,1.7258056640625,-0.2395229935646057,-9.434114456176758,-2.6655819416046143
1757088325154358500,1.735358642578125,-0.2391130030155182,-9.434557914733887,-2.664011001586914
1757088325163911400,1.744911376953125,-0.23406599462032318,-9.435161590576172,-2.6621201038360596
1757088325173464300,1.75446435546875,-0.22792699933052063,-9.435882568359375,-2.659816026687622
1757088325183017000,1.764016845703125,-0.22249199450016022,-9.43654727935791,-2.6576321125030518
1757088325192570000,1.773570068359375,-0.21577900648117065,-9.437189102172852,-2.655590057373047
1757088325202122800,1.783122802734375,-0.2050510048866272,-9.437501907348633,-2.6550168991088867
1757088325211675600,1.792675537109375,-0.1939619928598404,-9.437421798706055,-2.655895948410034
1757088325221228500,1.802228515625,-0.1827850043773651,-9.437032699584961,-2.657952070236206
1757088325230781400,1.811781494140625,-0.1723320037126541,-9.436408996582031,-2.6608688831329346
1757088325240334300,1.821334228515625,-0.16295300424098969,-9.435583114624023,-2.6644821166992188
1757088325249887000,1.830886962890625,-0.15457500517368317,-9.434305191040039,-2.669658899307251
1757088325259440000,1.840440185546875,-0.14703699946403503,-9.43282699584961,-2.6755099296569824
1757088325268992800,1.84999267578125,-0.14053000509738922,-9.431294441223145,-2.681488037109375
1757088325278546000,1.8595458984375,-0.13548800349235535,-9.429720878601074,-2.6874759197235107
1757088325288098800,1.869098876953125,-0.1324699968099594,-9.428130149841309,-2.6933090686798096
1757088325307204400,1.888204345703125,-0.13312900066375732,-9.424798965454102,-2.7048110961914062
1757088325316757200,1.89775732421875,-0.13615399599075317,-9.422934532165527,-2.7110109329223633
1757088325326310100,1.90731005859375,-0.14034399390220642,-9.420892715454102,-2.717766046524048
1757088325335863000,1.916863037109375,-0.1454090029001236,-9.41871452331543,-2.7249720096588135
1757088325345416000,1.926416015625,-0.1513569951057434,-9.416460037231445,-2.7324490547180176
1757088325354968800,1.93596875,-0.15819600224494934,-9.414207458496094,-2.739931106567383
1757088325364521700,1.945521728515625,-0.1658339947462082,-9.412099838256836,-2.7469329833984375
1757088325374074600,1.95507470703125,-0.1738310009241104,-9.410238265991211,-2.753109931945801
1757088325383627500,1.96462744140625,-0.18157599866390228,-9.408672332763672,-2.758281946182251
1757088325393180400,1.974180419921875,-0.18856899440288544,-9.407434463500977,-2.7623329162597656
1757088325402733300,1.9837333984375,-0.19446299970149994,-9.406526565551758,-2.765254020690918
1757088325412286200,1.9932861328125,-0.1990240067243576,-9.405924797058105,-2.767143964767456
1757088325421838800,2.0028388671875,-0.20200200378894806,-9.405583381652832,-2.7681798934936523
1757088325431391700,2.012391845703125,-0.2035290002822876,-9.405455589294434,-2.768531084060669
1757088325440944600,2.021944580078125,-0.20424599945545197,-9.405488967895508,-2.768376111984253
1757088325450497500,2.03149755859375,-0.2045069932937622,-9.405599594116211,-2.7679810523986816
1757088325460050400,2.041050537109375,-0.20438000559806824,-9.405756950378418,-2.7674520015716553
1757088325469603300,2.050603271484375,-0.20374999940395355,-9.40600872039795,-2.7666420936584473
1757088325479156200,2.06015625,-0.20267599821090698,-9.406403541564941,-2.765376091003418
1757088325488708900,2.069708984375,-0.20125000178813934,-9.40697956085205,-2.763533115386963
1757088325498262000,2.079261962890625,-0.19965000450611115,-9.407711029052734,-2.76117205619812
1757088325507814700,2.088814697265625,-0.19798000156879425,-9.408527374267578,-2.758527994155884
1757088325517367600,2.098367431640625,-0.19626900553703308,-9.409353256225586,-2.7558560371398926
1757088325526920700,2.107920654296875,-0.19463899731636047,-9.410136222839355,-2.7533209323883057
1757088325536473600,2.1174736328125,-0.19322499632835388,-9.410833358764648,-2.751054048538208
1757088325546026200,2.127026123046875,-0.19218499958515167,-9.411442756652832,-2.7490499019622803
1757088325555579100,2.1365791015625,-0.19168899953365326,-9.41199016571045,-2.7472119331359863
1757088325565132000,2.146132080078125,-0.19174900650978088,-9.412514686584473,-2.7454071044921875
1757088325574685000,2.155684814453125,-0.1922059953212738,-9.413065910339355,-2.7434799671173096
1757088325584237800,2.16523779296875,-0.19296500086784363,-9.413692474365234,-2.741278886795044
1757088325593790500,2.17479052734375,-0.19392600655555725,-9.414436340332031,-2.73866605758667
1757088325603343400,2.18434326171875,-0.19487500190734863,-9.415288925170898,-2.735672950744629
1757088325612896300,2.193896240234375,-0.19557200372219086,-9.416259765625,-2.7322909832000732
1757088325622449200,2.20344921875,-0.19577500224113464,-9.417290687561035,-2.7287240028381348
1757088325632002000,2.213001953125,-0.1952960044145584,-9.418316841125488,-2.725213050842285
1757088325641555000,2.222554931640625,-0.19415700435638428,-9.4193115234375,-2.721846103668213
1757088325651107800,2.23210791015625,-0.19250500202178955,-9.4202299118042,-2.718780040740967
1757088325660661000,2.241660888671875,-0.19055399298667908,-9.421021461486816,-2.716176986694336
1757088325670213600,2.251213623046875,-0.18841500580310822,-9.421677589416504,-2.7140560150146484
1757088325679766500,2.2607666015625,-0.18620899319648743,-9.422232627868652,-2.7122890949249268
1757088325689319400,2.2703193359375,-0.1839350014925003,-9.422712326049805,-2.710792064666748
1757088325698872300,2.279872314453125,-0.18159499764442444,-9.423165321350098,-2.7093920707702637
1757088325708425200,2.28942529296875,-0.17934300005435944,-9.423650741577148,-2.7078731060028076
1757088325717977900,2.298977783203125,-0.17703600227832794,-9.424222946166992,-2.7060511112213135
1757088325727530800,2.30853076171875,-0.1748500019311905,-9.424910545349121,-2.7038071155548096
1757088325737083600,2.318083740234375,-0.1729619950056076,-9.425667762756348,-2.7012970447540283
1757088325746636500,2.327636474609375,-0.17128600180149078,-9.426448822021484,-2.698683023452759
1757088325756189400,2.337189453125,-0.16971999406814575,-9.427192687988281,-2.6961889266967773
1757088325765742300,2.346742431640625,-0.1683019995689392,-9.427858352661133,-2.6939520835876465
1757088325775295200,2.356295166015625,-0.1670369952917099,-9.4284086227417,-2.6921041011810303
1757088325784848100,2.36584814453125,-0.1658650040626526,-9.428810119628906,-2.6907739639282227
1757088325794401000,2.375401123046875,-0.16464899480342865,-9.42906379699707,-2.6899590492248535
1757088325803954000,2.384953857421875,-0.16315299272537231,-9.429144859313965,-2.689755916595459
1757088325813506800,2.3945068359375,-0.1612659990787506,-9.429108619689941,-2.6899850368499756
1757088325823059700,2.404059814453125,-0.1588830053806305,-9.42900562286377,-2.6904680728912354
1757088325832612400,2.4136123046875,-0.1560019999742508,-9.428869247436523,-2.69108510017395
1757088325842165200,2.423165283203125,-0.1527239978313446,-9.428730964660645,-2.691728115081787
1757088325851718100,2.43271826171875,-0.1491989940404892,-9.428616523742676,-2.6923000812530518
1757088325861271000,2.44227099609375,-0.1455329954624176,-9.428540229797363,-2.692751884460449
1757088325870824000,2.451823974609375,-0.14179599285125732,-9.428473472595215,-2.6931779384613037
1757088325880376800,2.461376953125,-0.1381080001592636,-9.42839241027832,-2.69364595413208
1757088325889929700,2.4709296875,-0.13451099395751953,-9.428269386291504,-2.6942620277404785
1757088325899482600,2.480482666015625,-0.13100899755954742,-9.428057670593262,-2.695180892944336
1757088325909035500,2.490035400390625,-0.1279579997062683,-9.427687644958496,-2.6966300010681152
1757088325918588400,2.49958837890625,-0.1253100037574768,-9.427105903625488,-2.6987969875335693
1757088325928141300,2.509141357421875,-0.12292200326919556,-9.426342010498047,-2.701575994491577
1757088325937694000,2.51869384765625,-0.12069699913263321,-9.425451278686523,-2.70478892326355
1757088325947246800,2.528246826171875,-0.11859799921512604,-9.424477577209473,-2.7082901000976562
1757088325956799700,2.5377998046875,-0.11660700291395187,-9.423494338989258,-2.7118079662323
1757088325966352600,2.5473525390625,-0.11474999785423279,-9.42255973815918,-2.71514892578125
1757088325975905500,2.556905517578125,-0.113086998462677,-9.421731948852539,-2.7181060314178467
1757088325985458400,2.56645849609375,-0.11173900216817856,-9.42102336883545,-2.7206308841705322
1757088325995011000,2.576010986328125,-0.11079099774360657,-9.420448303222656,-2.7226669788360596
1757088326004564000,2.58556396484375,-0.11032599955797195,-9.4199800491333,-2.7243149280548096
1757088326014116900,2.595116943359375,-0.11035999655723572,-9.41958236694336,-2.7256920337677
1757088326023669800,2.604669677734375,-0.11078400164842606,-9.419195175170898,-2.7270150184631348
1757088326033222700,2.61422265625,-0.11140800267457962,-9.418784141540527,-2.728411912918091
1757088326042775600,2.623775634765625,-0.11203599721193314,-9.418359756469727,-2.729856014251709
1757088326052328400,2.633328369140625,-0.11250600218772888,-9.41793155670166,-2.7313220500946045
1757088326061881600,2.642881591796875,-0.11277499794960022,-9.417551040649414,-2.7326340675354004
1757088326071434200,2.652434326171875,-0.11280500143766403,-9.417279243469238,-2.7335739135742188
1757088326080987100,2.661987060546875,-0.11269699782133102,-9.417149543762207,-2.7340281009674072
1757088326090540000,2.6715400390625,-0.1124190017580986,-9.417149543762207,-2.7340331077575684
1757088326100093000,2.681093017578125,-0.11199499666690826,-9.417277336120605,-2.733609914779663
1757088326109645800,2.690645751953125,-0.11148499697446823,-9.417553901672363,-2.7326760292053223
1757088326119198500,2.700198486328125,-0.11096499860286713,-9.417959213256836,-2.731290102005005
1757088326128751400,2.70975146484375,-0.11068300157785416,-9.418463706970215,-2.7295548915863037
1757088326138304300,2.71930419921875,-0.11075600236654282,-9.419059753417969,-2.727492094039917
1757088326147857200,2.728857177734375,-0.11122000217437744,-9.419694900512695,-2.7252728939056396
1757088326157410000,2.73841015625,-0.11195500195026398,-9.420351028442383,-2.7229719161987305
1757088326166963000,2.747962890625,-0.11287099868059158,-9.42099380493164,-2.720702886581421
1757088326176515600,2.757515625,-0.1138790026307106,-9.421607971191406,-2.7185230255126953
1757088326186068700,2.76706884765625,-0.1150209978222847,-9.422192573547363,-2.716444969177246
1757088326195621600,2.77662158203125,-0.11624100059270859,-9.422744750976562,-2.7144699096679688
1757088326205174500,2.786174560546875,-0.11754599958658218,-9.423271179199219,-2.712575912475586
1757088326214727400,2.7957275390625,-0.11890999972820282,-9.423797607421875,-2.710681915283203
1757088326224280300,2.8052802734375,-0.12026800215244293,-9.424345016479492,-2.7087249755859375
1757088326233833000,2.8148330078125,-0.12165600061416626,-9.424905776977539,-2.7067129611968994
1757088326243385900,2.8243857421875,-0.12313800305128098,-9.42544937133789,-2.7047619819641113
1757088326252938800,2.833938720703125,-0.124719999730587,-9.425907135009766,-2.7031009197235107
1757088326262491600,2.84349169921875,-0.126351997256279,-9.426214218139648,-2.7019639015197754
1757088326272044500,2.85304443359375,-0.12793000042438507,-9.42636775970459,-2.7013630867004395
1757088326281597400,2.862597412109375,-0.12945500016212463,-9.42640209197998,-2.701179027557373
1757088326291150000,2.872150146484375,-0.13078899681568146,-9.426371574401855,-2.7012269496917725
1757088326300703000,2.881702880859375,-0.13174399733543396,-9.426301002502441,-2.7014338970184326
1757088326310256000,2.891256103515625,-0.13232100009918213,-9.426225662231445,-2.7016708850860596
1757088326319808800,2.900808837890625,-0.13248200714588165,-9.42615032196045,-2.701927900314331
1757088326329362000,2.91036181640625,-0.13224400579929352,-9.426065444946289,-2.7022318840026855
1757088326338914800,2.919914794921875,-0.1316089928150177,-9.425960540771484,-2.7026259899139404
1757088326348467500,2.929467529296875,-0.13062800467014313,-9.425806045532227,-2.703212022781372
1757088326358020400,2.939020263671875,-0.1292950063943863,-9.425596237182617,-2.703995943069458
1757088326367573200,2.9485732421875,-0.1277559995651245,-9.425337791442871,-2.704967975616455
1757088326377126100,2.958126220703125,-0.12619200348854065,-9.425027847290039,-2.7061209678649902
1757088326386679000,2.967678955078125,-0.12471599876880646,-9.424686431884766,-2.7073769569396973
1757088326396231700,2.977231689453125,-0.12325400114059448,-9.424333572387695,-2.708667039871216
1757088326405784600,2.98678466796875,-0.12181799858808517,-9.424006462097168,-2.7098751068115234
1757088326415337700,2.996337646484375,-0.12045600265264511,-9.423735618591309,-2.710886001586914
1757088326424890400,3.005890380859375,-0.11917299777269363,-9.423521041870117,-2.711695909500122
1757088326434443300,3.015443359375,-0.11793699860572815,-9.423395156860352,-2.712191104888916
1757088326443996200,3.02499609375,-0.11670199781656265,-9.423371315002441,-2.7123351097106934
1757088326453549000,3.034549072265625,-0.11545299738645554,-9.423463821411133,-2.7120649814605713
1757088326463102000,3.04410205078125,-0.11421699821949005,-9.423663139343262,-2.7114269733428955
1757088326472654800,3.05365478515625,-0.11302500218153,-9.423922538757324,-2.71057391166687
1757088326482207700,3.063207763671875,-0.1119450032711029,-9.42419147491455,-2.7096850872039795
1757088326491760600,3.0727607421875,-0.1111299991607666,-9.42442798614502,-2.7088959217071533
1757088326501313500,3.0823134765625,-0.11054900288581848,-9.424598693847656,-2.7083261013031006
1757088326510866400,3.091866455078125,-0.11011400073766708,-9.424680709838867,-2.708061933517456
1757088326520419000,3.101419189453125,-0.10983800143003464,-9.424692153930664,-2.7080318927764893
1757088326529972200,3.11097216796875,-0.10971699655056,-9.42466926574707,-2.7081151008605957
1757088326539524900,3.12052490234375,-0.10978200286626816,-9.42466926574707,-2.7081170082092285
1757088326549077800,3.130077880859375,-0.11011400073766708,-9.42469596862793,-2.7080109119415283
1757088326558630700,3.139630615234375,-0.11061500012874603,-9.424774169921875,-2.707714080810547
1757088326568183600,3.14918359375,-0.11108600348234177,-9.424901962280273,-2.707257032394409
1757088326577736400,3.158736328125,-0.11144399642944336,-9.425057411193848,-2.7066988945007324
1757088326587289300,3.168289306640625,-0.11177399754524231,-9.425230026245117,-2.706088066101074
1757088326596842200,3.17784228515625,-0.11207100003957748,-9.425389289855957,-2.705518960952759
1757088326606395100,3.18739501953125,-0.11241299659013748,-9.425512313842773,-2.7050719261169434
1757088326615948000,3.196947998046875,-0.11276700347661972,-9.425616264343262,-2.704694986343384
1757088326625500700,3.206500732421875,-0.1131730005145073,-9.42570686340332,-2.704361915588379
1757088326635053600,3.216053466796875,-0.11368600279092789,-9.425816535949707,-2.703953981399536
1757088326644606500,3.2256064453125,-0.114376001060009,-9.425960540771484,-2.7034220695495605
1757088326654159400,3.235159423828125,-0.11529800295829773,-9.426164627075195,-2.7026679515838623
1757088326663712300,3.244712158203125,-0.11641799658536911,-9.42643928527832,-2.7016561031341553
1757088326673265200,3.25426513671875,-0.11771900206804276,-9.42681884765625,-2.7002620697021484
1757088326682817800,3.26381787109375,-0.1191679984331131,-9.427350997924805,-2.6983230113983154
1757088326692371000,3.273370849609375,-0.1208140030503273,-9.428068161010742,-2.6957170963287354
1757088326701923600,3.282923583984375,-0.122700996696949,-9.429037094116211,-2.6922030448913574
1757088326711476500,3.2924765625,-0.1248520016670227,-9.43025016784668,-2.6877999305725098
1757088326721029600,3.302029541015625,-0.12729999423027039,-9.431642532348633,-2.6827330589294434
1757088326730582500,3.31158251953125,-0.12986400723457336,-9.433162689208984,-2.6772000789642334
1757088326740135400,3.321135498046875,-0.13245199620723724,-9.434815406799316,-2.6711769104003906
1757088326749688000,3.33068798828125,-0.13497699797153473,-9.436552047729492,-2.6648430824279785
1757088326759241000,3.340240966796875,-0.1373790055513382,-9.438360214233398,-2.658255100250244
1757088326768793900,3.3497939453125,-0.1396470069885254,-9.440244674682617,-2.6513988971710205
1757088326778346800,3.3593466796875,-0.1417209953069687,-9.442209243774414,-2.6442511081695557
1757088326787899600,3.368899658203125,-0.1436389982700348,-9.44424819946289,-2.636831045150757
1757088326797452300,3.378452392578125,-0.1453769952058792,-9.446359634399414,-2.6291539669036865
1757088326807005200,3.388005126953125,-0.1469999998807907,-9.448493003845215,-2.6213979721069336
1757088326816558000,3.39755810546875,-0.1485310047864914,-9.450590133666992,-2.6137681007385254
1757088326826111000,3.407111083984375,-0.15004600584506989,-9.452610969543457,-2.606400966644287
1757088326835664000,3.416663818359375,-0.15152400732040405,-9.4545259475708,-2.599416971206665
1757088326845216800,3.426216796875,-0.15290699899196625,-9.45631217956543,-2.5928890705108643
1757088326854769700,3.435769775390625,-0.15418599545955658,-9.457953453063965,-2.5868899822235107
1757088326864322600,3.445322509765625,-0.15527300536632538,-9.459399223327637,-2.581605911254883
1757088326873875500,3.45487548828125,-0.15607300400733948,-9.460594177246094,-2.577238082885742
1757088326883428400,3.464428466796875,-0.15650899708271027,-9.461478233337402,-2.5740230083465576
1757088326892981200,3.473981201171875,-0.15660299360752106,-9.461996078491211,-2.572148084640503
1757088326902534000,3.483533935546875,-0.15636099874973297,-9.462118148803711,-2.5717220306396484
1757088326912087000,3.493087158203125,-0.15578199923038483,-9.461793899536133,-2.5729269981384277
1757088326921639700,3.5026396484375,-0.15512500703334808,-9.460957527160645,-2.575963020324707
1757088326931192600,3.512192626953125,-0.1545500010251999,-9.459554672241211,-2.5810179710388184
1757088326940745500,3.521745361328125,-0.1541910022497177,-9.457550048828125,-2.588170051574707
1757088326950298400,3.53129833984375,-0.15406900644302368,-9.454917907714844,-2.597476005554199
1757088326959851300,3.540851318359375,-0.15420100092887878,-9.451703071594238,-2.6087610721588135
1757088326969404000,3.55040380859375,-0.15469799935817719,-9.447948455810547,-2.6218628883361816
1757088326978957000,3.55995703125,-0.1555899977684021,-9.44377326965332,-2.6363608837127686
1757088326988510000,3.569510009765625,-0.1568939983844757,-9.439300537109375,-2.6518499851226807
1757088326998062800,3.579062744140625,-0.15846499800682068,-9.434652328491211,-2.667922019958496
1757088327007615700,3.58861572265625,-0.16011400520801544,-9.42999267578125,-2.684030055999756
1757088327017168600,3.598168701171875,-0.16159400343894958,-9.425448417663574,-2.69976806640625
1757088327026721300,3.60772119140625,-0.16283899545669556,-9.421141624450684,-2.7147300243377686
1757088327036274200,3.617274169921875,-0.16389499604701996,-9.41714859008789,-2.728653907775879
1757088327045827000,3.6268271484375,-0.1649560034275055,-9.413541793823242,-2.741266965866089
1757088327055380000,3.6363798828125,-0.16626599431037903,-9.410394668579102,-2.752295970916748
1757088327064932900,3.645932861328125,-0.16816399991512299,-9.407734870910645,-2.761591911315918
1757088327074485500,3.655485595703125,-0.1707729995250702,-9.4055814743042,-2.7690610885620117
1757088327084038400,3.665038330078125,-0.17393900454044342,-9.403961181640625,-2.774609088897705
1757088327093591300,3.67459130859375,-0.1774429976940155,-9.402914047241211,-2.7781078815460205
1757088327103144200,3.684144287109375,-0.18112300336360931,-9.402508735656738,-2.7793009281158447
1757088327112697000,3.693697021484375,-0.18487399816513062,-9.402791976928711,-2.7780210971832275
1757088327122250000,3.70325,-0.18873199820518494,-9.403759002685547,-2.7743029594421387
1757088327131803000,3.712802978515625,-0.1927880048751831,-9.40544319152832,-2.768030881881714
1757088327141355800,3.722355712890625,-0.19719700515270233,-9.407870292663574,-2.75913405418396
1757088327150908700,3.73190869140625,-0.20198999345302582,-9.410964012145996,-2.7478859424591064
1757088327160461600,3.741461669921875,-0.20723700523376465,-9.414633750915527,-2.734610080718994
1757088327170014500,3.751014404296875,-0.21310700476169586,-9.418725967407227,-2.719822883605957
1757088327179567400,3.7605673828125,-0.21979600191116333,-9.42309284210205,-2.7039968967437744
1757088327189120000,3.7701201171875,-0.2275959998369217,-9.427591323852539,-2.68757700920105
1757088327198673000,3.7796728515625,-0.23682700097560883,-9.432038307189941,-2.671149969100952
1757088327208225800,3.789225830078125,-0.24772000312805176,-9.436286926269531,-2.655164957046509
1757088327217778700,3.79877880859375,-0.2604529857635498,-9.440214157104492,-2.640005111694336
1757088327227331600,3.80833154296875,-0.2750610113143921,-9.443707466125488,-2.626025915145874
1757088327236884200,3.81788427734375,-0.2912899851799011,-9.446699142456055,-2.613460063934326
1757088327246437000,3.82743701171875,-0.308696985244751,-9.44914436340332,-2.6025190353393555
1757088327255990300,3.836990234375,-0.3266940116882324,-9.451057434082031,-2.5932490825653076
1757088327265543200,3.846543212890625,-0.34481701254844666,-9.452486038208008,-2.5855650901794434
1757088327275096000,3.856095947265625,-0.36281299591064453,-9.4534273147583,-2.579556941986084
1757088327284649000,3.86564892578125,-0.38058599829673767,-9.453897476196289,-2.5752038955688477
1757088327294201600,3.87520166015625,-0.3981890082359314,-9.453972816467285,-2.572277069091797
1757088327303754500,3.88475439453125,-0.41565799713134766,-9.45372200012207,-2.5705080032348633
1757088327313307400,3.894307373046875,-0.4329319894313812,-9.453228950500488,-2.569614887237549
1757088327322860300,3.9038603515625,-0.4499959945678711,-9.4525728225708,-2.569295883178711
1757088327332413200,3.9134130859375,-0.46686500310897827,-9.451790809631348,-2.56941294670105
1757088327341966000,3.922966064453125,-0.48376500606536865,-9.450840950012207,-2.570072889328003
1757088327351518700,3.932518798828125,-0.5007929801940918,-9.449644088745117,-2.5715219974517822
1757088327361071600,3.942071533203125,-0.5181390047073364,-9.448148727416992,-2.573878049850464
1757088327370624800,3.951624755859375,-0.5358800292015076,-9.446329116821289,-2.577164888381958
1757088327380177400,3.961177490234375,-0.5541179776191711,-9.444229125976562,-2.5811619758605957
1757088327389730300,3.970730224609375,-0.5729339718818665,-9.441926956176758,-2.5855209827423096
1757088327399283200,3.980283203125,-0.5923110246658325,-9.439493179321289,-2.5899569988250732
1757088327408836000,3.989836181640625,-0.6118980050086975,-9.437093734741211,-2.593954086303711
1757088327418389000,3.999388916015625,-0.6310939788818359,-9.434903144836426,-2.597048044204712
1757088327427942000,4.00894189453125,-0.648855984210968,-9.433065414428711,-2.599097967147827
1757088327437494800,4.018494873046875,-0.6641470193862915,-9.431726455688477,-2.5999560356140137
1757088327447047700,4.028047607421875,-0.6765599846839905,-9.430931091308594,-2.59961199760437
1757088327456600300,4.037600341796875,-0.6863020062446594,-9.430631637573242,-2.598201036453247
1757088327466153200,4.0471533203125,-0.6940760016441345,-9.43077564239502,-2.595700979232788
1757088327475706000,4.0567060546875,-0.700560986995697,-9.431315422058105,-2.5920920372009277
1757088327485259000,4.066259033203125,-0.7060109972953796,-9.432191848754883,-2.587507963180542
1757088327494812000,4.07581201171875,-0.7103850245475769,-9.433403015136719,-2.5819408893585205
1757088327504364500,4.085364501953125,-0.7139449715614319,-9.43498420715332,-2.575171947479248
1757088327513917400,4.09491748046875,-0.7173839807510376,-9.436779022216797,-2.5675930976867676
1757088327523470300,4.10447021484375,-0.7212330102920532,-9.438638687133789,-2.5596139430999756
1757088327533023500,4.1140234375,-0.7255989909172058,-9.44053840637207,-2.55131196975708
1757088327542576000,4.123576171875,-0.7309560179710388,-9.442365646362305,-2.5429880619049072
1757088327552129300,4.13312939453125,-0.7393159866333008,-9.4442777633667,-2.533355951309204
1757088327561682000,4.142681884765625,-0.7507299780845642,-9.44621753692627,-2.522455930709839
1757088327571234800,4.15223486328125,-0.7652639746665955,-9.44804573059082,-2.5106310844421387
1757088327580787700,4.16178759765625,-0.7830190062522888,-9.449565887451172,-2.4983739852905273
1757088327590340600,4.171340576171875,-0.8042240142822266,-9.450573921203613,-2.4861459732055664
1757088327599893500,4.1808935546875,-0.8299620151519775,-9.448936462402344,-2.481313943862915
1757088327609446100,4.190446044921875,-0.8630719780921936,-9.444100379943848,-2.483633041381836
1757088327618999300,4.199999267578125,-0.9069079756736755,-9.435379028320312,-2.49277400970459
1757088327628552200,4.20955224609375,-0.9654819965362549,-9.422408103942871,-2.506495952606201
1757088327638105000,4.21910498046875,-1.0393379926681519,-9.405168533325195,-2.523344039916992
1757088327647657700,4.22865771484375,-1.1273629665374756,-9.384186744689941,-2.5413949489593506
1757088327657211000,4.2382109375,-1.2274210453033447,-9.359987258911133,-2.5597259998321533
1757088327666763500,4.247763427734375,-1.3376410007476807,-9.333070755004883,-2.5775609016418457
1757088327676316400,4.25731640625,-1.4580869674682617,-9.303428649902344,-2.5941100120544434
1757088327685869300,4.266869384765625,-1.5901319980621338,-9.270227432250977,-2.609731912612915
1757088327695422200,4.276422119140625,-1.7343440055847168,-9.232726097106934,-2.6248579025268555
1757088327704975000,4.28597509765625,-1.8913609981536865,-9.190011978149414,-2.6394290924072266
1757088327714528000,4.295528076171875,-2.0588409900665283,-9.142544746398926,-2.653225898742676
1757088327724081000,4.305080810546875,-2.2331550121307373,-9.09150218963623,-2.666616916656494
1757088327733633500,4.314633544921875,-2.410191059112549,-9.038663864135742,-2.6789629459381104
1757088327743186400,4.3241865234375,-2.584836959838867,-8.985578536987305,-2.690424919128418
1757088327752739300,4.3337392578125,-2.757359027862549,-8.932589530944824,-2.6990129947662354
1757088327762292200,4.343292236328125,-2.9288458824157715,-8.879867553710938,-2.7016210556030273
1757088327771845000,4.35284521484375,-3.101367950439453,-8.824649810791016,-2.7032439708709717
1757088327781398000,4.36239794921875,-3.2754719257354736,-8.766586303710938,-2.70328688621521
1757088327790951000,4.371950927734375,-3.450762987136841,-8.707281112670898,-2.6946990489959717
1757088327800503800,4.38150390625,-3.6248269081115723,-8.647053718566895,-2.6779539585113525
1757088327810056700,4.391056640625,-3.795193910598755,-8.586478233337402,-2.653326988220215
1757088327819609600,4.400609619140625,-3.9587900638580322,-8.527145385742188,-2.61844801902771
1757088327829162500,4.41016259765625,-4.116994857788086,-8.467530250549316,-2.5764570236206055
1757088327838715100,4.419715087890625,-4.27174711227417,-8.40549087524414,-2.532660961151123
1757088327848268000,4.42926806640625,-4.424516201019287,-8.339412689208984,-2.4919559955596924
1757088327857821000,4.438821044921875,-4.575253963470459,-8.270586013793945,-2.451857089996338
1757088327867373800,4.448373779296875,-4.723556995391846,-8.198925971984863,-2.4132730960845947
1757088327876926700,4.4579267578125,-4.867881774902344,-8.125166893005371,-2.3760130405426025
1757088327886479400,4.467479248046875,-5.006984233856201,-8.050111770629883,-2.3399410247802734
1757088327896032300,4.4770322265625,-5.139016151428223,-7.9749932289123535,-2.304788112640381
1757088327905585200,4.486585205078125,-5.2671589851379395,-7.898130893707275,-2.269857883453369
1757088327915138000,4.496137939453125,-5.393192768096924,-7.820217132568359,-2.232451915740967
1757088327924691000,4.50569091796875,-5.518335819244385,-7.741951942443848,-2.1915531158447266
1757088327934243600,4.51524365234375,-5.645662784576416,-7.661239147186279,-2.1480441093444824
1757088327943796700,4.524796630859375,-5.774800777435303,-7.577478885650635,-2.1037180423736572
1757088327953349600,4.534349609375,-5.905237197875977,-7.489218235015869,-2.0626299381256104
1757088327962902300,4.54390234375,-6.035233020782471,-7.398224830627441,-2.0205039978027344
1757088327972455400,4.553455322265625,-6.163963794708252,-7.304539203643799,-1.9785460233688354
1757088327982008000,4.563008056640625,-6.290431976318359,-7.209117889404297,-1.9361809492111206
1757088327991561000,4.57256103515625,-6.414258003234863,-7.112137794494629,-1.8946839570999146
1757088328001113900,4.58211376953125,-6.535297870635986,-7.014138221740723,-1.8531789779663086
1757088328010666800,4.591666748046875,-6.653909206390381,-6.913626194000244,-1.816290020942688
1757088328020219600,4.6012197265625,-6.769001007080078,-6.811703205108643,-1.782791018486023
1757088328029772300,4.610772216796875,-6.879852771759033,-6.709894180297852,-1.7492400407791138
1757088328039325200,4.6203251953125,-6.986607074737549,-6.609160900115967,-1.7125020027160645
1757088328048878000,4.629878173828125,-7.090270042419434,-6.508166790008545,-1.6761759519577026
1757088328058431000,4.639430908203125,-7.190597057342529,-6.407307147979736,-1.6407029628753662
1757088328067984000,4.64898388671875,-7.2877421379089355,-6.306542873382568,-1.606011986732483
1757088328077536500,4.65853662109375,-7.382129192352295,-6.205513000488281,-1.5720609426498413
1757088328087089700,4.668089599609375,-7.474691867828369,-6.103047847747803,-1.5387070178985596
1757088328096642600,4.677642578125,-7.563814163208008,-6.000548839569092,-1.506566047668457
1757088328106195500,4.687195556640625,-7.651066780090332,-5.896069049835205,-1.47707998752594
1757088328115748400,4.696748291015625,-7.7387471199035645,-5.7869977951049805,-1.4509179592132568
1757088328125301200,4.70630126953125,-7.826240062713623,-5.673983097076416,-1.4281129837036133
1757088328134854000,4.71585400390625,-7.913113117218018,-5.557704925537109,-1.4079099893569946
1757088328144407000,4.725406982421875,-7.998438835144043,-5.439436912536621,-1.3886159658432007
1757088328153959700,4.734959716796875,-8.08128547668457,-5.3204779624938965,-1.3695570230484009
1757088328163512600,4.7445126953125,-8.161437034606934,-5.201332092285156,-1.3501629829406738
1757088328173065500,4.7540654296875,-8.238824844360352,-5.082489967346191,-1.3313469886779785
1757088328182618400,4.763618408203125,-8.313359260559082,-4.964897155761719,-1.3122459650039673
1757088328192171000,4.7731708984375,-8.384814262390137,-4.849462032318115,-1.293544054031372
1757088328201724000,4.782723876953125,-8.453554153442383,-4.735458850860596,-1.2750389575958252
1757088328211276800,4.79227685546875,-8.519579887390137,-4.622780799865723,-1.2569580078125
1757088328220829700,4.80182958984375,-8.582791328430176,-4.511879920959473,-1.2390609979629517
1757088328230382600,4.811382568359375,-8.64339828491211,-4.402754783630371,-1.2202709913253784
1757088328239935500,4.820935546875,-8.70188045501709,-4.29463005065918,-1.201030969619751
1757088328249488400,4.83048828125,-8.758763313293457,-4.186617851257324,-1.1811089515686035
1757088328259041000,4.840041015625,-8.813894271850586,-4.079338073730469,-1.1598739624023438
1757088328268594200,4.84959423828125,-8.8671293258667,-3.973217010498047,-1.1370220184326172
1757088328278146800,4.859146728515625,-8.917938232421875,-3.869007110595703,-1.1129839420318604
1757088328287699700,4.86869970703125,-8.966402053833008,-3.766648054122925,-1.088176965713501
1757088328297252600,4.878252685546875,-9.012311935424805,-3.666412115097046,-1.0639270544052124
1757088328306805500,4.887805419921875,-9.055394172668457,-3.5687949657440186,-1.0413999557495117
1757088328316358400,4.8973583984375,-9.095903396606445,-3.473651885986328,-1.019934058189392
1757088328325911300,4.906911376953125,-9.133867263793945,-3.381427049636841,-0.9992849826812744
1757088328335464000,4.9164638671875,-9.169322967529297,-3.29253888130188,-0.9782099723815918
1757088328345016800,4.926016845703125,-9.202653884887695,-3.2063939571380615,-0.955706000328064
1757088328354569700,4.93556982421875,-9.234188079833984,-3.122188091278076,-0.9312999844551086
1757088328364122600,4.94512255859375,-9.264463424682617,-3.0386719703674316,-0.9054179787635803
1757088328373675500,4.954675537109375,-9.293899536132812,-2.955220937728882,-0.8774679899215698
1757088328383228400,4.964228515625,-9.322961807250977,-2.8710179328918457,-0.8468859791755676
1757088328392781300,4.97378125,-9.351125717163086,-2.7874200344085693,-0.8138689994812012
1757088328402334200,4.983334228515625,-9.37830924987793,-2.7045769691467285,-0.7784879803657532
1757088328411887000,4.99288720703125,-9.40473747253418,-2.6214609146118164,-0.7416250109672546
1757088328421440000,5.00243994140625,-9.430082321166992,-2.539257049560547,-0.7050340175628662
1757088328430992600,5.01199267578125,-9.454316139221191,-2.458470106124878,-0.6667320132255554
1757088328440545800,5.0215458984375,-9.477364540100098,-2.3792600631713867,-0.6257079839706421
1757088328450098700,5.0310986328125,-9.499387741088867,-2.3008360862731934,-0.5836160182952881
1757088328459651300,5.0406513671875,-9.520413398742676,-2.223073959350586,-0.5413020253181458
1757088328469204200,5.050204345703125,-9.540311813354492,-2.1467790603637695,-0.49886101484298706
1757088328478757000,5.059757080078125,-9.55915641784668,-2.071929931640625,-0.4562489986419678
1757088328488310000,5.06931005859375,-9.577113151550293,-1.998123049736023,-0.4130229949951172
1757088328497863000,5.07886279296875,-9.59430980682373,-1.9253050088882446,-0.3688099980354309
1757088328507415600,5.08841552734375,-9.610671997070312,-1.8537709712982178,-0.3231390118598938
1757088328516968700,5.09796875,-9.626288414001465,-1.782960057258606,-0.27532199025154114
1757088328526521600,5.107521484375,-9.6409273147583,-1.7140109539031982,-0.227743998169899
1757088328536074500,5.117074462890625,-9.654494285583496,-1.6469659805297852,-0.18148300051689148
1757088328545627100,5.126627197265625,-9.666839599609375,-1.582535982131958,-0.13673000037670135
1757088328555180000,5.136179931640625,-9.67802906036377,-1.5208410024642944,-0.09312299638986588
1757088328564733000,5.14573291015625,-9.688363075256348,-1.4599709510803223,-0.05203099921345711
1757088328574285800,5.155285888671875,-9.697916030883789,-1.4000810384750366,-0.014778999611735344
1757088328583838500,5.16483837890625,-9.706771850585938,-1.3416880369186401,0.01768600009381771
1757088328593391400,5.174391357421875,-9.714860916137695,-1.2861050367355347,0.04603999853134155
1757088328602944300,5.1839443359375,-9.722034454345703,-1.2348320484161377,0.07153800129890442
1757088328612497200,5.1934970703125,-9.72857666015625,-1.186123013496399,0.09773500263690948
1757088328622050000,5.203050048828125,-9.734533309936523,-1.13965904712677,0.12290800362825394
1757088328631603000,5.21260302734375,-9.73985481262207,-1.095839023590088,0.1462019979953766
1757088328641156000,5.222156005859375,-9.744466781616211,-1.0557490587234497,0.16892699897289276
1757088328650708700,5.231708740234375,-9.748453140258789,-1.0188909769058228,0.19151200354099274
1757088328660261600,5.24126171875,-9.751951217651367,-0.9848139882087708,0.2134930044412613
1757088328669814500,5.250814453125,-9.755017280578613,-0.9531300067901611,0.23511099815368652
1757088328679367400,5.260367431640625,-9.757615089416504,-0.9241849780082703,0.25697898864746094
1757088328688920000,5.269920166015625,-9.759777069091797,-0.8977270126342773,0.27980101108551025
1757088328698473200,5.27947314453125,-9.76154899597168,-0.8736690282821655,0.3024359941482544
1757088328708025900,5.28902587890625,-9.762971878051758,-0.8520209789276123,0.3231459856033325
1757088328717578800,5.298578857421875,-9.764174461364746,-0.8318399786949158,0.3429499864578247
1757088328727131600,5.308131591796875,-9.765090942382812,-0.8136720061302185,0.36248698830604553
1757088328736684500,5.3176845703125,-9.765716552734375,-0.7975640296936035,0.3819279968738556
1757088328746237400,5.327237548828125,-9.766064643859863,-0.7834429740905762,0.40140700340270996
1757088328755790300,5.336790283203125,-9.766016960144043,-0.7724279761314392,0.42166900634765625
1757088328765343200,5.34634326171875,-9.765679359436035,-0.7632780075073242,0.443217009305954
1757088328774896000,5.355896240234375,-9.765142440795898,-0.7545710206031799,0.4670509994029999
1757088328784448800,5.36544873046875,-9.764517784118652,-0.7450379729270935,0.49308401346206665
1757088328794001700,5.375001708984375,-9.763896942138672,-0.7336660027503967,0.5207629799842834
1757088328803554600,5.384554443359375,-9.76325511932373,-0.7213029861450195,0.547980010509491
1757088328813107500,5.394107421875,-9.762535095214844,-0.7083839774131775,0.5753679871559143
1757088328822660400,5.403660400390625,-9.76169490814209,-0.6949329972267151,0.6033999919891357
1757088328832213200,5.413213134765625,-9.76085090637207,-0.6804649829864502,0.6310880184173584
1757088328841766000,5.422765869140625,-9.759990692138672,-0.6659790277481079,0.657929003238678
1757088328851318800,5.43231884765625,-9.759119987487793,-0.6517300009727478,0.684207022190094
1757088328860871700,5.44187158203125,-9.758207321166992,-0.6385819911956787,0.7097740173339844
1757088328870424600,5.451424560546875,-9.757264137268066,-0.6267380118370056,0.7342240214347839
1757088328879977500,5.4609775390625,-9.756280899047852,-0.6165289878845215,0.7573559880256653
1757088328889530400,5.4705302734375,-9.755270004272461,-0.6079319715499878,0.7791370153427124
1757088328899083000,5.4800830078125,-9.754253387451172,-0.6008120179176331,0.7994769811630249
1757088328908636200,5.48963623046875,-9.753278732299805,-0.5948730111122131,0.817969024181366
1757088328918188800,5.499188720703125,-9.752365112304688,-0.590041995048523,0.8344069719314575
1757088328927742000,5.508741943359375,-9.751482963562012,-0.5865319967269897,0.8489630222320557
1757088328937294600,5.518294677734375,-9.750578880310059,-0.5846310257911682,0.862034022808075
1757088328946847500,5.527847412109375,-9.749584197998047,-0.5849030017852783,0.8740090131759644
1757088328956400400,5.537400390625,-9.74848461151123,-0.5878350138664246,0.8846070170402527
1757088328965953300,5.546953369140625,-9.747278213500977,-0.593845009803772,0.8935080170631409
1757088328975506000,5.556505859375,-9.745957374572754,-0.6030139923095703,0.9008299708366394
1757088328985058800,5.566058837890625,-9.744539260864258,-0.6153119802474976,0.9065080285072327
1757088328994611700,5.57561181640625,-9.743085861206055,-0.6301220059394836,0.9104840159416199
1757088329004164600,5.58516455078125,-9.741691589355469,-0.6467540264129639,0.912401020526886
1757088329013717500,5.594717529296875,-9.740413665771484,-0.6648780107498169,0.9120389819145203
1757088329023270400,5.6042705078125,-9.739228248596191,-0.6840720176696777,0.9100379943847656
1757088329032823300,5.6138232421875,-9.738134384155273,-0.7037230134010315,0.9067710041999817
1757088329042376000,5.6233759765625,-9.737105369567871,-0.7233930230140686,0.9028139710426331
1757088329051928800,5.6329287109375,-9.736138343811035,-0.7424150109291077,0.8986290097236633
1757088329061481700,5.642481689453125,-9.73528003692627,-0.7602970004081726,0.8940650224685669
1757088329071034600,5.65203466796875,-9.734554290771484,-0.7773630023002625,0.8884389996528625
1757088329080587500,5.66158740234375,-9.733909606933594,-0.7946950197219849,0.8810740113258362
1757088329090140400,5.671140380859375,-9.733190536499023,-0.8128640055656433,0.8730959892272949
1757088329099693300,5.680693359375,-9.732381820678711,-0.8310490250587463,0.8655800223350525
1757088329109246000,5.690245849609375,-9.73154067993164,-0.8482959866523743,0.8589980006217957
1757088329118799000,5.699799072265625,-9.730738639831543,-0.8630930185317993,0.8543050289154053
1757088329128351700,5.709351806640625,-9.730058670043945,-0.8742579817771912,0.8517410159111023
1757088329137904600,5.718904541015625,-9.72950553894043,-0.8824509978294373,0.8504260182380676
1757088329147457500,5.72845751953125,-9.728951454162598,-0.888713002204895,0.850721001625061
1757088329157010400,5.738010498046875,-9.728455543518066,-0.8934739828109741,0.8515880107879639
1757088329166563300,5.747563232421875,-9.728056907653809,-0.8970069885253906,0.852495014667511
1757088329176116000,5.757115966796875,-9.727776527404785,-0.8992800116539001,0.8532969951629639
1757088329185668900,5.7666689453125,-9.727527618408203,-0.9009469747543335,0.8543369770050049
1757088329195221800,5.7762216796875,-9.727212905883789,-0.9024450182914734,0.8562219738960266
1757088329204774700,5.785774658203125,-9.726741790771484,-0.9042609930038452,0.8594319820404053
1757088329214327800,5.795327880859375,-9.726099967956543,-0.9061539769172668,0.8643389940261841
1757088329223880200,5.804880126953125,-9.725282669067383,-0.9077730178833008,0.8713020086288452
1757088329233433300,5.814433349609375,-9.724363327026367,-0.9086319804191589,0.8800179958343506
1757088329242986200,5.823986328125,-9.723427772521973,-0.9084470272064209,0.8898249864578247
1757088329252539100,5.8335390625,-9.722492218017578,-0.907230019569397,0.9005699753761292
1757088329262092000,5.843092041015625,-9.721535682678223,-0.9048280119895935,0.9127259850502014
1757088329271645000,5.85264501953125,-9.720574378967285,-0.9006369709968567,0.9268509745597839
1757088329281197600,5.862197509765625,-9.719730377197266,-0.8952419757843018,0.9412339925765991
1757088329290750500,5.87175048828125,-9.718969345092773,-0.8903189897537231,0.9545509815216064
1757088329300303400,5.881303466796875,-9.71820068359375,-0.8869379758834839,0.9664750099182129
1757088329309856300,5.890856201171875,-9.717426300048828,-0.8857669830322266,0.9760140180587769
1757088329319409000,5.900408935546875,-9.716699600219727,-0.8868759870529175,0.9825800061225891
1757088329328961800,5.9099619140625,-9.716099739074707,-0.8890640139579773,0.9867249727249146
1757088329338515000,5.919514892578125,-9.715767860412598,-0.8911089897155762,0.9882040023803711
1757088329348067600,5.929067626953125,-9.715642929077148,-0.8927609920501709,0.9879090189933777
1757088329357620500,5.938620361328125,-9.715658187866211,-0.8941159844398499,0.986391007900238
1757088329367173400,5.94817333984375,-9.71580696105957,-0.8949599862098694,0.9839209914207458
1757088329376726300,5.957726318359375,-9.716123580932617,-0.8950690031051636,0.9803029894828796
1757088329386279200,5.967279052734375,-9.71662712097168,-0.8945109844207764,0.9753119945526123
1757088329395832000,5.97683203125,-9.717353820800781,-0.8934209942817688,0.9683709740638733
1757088329405385000,5.986385009765625,-9.718313217163086,-0.8926470279693604,0.9585080146789551
1757088329414937600,5.9959375,-9.719441413879395,-0.8926759958267212,0.945917010307312
1757088329424490500,6.005490478515625,-9.720748901367188,-0.8931919932365417,0.9308710098266602
1757088329434043400,6.01504345703125,-9.722145080566406,-0.894553005695343,0.9139189720153809
1757088329443596300,6.02459619140625,-9.72355842590332,-0.8971160054206848,0.8954579830169678
1757088329453149200,6.034149169921875,-9.724967002868652,-0.9007530212402344,0.8758699893951416
1757088329462701800,6.043701904296875,-9.7263765335083,-0.905102014541626,0.8553850054740906
1757088329472254700,6.053254638671875,-9.72779655456543,-0.9089890122413635,0.8349220156669617
1757088329481807600,6.0628076171875,-9.729268074035645,-0.9113889932632446,0.8150290250778198
1757088329491360500,6.072360595703125,-9.730830192565918,-0.9120929837226868,0.7956129908561707
1757088329500913400,6.081913330078125,-9.732466697692871,-0.911558985710144,0.7765390276908875
1757088329510466000,6.091466064453125,-9.73408031463623,-0.9106929898262024,0.7579439878463745
1757088329520019200,6.101019287109375,-9.73560905456543,-0.9098290205001831,0.7401670217514038
1757088329529571800,6.11057177734375,-9.737028121948242,-0.9090920090675354,0.7234129905700684
1757088329539125000,6.120125,-9.738313674926758,-0.9083060026168823,0.7081390023231506
1757088329548678000,6.129677978515625,-9.73946762084961,-0.9074339866638184,0.6944550275802612
1757088329558230800,6.139230712890625,-9.740434646606445,-0.9070829749107361,0.6823689937591553
1757088329567783400,6.148783447265625,-9.741218566894531,-0.9072960019111633,0.6718419790267944
1757088329577336300,6.15833642578125,-9.74184513092041,-0.9080380201339722,0.6626269817352295
1757088329586889200,6.16788916015625,-9.742345809936523,-0.9089890122413635,0.6547330021858215
1757088329596442000,6.177442138671875,-9.742732048034668,-0.9095140099525452,0.6487979888916016
1757088329605995000,6.1869951171875,-9.743059158325195,-0.9094250202178955,0.6443960070610046
1757088329615548000,6.1965478515625,-9.743268966674805,-0.909404993057251,0.641493022441864
1757088329625100500,6.2061005859375,-9.743349075317383,-0.9096090197563171,0.640064001083374
1757088329634653400,6.2156533203125,-9.743310928344727,-0.9099940061569214,0.640097975730896
1757088329644206300,6.225206298828125,-9.743176460266113,-0.9104130268096924,0.6414830088615417
1757088329653759200,6.23475927734375,-9.742972373962402,-0.9105849862098694,0.6441890001296997
1757088329663312100,6.24431201171875,-9.74273681640625,-0.910427987575531,0.6478430032730103
1757088329672865000,6.253864990234375,-9.742483139038086,-0.909958004951477,0.6521549820899963
1757088329682417700,6.263417724609375,-9.742205619812012,-0.909305989742279,0.6570600271224976
1757088329691970600,6.272970458984375,-9.741907119750977,-0.9085019826889038,0.6624860167503357
1757088329701523500,6.2825234375,-9.741578102111816,-0.9077039957046509,0.6683109998703003
1757088329711076400,6.292076416015625,-9.741230010986328,-0.906961977481842,0.6743209958076477
1757088329720629500,6.30162939453125,-9.740880966186523,-0.9061149954795837,0.6804530024528503
1757088329730182100,6.31118212890625,-9.740541458129883,-0.9052180051803589,0.6864969730377197
1757088329739735000,6.320735107421875,-9.740229606628418,-0.9041119813919067,0.6923819780349731
1757088329749288000,6.330287841796875,-9.73996353149414,-0.902692973613739,0.6979939937591553
1757088329758840800,6.3398408203125,-9.739745140075684,-0.9009519815444946,0.7033159732818604
1757088329768393500,6.3493935546875,-9.739579200744629,-0.8989030122756958,0.7083100080490112
1757088329777946400,6.3589462890625,-9.739466667175293,-0.8965039849281311,0.7129799723625183
1757088329787499300,6.368499267578125,-9.739400863647461,-0.8939350247383118,0.7171909809112549
1757088329797052200,6.37805224609375,-9.739365577697754,-0.8913990259170532,0.7209460139274597
1757088329806604800,6.387604736328125,-9.739347457885742,-0.8890680074691772,0.7241619825363159
1757088329816158000,6.397157958984375,-9.739348411560059,-0.8868950009346008,0.7269039750099182
1757088329825710600,6.406710693359375,-9.739384651184082,-0.8847870230674744,0.7290610074996948
1757088329835263700,6.416263671875,-9.739461898803711,-0.8827210068702698,0.7305759787559509
1757088329844816400,6.42581640625,-9.739594459533691,-0.8805930018424988,0.7314050197601318
1757088329854369300,6.435369384765625,-9.73977279663086,-0.8783169984817505,0.7317450046539307
1757088329863922200,6.444922119140625,-9.739995002746582,-0.8758950233459473,0.7316780090332031
1757088329873475000,6.45447509765625,-9.740262985229492,-0.8732579946517944,0.731266975402832
1757088329883027700,6.46402783203125,-9.740556716918945,-0.8705940246582031,0.7305039763450623
1757088329892580600,6.47358056640625,-9.740877151489258,-0.8678110241889954,0.7295460104942322
1757088329902133500,6.483133544921875,-9.74120044708252,-0.8650019764900208,0.7285529971122742
1757088329911686400,6.492686279296875,-9.741510391235352,-0.8623849749565125,0.7275230288505554
1757088329921239300,6.5022392578125,-9.741805076599121,-0.859906017780304,0.7265179753303528
1757088329930792200,6.511792236328125,-9.74207592010498,-0.8576300144195557,0.7255780100822449
1757088329940345000,6.521344970703125,-9.74231243133545,-0.8556360006332397,0.724789023399353
1757088329949898200,6.530898193359375,-9.742508888244629,-0.8539040088653564,0.7242209911346436
1757088329959451000,6.540450927734375,-9.742667198181152,-0.8523169755935669,0.7239649891853333
1757088329969003800,6.550003662109375,-9.74278736114502,-0.8509209752082825,0.7240099906921387
1757088329978556400,6.559556396484375,-9.742865562438965,-0.849606990814209,0.7244910001754761
1757088329988109600,6.569109619140625,-9.74290657043457,-0.8482930064201355,0.725479006767273
1757088329997662200,6.578662109375,-9.74290657043457,-0.8469809889793396,0.7269930243492126
1757088330007215000,6.588215087890625,-9.742855072021484,-0.8458420038223267,0.7289599776268005
1757088330016768000,6.59776806640625,-9.742745399475098,-0.8449239730834961,0.731423020362854
1757088330026321000,6.60732080078125,-9.742588996887207,-0.844202995300293,0.7342889904975891
1757088330035873500,6.61687353515625,-9.742389678955078,-0.8436239957809448,0.7375400066375732
1757088330045426400,6.626426513671875,-9.742142677307129,-0.8433290123939514,0.7410590052604675
1757088330054979300,6.635979248046875,-9.741862297058105,-0.843313992023468,0.7447289824485779
1757088330064532200,6.6455322265625,-9.741558074951172,-0.843546986579895,0.7484229803085327
1757088330074085000,6.655085205078125,-9.741239547729492,-0.8439930081367493,0.7520580291748047
1757088330083637800,6.6646376953125,-9.740918159484863,-0.8446409702301025,0.755511999130249
1757088330093190700,6.674190673828125,-9.740610122680664,-0.8453500270843506,0.7587220072746277
1757088330102743600,6.68374365234375,-9.740325927734375,-0.846077024936676,0.7616159915924072
1757088330112296400,6.69329638671875,-9.74006462097168,-0.8467959761619568,0.7642160058021545
1757088330121849000,6.70284912109375,-9.739835739135742,-0.8474519848823547,0.7664639949798584
1757088330131402200,6.71240234375,-9.739645957946777,-0.8479300141334534,0.7683820128440857
1757088330140955100,6.721955078125,-9.739498138427734,-0.8483160138130188,0.769881010055542
1757088330150508000,6.731508056640625,-9.739381790161133,-0.8486649990081787,0.7709789872169495
1757088330160061000,6.74106103515625,-9.73929500579834,-0.8490719795227051,0.7716500163078308
1757088330169613600,6.750613525390625,-9.739225387573242,-0.8496379852294922,0.7719039916992188
1757088330179166500,6.76016650390625,-9.739176750183105,-0.8503530025482178,0.7717409729957581
1757088330188719400,6.76971923828125,-9.739152908325195,-0.8511649966239929,0.7711439728736877
1757088330198272300,6.779272216796875,-9.739171028137207,-0.8518880009651184,0.7700949907302856
1757088330207825200,6.7888251953125,-9.73923110961914,-0.8525109887123108,0.7686280012130737
1757088330217377800,6.798377685546875,-9.739325523376465,-0.8529999852180481,0.7668579816818237
1757088330226930700,6.8079306640625,-9.739444732666016,-0.853413999080658,0.7648869752883911
1757088330236483600,6.817483642578125,-9.739587783813477,-0.8537020087242126,0.7627410292625427
1757088330246036500,6.827036376953125,-9.739744186401367,-0.8538600206375122,0.760574996471405
1757088330255589400,6.83658935546875,-9.739895820617676,-0.8539680242538452,0.7585269808769226
1757088330265142300,6.846142333984375,-9.740031242370605,-0.8540570139884949,0.7567129731178284
1757088330274695200,6.855695068359375,-9.740140914916992,-0.8541629910469055,0.7552059888839722
1757088330284248000,6.865248046875,-9.740221977233887,-0.8543149828910828,0.7539960145950317
1757088330293801000,6.874801025390625,-9.740274429321289,-0.8545529842376709,0.7530679702758789
1757088330303353900,6.884353759765625,-9.740301132202148,-0.8548330068588257,0.7524070143699646
1757088330312906800,6.89390673828125,-9.740312576293945,-0.8551419973373413,0.7519199848175049
1757088330322459400,6.90345947265625,-9.740312576293945,-0.8555020093917847,0.7515230178833008
1757088330332012300,6.91301220703125,-9.74030876159668,-0.8558419942855835,0.7511940002441406
1757088330341565200,6.922565185546875,-9.740304946899414,-0.8561519980430603,0.7508929967880249
1757088330351118000,6.9321181640625,-9.740296363830566,-0.8564059734344482,0.750711977481842
1757088330360670700,6.941670654296875,-9.740289688110352,-0.8565580248832703,0.7506260275840759
1757088330370223600,6.9512236328125,-9.74028491973877,-0.8566340208053589,0.7505990266799927
1757088330379776500,6.960776611328125,-9.740286827087402,-0.8566650152206421,0.7505329847335815
1757088330389329400,6.970329345703125,-9.74028491973877,-0.8567370176315308,0.7504730224609375
1757088330398882000,6.979882080078125,-9.740285873413086,-0.8567929863929749,0.7504010200500488
1757088330408435000,6.98943505859375,-9.740294456481934,-0.8568069934844971,0.7502539753913879
1757088330417988000,6.998988037109375,-9.740313529968262,-0.856876015663147,0.7499340176582336
1757088330427540700,7.008540771484375,-9.740336418151855,-0.8570389747619629,0.7494410276412964
1757088330437094000,7.018093994140625,-9.740368843078613,-0.8572869896888733,0.748714029788971
1757088330446646800,7.027646728515625,-9.7404203414917,-0.8575050234794617,0.7477729916572571
1757088330456199400,7.037199462890625,-9.740493774414062,-0.857725977897644,0.7465559840202332
1757088330465752300,7.04675244140625,-9.74058723449707,-0.8579490184783936,0.7450479865074158
1757088330475305200,7.05630517578125,-9.74069881439209,-0.8581809997558594,0.7433109879493713
1757088330484858000,7.065858154296875,-9.740822792053223,-0.8584129810333252,0.7414010167121887
1757088330494410800,7.07541064453125,-9.74095630645752,-0.8586180210113525,0.739421010017395
1757088330503963600,7.084963623046875,-9.741082191467285,-0.8588340282440186,0.7375040054321289
1757088330513516500,7.0945166015625,-9.74119758605957,-0.8590480089187622,0.7357280254364014
1757088330523069400,7.1040693359375,-9.741294860839844,-0.8593040108680725,0.7341600060462952
1757088330532622300,7.113622314453125,-9.741372108459473,-0.8595899939537048,0.7328199744224548
1757088330542175200,7.12317529296875,-9.74143123626709,-0.8599110245704651,0.7316650152206421
1757088330551728400,7.132728271484375,-9.741474151611328,-0.8602529764175415,0.7307029962539673
1757088330561281000,7.142281005859375,-9.74150562286377,-0.8605930209159851,0.7298979759216309
1757088330570834000,7.151833984375,-9.741521835327148,-0.8609139919281006,0.7293199896812439
1757088330580386800,7.16138671875,-9.741534233093262,-0.8611869812011719,0.7288339734077454
1757088330589939700,7.170939697265625,-9.741540908813477,-0.8614689707756042,0.7284150123596191
1757088330599492400,7.180492431640625,-9.741538047790527,-0.861801028251648,0.728073000907898
1757088330609045200,7.190045166015625,-9.741523742675781,-0.8621820211410522,0.7278169989585876
1757088330618598100,7.19959814453125,-9.741498947143555,-0.8626130223274231,0.7276470065116882
1757088330628151000,7.209151123046875,-9.741463661193848,-0.8630769848823547,0.7275710105895996
1757088330637704000,7.218703857421875,-9.741426467895508,-0.8635429739952087,0.7275329828262329
1757088330647256600,7.228256591796875,-9.741389274597168,-0.8639010190963745,0.7275949716567993
1757088330656809500,7.2378095703125,-9.741353988647461,-0.8641319870948792,0.7278059720993042
1757088330666362400,7.2473623046875,-9.741316795349121,-0.8642550110816956,0.7281479835510254
1757088330675915300,7.256915283203125,-9.741273880004883,-0.8643220067024231,0.7286249995231628
1757088330685468200,7.26646826171875,-9.741220474243164,-0.8644319772720337,0.7292349934577942
1757088330695021000,7.27602099609375,-9.7411470413208,-0.8646399974822998,0.7299460172653198
1757088330704574000,7.285573974609375,-9.741061210632324,-0.8649269938468933,0.7307440042495728
1757088330714126800,7.295126953125,-9.740971565246582,-0.8652480244636536,0.7315559983253479
1757088330723679700,7.3046796875,-9.740877151489258,-0.8656460046768188,0.7323430180549622
1757088330733232400,7.314232421875,-9.74078369140625,-0.8660529851913452,0.7330970168113708
1757088330742785300,7.323785400390625,-9.740697860717773,-0.8664349913597107,0.7337949872016907
1757088330752338200,7.333338134765625,-9.740610122680664,-0.8667889833450317,0.7345139980316162
1757088330761891000,7.34289111328125,-9.740522384643555,-0.8671259880065918,0.7352839708328247
1757088330771444000,7.35244384765625,-9.740419387817383,-0.8674799799919128,0.7362160086631775
1757088330780996600,7.36199658203125,-9.740301132202148,-0.8678359985351562,0.7373449802398682
1757088330790549800,7.3715498046875,-9.740179061889648,-0.8681340217590332,0.7385979890823364
1757088330800102700,7.3811025390625,-9.740062713623047,-0.868245005607605,0.7399799823760986
1757088330809655300,7.3906552734375,-9.739971160888672,-0.8680310249328613,0.7414379715919495
1757088330819208200,7.400208251953125,-9.739898681640625,-0.8675289750099182,0.7429730296134949
1757088330828760800,7.4097607421875,-9.739834785461426,-0.8668879866600037,0.7445610165596008
1757088330838314000,7.41931396484375,-9.739761352539062,-0.8662480115890503,0.7462570071220398
1757088330847866600,7.42886669921875,-9.739676475524902,-0.8656359910964966,0.7480639815330505
1757088330857419500,7.43841943359375,-9.739587783813477,-0.8649910092353821,0.7499809861183167
1757088330866972400,7.447972412109375,-9.739500045776367,-0.8642410039901733,0.7519739866256714
1757088330876525300,7.457525390625,-9.739424705505371,-0.8633430004119873,0.7539759874343872
1757088330886078200,7.467078125,-9.739365577697754,-0.8622699975967407,0.7559599876403809
1757088330895631000,7.476631103515625,-9.739316940307617,-0.8611540198326111,0.7578309774398804
1757088330905184000,7.48618408203125,-9.739277839660645,-0.8600819706916809,0.7595509886741638
1757088330914737000,7.49573681640625,-9.739240646362305,-0.8590480089187622,0.7611979842185974
1757088330924289500,7.50528955078125,-9.739194869995117,-0.8581799864768982,0.7627689838409424
1757088330933842400,7.514842529296875,-9.739128112792969,-0.8575739860534668,0.7642999887466431
1757088330943395300,7.524395263671875,-9.739034652709961,-0.857312023639679,0.7657949924468994
1757088330952948200,7.5339482421875,-9.73891544342041,-0.8573949933052063,0.7672240138053894
1757088330962500900,7.5435009765625,-9.738779067993164,-0.8578029870986938,0.7684609889984131
1757088330972054000,7.553053955078125,-9.738637924194336,-0.8585289716720581,0.7694439888000488
1757088330981607000,7.56260693359375,-9.738482475280762,-0.8596519827842712,0.7701370120048523
1757088330991159800,7.572159912109375,-9.738308906555176,-0.8612840175628662,0.7704439759254456
1757088331000712700,7.581712646484375,-9.738117218017578,-0.8634740114212036,0.770346999168396
1757088331010265600,7.591265625,-9.737922668457031,-0.8661620020866394,0.7697150111198425
1757088331019818200,7.600818359375,-9.737749099731445,-0.8691589832305908,0.7684109807014465
1757088331029371100,7.61037109375,-9.737630844116211,-0.8722630143165588,0.766260027885437
1757088331038924000,7.619924072265625,-9.737598419189453,-0.875216007232666,0.7631289958953857
1757088331048477000,7.629476806640625,-9.737668991088867,-0.8779289722442627,0.7588729858398438
1757088331058029600,7.639029541015625,-9.737831115722656,-0.8804550170898438,0.7535989880561829
1757088331067582500,7.64858251953125,-9.73808765411377,-0.8824459910392761,0.7476710081100464
1757088331077135400,7.65813525390625,-9.738516807556152,-0.8831580281257629,0.7409030199050903
1757088331086688300,7.667688232421875,-9.73902702331543,-0.8839060068130493,0.7328140139579773
1757088331096241200,7.6772412109375,-9.73949909210205,-0.8852019906044006,0.7245680093765259
1757088331105793800,7.686793701171875,-9.740059852600098,-0.885653018951416,0.7161039710044861
1757088331115346700,7.6963466796875,-9.740778923034668,-0.885001003742218,0.7066259980201721
1757088331124899600,7.705899658203125,-9.741515159606934,-0.8843969702720642,0.6968269944190979
1757088331134452500,7.715452392578125,-9.742229461669922,-0.8839510083198547,0.6871989965438843
1757088331144005400,7.72500537109375,-9.74299430847168,-0.883018970489502,0.6774830222129822
1757088331153558500,7.73455859375,-9.74383544921875,-0.8815019726753235,0.66730797290802
1757088331163111200,7.744111083984375,-9.744772911071777,-0.8793169856071472,0.6564630270004272
1757088331172664000,7.7536640625,-9.745809555053711,-0.876213014125824,0.6452460289001465
1757088331182217000,7.763217041015625,-9.746896743774414,-0.8723629713058472,0.6341249942779541
1757088331191769900,7.772769775390625,-9.74798583984375,-0.8680340051651001,0.6235479712486267
1757088331201322500,7.782322509765625,-9.749038696289062,-0.863381028175354,0.6139259934425354
1757088331210875400,7.79187548828125,-9.750001907348633,-0.8587620258331299,0.6056380271911621
1757088331220428300,7.80142822265625,-9.750834465026855,-0.8544409871101379,0.5989059805870056
1757088331229981200,7.810981201171875,-9.751506805419922,-0.8506669998168945,0.593891978263855
1757088331239533800,7.820533935546875,-9.751995086669922,-0.8475589752197266,0.5907449722290039
1757088331249086700,7.830086669921875,-9.752309799194336,-0.8450090289115906,0.5894749760627747
1757088331258639600,7.8396396484375,-9.75242805480957,-0.843442976474762,0.5897849798202515
1757088331268192500,7.849192626953125,-9.752265930175781,-0.8435919880867004,0.5919830203056335
1757088331277745400,7.858745361328125,-9.751903533935547,-0.8440629839897156,0.5966950058937073
1757088331287298300,7.86829833984375,-9.751450538635254,-0.8443350195884705,0.6028929948806763
1757088331296851200,7.877851318359375,-9.750786781311035,-0.845757007598877,0.6105690002441406
1757088331306404000,7.887404052734375,-9.749848365783691,-0.8485000133514404,0.6204429864883423
1757088331315957000,7.89695703125,-9.748787879943848,-0.8513829708099365,0.6316829919815063
1757088331325510000,7.906510009765625,-9.747669219970703,-0.8542050123214722,0.6435909867286682
1757088331335062500,7.9160625,-9.746431350708008,-0.8576430082321167,0.6562280058860779
1757088331344615400,7.925615478515625,-9.745046615600586,-0.861814022064209,0.6699169874191284
1757088331354168300,7.935168212890625,-9.743513107299805,-0.8667060136795044,0.6848189830780029
1757088331363721200,7.94472119140625,-9.74183464050293,-0.8725039958953857,0.7006710171699524
1757088331373274000,7.954274169921875,-9.740068435668945,-0.8789209723472595,0.7169640064239502
1757088331382827000,7.963826904296875,-9.738275527954102,-0.8856459856033325,0.7332040071487427
1757088331392379600,7.973379638671875,-9.736513137817383,-0.8924570083618164,0.7489060163497925
1757088331401932500,7.9829326171875,-9.734827995300293,-0.8990539908409119,0.7637010216712952
1757088331411485400,7.9924853515625,-9.733257293701172,-0.9052609801292419,0.7773150205612183
1757088331421038300,8.002038330078125,-9.731823921203613,-0.9109990000724792,0.7895680069923401
1757088331430591500,8.011591552734375,-9.730539321899414,-0.9162129759788513,0.8003680109977722
1757088331440144100,8.02114404296875,-9.729410171508789,-0.9209679961204529,0.8095880150794983
1757088331449697000,8.030697021484375,-9.72846508026123,-0.9250940084457397,0.8170769810676575
1757088331459249700,8.040249755859374,-9.727717399597168,-0.928534984588623,0.8227390050888062
1757088331468802800,8.049802734375,-9.72718620300293,-0.931190013885498,0.8264960050582886
1757088331478355700,8.059355712890625,-9.726875305175781,-0.9330440163612366,0.8282989859580994
1757088331487908400,8.068908447265626,-9.726787567138672,-0.9340890049934387,0.8281840085983276
1757088331497461200,8.078461181640625,-9.726921081542969,-0.9342939853668213,0.8262540102005005
1757088331507014100,8.08801416015625,-9.727259635925293,-0.9336529970169067,0.8227289915084839
1757088331516567000,8.097567138671875,-9.727783203125,-0.9322090148925781,0.8178380131721497
1757088331526119700,8.10711962890625,-9.72846794128418,-0.9299839735031128,0.8118450045585632
1757088331535672600,8.116672607421876,-9.729296684265137,-0.9270300269126892,0.8049200177192688
1757088331545225500,8.1262255859375,-9.730241775512695,-0.9234780073165894,0.7972970008850098
1757088331554778400,8.1357783203125,-9.731280326843262,-0.9194329977035522,0.7890650033950806
1757088331564331300,8.145331298828125,-9.732382774353027,-0.915058970451355,0.7804489731788635
1757088331573884400,8.154884521484375,-9.733512878417969,-0.9105079770088196,0.771651029586792
1757088331583437000,8.16443701171875,-9.734640121459961,-0.9059309959411621,0.7629250288009644
1757088331592990000,8.173989990234375,-9.735729217529297,-0.9014869928359985,0.754489004611969
1757088331602542800,8.18354296875,-9.7367582321167,-0.8972640037536621,0.7465090155601501
1757088331612095700,8.193095703125,-9.737709045410156,-0.8933709859848022,0.7390879988670349
1757088331621648600,8.202648681640625,-9.738557815551758,-0.8899670243263245,0.732354998588562
1757088331631201300,8.212201171875,-9.739302635192871,-0.8870490193367004,0.7263370156288147
1757088331640754200,8.221754150390625,-9.739931106567383,-0.8846989870071411,0.7211099863052368
1757088331650307000,8.23130712890625,-9.740435600280762,-0.8829429745674133,0.7167080044746399
1757088331659860000,8.24085986328125,-9.740812301635742,-0.8818529844284058,0.7131189703941345
1757088331669412600,8.25041259765625,-9.741063117980957,-0.8814280033111572,0.7103580236434937
1757088331678965500,8.259965576171876,-9.741189002990723,-0.8816919922828674,0.7083749771118164
1757088331688518400,8.269518310546875,-9.74119758605957,-0.8826299905776978,0.7070890069007874
1757088331698071300,8.2790712890625,-9.741098403930664,-0.8842089772224426,0.7064599990844727
1757088331707624200,8.288624267578125,-9.7409029006958,-0.8863409757614136,0.706417977809906
1757088331717176800,8.2981767578125,-9.740626335144043,-0.8889240026473999,0.7069209814071655
1757088331726730000,8.30772998046875,-9.74028491973877,-0.8917779922485352,0.7079749703407288
1757088331736282600,8.31728271484375,-9.739900588989258,-0.8947759866714478,0.7094339728355408
1757088331745835500,8.32683544921875,-9.739473342895508,-0.8979499936103821,0.7112529873847961
1757088331755388400,8.336388427734375,-9.739008903503418,-0.9012200236320496,0.7134479880332947
1757088331764941300,8.34594140625,-9.738544464111328,-0.9041150212287903,0.7161610126495361
1757088331774494200,8.355494140625,-9.738091468811035,-0.9067310094833374,0.7190420031547546
1757088331784046800,8.365046875,-9.737627983093262,-0.9093779921531677,0.722000002861023
1757088331793600000,8.37460009765625,-9.737157821655273,-0.9119240045547485,0.7251870036125183
1757088331803153000,8.38415283203125,-9.736721992492676,-0.9139590263366699,0.7285230159759521
1757088331812705500,8.39370556640625,-9.736342430114746,-0.9153079986572266,0.7319089770317078
1757088331822258400,8.403258544921876,-9.736014366149902,-0.9160439968109131,0.7353590130805969
1757088331831811300,8.412811279296875,-9.73572063446045,-0.9163359999656677,0.738867998123169
1757088331841364200,8.4223642578125,-9.735453605651855,-0.9163280129432678,0.7423869967460632
1757088331850916900,8.431916748046875,-9.73520278930664,-0.9161210060119629,0.745917022228241
1757088331860469800,8.4414697265625,-9.734968185424805,-0.9157059788703918,0.7494519948959351
1757088331870022700,8.451022705078126,-9.73474407196045,-0.9151949882507324,0.7529730200767517
1757088331879575600,8.460575439453125,-9.734521865844727,-0.9146909713745117,0.7564510107040405
1757088331889128400,8.47012841796875,-9.7343111038208,-0.9142900109291077,0.759672999382019
1757088331898681300,8.479681396484375,-9.734103202819824,-0.9140729904174805,0.762615978717804
1757088331908234200,8.489234130859375,-9.73390007019043,-0.9141319990158081,0.7651669979095459
1757088331917787100,8.498787109375,-9.733704566955566,-0.9144660234451294,0.7672669887542725
1757088331927340000,8.508340087890625,-9.733518600463867,-0.9150649905204773,0.7689290046691895
1757088331936893000,8.517892822265624,-9.733356475830078,-0.9158009886741638,0.7701159715652466
1757088331946445600,8.527445556640625,-9.733243942260742,-0.9165279865264893,0.7706649899482727
1757088331955998500,8.53699853515625,-9.733166694641113,-0.917622983455658,0.7702770233154297
1757088331965551400,8.54655126953125,-9.733133316040039,-0.9188879728317261,0.7691370248794556
1757088331975104300,8.556104248046875,-9.733186721801758,-0.9198219776153564,0.7672550082206726
1757088331984657200,8.5656572265625,-9.73333740234375,-0.9204859733581543,0.7643939852714539
1757088331994209800,8.575209716796875,-9.73355484008789,-0.9211480021476746,0.7606170177459717
1757088332003762700,8.5847626953125,-9.73382568359375,-0.9218770265579224,0.756043016910553
1757088332013315600,8.594315673828126,-9.734159469604492,-0.9224929809570312,0.7507410049438477
1757088332022868500,8.603868408203125,-9.734556198120117,-0.9229249954223633,0.7447779774665833
1757088332032421400,8.61342138671875,-9.735030174255371,-0.9230419993400574,0.7381569743156433
1757088332041974000,8.62297412109375,-9.735588073730469,-0.9228010177612305,0.7308059930801392
1757088332051527200,8.632527099609375,-9.736224174499512,-0.9222170114517212,0.7227720022201538
1757088332061079800,8.642079833984376,-9.736930847167969,-0.9211900234222412,0.714290976524353
1757088332070633000,8.651633056640625,-9.73769474029541,-0.9196889996528625,0.7056000232696533
1757088332080185900,8.661185791015624,-9.738505363464355,-0.917635977268219,0.6969509720802307
1757088332089738500,8.670738525390625,-9.739343643188477,-0.9150909781455994,0.6885610222816467
1757088332099291400,8.68029150390625,-9.74020767211914,-0.911981999874115,0.680525004863739
1757088332108844300,8.68984423828125,-9.741079330444336,-0.9084370136260986,0.6729419827461243
1757088332118397200,8.699397216796875,-9.741942405700684,-0.9046019911766052,0.6658520102500916
1757088332127950000,8.7089501953125,-9.742777824401855,-0.9005860090255737,0.6593850255012512
1757088332137502700,8.718502685546875,-9.743549346923828,-0.8966289758682251,0.6537330150604248
1757088332147055600,8.7280556640625,-9.744237899780273,-0.8928340077400208,0.6490160226821899
1757088332156608500,8.7376083984375,-9.744827270507812,-0.8892940282821655,0.6453440189361572
1757088332166161400,8.747161376953125,-9.745304107666016,-0.8862490057945251,0.6426069736480713
1757088332175714300,8.75671435546875,-9.745654106140137,-0.8837350010871887,0.6409580111503601
1757088332185267200,8.76626708984375,-9.745866775512695,-0.8818209767341614,0.6404749751091003
1757088332194820000,8.775820068359375,-9.74594497680664,-0.8806380033493042,0.6409350037574768
1757088332204373000,8.785373046875,-9.74591064453125,-0.8801779747009277,0.6420379877090454
1757088332213926000,8.79492578125,-9.745798110961914,-0.8801630139350891,0.6436709761619568
1757088332223478500,8.804478515625,-9.745603561401367,-0.8806310296058655,0.6458860039710999
1757088332233031400,8.814031494140625,-9.745298385620117,-0.8817239999771118,0.6488450169563293
1757088332242584300,8.823584228515625,-9.744885444641113,-0.8835750222206116,0.6524109840393066
1757088332252137200,8.83313720703125,-9.744378089904785,-0.8861010074615479,0.6564310193061829
1757088332261690000,8.842690185546875,-9.743792533874512,-0.8892859816551208,0.6606839895248413
1757088332271242800,8.85224267578125,-9.743152618408203,-0.8929650187492371,0.6650769710540771
1757088332280795600,8.861795654296875,-9.742499351501465,-0.8968690037727356,0.6693329811096191
1757088332290348500,8.8713486328125,-9.74183177947998,-0.9012550115585327,0.6731370091438293
1757088332299901400,8.8809013671875,-9.741190910339355,-0.9057729840278625,0.6763929724693298
1757088332309454000,8.8904541015625,-9.74059009552002,-0.9101229906082153,0.679286003112793
1757088332319007000,8.900007080078124,-9.740047454833984,-0.9142299890518188,0.681693971157074
1757088332328559900,8.909559814453125,-9.739540100097656,-0.9181069731712341,0.6838510036468506
1757088332338113000,8.919113037109375,-9.739053726196289,-0.9217680096626282,0.6859899759292603
1757088332347665700,8.928665771484376,-9.7386474609375,-0.925341010093689,0.6870840191841125
1757088332357218800,8.93821875,-9.738367080688477,-0.9284939765930176,0.6868919730186462
1757088332366771500,8.947771484375,-9.738158226013184,-0.9312220215797424,0.6862199902534485
1757088332376324400,8.957324462890625,-9.738004684448242,-0.9335100054740906,0.6853370070457458
1757088332385877200,8.966877197265624,-9.737911224365234,-0.9352740049362183,0.6842700242996216
1757088332395430100,8.97643017578125,-9.737854957580566,-0.9366400241851807,0.6832399964332581
1757088332404982800,8.985982666015625,-9.737786293029785,-0.9380620121955872,0.68231201171875
1757088332414535700,8.99553564453125,-9.737678527832031,-0.9397789835929871,0.6814969778060913
1757088332424088600,9.005088623046875,-9.737539291381836,-0.9417840242385864,0.6807500123977661
1757088332433641500,9.014641357421874,-9.737340927124023,-0.9440000057220459,0.6804990172386169
1757088332443194000,9.024194091796875,-9.736998558044434,-0.9467350244522095,0.6815019845962524
1757088332452747000,9.0337470703125,-9.736413955688477,-0.9502379894256592,0.6845999956130981
1757088332462300000,9.0432998046875,-9.735549926757812,-0.9548410177230835,0.6897029876708984
1757088332471852800,9.052852783203125,-9.734332084655762,-0.9607620239257812,0.6972320079803467
1757088332481405700,9.06240576171875,-9.732816696166992,-0.967270016670227,0.7073839902877808
1757088332490958600,9.07195849609375,-9.73093318939209,-0.9743260145187378,0.7208359837532043
1757088332500511700,9.08151171875,-9.728647232055664,-0.9823169708251953,0.7372900247573853
1757088332510064400,9.091064453125,-9.725616455078125,-0.9915300011634827,0.7593410015106201
1757088332519617300,9.1006171875,-9.721967697143555,-1.0016570091247559,0.785627007484436
1757088332529170200,9.110170166015624,-9.718313217163086,-1.0103750228881836,0.8131269812583923
1757088332538723000,9.11972314453125,-9.714436531066895,-1.0170749425888062,0.8443549871444702
1757088332548275700,9.129275634765625,-9.709854125976562,-1.027662992477417,0.8779979944229126
1757088332557828600,9.13882861328125,-9.704713821411133,-1.042320966720581,0.9120879769325256
1757088332567381500,9.148381591796875,-9.699165344238281,-1.0591750144958496,0.9469619989395142
1757088332576934400,9.157934326171874,-9.693376541137695,-1.0765520334243774,0.9829530119895935
1757088332586487300,9.1674873046875,-9.687488555908203,-1.0926649570465088,1.0207240581512451
1757088332596040200,9.177040283203125,-9.68165111541748,-1.1058789491653442,1.0604629516601562
1757088332605592800,9.1865927734375,-9.6760892868042,-1.1161069869995117,1.1005899906158447
1757088332615146000,9.19614599609375,-9.670797348022461,-1.1239559650421143,1.1405600309371948
1757088332624699000,9.205698974609374,-9.665767669677734,-1.129863977432251,1.1798650026321411
1757088332634251500,9.21525146484375,-9.661105155944824,-1.1339789628982544,1.2172900438308716
1757088332643804400,9.224804443359375,-9.656850814819336,-1.1359540224075317,1.2524399757385254
1757088332653357300,9.234357421875,-9.652923583984375,-1.1350890398025513,1.2864259481430054
1757088332662910200,9.24391015625,-9.649319648742676,-1.1319520473480225,1.3188329935073853
1757088332672462800,9.253462890625,-9.645976066589355,-1.1267739534378052,1.3499640226364136
1757088332682015700,9.263015625,-9.64305305480957,-1.1182409524917603,1.3794410228729248
1757088332691568600,9.272568603515625,-9.640645980834961,-1.1083450317382812,1.4055570363998413
1757088332701121500,9.28212158203125,-9.638891220092773,-1.0974520444869995,1.426637053489685
1757088332710674400,9.29167431640625,-9.637716293334961,-1.0853190422058105,1.4438730478286743
1757088332720227000,9.30122705078125,-9.636571884155273,-1.0741900205612183,1.4597680568695068
1757088332729780000,9.310780029296875,-9.635618209838867,-1.0665459632873535,1.4716440439224243
1757088332739333000,9.3203330078125,-9.635215759277344,-1.0567059516906738,1.4816210269927979
1757088332748885800,9.3298857421875,-9.635381698608398,-1.0440150499343872,1.490332007408142
1757088332758438700,9.339438720703125,-9.635793685913086,-1.0288209915161133,1.4993510246276855
1757088332767991600,9.348991455078124,-9.636141777038574,-1.0108129978179932,1.510364055633545
1757088332777544400,9.35854443359375,-9.63681411743164,-0.9916039705276489,1.5195449590682983
1757088332787097300,9.368097412109375,-9.637449264526367,-0.9728109836578369,1.527858018875122
1757088332796650200,9.377650146484376,-9.637693405151367,-0.9557549953460693,1.5369850397109985
1757088332806203100,9.387203125,-9.637643814086914,-0.9413599967956543,1.546157956123352
1757088332815756000,9.396756103515624,-9.63746452331543,-0.9304400086402893,1.554123044013977
1757088332825308700,9.40630859375,-9.637001991271973,-0.9228019714355469,1.5619169473648071
1757088332834861600,9.415861572265625,-9.635804176330566,-0.917739987373352,1.572482943534851
1757088332844414500,9.42541455078125,-9.633869171142578,-0.9134690165519714,1.5865099430084229
1757088332853967400,9.43496728515625,-9.631431579589844,-0.907023012638092,1.604104995727539
1757088332863520000,9.44452001953125,-9.628613471984863,-0.8974739909172058,1.6246860027313232
1757088332873073000,9.454072998046875,-9.625364303588867,-0.8859080076217651,1.6475549936294556
1757088332882625800,9.463625732421875,-9.621528625488281,-0.870631992816925,1.6744040250778198
1757088332892178700,9.4731787109375,-9.6170654296875,-0.8513439893722534,1.7050729990005493
1757088332901731300,9.4827314453125,-9.612295150756836,-0.8303710222244263,1.7372610569000244
1757088332911284500,9.492284423828124,-9.607221603393555,-0.8095920085906982,1.770555019378662
1757088332920837400,9.50183740234375,-9.601554870605469,-0.7878410220146179,1.8071540594100952
1757088332930390000,9.51139013671875,-9.595399856567383,-0.7651870250701904,1.8464360237121582
1757088332939943200,9.520943115234376,-9.5885591506958,-0.7419689893722534,1.8891680240631104
1757088332949495800,9.530495849609375,-9.581348419189453,-0.7213259935379028,1.9322069883346558
1757088332959048700,9.540048583984374,-9.573945045471191,-0.7066190242767334,1.9730329513549805
1757088332968601600,9.5496015625,-9.565829277038574,-0.6967089772224426,2.0150740146636963
1757088332978154500,9.559154541015625,-9.557815551757812,-0.6902160048484802,2.0551719665527344
1757088332987707100,9.56870703125,-9.550350189208984,-0.6852480173110962,2.0921759605407715
1757088332997260000,9.578260009765625,-9.543451309204102,-0.6795859932899475,2.1271159648895264
1757088333006813000,9.58781298828125,-9.536968231201172,-0.6710829734802246,2.161747932434082
1757088333016365800,9.59736572265625,-9.530973434448242,-0.6596390008926392,2.195651054382324
1757088333025918700,9.606918701171875,-9.525642395019531,-0.6465029716491699,2.2267119884490967
1757088333035471400,9.616471435546876,-9.520496368408203,-0.6342189908027649,2.255523920059204
1757088333045024300,9.626024169921875,-9.515595436096191,-0.6256099939346313,2.2809460163116455
1757088333054577400,9.635577392578124,-9.510881423950195,-0.6217520236968994,2.303154945373535
1757088333064130000,9.645130126953125,-9.506231307983398,-0.6224160194396973,2.3230528831481934
1757088333073683000,9.654682861328125,-9.501222610473633,-0.626006007194519,2.3430099487304688
1757088333083236000,9.664236083984376,-9.495756149291992,-0.6315289735794067,2.363636016845703
1757088333092788700,9.673788818359375,-9.488892555236816,-0.6369220018386841,2.3890058994293213
1757088333102341600,9.683341552734374,-9.480224609375,-0.6412230134010315,2.420428991317749
1757088333111894500,9.69289453125,-9.470243453979492,-0.6445749998092651,2.4556620121002197
1757088333121447400,9.702447509765625,-9.459742546081543,-0.6476439833641052,2.491971015930176
1757088333131000000,9.712,-9.448974609375,-0.6506770253181458,2.528441905975342
1757088333140553200,9.72155322265625,-9.438332557678223,-0.6513620018959045,2.5645110607147217
1757088333150105900,9.73110595703125,-9.42831039428711,-0.6480849981307983,2.59920597076416
1757088333159658800,9.74065869140625,-9.419127464294434,-0.6427900195121765,2.6315009593963623
1757088333169211400,9.75021142578125,-9.410257339477539,-0.6374419927597046,2.663037061691284
1757088333178764300,9.759764404296876,-9.401617050170898,-0.6320620179176331,2.6942598819732666
1757088333188317200,9.769317138671875,-9.393477439880371,-0.62711501121521,2.7242720127105713
1757088333197870000,9.7788701171875,-9.386171340942383,-0.6231099963188171,2.7517359256744385
1757088333207423000,9.788423095703125,-9.379714965820312,-0.6199190020561218,2.7764759063720703
1757088333216976000,9.797975830078125,-9.374335289001465,-0.6173880100250244,2.79742693901062
1757088333226528800,9.80752880859375,-9.370162963867188,-0.6147300004959106,2.8138809204101562
1757088333236081700,9.81708154296875,-9.36630630493164,-0.611407995223999,2.8292620182037354
1757088333245634600,9.826634521484374,-9.362491607666016,-0.6072520017623901,2.844609022140503
1757088333255187200,9.836187255859375,-9.35859489440918,-0.6041709780693054,2.8598289489746094
1757088333264740000,9.845739990234375,-9.355072021484375,-0.6035609841346741,2.8727619647979736
1757088333274293000,9.85529296875,-9.352185249328613,-0.6060240268707275,2.882349967956543
1757088333283846000,9.864845947265625,-9.350517272949219,-0.6110470294952393,2.886876106262207
1757088333293398800,9.874398681640624,-9.350154876708984,-0.619825005531311,2.886059045791626
1757088333302951400,9.883951416015625,-9.350189208984375,-0.6352450251579285,2.8822250366210938
1757088333312504300,9.89350439453125,-9.349386215209961,-0.6580849885940552,2.8786981105804443
1757088333322057200,9.90305712890625,-9.347604751586914,-0.6878899931907654,2.8756139278411865
1757088333331610000,9.912610107421875,-9.345550537109375,-0.718326985836029,2.8731799125671387
1757088333341162800,9.922162841796874,-9.341800689697266,-0.7536669969558716,2.873948097229004
1757088333350715600,9.931715576171875,-9.336193084716797,-0.792398989200592,2.8786990642547607
1757088333360268800,9.941268798828125,-9.328779220581055,-0.8324229717254639,2.887868881225586
1757088333369821400,9.950821533203126,-9.319680213928223,-0.8713070154190063,2.902224063873291
1757088333379374300,9.960374267578125,-9.308975219726562,-0.9079700112342834,2.9221138954162598
1757088333388927000,9.969927001953126,-9.295369148254395,-0.9419670104980469,2.951387882232666
1757088333398480000,9.97947998046875,-9.277690887451172,-0.9732130169868469,2.992919921875
1757088333408033000,9.989032958984374,-9.255624771118164,-1.0003570318222046,3.0474579334259033
1757088333417585700,9.998585693359376,-9.230319023132324,-1.0227789878845215,3.111624002456665
1757088333427138600,10.008138671875,-9.20322322845459,-1.0475820302963257,3.1791460514068604
1757088333436691500,10.01769140625,-9.174955368041992,-1.075003981590271,3.2482450008392334
1757088333446244400,10.027244384765625,-9.145715713500977,-1.1050419807434082,3.3181240558624268
1757088333455797000,10.036796875,-9.11490535736084,-1.1376750469207764,3.3899059295654297
1757088333465350100,10.04635009765625,-9.080826759338379,-1.1730250120162964,3.466826915740967
1757088333474903000,10.055903076171875,-9.04202938079834,-1.2117739915847778,3.5511929988861084
1757088333484455700,10.06545556640625,-8.997774124145508,-1.2513710260391235,3.6441071033477783
1757088333494008600,10.075008544921875,-8.945474624633789,-1.2879630327224731,3.749329090118408
1757088333503561500,10.0845615234375,-8.886007308959961,-1.3193750381469727,3.8646240234375
1757088333513114400,10.0941142578125,-8.819534301757812,-1.3467639684677124,3.9889140129089355
1757088333522667000,10.1036669921875,-8.74824333190918,-1.3738709688186646,4.118982791900635
1757088333532220000,10.113219970703126,-8.678010940551758,-1.3952879905700684,4.24721622467041
1757088333541772800,10.122772705078125,-8.606454849243164,-1.4182440042495728,4.374814033508301
1757088333551325700,10.13232568359375,-8.533044815063477,-1.4447439908981323,4.501867771148682
1757088333560878300,10.14187841796875,-8.456474304199219,-1.478363037109375,4.629015922546387
1757088333570431500,10.151431396484375,-8.373098373413086,-1.5196419954299927,4.761052131652832
1757088333579984600,10.160984619140624,-8.28441333770752,-1.5698130130767822,4.893861770629883
1757088333589537000,10.170537109375,-8.191888809204102,-1.6285500526428223,5.024028778076172
1757088333599090200,10.180090087890624,-8.095152854919434,-1.6964839696884155,5.151340961456299
1757088333608642800,10.189642822265625,-7.995351791381836,-1.76726496219635,5.278202056884766
1757088333618195700,10.19919580078125,-7.891329765319824,-1.836846947669983,5.4075927734375
1757088333627748600,10.20874853515625,-7.782221794128418,-1.90631902217865,5.540325164794922
1757088333637301500,10.218301513671875,-7.669535160064697,-1.9748430252075195,5.675034999847412
1757088333646854100,10.227854248046874,-7.553523063659668,-2.0462191104888916,5.809160232543945
1757088333656407000,10.237406982421875,-7.436607837677002,-2.1198670864105225,5.938615798950195
1757088333665960000,10.2469599609375,-7.315967082977295,-2.196798086166382,6.064112186431885
1757088333675512800,10.256512939453126,-7.197136878967285,-2.275115966796875,6.180914878845215
1757088333685065700,10.266065673828125,-7.080320835113525,-2.348741054534912,6.289286136627197
1757088333694618600,10.27561865234375,-6.9704718589782715,-2.4174768924713135,6.38670015335083
1757088333704171500,10.285171630859375,-6.865409851074219,-2.484937906265259,6.474384784698486
1757088333713724400,10.294724365234375,-6.761785984039307,-2.5545411109924316,6.556631088256836
1757088333723277300,10.30427734375,-6.662600994110107,-2.6271579265594482,6.633917808532715
1757088333732830200,10.313830322265625,-6.567111015319824,-2.697108030319214,6.707131862640381
1757088333742383000,10.323383056640624,-6.472492218017578,-2.762136936187744,6.779374122619629
1757088333751935700,10.332935791015625,-6.376570224761963,-2.8199660778045654,6.852927207946777
1757088333761488600,10.342488525390625,-6.285376071929932,-2.8723208904266357,6.921021938323975
1757088333771041500,10.35204150390625,-6.199954032897949,-2.918036937713623,6.984010219573975
1757088333780594400,10.361594482421875,-6.120993137359619,-2.9568328857421875,7.042019844055176
1757088333790147000,10.37114697265625,-6.048902988433838,-2.9876649379730225,7.095269203186035
1757088333799700200,10.3807001953125,-5.983229160308838,-3.01936411857605,7.141503810882568
1757088333809253000,10.390253173828125,-5.925430774688721,-3.0495660305023193,7.180628776550293
1757088333818805800,10.3998056640625,-5.876136779785156,-3.0766189098358154,7.212906837463379
1757088333828358700,10.409358642578125,-5.8340020179748535,-3.0987370014190674,7.240616798400879
1757088333837911600,10.41891162109375,-5.800473213195801,-3.1101229190826416,7.264970779418945
1757088333847464400,10.42846435546875,-5.77507209777832,-3.111046075820923,7.286454200744629
1757088333857017300,10.438017333984375,-5.760886192321777,-3.1027588844299316,7.301846027374268
1757088333866570200,10.4475703125,-5.753079891204834,-3.0872089862823486,7.314801216125488
1757088333876123000,10.457122802734375,-5.754481792449951,-3.0701920986175537,7.320467948913574
1757088333885675800,10.46667578125,-5.755862236022949,-3.0590429306030273,7.323816776275635
1757088333895228700,10.476228759765625,-5.7601141929626465,-3.0500290393829346,7.324075222015381
1757088333904781600,10.485781494140625,-5.76937198638916,-3.043977975845337,7.31918478012085
1757088333914334200,10.495334228515626,-5.776124000549316,-3.0402491092681885,7.315273761749268
1757088333923887000,10.50488720703125,-5.782364845275879,-3.036837100982666,7.311644077301025
1757088333933440000,10.51443994140625,-5.789610862731934,-3.036113977432251,7.306049823760986
1757088333942993000,10.523992919921875,-5.802196979522705,-3.0354061126708984,7.296256065368652
1757088333952546000,10.533546142578125,-5.813192844390869,-3.033914089202881,7.288255214691162
1757088333962098400,10.543098388671876,-5.8254899978637695,-3.03233003616333,7.279298782348633
1757088333971651300,10.5526513671875,-5.838357925415039,-3.0311338901519775,7.269723892211914
1757088333981204500,10.56220458984375,-5.850436210632324,-3.032362937927246,7.25977897644043
1757088333990757000,10.571757080078125,-5.861496925354004,-3.034466028213501,7.250245094299316
1757088334000309800,10.581309814453125,-5.872038841247559,-3.0380868911743164,7.240368843078613
1757088334009862700,10.590862548828126,-5.882124900817871,-3.042332887649536,7.230508804321289
1757088334019415800,10.600415771484375,-5.88918399810791,-3.049304962158203,7.2218780517578125
1757088334028968400,10.609968505859374,-5.892651081085205,-3.060826063156128,7.214191913604736
1757088334038521300,10.619521240234375,-5.893735885620117,-3.0768990516662598,7.206552028656006
1757088334048074200,10.62907421875,-5.894478797912598,-3.094683885574341,7.198507785797119
1757088334057627100,10.638627197265626,-5.894468784332275,-3.116266965866089,7.189515113830566
1757088334067180000,10.648179931640625,-5.894493103027344,-3.141942024230957,7.178815841674805
1757088334076733000,10.65773291015625,-5.89791202545166,-3.1651248931884766,7.166159152984619
1757088334086285800,10.667285888671875,-5.90231990814209,-3.1853818893432617,7.153746128082275
1757088334095838500,10.67683837890625,-5.904903888702393,-3.201524019241333,7.144449234008789
1757088334105391400,10.686391357421876,-5.905686855316162,-3.214229106903076,7.138062953948975
1757088334114944300,10.6959443359375,-5.907309055328369,-3.2214341163635254,7.1334381103515625
1757088334124497200,10.7054970703125,-5.912954807281494,-3.2209699153900146,7.128868103027344
1757088334134049800,10.7150498046875,-5.920938968658447,-3.217017889022827,7.1238508224487305
1757088334143602700,10.724602783203125,-5.933551788330078,-3.2101171016693115,7.116304874420166
1757088334153155600,10.734155517578126,-5.945279121398926,-3.2018070220947266,7.11012077331543
1757088334162708500,10.74370849609375,-5.955236911773682,-3.1932311058044434,7.105539798736572
1757088334172261000,10.75326123046875,-5.965137004852295,-3.18363094329834,7.101494789123535
1757088334181814300,10.762814208984375,-5.974441051483154,-3.1731879711151123,7.098308086395264
1757088334191367200,10.7723671875,-5.981902122497559,-3.1601269245147705,7.09774112701416
1757088334200920000,10.781920166015626,-5.988362789154053,-3.1451361179351807,7.098751068115234
1757088334210473000,10.791472900390625,-5.997070789337158,-3.127756118774414,7.098858833312988
1757088334220025900,10.80102587890625,-6.00713586807251,-3.10853910446167,7.098573207855225
1757088334229578500,10.81057861328125,-6.017632961273193,-3.087754964828491,7.098504066467285
1757088334239131400,10.82013134765625,-6.026208877563477,-3.066171884536743,7.100296974182129
1757088334248684300,10.829684326171876,-6.032588005065918,-3.0435800552368164,7.10439395904541
1757088334258237200,10.8392373046875,-6.035721778869629,-3.019036054611206,7.112049102783203
1757088334267789800,10.848789794921874,-6.0358500480651855,-2.9936211109161377,7.122647762298584
1757088334277342700,10.8583427734375,-6.034174919128418,-2.967012882232666,7.135296821594238
1757088334286895600,10.8678955078125,-6.033287048339844,-2.938030958175659,7.148266792297363
1757088334296448500,10.877448486328126,-6.035881996154785,-2.903553009033203,7.160460948944092
1757088334306001200,10.887001220703125,-6.040081024169922,-2.8666160106658936,7.171913146972656
1757088334315554300,10.89655419921875,-6.043580055236816,-2.829469919204712,7.183598041534424
1757088334325107000,10.90610693359375,-6.043435096740723,-2.7950069904327393,7.197035789489746
1757088334334660000,10.91566015625,-6.041004180908203,-2.7646920680999756,7.210673809051514
1757088334344212700,10.925212646484376,-6.039801120758057,-2.737936019897461,7.221924781799316
1757088334353765600,10.934765625,-6.042017936706543,-2.713191032409668,7.22954797744751
1757088334363318500,10.944318603515624,-6.047385215759277,-2.6895360946655273,7.234066963195801
1757088334372871400,10.953871337890625,-6.056649208068848,-2.665613889694214,7.235294818878174
1757088334382424300,10.96342431640625,-6.070634841918945,-2.6408140659332275,7.232632160186768
1757088334391977000,10.97297705078125,-6.088709831237793,-2.615565061569214,7.2262959480285645
1757088334401529900,10.98252978515625,-6.110135078430176,-2.5898571014404297,7.216808795928955
1757088334411082800,10.992082763671876,-6.134487152099609,-2.5637478828430176,7.204529762268066
1757088334420635600,11.0016357421875,-6.159055233001709,-2.5385138988494873,7.191508769989014
1757088334430188300,11.011188232421874,-6.184384822845459,-2.5147769451141357,7.177187919616699
1757088334439741200,11.0207412109375,-6.211590766906738,-2.490830898284912,7.161256790161133
1757088334449294000,11.030294189453125,-6.24094820022583,-2.4711790084838867,7.1419501304626465
1757088334458847200,11.03984716796875,-6.27468204498291,-2.4527390003204346,7.118206977844238
1757088334468399900,11.04939990234375,-6.313223838806152,-2.434920072555542,7.089818954467773
1757088334477953000,11.058953125,-6.35427713394165,-2.41749906539917,7.0587477684021
1757088334487505700,11.068505615234375,-6.393948078155518,-2.403402090072632,7.02722692489624
1757088334497058600,11.07805859375,-6.431405067443848,-2.3935110569000244,6.995938777923584
1757088334506611500,11.087611572265626,-6.466646194458008,-2.388005018234253,6.965057849884033
1757088334516164000,11.0971640625,-6.503748893737793,-2.384330987930298,6.9319257736206055
1757088334525717000,11.106717041015624,-6.54390811920166,-2.3804259300231934,6.896094799041748
1757088334535270000,11.116269775390625,-6.584314823150635,-2.375307083129883,6.860299110412598
1757088334544822800,11.12582275390625,-6.622291088104248,-2.3693931102752686,6.826879978179932
1757088334554375700,11.135375732421876,-6.657375812530518,-2.363867998123169,6.795987129211426
1757088334563928300,11.14492822265625,-6.688427925109863,-2.3609259128570557,6.767789840698242
1757088334573481200,11.154481201171874,-6.712438106536865,-2.3631958961486816,6.744277000427246
1757088334583034000,11.1640341796875,-6.729790210723877,-2.372982978820801,6.724178791046143
1757088334592587000,11.1735869140625,-6.740684986114502,-2.391282081604004,6.7069091796875
1757088334602140000,11.183139892578126,-6.746032238006592,-2.4182190895080566,6.691492080688477
1757088334611692800,11.19269287109375,-6.747804164886475,-2.451801061630249,6.6767258644104
1757088334621245700,11.20224560546875,-6.745674133300781,-2.4909539222717285,6.663257122039795
1757088334630798300,11.21179833984375,-6.738586902618408,-2.5342791080474854,6.652690887451172
1757088334640351200,11.221351318359375,-6.726512908935547,-2.5781219005584717,6.646187782287598
1757088334649904400,11.230904296875,-6.706756114959717,-2.6249330043792725,6.645359992980957
1757088334659457000,11.24045703125,-6.677871227264404,-2.6757619380950928,6.651001930236816
1757088334669010000,11.250010009765624,-6.639531135559082,-2.7328310012817383,6.662291049957275
1757088334678562800,11.259562744140625,-6.5890398025512695,-2.8013880252838135,6.678470134735107
1757088334688115700,11.26911572265625,-6.527560234069824,-2.880850076675415,6.697941780090332
1757088334697668400,11.27866845703125,-6.45245885848999,-2.9717299938201904,6.7212958335876465
1757088334707221200,11.28822119140625,-6.367630958557129,-3.0720601081848145,6.746119976043701
1757088334716774100,11.297774169921874,-6.269803047180176,-3.189068078994751,6.76961612701416
1757088334726327000,11.3073271484375,-6.164249897003174,-3.3194420337677,6.789193153381348
1757088334735880000,11.3168798828125,-6.05479621887207,-3.4569199085235596,6.805889129638672
1757088334745432600,11.3264326171875,-5.943754196166992,-3.6011250019073486,6.817876815795898
1757088334754985500,11.3359853515625,-5.831118106842041,-3.749891996383667,6.826432228088379
1757088334764538400,11.345538330078124,-5.721080780029297,-3.900934934616089,6.8291521072387695
1757088334774091300,11.35509130859375,-5.611969947814941,-4.052133083343506,6.828285217285156
1757088334783644000,11.364643798828125,-5.508182048797607,-4.207819938659668,6.816431045532227
1757088334793196800,11.37419677734375,-5.399507999420166,-4.364651203155518,6.803154945373535
1757088334802749700,11.383749755859375,-5.27166223526001,-4.539859771728516,6.780777931213379
1757088334812302800,11.393302734375,-5.132615089416504,-4.719425201416016,6.756258964538574
1757088334821855500,11.40285546875,-4.981902122497559,-4.904850006103516,6.7279582023620605
1757088334831408400,11.412408447265625,-4.820096969604492,-5.095358848571777,6.6953630447387695
1757088334840961300,11.421961181640626,-4.6496357917785645,-5.289461135864258,6.657537937164307
1757088334850514200,11.43151416015625,-4.472869873046875,-5.485437870025635,6.6139421463012695
1757088334860067000,11.441067138671874,-4.291079044342041,-5.6813249588012695,6.56532621383667
1757088334869619700,11.45061962890625,-4.108122825622559,-5.870950222015381,6.512757778167725
1757088334879172600,11.460172607421875,-3.925060987472534,-6.052828788757324,6.457950115203857
1757088334888725500,11.4697255859375,-3.7463669776916504,-6.2241668701171875,6.400662899017334
1757088334898278400,11.4792783203125,-3.5680439472198486,-6.385678768157959,6.344779968261719
1757088334907831300,11.488831298828124,-3.3926379680633545,-6.529266834259033,6.294403076171875
1757088334917384000,11.498384033203125,-3.2147879600524902,-6.65792179107666,6.251951217651367
1757088334926936800,11.507936767578125,-3.0310990810394287,-6.777784824371338,6.2153520584106445
1757088334936489700,11.51748974609375,-2.8397860527038574,-6.888999938964844,6.185492992401123
1757088334946042600,11.527042724609375,-2.6549360752105713,-6.989034175872803,6.164254188537598
1757088334955595500,11.536595458984374,-2.458949089050293,-7.083489894866943,6.148858070373535
1757088334965148400,11.5461484375,-2.2521541118621826,-7.173295021057129,6.137475967407227
1757088334974701300,11.555701416015625,-2.0377140045166016,-7.246802806854248,6.14467716217041
1757088334984254200,11.565254150390626,-1.8174159526824951,-7.310373783111572,6.157206058502197
1757088334993806800,11.574806884765625,-1.6087779998779297,-7.344308853149414,6.185267925262451
1757088335003359700,11.58435986328125,-1.4071810245513916,-7.360302925109863,6.222916126251221
1757088335012912600,11.59391259765625,-1.2135740518569946,-7.356507778167725,6.2715888023376465
1757088335022465500,11.603465576171875,-1.0252599716186523,-7.332158088684082,6.332210063934326
1757088335032018400,11.613018310546876,-0.8375059962272644,-7.2872490882873535,6.4050679206848145
1757088335041571000,11.622571044921875,-0.6467069983482361,-7.222541809082031,6.488801956176758
1757088335051124000,11.6321240234375,-0.4571189880371094,-7.137314796447754,6.583817958831787
1757088335060676900,11.6416767578125,-0.2637290060520172,-7.035833835601807,6.68497896194458
1757088335070229800,11.651229736328125,-0.06684199720621109,-6.919938087463379,6.790266990661621
1757088335079782400,11.660782470703126,0.1336970031261444,-6.784855842590332,6.9017839431762695
1757088335089335300,11.670335205078125,0.33652400970458984,-6.631046772003174,7.018282890319824
1757088335098888200,11.67988818359375,0.5426269769668579,-6.464371204376221,7.135141849517822
1757088335108441000,11.689441162109375,0.7518870234489441,-6.284728050231934,7.251442909240723
1757088335117994000,11.698993896484374,0.9647619724273682,-6.09194278717041,7.365894794464111
1757088335127547000,11.708546875,1.1825549602508545,-5.885423183441162,7.477381229400635
1757088335137099800,11.718099853515625,1.4208450317382812,-5.668443202972412,7.581847190856934
1757088335146652700,11.727652587890624,1.6581779718399048,-5.433484077453613,7.685865879058838
1757088335156205600,11.73720556640625,1.8951799869537354,-5.181741237640381,7.788473129272461
1757088335165758200,11.74675830078125,2.145551919937134,-4.920063018798828,7.879035949707031
1757088335175311000,11.75631103515625,2.400805950164795,-4.645149230957031,7.960343837738037
1757088335184864000,11.765864013671875,2.663217067718506,-4.360812187194824,8.028355598449707
1757088335194417000,11.7754169921875,2.9336960315704346,-4.070280075073242,8.080102920532227
1757088335203969800,11.7849697265625,3.2102599143981934,-3.775937080383301,8.114029884338379
1757088335213522400,11.7945224609375,3.4887449741363525,-3.4799818992614746,8.129776954650879
1757088335223075300,11.804075439453126,3.7647109031677246,-3.184406042098999,8.127808570861816
1757088335232628200,11.813628173828125,4.0350022315979,-2.890657901763916,8.10880184173584
1757088335242181000,11.82318115234375,4.304047107696533,-2.6018319129943848,8.071118354797363
1757088335251734000,11.832734130859375,4.567928791046143,-2.3161749839782715,8.017276763916016
1757088335261287000,11.842286865234374,4.827704906463623,-2.034497022628784,7.947728157043457
1757088335270839600,11.851839599609375,5.083524227142334,-1.764011025428772,7.859560012817383
1757088335280392400,11.861392333984375,5.336582183837891,-1.5063560009002686,7.753471851348877
1757088335289945600,11.870945556640624,5.587123870849609,-1.2600209712982178,7.631795883178711
1757088335299498200,11.880498291015625,5.831046104431152,-1.0254720449447632,7.499533176422119
1757088335309051100,11.890051025390624,6.067934036254883,-0.8017789721488953,7.356071949005127
1757088335318604000,11.89960400390625,6.301107883453369,-0.5846999883651733,7.193798065185547
1757088335328157000,11.909156982421875,6.529975891113281,-0.3792159855365753,7.011621952056885
1757088335337709600,11.91870947265625,6.760818958282471,-0.18325400352478027,6.802577972412109
1757088335347262500,11.928262451171875,6.993684768676758,0.007063999772071838,6.560434818267822
1757088335356815400,11.9378154296875,7.2213640213012695,0.19419200718402863,6.2828688621521
1757088335366368300,11.9473681640625,7.440417766571045,0.3801429867744446,5.967094898223877
1757088335375921200,11.956921142578125,7.647565841674805,0.5611749887466431,5.616144180297852
1757088335385473800,11.966473876953126,7.838189125061035,0.7408990263938904,5.251762866973877
1757088335395026700,11.976026611328125,8.012478828430176,0.918133020401001,4.88677978515625
1757088335404579600,11.98557958984375,8.172491073608398,1.0898009538650513,4.530657768249512
1757088335414132500,11.995132568359375,8.320112228393555,1.2555639743804932,4.1790690422058105
1757088335423685000,12.00468505859375,8.45592212677002,1.4144779443740845,3.843092918395996
1757088335433238000,12.014238037109376,8.580289840698242,1.5674229860305786,3.522368907928467
1757088335442791200,12.023791259765625,8.692733764648438,1.715432047843933,3.2145979404449463
1757088335452343800,12.03334375,8.794548988342285,1.856382966041565,2.9215240478515625
1757088335461896700,12.042896728515625,8.88648509979248,1.9919140338897705,2.640605926513672
1757088335471449600,12.05244970703125,8.96921443939209,2.1238629817962646,2.3691189289093018
1757088335481002500,12.06200244140625,9.041752815246582,2.2565650939941406,2.103055000305176
1757088335490555400,12.071555419921875,9.108149528503418,2.3888120651245117,1.8389270305633545
1757088335500108300,12.0811083984375,9.167913436889648,2.517925977706909,1.580368995666504
1757088335509661000,12.090660888671875,9.215469360351562,2.64084792137146,1.3352110385894775
1757088335519213800,12.1002138671875,9.250612258911133,2.760219097137451,1.1090099811553955
1757088335528766700,12.1097666015625,9.273557662963867,2.870266914367676,0.9087709784507751
1757088335538319400,12.1193193359375,9.283406257629395,2.9681708812713623,0.7434999942779541
1757088335547872300,12.128872314453124,9.281839370727539,3.0513720512390137,0.6192319989204407
1757088335557425200,12.138425048828125,9.27254581451416,3.1180930137634277,0.5393660068511963
1757088335566978300,12.147978271484375,9.259451866149902,3.1728599071502686,0.5013599991798401
1757088335576531000,12.157531005859376,9.248218536376953,3.2129569053649902,0.4838060140609741
1757088335586083600,12.16708349609375,9.240053176879883,3.240277051925659,0.4741019904613495
1757088335595636700,12.17663671875,9.234513282775879,3.258936882019043,0.46270498633384705
1757088335605189400,12.186189453125,9.230989456176758,3.2706151008605957,0.45394599437713623
1757088335614742500,12.195742431640625,9.229266166687012,3.277785062789917,0.4371680021286011
1757088335624295400,12.20529541015625,9.229142189025879,3.281358003616333,0.41301700472831726
1757088335633848000,12.21484814453125,9.23015022277832,3.282191038131714,0.3852579891681671
1757088335643401000,12.22440087890625,9.231046676635742,3.2842819690704346,0.35280799865722656
