time,seconds_elapsed,z,y,x
1757088323520817700,0.101817626953125,0.9381625056266785,0.2517625093460083,0.06201250106096268
1757088323530370600,0.11137060546875,0.9967374801635742,0.12594999372959137,0.17572499811649323
1757088323549476000,0.13047607421875,1.0579249858856201,-0.34814998507499695,0.5031124949455261
1757088323559029000,0.140029052734375,1.1397374868392944,-0.5484874844551086,0.6106374859809875
1757088323568582000,0.149581787109375,1.206974983215332,-0.7842999696731567,0.6594499945640564
1757088323578134800,0.159134765625,1.264312505722046,-0.905162513256073,0.6716874837875366
1757088323587687400,0.1686875,1.3583624362945557,-0.9211124777793884,0.6754000186920166
1757088323597240300,0.178240234375,1.42683744430542,-0.9748749732971191,0.6997374892234802
1757088323606793200,0.187793212890625,1.4623124599456787,-1.081162452697754,0.7719249725341797
1757088323616346000,0.19734619140625,1.4940749406814575,-1.1837375164031982,0.8610249757766724
1757088323625899000,0.20689892578125,1.4940749406814575,-1.2595000267028809,0.9465500116348267
1757088323635451600,0.21645166015625,1.4928375482559204,-1.3255000114440918,1.0553125143051147
1757088323645004800,0.2260048828125,1.485550045967102,-1.4085500240325928,1.1603624820709229
1757088323654557400,0.235557373046875,1.5258375406265259,-1.5331250429153442,1.2458875179290771
1757088323664110300,0.2451103515625,1.5819374322891235,-1.6858874559402466,1.3265999555587769
1757088323673663200,0.254663330078125,1.6638875007629395,-1.810462474822998,1.4059374332427979
1757088323683216100,0.264216064453125,1.7714124917984009,-1.9522249698638916,1.4767500162124634
1757088323692769000,0.27376904296875,1.871512532234192,-2.0572750568389893,1.565987467765808
1757088323702321700,0.28332177734375,1.950987458229065,-2.2123749256134033,1.6454625129699707
1757088323711874600,0.29287451171875,2.0327999591827393,-2.4164249897003174,1.7247999906539917
1757088323721427500,0.302427490234375,2.1891374588012695,-2.6399998664855957,1.8567999601364136
1757088323730980400,0.31198046875,2.3871374130249023,-2.886812448501587,2.0278499126434326
1757088323740533200,0.321533203125,2.588712453842163,-3.1531500816345215,2.2171874046325684
1757088323750086100,0.331086181640625,2.6778125762939453,-3.5428249835968018,2.3662374019622803
1757088323759639000,0.34063916015625,2.7279999256134033,-3.916687488555908,2.5115749835968018
1757088323769192000,0.35019189453125,2.7878124713897705,-4.18797492980957,2.6948626041412354
1757088323778744800,0.359744873046875,2.8953375816345215,-4.350500106811523,2.873199939727783
1757088323788297500,0.36929736328125,3.0443875789642334,-4.258787631988525,3.063775062561035
1757088323797850400,0.378850341796875,3.173912525177002,-4.059687614440918,3.182300090789795
1757088323807403300,0.3884033203125,3.214200019836426,-3.8348748683929443,3.1750125885009766
1757088323816956200,0.3979560546875,3.1994874477386475,-3.5355374813079834,3.0772500038146973
1757088323826509000,0.407509033203125,3.2484374046325684,-3.1971499919891357,2.944012403488159
1757088323836062000,0.41706201171875,3.2667250633239746,-2.9198124408721924,2.7901499271392822
1757088323845614800,0.42661474609375,3.1714375019073486,-2.6802875995635986,2.62033748626709
1757088323855167700,0.436167724609375,2.9233875274658203,-2.407900094985962,2.4248125553131104
1757088323864720600,0.445720703125,2.5654749870300293,-2.108562469482422,2.1634249687194824
1757088323874273500,0.4552734375,2.274662494659424,-1.8581750392913818,1.898324966430664
1757088323883826400,0.464826416015625,2.0487499237060547,-1.5710749626159668,1.7137999534606934
1757088323893379000,0.474379150390625,1.810462474822998,-1.3034999370574951,1.548937439918518
1757088323902932000,0.483931884765625,1.5661250352859497,-1.136162519454956,1.3998874425888062
1757088323912484900,0.49348486328125,1.3462624549865723,-1.0383999347686768,1.3021249771118164
1757088323922037800,0.503037841796875,1.1567875146865845,-0.9149249792098999,1.286175012588501
1757088323931590700,0.512590576171875,0.9516375064849854,-0.7953000068664551,1.272837519645691
1757088323941143600,0.5221435546875,0.7536374926567078,-0.6572499871253967,1.216599941253662
1757088323950696200,0.5316962890625,0.6155874729156494,-0.49720001220703125,1.1103124618530273
1757088323960249300,0.541249267578125,0.5618249773979187,-0.3786749839782715,1.0015499591827393
1757088323969802200,0.55080224609375,0.547249972820282,-0.2796750068664551,0.9502624869346619
1757088323979355100,0.560355224609375,0.5605875253677368,-0.2320999950170517,0.9087374806404114
1757088323988908000,0.569907958984375,0.5667750239372253,-0.2699125111103058,0.8562124967575073
1757088323998461000,0.5794609375,0.5264874696731567,-0.3053874969482422,0.8377875089645386
1757088324008013800,0.589013916015625,0.44577500224113464,-0.29919999837875366,0.8377875089645386
1757088324017566700,0.598566650390625,0.33096250891685486,-0.29315000772476196,0.8232125043869019
1757088324027119400,0.608119384765625,0.22591249644756317,-0.03162499889731407,0.604449987411499
1757088324036672300,0.61767236328125,0.21986250579357147,0.6194375157356262,-0.25437501072883606
1757088324046225200,0.62722509765625,0.2307250052690506,1.0433499813079834,-1.0753874778747559
1757088324055778000,0.636778076171875,0.037812501192092896,0.9590625166893005,-1.2280124425888062
1757088324065331000,0.6463310546875,-0.28476250171661377,0.3482874929904938,-0.7943375110626221
1757088324074883800,0.6558837890625,-0.5938624739646912,-0.3016749918460846,-0.2494249939918518
1757088324084436700,0.665436767578125,-0.7123875021934509,-0.5704874992370605,-0.12484999746084213
1757088324093989600,0.67498974609375,-0.5889124870300293,-0.5215374827384949,-0.2653749883174896
1757088324103542500,0.68454248046875,-0.39352500438690186,-0.31872498989105225,-0.2788499891757965
1757088324113095400,0.694095458984375,-0.2689499855041504,-0.2626250088214874,-0.10903749614953995
1757088324122648300,0.7036484375,-0.19552500545978546,-0.35791251063346863,0.09624999761581421
1757088324132201000,0.713200927734375,-0.08689999580383301,-0.33467498421669006,0.20006249845027924
1757088324141753900,0.72275390625,0.1036750003695488,-0.20391249656677246,0.21601249277591705
1757088324151306800,0.732306640625,0.17820000648498535,-0.10257499665021896,0.13420000672340393
1757088324160859600,0.741859619140625,0.17943750321865082,-0.07328750193119049,0.05224999785423279
1757088324170412500,0.75141259765625,0.1013374999165535,-0.04881250113248825,0.020487500354647636
1757088324179965700,0.760965576171875,-0.0013749999925494194,-0.018287500366568565,-0.047849997878074646
1757088324189518300,0.770518310546875,-0.01718750037252903,-0.020624998956918716,-0.13089999556541443
1757088324199071200,0.7800712890625,-0.057475000619888306,-0.0085249999538064,-0.18837499618530273
1757088324208624000,0.7896240234375,-0.16376249492168427,-0.14891250431537628,-0.38142499327659607
1757088324218176800,0.7991767578125,-0.2480500042438507,-0.17586250603199005,-0.4119499921798706
1757088324227730000,0.80872998046875,-0.2835249900817871,-0.234437495470047,-0.2311374992132187
1757088324237282800,0.81828271484375,-0.35557499527931213,-0.2516250014305115,-0.24089999496936798
1757088324246835700,0.827835693359375,-0.4338124990463257,-0.16609999537467957,-0.3544749915599823
1757088324256388400,0.837388427734375,-0.44852501153945923,-0.04386249929666519,-0.4156624972820282
1757088324265941200,0.846941162109375,-0.3971000015735626,0.04895000159740448,-0.4620000123977661
1757088324275494100,0.856494140625,-0.2994749844074249,0.17104999721050262,-0.5242875218391418
1757088324285047000,0.866047119140625,-0.21271249651908875,0.38981249928474426,-0.6415749788284302
1757088324294600000,0.875599853515625,-0.23223750293254852,0.6182000041007996,-0.7710999846458435
1757088324304152800,0.88515283203125,-0.35557499527931213,0.708674967288971,-0.8333874940872192
1757088324313705700,0.894705810546875,-0.37400001287460327,0.7562500238418579,-0.7260000109672546
1757088324323258600,0.904258544921875,-0.2102375030517578,0.6671500205993652,-0.6269999742507935
1757088324332811500,0.9138115234375,-0.12966249883174896,0.7331500053405762,-0.43271249532699585
1757088324342364200,0.9233642578125,-0.12594999372959137,0.7954375147819519,-0.23608750104904175
1757088324351917300,0.932917236328125,-0.09790000319480896,0.6158624887466431,-0.11137499660253525
1757088324361470200,0.94247021484375,-0.11123749613761902,0.4423374831676483,0.04496249929070473
1757088324371022800,0.95202294921875,-0.17723749577999115,0.28476250171661377,0.14396250247955322
1757088324380576000,0.961575927734375,-0.25671249628067017,0.20047499239444733,0.17448750138282776
1757088324390129000,0.97112890625,-0.3409999907016754,0.24557499587535858,0.10848750174045563
1757088324399681500,0.980681640625,-0.4838624894618988,0.4166249930858612,0.0009624999947845936
1757088324409234400,0.990234375,-0.6146249771118164,0.5828624963760376,-0.17861250042915344
1757088324418787300,0.999787353515625,-0.6561499834060669,0.7832000255584717,-0.3423750102519989
1757088324428340200,1.00934033203125,-0.6329125165939331,0.9688249826431274,-0.49252501130104065
1757088324437893000,1.01889306640625,-0.5853375196456909,1.0372999906539917,-0.6208124756813049
1757088324447446000,1.028446044921875,-0.5266249775886536,1.0433499813079834,-0.7002875208854675
1757088324456999000,1.0379990234375,-0.4595249891281128,1.005537509918213,-0.6843374967575073
1757088324466551800,1.0475517578125,-0.38981249928474426,0.7904874682426453,-0.6672874689102173
1757088324476104700,1.057104736328125,-0.3312374949455261,0.5083374977111816,-0.685575008392334
1757088324485657300,1.0666572265625,-0.14547500014305115,0.17723749577999115,-0.650237500667572
1757088324495210200,1.076210205078125,0.032862499356269836,-0.15262499451637268,-0.5317124724388123
1757088324504763100,1.08576318359375,0.2516250014305115,-0.007287499960511923,-0.40466248989105225
1757088324514316000,1.09531591796875,0.35048750042915344,0.03918749839067459,-0.47671249508857727
1757088324523869000,1.104868896484375,0.4067249894142151,0.00989999994635582,-0.6415749788284302
1757088324533421800,1.114421875,0.6375874876976013,-0.0170499999076128,-0.9226250052452087
1757088324542974700,1.123974609375,0.8453499674797058,0.17104999721050262,-0.9068124890327454
1757088324552527600,1.133527587890625,0.9662125110626221,0.5400999784469604,-0.8113874793052673
1757088324562080300,1.143080322265625,0.9809250235557556,0.6171000003814697,-0.6832374930381775
1757088324571633200,1.152633056640625,0.9662125110626221,0.5339124798774719,-0.5317124724388123
1757088324581186000,1.16218603515625,1.0774500370025635,0.09047500044107437,-0.39118748903274536
1757088324590739000,1.171739013671875,0.9283999800682068,-0.07081250101327896,-0.09803749620914459
1757088324600291800,1.181291748046875,0.7108749747276306,-0.476437509059906,0.22453749179840088
1757088324609844700,1.1908447265625,0.7523999810218811,-0.7145875096321106,0.4908750057220459
1757088324619397600,1.200397705078125,0.940637469291687,-0.6718249917030334,0.6912124752998352
1757088324628950500,1.209950439453125,1.0774500370025635,-0.8588249683380127,0.7999749779701233
1757088324638503400,1.21950341796875,1.2704999446868896,-1.015162467956543,0.8170250058174133
1757088324648056300,1.229056396484375,1.6076500415802002,-1.049399971961975,0.7987374663352966
1757088324657609200,1.238609130859375,1.8372750282287598,-0.9248250126838684,0.7327374815940857
1757088324667161900,1.248161865234375,1.9472750425338745,-0.8331124782562256,0.5801125168800354
1757088324676714800,1.25771484375,2.111037492752075,-0.6975374817848206,0.2917749881744385
1757088324686267600,1.267267578125,2.368849992752075,-0.5631999969482422,-0.10532499849796295
1757088324695820500,1.276820556640625,2.6778125762939453,-0.5277249813079834,-0.6660500168800354
1757088324705373400,1.28637353515625,3.066387414932251,-0.7365875244140625,-1.201200008392334
1757088324714926300,1.29592626953125,3.699162483215332,-1.115399956703186,-1.5358749628067017
1757088324724479200,1.305479248046875,4.393125057220459,-1.378024935722351,-1.647112488746643
1757088324734032100,1.3150322265625,4.957562446594238,-1.626075029373169,-1.6483500003814697
1757088324743585000,1.3245849609375,5.365662574768066,-1.522125005722046,-1.3429625034332275
1757088324753138000,1.334137939453125,5.392475128173828,-0.18562500178813934,-0.658762514591217
1757088324762690800,1.34369091796875,5.3668999671936035,1.2694000005722046,0.10724999755620956
1757088324772243700,1.35324365234375,5.382712364196777,1.9706499576568604,0.49939998984336853
1757088324781796400,1.36279638671875,5.387662410736084,2.0256500244140625,0.4016374945640564
1757088324791349200,1.372349365234375,5.3839497566223145,1.215637445449829,0.16101250052452087
1757088324800902100,1.381902099609375,5.3424248695373535,0.00494999997317791,0.09143749624490738
1757088324810455000,1.391455078125,5.282612323760986,-0.9748749732971191,0.18796250224113464
1757088324820008000,1.401008056640625,5.1873250007629395,-1.5490750074386597,0.4115374982357025
1757088324829560800,1.410560791015625,5.104137420654297,-1.6248375177383423,0.6619250178337097
1757088324839113700,1.42011376953125,5.061375141143799,-1.4488375186920166,0.7987374663352966
1757088324848666600,1.42966650390625,4.895275115966797,-1.3413125276565552,0.7902125120162964
1757088324858219500,1.439219482421875,4.478650093078613,-1.0909249782562256,1.0260249376296997
1757088324867772400,1.4487724609375,3.8788750171661377,-0.6107749938964844,0.8855000138282776
1757088324877325300,1.4583251953125,1.9485124349594116,-0.5325375199317932,-0.13461250066757202
1757088324886878200,1.467878173828125,-1.259637475013733,0.48633748292922974,-1.3355374336242676
1757088324896430800,1.477430908203125,-2.1161251068115234,1.0837750434875488,-1.7716875076293945
1757088324905984000,1.48698388671875,-1.0874874591827393,-1.601599931716919,-0.7588624954223633
1757088324915536600,1.49653662109375,-0.19071249663829803,-4.334549903869629,0.3455374836921692
1757088324925089500,1.506089599609375,0.08181250095367432,-5.098087310791016,0.7889750003814697
1757088324934642400,1.515642333984375,-0.08318749815225601,-4.6961750984191895,0.5726875066757202
1757088324944195300,1.5251953125,-0.40700000524520874,-3.545300006866455,-0.3679499924182892
1757088324953748200,1.534748291015625,-0.4973374903202057,-2.2283248901367188,-1.3220624923706055
1757088324963301000,1.544301025390625,-0.28600001335144043,-1.3462624549865723,-1.5823500156402588
1757088324972854000,1.55385400390625,-0.002612499985843897,-1.0102125406265259,-0.9446250200271606
1757088324982407000,1.563406982421875,0.1293874979019165,-0.5937250256538391,-0.03684999793767929
1757088324991959800,1.572959716796875,0.1073874980211258,-0.05857500061392784,0.4090625047683716
1757088325001512700,1.5825126953125,0.025575000792741776,0.6719624996185303,0.468874990940094
1757088325011065600,1.592065673828125,-0.018424998968839645,1.3171124458312988,0.36134999990463257
1757088325020618500,1.601618408203125,0.004812499973922968,1.639549970626831,0.24777500331401825
1757088325030171100,1.611171142578125,0.049912501126527786,1.6237374544143677,0.195250004529953
1757088325039724000,1.62072412109375,0.06338749825954437,1.385450005531311,0.18301250040531158
1757088325049277000,1.63027685546875,0.035337500274181366,1.1215875148773193,0.15619999170303345
1757088325058829800,1.639829833984375,0.01209999993443489,0.9237250089645386,0.10353749990463257
1757088325068382500,1.649382568359375,0.007287499960511923,0.8076750040054321,0.0424874983727932
1757088325077935400,1.658935302734375,0.009624999947845936,0.7294374704360962,-0.006324999965727329
1757088325087488300,1.66848828125,0.013337500393390656,0.6280999779701233,-0.025849999859929085
1757088325097041200,1.678041259765625,0.014574999921023846,0.4716250002384186,-0.01251249946653843
1757088325106594000,1.687593994140625,0.018149999901652336,0.26881250739097595,0.015675000846385956
1757088325116147000,1.69714697265625,0.02186249941587448,0.06847500056028366,0.03272499889135361
1757088325125699800,1.706699951171875,0.014574999921023846,-0.08786249905824661,0.027912499383091927
1757088325135252700,1.716252685546875,0.0035749999806284904,-0.19415000081062317,0.005912499967962503
1757088325144805600,1.7258056640625,-0.002612499985843897,-0.2796750068664551,-0.008799999952316284
1757088325154358500,1.735358642578125,-0.0147124994546175,-0.3834874927997589,-0.0038499999791383743
1757088325163911400,1.744911376953125,-0.02461249940097332,-0.49472498893737793,0.021724998950958252
1757088325173464300,1.75446435546875,-0.030662499368190765,-0.5704874992370605,0.04619999974966049
1757088325183017000,1.764016845703125,-0.029424998909235,-0.5850625038146973,0.05224999785423279
1757088325192570000,1.773570068359375,-0.020899999886751175,-0.550962507724762,0.03891250118613243
1757088325202122800,1.783122802734375,-0.00989999994635582,-0.49720001220703125,0.014437500387430191
1757088325211675600,1.792675537109375,0.006049999967217445,-0.45196250081062317,-0.007562499959021807
1757088325221228500,1.802228515625,0.018149999901652336,-0.42748749256134033,-0.025849999859929085
1757088325230781400,1.811781494140625,0.02681249938905239,-0.39448750019073486,-0.043037500232458115
1757088325240334300,1.821334228515625,0.03162499889731407,-0.32862499356269836,-0.047849997878074646
1757088325249887000,1.830886962890625,0.03162499889731407,-0.2246749997138977,-0.02708750031888485
1757088325259440000,1.840440185546875,0.023099999874830246,-0.07933750003576279,-0.0015124999918043613
1757088325268992800,1.84999267578125,0.015812499448657036,0.08799999952316284,0.022962499409914017
1757088325278546000,1.8595458984375,0.009624999947845936,0.22852499783039093,0.0364375002682209
1757088325288098800,1.869098876953125,0.008387500420212746,0.31404998898506165,0.0424874983727932
1757088325307204400,1.888204345703125,0.013337500393390656,0.33233749866485596,0.04001250118017197
1757088325316757200,1.89775732421875,0.015812499448657036,0.29823750257492065,0.03148749843239784
1757088325326310100,1.90731005859375,0.015812499448657036,0.25052499771118164,0.020487500354647636
1757088325335863000,1.916863037109375,0.014574999921023846,0.19304999709129333,0.013199999928474426
1757088325345416000,1.926416015625,0.01209999993443489,0.12952500581741333,0.014437500387430191
1757088325354968800,1.93596875,0.010862499475479126,0.06599999964237213,0.01924999989569187
1757088325364521700,1.945521728515625,0.007287499960511923,0.011137500405311584,0.02419999986886978
1757088325374074600,1.95507470703125,0.006049999967217445,-0.035337500274181366,0.029012499377131462
1757088325383627500,1.96462744140625,0.004812499973922968,-0.07328750193119049,0.03148749843239784
1757088325393180400,1.974180419921875,0.0035749999806284904,-0.10862500220537186,0.03519999980926514
1757088325402733300,1.9837333984375,0.006049999967217445,-0.1368124932050705,0.037675000727176666
1757088325412286200,1.9932861328125,0.010862499475479126,-0.15138749778270721,0.03519999980926514
1757088325421838800,2.0028388671875,0.014574999921023846,-0.14781250059604645,0.030249999836087227
1757088325431391700,2.012391845703125,0.018149999901652336,-0.12581250071525574,0.022962499409914017
1757088325440944600,2.021944580078125,0.0193875003606081,-0.08428750187158585,0.015675000846385956
1757088325450497500,2.03149755859375,0.0193875003606081,-0.032862499356269836,0.013199999928474426
1757088325460050400,2.041050537109375,0.015812499448657036,0.018424998968839645,0.020487500354647636
1757088325469603300,2.050603271484375,0.01209999993443489,0.06476250290870667,0.03272499889135361
1757088325479156200,2.06015625,0.007287499960511923,0.10271249711513519,0.0424874983727932
1757088325488708900,2.069708984375,0.006049999967217445,0.12718750536441803,0.04867500066757202
1757088325498262000,2.079261962890625,0.008387500420212746,0.14300000667572021,0.04496249929070473
1757088325507814700,2.088814697265625,0.009624999947845936,0.14300000667572021,0.037675000727176666
1757088325517367600,2.098367431640625,0.010862499475479126,0.12952500581741333,0.03272499889135361
1757088325526920700,2.107920654296875,0.014574999921023846,0.11247500032186508,0.029012499377131462
1757088325536473600,2.1174736328125,0.0170499999076128,0.09047500044107437,0.030249999836087227
1757088325546026200,2.127026123046875,0.0170499999076128,0.06599999964237213,0.03396249935030937
1757088325555579100,2.1365791015625,0.015812499448657036,0.047712501138448715,0.03148749843239784
1757088325565132000,2.146132080078125,0.014574999921023846,0.030662499368190765,0.030249999836087227
1757088325574685000,2.155684814453125,0.013337500393390656,0.011137500405311584,0.029012499377131462
1757088325584237800,2.16523779296875,0.013337500393390656,-0.006049999967217445,0.027912499383091927
1757088325593790500,2.17479052734375,0.010862499475479126,-0.020624998956918716,0.02667500078678131
1757088325603343400,2.18434326171875,0.008387500420212746,-0.03162499889731407,0.02419999986886978
1757088325612896300,2.193896240234375,0.004812499973922968,-0.04028749838471413,0.021724998950958252
1757088325622449200,2.20344921875,0.0035749999806284904,-0.04386249929666519,0.022962499409914017
1757088325632002000,2.213001953125,0.0010999999940395355,-0.03904999792575836,0.022962499409914017
1757088325641555000,2.222554931640625,-0.0013749999925494194,-0.02681249938905239,0.021724998950958252
1757088325651107800,2.23210791015625,-0.002612499985843897,-0.013337500393390656,0.021724998950958252
1757088325660661000,2.241660888671875,-0.0013749999925494194,-0.002337499987334013,0.022962499409914017
1757088325670213600,2.251213623046875,0.0010999999940395355,0.011137500405311584,0.021724998950958252
1757088325679766500,2.2607666015625,0.004812499973922968,0.020899999886751175,0.01691249944269657
1757088325689319400,2.2703193359375,0.006049999967217445,0.025712499395012856,0.013199999928474426
1757088325698872300,2.279872314453125,0.007287499960511923,0.030662499368190765,0.013199999928474426
1757088325708425200,2.28942529296875,0.0035749999806284904,0.03423750028014183,0.014437500387430191
1757088325717977900,2.298977783203125,-0.002612499985843897,0.05142499879002571,0.025437500327825546
1757088325727530800,2.30853076171875,-0.011137500405311584,0.07342500239610672,0.030249999836087227
1757088325737083600,2.318083740234375,-0.013612499460577965,0.09652499854564667,0.029012499377131462
1757088325746636500,2.327636474609375,-0.0147124994546175,0.09652499854564667,0.029012499377131462
1757088325756189400,2.337189453125,-0.0147124994546175,0.07576250284910202,0.027912499383091927
1757088325765742300,2.346742431640625,-0.00989999994635582,0.04647500067949295,0.022962499409914017
1757088325775295200,2.356295166015625,-0.0037124999798834324,0.01718750037252903,0.014437500387430191
1757088325784848100,2.36584814453125,0.0010999999940395355,-0.014574999921023846,0.004674999974668026
1757088325794401000,2.375401123046875,0.006049999967217445,-0.04028749838471413,-0.002749999985098839
1757088325803954000,2.384953857421875,0.009624999947845936,-0.05486249923706055,0.0009624999947845936
1757088325813506800,2.3945068359375,0.010862499475479126,-0.0658624991774559,0.008249999955296516
1757088325823059700,2.404059814453125,0.009624999947845936,-0.07328750193119049,0.018149999901652336
1757088325832612400,2.4136123046875,0.006049999967217445,-0.06833750009536743,0.02419999986886978
1757088325842165200,2.423165283203125,0.0035749999806284904,-0.05857500061392784,0.025437500327825546
1757088325851718100,2.43271826171875,0.0010999999940395355,-0.05252499878406525,0.02419999986886978
1757088325861271000,2.44227099609375,0.0010999999940395355,-0.045099999755620956,0.021724998950958252
1757088325870824000,2.451823974609375,-0.0013749999925494194,-0.035337500274181366,0.018149999901652336
1757088325880376800,2.461376953125,-0.0037124999798834324,-0.023099999874830246,0.015675000846385956
1757088325889929700,2.4709296875,-0.002612499985843897,-0.0085249999538064,0.013199999928474426
1757088325899482600,2.480482666015625,-0.00494999997317791,0.00494999997317791,0.011962499469518661
1757088325909035500,2.490035400390625,-0.0037124999798834324,0.01223750039935112,0.007149999961256981
1757088325918588400,2.49958837890625,-0.0013749999925494194,0.015949999913573265,0.0009624999947845936
1757088325928141300,2.509141357421875,0.002337499987334013,0.01718750037252903,-0.005087499972432852
1757088325937694000,2.51869384765625,0.0035749999806284904,0.015949999913573265,-0.006324999965727329
1757088325947246800,2.528246826171875,0.004812499973922968,0.02199999988079071,-0.005087499972432852
1757088325956799700,2.5377998046875,0.002337499987334013,0.03423750028014183,-0.0015124999918043613
1757088325966352600,2.5473525390625,0.002337499987334013,0.04895000159740448,-0.0015124999918043613
1757088325975905500,2.556905517578125,0.002337499987334013,0.0611874982714653,-0.0002749999985098839
1757088325985458400,2.56645849609375,-0.00013749999925494194,0.06366249918937683,0.0009624999947845936
1757088325995011000,2.576010986328125,-0.0037124999798834324,0.0611874982714653,0.0034374999813735485
1757088326004564000,2.58556396484375,-0.00494999997317791,0.059950001537799835,0.004674999974668026
1757088326014116900,2.595116943359375,-0.006187499966472387,0.062424998730421066,0.0034374999813735485
1757088326023669800,2.604669677734375,-0.0037124999798834324,0.05871250107884407,0.002199999988079071
1757088326033222700,2.61422265625,-0.0013749999925494194,0.04399999976158142,0.0009624999947845936
1757088326042775600,2.623775634765625,0.002337499987334013,0.020899999886751175,0.0009624999947845936
1757088326052328400,2.633328369140625,0.004812499973922968,0.002474999986588955,0.0034374999813735485
1757088326061881600,2.642881591796875,0.006049999967217445,-0.010862499475479126,0.004674999974668026
1757088326071434200,2.652434326171875,0.0035749999806284904,-0.014574999921023846,0.007149999961256981
1757088326080987100,2.661987060546875,0.0010999999940395355,-0.0170499999076128,0.008249999955296516
1757088326090540000,2.6715400390625,0.0010999999940395355,-0.01952499896287918,0.010724999941885471
1757088326100093000,2.681093017578125,-0.0013749999925494194,-0.02186249941587448,0.011962499469518661
1757088326109645800,2.690645751953125,-0.00013749999925494194,-0.02186249941587448,0.013199999928474426
1757088326119198500,2.700198486328125,-0.0013749999925494194,-0.02186249941587448,0.011962499469518661
1757088326128751400,2.70975146484375,-0.0013749999925494194,-0.01952499896287918,0.009487500414252281
1757088326138304300,2.71930419921875,-0.0013749999925494194,-0.015812499448657036,0.004674999974668026
1757088326147857200,2.728857177734375,-0.0037124999798834324,-0.015812499448657036,0.0009624999947845936
1757088326157410000,2.73841015625,-0.006187499966472387,-0.0170499999076128,-0.0015124999918043613
1757088326166963000,2.747962890625,-0.006187499966472387,-0.018287500366568565,-0.0038499999791383743
1757088326176515600,2.757515625,-0.008662499487400055,-0.015812499448657036,-0.006324999965727329
1757088326186068700,2.76706884765625,-0.00989999994635582,-0.007287499960511923,-0.006324999965727329
1757088326195621600,2.77662158203125,-0.012374999932944775,0.002474999986588955,-0.005087499972432852
1757088326205174300,2.78617431640625,-0.012374999932944775,0.008662499487400055,-0.0038499999791383743
1757088326214727400,2.7957275390625,-0.011137500405311584,0.00989999994635582,-0.002749999985098839
1757088326224280300,2.8052802734375,-0.012374999932944775,0.006187499966472387,-0.0015124999918043613
1757088326233833000,2.8148330078125,-0.013612499460577965,0.00013749999925494194,-0.0002749999985098839
1757088326243385900,2.8243857421875,-0.013612499460577965,-0.004812499973922968,-0.002749999985098839
1757088326252938800,2.833938720703125,-0.012374999932944775,-0.01209999993443489,-0.005087499972432852
1757088326262491600,2.84349169921875,-0.00989999994635582,-0.02186249941587448,-0.008799999952316284
1757088326272044500,2.85304443359375,-0.006187499966472387,-0.030524998903274536,-0.010037500411272049
1757088326281597400,2.862597412109375,-0.00494999997317791,-0.032862499356269836,-0.011274999938905239
1757088326291150000,2.872150146484375,-0.00494999997317791,-0.025575000792741776,-0.007562499959021807
1757088326300703000,2.881702880859375,-0.006187499966472387,-0.01209999993443489,-0.0002749999985098839
1757088326310256000,2.891256103515625,-0.006187499966472387,-0.0010999999940395355,0.004674999974668026
1757088326319808800,2.900808837890625,-0.008662499487400055,0.00494999997317791,0.005912499967962503
1757088326329362000,2.91036181640625,-0.008662499487400055,0.00494999997317791,0.004674999974668026
1757088326338914800,2.919914794921875,-0.007424999959766865,-0.0010999999940395355,0.0034374999813735485
1757088326348467500,2.929467529296875,-0.006187499966472387,-0.00976249948143959,0.0034374999813735485
1757088326358020400,2.939020263671875,-0.0037124999798834324,-0.018287500366568565,0.007149999961256981
1757088326367573200,2.9485732421875,-0.00013749999925494194,-0.02433750033378601,0.004674999974668026
1757088326377126100,2.958126220703125,0.0010999999940395355,-0.025575000792741776,-0.0002749999985098839
1757088326386679000,2.967678955078125,0.002337499987334013,-0.02433750033378601,-0.0038499999791383743
1757088326396231700,2.977231689453125,0.0035749999806284904,-0.0170499999076128,-0.005087499972432852
1757088326405784600,2.98678466796875,0.002337499987334013,-0.007287499960511923,-0.002749999985098839
1757088326415337700,2.996337646484375,0.0010999999940395355,0.00494999997317791,0.0009624999947845936
1757088326434443300,3.015443359375,-0.00494999997317791,0.03189999982714653,0.004674999974668026
1757088326443996200,3.02499609375,-0.006187499966472387,0.040424998849630356,0.007149999961256981
1757088326453549000,3.034549072265625,-0.008662499487400055,0.03918749839067459,0.008249999955296516
1757088326463102000,3.04410205078125,-0.011137500405311584,0.035475000739097595,0.008249999955296516
1757088326472654800,3.05365478515625,-0.012374999932944775,0.028187500312924385,0.007149999961256981
1757088326482207700,3.063207763671875,-0.011137500405311584,0.01966249942779541,0.005912499967962503
1757088326491760600,3.0727607421875,-0.008662499487400055,0.00989999994635582,0.002199999988079071
1757088326501313500,3.0823134765625,-0.006187499966472387,0.0012374999932944775,-0.0002749999985098839
1757088326510866400,3.091866455078125,-0.002612499985843897,-0.0010999999940395355,-0.0015124999918043613
1757088326520419000,3.101419189453125,-0.00013749999925494194,0.00494999997317791,-0.0015124999918043613
1757088326529972200,3.11097216796875,0.0010999999940395355,0.015949999913573265,-0.0015124999918043613
1757088326539524900,3.12052490234375,0.0010999999940395355,0.029424998909235,-0.0015124999918043613
1757088326549077800,3.130077880859375,-0.00013749999925494194,0.03671250119805336,-0.002749999985098839
1757088326558630700,3.139630615234375,-0.00013749999925494194,0.03918749839067459,-0.002749999985098839
1757088326568183600,3.14918359375,-0.00013749999925494194,0.03671250119805336,-0.0002749999985098839
1757088326577736400,3.158736328125,0.0010999999940395355,0.032999999821186066,-0.0015124999918043613
1757088326587289300,3.168289306640625,0.002337499987334013,0.030662499368190765,-0.0002749999985098839
1757088326596842200,3.17784228515625,0.0035749999806284904,0.02694999985396862,0.0009624999947845936
1757088326606395100,3.18739501953125,0.0035749999806284904,0.025712499395012856,0.002199999988079071
1757088326615948000,3.196947998046875,0.002337499987334013,0.029424998909235,0.0034374999813735485
1757088326625500700,3.206500732421875,-0.0013749999925494194,0.035475000739097595,0.004674999974668026
1757088326635053600,3.216053466796875,-0.002612499985843897,0.03918749839067459,0.004674999974668026
1757088326644606500,3.2256064453125,-0.0037124999798834324,0.032999999821186066,0.0009624999947845936
1757088326654159400,3.235159423828125,-0.007424999959766865,0.018424998968839645,-0.0038499999791383743
1757088326663712300,3.244712158203125,-0.00494999997317791,-0.002337499987334013,-0.010037500411272049
1757088326673265200,3.25426513671875,-0.0037124999798834324,-0.02681249938905239,-0.01484999991953373
1757088326682817800,3.26381787109375,-0.0037124999798834324,-0.04881250113248825,-0.021037500351667404
1757088326692371000,3.273370849609375,-0.002612499985843897,-0.06462500244379044,-0.025849999859929085
1757088326701923600,3.282923583984375,-0.00494999997317791,-0.07204999774694443,-0.03451250120997429
1757088326711476500,3.2924765625,-0.007424999959766865,-0.06833750009536743,-0.043037500232458115
1757088326721029600,3.302029541015625,-0.00989999994635582,-0.06710000336170197,-0.04908749833703041
1757088326730582500,3.31158251953125,-0.00989999994635582,-0.0695749968290329,-0.05156249925494194
1757088326740135400,3.321135498046875,-0.013612499460577965,-0.07328750193119049,-0.05156249925494194
1757088326749688000,3.33068798828125,-0.013612499460577965,-0.07562500238418579,-0.050324998795986176
1757088326759241000,3.340240966796875,-0.013612499460577965,-0.07933750003576279,-0.04908749833703041
1757088326768793900,3.3497939453125,-0.0147124994546175,-0.09033749997615814,-0.047849997878074646
1757088326778346800,3.3593466796875,-0.01718750037252903,-0.11110000312328339,-0.04427500069141388
1757088326787899600,3.368899658203125,-0.018424998968839645,-0.1368124932050705,-0.04427500069141388
1757088326797452300,3.378452392578125,-0.02213750034570694,-0.15991249680519104,-0.04427500069141388
1757088326807005200,3.388005126953125,-0.023375000804662704,-0.17586250603199005,-0.045512501150369644
1757088326816558000,3.39755810546875,-0.02461249940097332,-0.18562500178813934,-0.047849997878074646
1757088326826111000,3.407111083984375,-0.025712499395012856,-0.1868624985218048,-0.05156249925494194
1757088326835664000,3.416663818359375,-0.025712499395012856,-0.17957499623298645,-0.052799999713897705
1757088326845216800,3.426216796875,-0.03189999982714653,-0.16733749210834503,-0.05403750017285347
1757088326854769700,3.435769775390625,-0.03918749839067459,-0.15015000104904175,-0.05403750017285347
1757088326864322600,3.445322509765625,-0.04413750022649765,-0.13062499463558197,-0.05156249925494194
1757088326873875500,3.45487548828125,-0.052662499248981476,-0.1050499975681305,-0.04661250114440918
1757088326883428400,3.464428466796875,-0.05871250107884407,-0.07081250101327896,-0.04179999977350235
1757088326892981200,3.473981201171875,-0.0672374963760376,-0.03162499889731407,-0.04179999977350235
1757088326902534000,3.483533935546875,-0.07823749631643295,0.01347499992698431,-0.04661250114440918
1757088326912087000,3.493087158203125,-0.08071249723434448,0.06366249918937683,-0.04908749833703041
1757088326921639700,3.5026396484375,-0.07713750004768372,0.10752499848604202,-0.05637500062584877
1757088326931192600,3.512192626953125,-0.06971249729394913,0.14547500014305115,-0.06379999965429306
1757088326940745500,3.521745361328125,-0.05637500062584877,0.17476250231266022,-0.06861250102519989
1757088326950298400,3.53129833984375,-0.03918749839067459,0.20652499794960022,-0.06984999775886536
1757088326959851300,3.540851318359375,-0.028187500312924385,0.23828749358654022,-0.06984999775886536
1757088326969404000,3.55040380859375,-0.0147124994546175,0.2750000059604645,-0.07232499867677689
1757088326978957000,3.55995703125,-0.00494999997317791,0.30799999833106995,-0.07727500051259995
1757088326988510000,3.569510009765625,0.004812499973922968,0.3335750102996826,-0.08208750188350677
1757088326998062800,3.579062744140625,0.013337500393390656,0.34209999442100525,-0.07837499678134918
1757088327007615700,3.58861572265625,0.0170499999076128,0.33976250886917114,-0.06861250102519989
1757088327017168600,3.598168701171875,0.018149999901652336,0.33233749866485596,-0.05637500062584877
1757088327026721300,3.60772119140625,0.015812499448657036,0.31776249408721924,-0.04427500069141388
1757088327036274200,3.617274169921875,0.009624999947845936,0.29823750257492065,-0.035612501204013824
1757088327045827000,3.6268271484375,0.0035749999806284904,0.28476250171661377,-0.03451250120997429
1757088327055380000,3.6363798828125,-0.00494999997317791,0.2712875008583069,-0.038087498396635056
1757088327064932900,3.645932861328125,-0.00494999997317791,0.25657498836517334,-0.047849997878074646
1757088327074485500,3.655485595703125,0.0035749999806284904,0.22605000436306,-0.055275000631809235
1757088327084038400,3.665038330078125,0.006049999967217445,0.18095000088214874,-0.055275000631809235
1757088327093591300,3.67459130859375,0.007287499960511923,0.14176249504089355,-0.050324998795986176
1757088327103144200,3.684144287109375,0.014574999921023846,0.11247500032186508,-0.043037500232458115
1757088327112697000,3.693697021484375,0.02186249941587448,0.09171249717473984,-0.03684999793767929
1757088327122250000,3.70325,0.02681249938905239,0.06599999964237213,-0.03451250120997429
1757088327131803000,3.712802978515625,0.028049999848008156,0.030662499368190765,-0.03203750029206276
1757088327141355800,3.722355712890625,0.028049999848008156,-0.006049999967217445,-0.02956249937415123
1757088327150908700,3.73190869140625,0.02433750033378601,-0.04028749838471413,-0.025849999859929085
1757088327160461600,3.741461669921875,0.0193875003606081,-0.07081250101327896,-0.02461249940097332
1757088327170014500,3.751014404296875,0.013337500393390656,-0.09515000134706497,-0.025849999859929085
1757088327179567400,3.7605673828125,0.004812499973922968,-0.12209999561309814,-0.02708750031888485
1757088327189120000,3.7701201171875,-0.002612499985843897,-0.14409999549388885,-0.033275000751018524
1757088327198673000,3.7796728515625,-0.006187499966472387,-0.14781250059604645,-0.03684999793767929
1757088327208225800,3.789225830078125,-0.008662499487400055,-0.12209999561309814,-0.043037500232458115
1757088327217778700,3.79877880859375,-0.011137500405311584,-0.07328750193119049,-0.052799999713897705
1757088327227331600,3.80833154296875,-0.011137500405311584,-0.007287499960511923,-0.0625625029206276
1757088327236884200,3.81788427734375,-0.011137500405311584,0.0672374963760376,-0.06627500057220459
1757088327246437000,3.82743701171875,-0.011137500405311584,0.14300000667572021,-0.06503749638795853
1757088327255990300,3.836990234375,-0.008662499487400055,0.20899999141693115,-0.060087498277425766
1757088327265543200,3.846543212890625,-0.008662499487400055,0.25423750281333923,-0.05403750017285347
1757088327275096000,3.856095947265625,-0.006187499966472387,0.2773374915122986,-0.050324998795986176
1757088327284649000,3.86564892578125,-0.006187499966472387,0.27252501249313354,-0.05156249925494194
1757088327294201600,3.87520166015625,-0.008662499487400055,0.24447499215602875,-0.06379999965429306
1757088327303754500,3.88475439453125,-0.012374999932944775,0.1979999989271164,-0.08332499861717224
1757088327313307400,3.894307373046875,-0.015949999913573265,0.14918750524520874,-0.10408750176429749
1757088327322860300,3.9038603515625,-0.025712499395012856,0.11247500032186508,-0.1260875016450882
1757088327332413200,3.9134130859375,-0.040424998849630356,0.0929500013589859,-0.14190000295639038
1757088327341966000,3.922966064453125,-0.055137500166893005,0.07947500050067902,-0.1578499972820282
1757088327351518700,3.932518798828125,-0.0648999959230423,0.06971249729394913,-0.17132499814033508
1757088327361071600,3.942071533203125,-0.07095000147819519,0.06599999964237213,-0.1859000027179718
1757088327370624800,3.951624755859375,-0.07466249912977219,0.09047500044107437,-0.19442500174045563
1757088327380177400,3.961177490234375,-0.07713750004768372,0.1722874939441681,-0.20308749377727509
1757088327389730300,3.970730224609375,-0.08071249723434448,0.3190000057220459,-0.21285000443458557
1757088327399283200,3.980283203125,-0.07947500050067902,0.5046250224113464,-0.22384999692440033
1757088327408836000,3.989836181640625,-0.08195000141859055,0.7049624919891357,-0.23485000431537628
1757088327418389000,3.999388916015625,-0.08318749815225601,0.8992499709129333,-0.24584999680519104
1757088327437494800,4.018494873046875,-0.09418749809265137,1.0335874557495117,-0.26042500138282776
1757088327447047700,4.028047607421875,-0.10766249895095825,1.0005874633789062,-0.2849000096321106
1757088327456600300,4.037600341796875,-0.11495000123977661,0.9212499856948853,-0.32766249775886536
1757088327466153200,4.0471533203125,-0.12347500026226044,0.8197749853134155,-0.3899500072002411
1757088327475706000,4.0567060546875,-0.1344749927520752,0.7147250175476074,-0.46076250076293945
1757088327485259000,4.066259033203125,-0.14547500014305115,0.6256250143051147,-0.5182374715805054
1757088327494812000,4.07581201171875,-0.15771250426769257,0.559624969959259,-0.5549499988555908
1757088327504364500,4.085364501953125,-0.17476250231266022,0.5363875031471252,-0.5805249810218811
1757088327513917400,4.09491748046875,-0.17971250414848328,0.5436750054359436,-0.6098124980926514
1757088327523470300,4.10447021484375,-0.17476250231266022,0.5523374676704407,-0.6415749788284302
1757088327533023500,4.1140234375,-0.1662375032901764,0.5546749830245972,-0.6672874689102173
1757088327542576000,4.123576171875,-0.15399999916553497,0.5693874955177307,-0.7088124752044678
1757088327552129300,4.13312939453125,-0.1344749927520752,0.5950999855995178,-0.7723374962806702
1757088327561682000,4.142681884765625,-0.09790000319480896,0.6048625111579895,-0.8505749702453613
1757088327571234800,4.15223486328125,-0.033137500286102295,0.5938624739646912,-0.934862494468689
1757088327580787700,4.16178759765625,0.040150001645088196,0.5766749978065491,-1.01791250705719
1757088327590340600,4.171340576171875,0.10862500220537186,0.5253875255584717,-1.100962519645691
1757088327599893500,4.1808935546875,0.17215000092983246,0.4386250078678131,-1.209725022315979
1757088327609446100,4.190446044921875,0.24667499959468842,0.34952500462532043,-1.3697749376296997
1757088327618999300,4.199999267578125,0.35048750042915344,0.2798124849796295,-1.5775375366210938
1757088327628552200,4.20955224609375,0.4347749948501587,0.2358125001192093,-1.8108749389648438
1757088327638105000,4.21910498046875,0.503250002861023,0.2199999988079071,-1.901212453842163
1757088327647657700,4.22865771484375,0.5582500100135803,0.2554749846458435,-1.8437374830245972
1757088327657211000,4.2382109375,0.6095374822616577,0.44728749990463257,-1.6911125183105469
1757088327666763500,4.247763427734375,0.6107749938964844,0.7391999959945679,-1.5273499488830566
1757088327676316400,4.25731640625,0.5838249921798706,1.0324875116348267,-1.4357750415802002
1757088327685869300,4.266869384765625,0.5545374751091003,1.1705374717712402,-1.4492499828338623
1757088327695422200,4.276422119140625,0.5190625190734863,1.188825011253357,-1.5273499488830566
1757088327704975000,4.28597509765625,0.492249995470047,1.168062448501587,-1.6458749771118164
1757088327714528000,4.295528076171875,0.4030124843120575,0.9994875192642212,-1.6618249416351318
1757088327724081000,4.305080810546875,0.2919124960899353,0.8197749853134155,-1.5775375366210938
1757088327733633500,4.314633544921875,0.1966249942779541,0.6549124717712402,-1.4320625066757202
1757088327743186400,4.3241865234375,0.1073874980211258,0.4105750024318695,-1.3087249994277954
1757088327752739300,4.3337392578125,-0.020899999886751175,0.21271249651908875,-1.3220624923706055
1757088327762292200,4.343292236328125,-0.20047499239444733,-0.03162499889731407,-1.4260125160217285
1757088327771845000,4.35284521484375,-0.38128748536109924,-0.20143750309944153,-1.630062460899353
1757088327781398000,4.36239794921875,-0.5010499954223633,-0.2759625017642975,-1.8804500102996826
1757088327790951000,4.371950927734375,-0.5486249923706055,-0.28338751196861267,-2.0160250663757324
1757088327800503800,4.38150390625,-0.5658124685287476,-0.22962500154972076,-1.996500015258789
1757088327810056700,4.391056640625,-0.507099986076355,-0.06462500244379044,-1.9036874771118164
1757088327819609600,4.400609619140625,-0.4740999937057495,0.22481249272823334,-1.8316375017166138
1757088327829162500,4.41016259765625,-0.47657498717308044,0.2639999985694885,-1.8156875371932983
1757088327838715100,4.419715087890625,-0.44110000133514404,0.08923749625682831,-1.8767374753952026
1757088327848268000,4.42926806640625,-0.3250499963760376,-0.023099999874830246,-1.9427374601364136
1757088327857821000,4.438821044921875,-0.23828749358654022,-0.07562500238418579,-1.9342124462127686
1757088327867373800,4.448373779296875,-0.2139499932527542,-0.07438749819993973,-1.9194999933242798
1757088327876926700,4.4579267578125,-0.2162874937057495,-0.08057499676942825,-1.8987374305725098
1757088327886479400,4.467479248046875,-0.22247499227523804,-0.07562500238418579,-1.8229750394821167
1757088327896032300,4.4770322265625,-0.24928750097751617,-0.05362499877810478,-1.725350022315979
1757088327905585200,4.486585205078125,-0.2835249900817871,0.10642500221729279,-1.6666375398635864
1757088327915138000,4.496137939453125,-0.32147499918937683,0.35186249017715454,-1.5665374994277954
1757088327924691000,4.50569091796875,-0.34581249952316284,0.524150013923645,-1.441825032234192
1757088327934243600,4.51524365234375,-0.3507624864578247,0.6084374785423279,-1.380774974822998
1757088327943796700,4.524796630859375,-0.35804998874664307,0.5669124722480774,-1.3600125312805176
1757088327953349600,4.534349609375,-0.3470500111579895,0.48633748292922974,-1.3965874910354614
1757088327962902300,4.54390234375,-0.32023748755455017,0.4045250117778778,-1.459012508392334
1757088327972455400,4.553455322265625,-0.2615250051021576,0.36781248450279236,-1.4931124448776245
1757088327982008000,4.563008056640625,-0.21518750488758087,0.4288625121116638,-1.5005375146865845
1757088327991561000,4.57256103515625,-0.14066250622272491,0.47657498717308044,-1.5030125379562378
1757088328001113900,4.58211376953125,-0.12347500026226044,0.3971000015735626,-1.5053499937057495
1757088328010666800,4.591666748046875,-0.1344749927520752,0.27252501249313354,-1.4980624914169312
1757088328020219600,4.6012197265625,-0.1344749927520752,0.1882375031709671,-1.4785374402999878
1757088328029772300,4.610772216796875,-0.1284250020980835,0.19923749566078186,-1.4528249502182007
1757088328039325200,4.6203251953125,-0.10147500038146973,0.201712504029274,-1.4272500276565552
1757088328048878000,4.629878173828125,-0.0966624990105629,0.17599999904632568,-1.3942500352859497
1757088328058431000,4.639430908203125,-0.09418749809265137,0.12594999372959137,-1.3477749824523926
1757088328067984000,4.64898388671875,-0.10271249711513519,0.10147500038146973,-1.301300048828125
1757088328077536500,4.65853662109375,-0.0989999994635582,0.10876250267028809,-1.2684375047683716
1757088328087089700,4.668089599609375,-0.08813749998807907,0.15399999916553497,-1.2610124349594116
1757088328096642600,4.677642578125,-0.07590000331401825,0.17971250414848328,-1.2464375495910645
1757088328106195500,4.687195556640625,-0.08071249723434448,0.20652499794960022,-1.2377749681472778
1757088328115748400,4.696748291015625,-0.07095000147819519,0.23223750293254852,-1.2377749681472778
1757088328125301200,4.70630126953125,-0.03437500074505806,0.24928750097751617,-1.2157750129699707
1757088328134854000,4.71585400390625,-0.0037124999798834324,0.22605000436306,-1.1754875183105469
1757088328144407000,4.725406982421875,0.02433750033378601,0.19304999709129333,-1.1364375352859497
1757088328153959700,4.734959716796875,0.049912501126527786,0.14176249504089355,-1.1169124841690063
1757088328163512600,4.7445126953125,0.05362499877810478,0.10876250267028809,-1.1193875074386597
1757088328173065500,4.7540654296875,0.04138749837875366,0.14300000667572021,-1.130387544631958
1757088328182618400,4.763618408203125,0.02914999984204769,0.1625249981880188,-1.1279125213623047
1757088328192171000,4.7731708984375,0.013337500393390656,0.1942874938249588,-1.1119624376296997
1757088328201724000,4.782723876953125,-0.01718750037252903,0.1919499933719635,-1.1131999492645264
1757088328211276800,4.79227685546875,-0.01966249942779541,0.18576249480247498,-1.1204874515533447
1757088328220829700,4.80182958984375,-0.011137500405311584,0.2162874937057495,-1.152250051498413
1757088328230382600,4.811382568359375,-0.0147124994546175,0.2639999985694885,-1.1584374904632568
1757088328239935500,4.820935546875,0.028049999848008156,0.28228750824928284,-1.1339625120162964
1757088328249488400,4.83048828125,0.07438749819993973,0.28833749890327454,-1.1193875074386597
1757088328259041000,4.840041015625,0.1073874980211258,0.33233749866485596,-1.1241999864578247
1757088328268594200,4.84959423828125,0.12086249887943268,0.3433375060558319,-1.1389124393463135
1757088328278146800,4.859146728515625,0.13791249692440033,0.31652501225471497,-1.1547249555587769
1757088328287699700,4.86869970703125,0.15138749778270721,0.24681249260902405,-1.1829124689102173
1757088328297252600,4.878252685546875,0.17820000648498535,0.1662375032901764,-1.204912543296814
1757088328306805500,4.887805419921875,0.21367499232292175,0.11976250261068344,-1.201200008392334
1757088328316358400,4.8973583984375,0.20886249840259552,0.09542500227689743,-1.1852500438690186
1757088328325911300,4.906911376953125,0.1868624985218048,0.13695000112056732,-1.1193875074386597
1757088328335464000,4.9164638671875,0.14533749222755432,0.2615250051021576,-1.0276750326156616
1757088328345016800,4.926016845703125,0.10491249710321426,0.3653374910354614,-0.9128624796867371
1757088328354569700,4.93556982421875,0.07809999585151672,0.4398624897003174,-0.8273375034332275
1757088328364122600,4.94512255859375,0.07686249911785126,0.47905001044273376,-0.7723374962806702
1757088328373675500,4.954675537109375,0.07438749819993973,0.4778124988079071,-0.7442874908447266
1757088328383228400,4.964228515625,0.05486249923706055,0.43505001068115234,-0.7260000109672546
1757088328392781300,4.97378125,0.04138749837875366,0.41786250472068787,-0.677049994468689
1757088328402334200,4.983334228515625,0.037812501192092896,0.3825249969959259,-0.6489999890327454
1757088328411887000,4.99288720703125,0.014574999921023846,0.305525004863739,-0.6758124828338623
1757088328421440000,5.00243994140625,-0.03918749839067459,0.23828749358654022,-0.6917625069618225
1757088328440545800,5.0215458984375,-0.08195000141859055,0.2750000059604645,-0.6122875213623047
1757088328450098700,5.0310986328125,-0.08318749815225601,0.3067624866962433,-0.5707625150680542
1757088328459651300,5.0406513671875,-0.07713750004768372,0.40562498569488525,-0.5524749755859375
1757088328469204200,5.050204345703125,-0.07823749631643295,0.41304999589920044,-0.5561875104904175
1757088328478757000,5.059757080078125,-0.07713750004768372,0.37757501006126404,-0.5769500136375427
1757088328488310000,5.06931005859375,-0.08318749815225601,0.28833749890327454,-0.5842375159263611
1757088328497863000,5.07886279296875,-0.09047500044107437,0.3409999907016754,-0.5890499949455261
1757088328507415600,5.08841552734375,-0.12223749607801437,0.43505001068115234,-0.49623748660087585
1757088328516968700,5.09796875,-0.16376249492168427,0.5193374752998352,-0.4119499921798706
1757088328526521600,5.107521484375,-0.17476250231266022,0.5583875179290771,-0.3777124881744385
1757088328536074500,5.117074462890625,-0.17847499251365662,0.4875749945640564,-0.3716624975204468
1757088328545627100,5.126627197265625,-0.16747500002384186,0.3983374834060669,-0.40466248989105225
1757088328555180000,5.136179931640625,-0.14300000667572021,0.3433375060558319,-0.4217124879360199
1757088328564733000,5.14573291015625,-0.12347500026226044,0.34952500462532043,-0.36547499895095825
1757088328574285800,5.155285888671875,-0.10999999940395355,0.3507624864578247,-0.2824249863624573
1757088328583838500,5.16483837890625,-0.07466249912977219,0.3592875003814697,-0.2079000025987625
1757088328593391400,5.174391357421875,-0.03918749839067459,0.40562498569488525,-0.14932499825954437
1757088328602944300,5.1839443359375,-0.006187499966472387,0.4716250002384186,-0.10779999941587448
1757088328612497200,5.1934970703125,0.02681249938905239,0.3946250081062317,-0.1321374922990799
1757088328622050000,5.203050048828125,0.057337500154972076,0.2993375062942505,-0.16637499630451202
1757088328631603000,5.21260302734375,0.0658624991774559,0.2675749957561493,-0.17613749206066132
1757088328641156000,5.222156005859375,0.06462500244379044,0.2639999985694885,-0.16637499630451202
1757088328650708700,5.231708740234375,0.06833750009536743,0.25052499771118164,-0.14561249315738678
1757088328660261600,5.24126171875,0.07933750003576279,0.2162874937057495,-0.13089999556541443
1757088328669814500,5.250814453125,0.08910000324249268,0.21147499978542328,-0.14079999923706055
1757088328679367400,5.260367431640625,0.0976250022649765,0.17352500557899475,-0.15056249499320984
1757088328688920000,5.269920166015625,0.10862500220537186,0.1307625025510788,-0.15537500381469727
1757088328698473200,5.27947314453125,0.11962500214576721,0.10752499848604202,-0.15537500381469727
1757088328708025900,5.28902587890625,0.12209999561309814,0.10395000129938126,-0.14932499825954437
1757088328717578800,5.298578857421875,0.1073874980211258,0.09652499854564667,-0.14079999923706055
1757088328727131600,5.308131591796875,0.08057499676942825,0.08566249907016754,-0.13708749413490295
1757088328736684500,5.3176845703125,0.04138749837875366,0.06847500056028366,-0.13461250066757202
1757088328746237400,5.327237548828125,0.01209999993443489,0.052662499248981476,-0.1297999918460846
1757088328755790300,5.336790283203125,0.007287499960511923,0.06599999964237213,-0.1358499974012375
1757088328765343200,5.34634326171875,0.0035749999806284904,0.0611874982714653,-0.14079999923706055
1757088328774896000,5.355896240234375,-0.008662499487400055,0.03918749839067459,-0.14313749969005585
1757088328784448800,5.36544873046875,-0.013612499460577965,0.03671250119805336,-0.13832500576972961
1757088328794001700,5.375001708984375,-0.020899999886751175,0.04166249930858612,-0.11990000307559967
1757088328803554600,5.384554443359375,-0.028187500312924385,0.05142499879002571,-0.08937499672174454
1757088328813107500,5.394107421875,-0.045375000685453415,0.0611874982714653,-0.04908749833703041
1757088328822660400,5.403660400390625,-0.08195000141859055,0.07576250284910202,-0.006324999965727329
1757088328832213200,5.413213134765625,-0.10518749803304672,0.07823749631643295,0.020487500354647636
1757088328841766000,5.422765869140625,-0.11990000307559967,0.06847500056028366,0.04124999791383743
1757088328851318800,5.43231884765625,-0.1284250020980835,0.04399999976158142,0.05719999969005585
1757088328860871700,5.44187158203125,-0.1284250020980835,0.0147124994546175,0.08277499675750732
1757088328870424600,5.451424560546875,-0.1381874978542328,0.007424999959766865,0.11096250265836716
1757088328879977500,5.4609775390625,-0.15523749589920044,0.025712499395012856,0.13420000672340393
1757088328889530400,5.4705302734375,-0.17476250231266022,0.06476250290870667,0.1377750039100647
1757088328899083000,5.4800830078125,-0.19442500174045563,0.0929500013589859,0.12677499651908875
1757088328908636200,5.48963623046875,-0.20542499423027039,0.11123749613761902,0.11824999749660492
1757088328918188800,5.499188720703125,-0.19923749566078186,0.10999999940395355,0.12925000488758087
1757088328927742000,5.508741943359375,-0.1979999989271164,0.11247500032186508,0.15125000476837158
1757088328937294600,5.518294677734375,-0.20295000076293945,0.12223749607801437,0.15619999170303345
1757088328946847500,5.527847412109375,-0.21876250207424164,0.12594999372959137,0.13653749227523804
1757088328956400400,5.537400390625,-0.2297624945640564,0.10147500038146973,0.10353749990463257
1757088328965953300,5.546953369140625,-0.23471249639987946,0.057475000619888306,0.08277499675750732
1757088328975506000,5.556505859375,-0.23594999313354492,0.057475000619888306,0.0681999996304512
1757088328985058800,5.566058837890625,-0.23100000619888306,0.09047500044107437,0.05101250112056732
1757088328994611700,5.57561181640625,-0.21876250207424164,0.10999999940395355,0.04743750020861626
1757088329004164600,5.58516455078125,-0.201712504029274,0.11371249705553055,0.06091250106692314
1757088329013717500,5.594717529296875,-0.18947499990463257,0.10147500038146973,0.08648750185966492
1757088329023270400,5.6042705078125,-0.17242500185966492,0.09418749809265137,0.11824999749660492
1757088329032823300,5.6138232421875,-0.1467124968767166,0.09418749809265137,0.14630000293254852
1757088329042376000,5.6233759765625,-0.13199999928474426,0.12099999934434891,0.15372499823570251
1757088329051928800,5.6329287109375,-0.1284250020980835,0.14547500014305115,0.13296249508857727
1757088329061481700,5.642481689453125,-0.11618749797344208,0.13695000112056732,0.08648750185966492
1757088329071034600,5.65203466796875,-0.08195000141859055,0.08318749815225601,0.027912499383091927
1757088329080587500,5.66158740234375,-0.03918749839067459,0.02694999985396862,-0.02227500081062317
1757088329090140400,5.671140380859375,-0.023375000804662704,0.050187498331069946,-0.04179999977350235
1757088329099693300,5.680693359375,-0.012374999932944775,0.11742500215768814,-0.04179999977350235
1757088329109246000,5.690245849609375,0.009624999947845936,0.15152500569820404,-0.03684999793767929
1757088329118799000,5.699799072265625,0.01209999993443489,0.1307625025510788,-0.028324998915195465
1757088329128351700,5.709351806640625,0.0170499999076128,0.050187498331069946,-0.010037500411272049
1757088329137904600,5.718904541015625,0.05238749831914902,0.02199999988079071,0.008249999955296516
1757088329147457500,5.72845751953125,0.06091250106692314,0.029424998909235,0.03396249935030937
1757088329157010400,5.738010498046875,0.0658624991774559,0.007424999959766865,0.04743750020861626
1757088329166563300,5.747563232421875,0.06338749825954437,-0.02433750033378601,0.03396249935030937
1757088329176116000,5.757115966796875,0.06462500244379044,-0.04633750021457672,0.01924999989569187
1757088329185668900,5.7666689453125,0.06091250106692314,-0.04633750021457672,0.027912499383091927
1757088329195221800,5.7762216796875,0.06338749825954437,-0.020624998956918716,0.04619999974966049
1757088329204774700,5.785774658203125,0.059812501072883606,-0.0035749999806284904,0.05348749831318855
1757088329214327800,5.795327880859375,0.05238749831914902,0.002474999986588955,0.04743750020861626
1757088329223880200,5.804880126953125,0.04138749837875366,-0.00976249948143959,0.04372499883174896
1757088329233433300,5.814433349609375,0.028049999848008156,-0.035337500274181366,0.03396249935030937
1757088329242986200,5.823986328125,0.015812499448657036,-0.0658624991774559,0.007149999961256981
1757088329252539100,5.8335390625,0.006049999967217445,-0.09281250089406967,-0.021037500351667404
1757088329262092000,5.843092041015625,-0.0013749999925494194,-0.09157499670982361,-0.043037500232458115
1757088329271645000,5.85264501953125,-0.006187499966472387,-0.07438749819993973,-0.04661250114440918
1757088329281197600,5.862197509765625,-0.002612499985843897,-0.059812501072883606,-0.033275000751018524
1757088329290750500,5.87175048828125,-0.002612499985843897,-0.04881250113248825,-0.01251249946653843
1757088329300303400,5.881303466796875,-0.013612499460577965,-0.0340999998152256,0.008249999955296516
1757088329309856300,5.890856201171875,-0.030662499368190765,-0.014574999921023846,0.013199999928474426
1757088329319409000,5.900408935546875,-0.035475000739097595,-0.02186249941587448,0.009487500414252281
1757088329328961800,5.9099619140625,-0.035475000739097595,-0.05128749832510948,0.004674999974668026
1757088329338515000,5.919514892578125,-0.040424998849630356,-0.06104999780654907,-0.0002749999985098839
1757088329348067600,5.929067626953125,-0.045375000685453415,-0.059812501072883606,-0.005087499972432852
1757088329357620500,5.938620361328125,-0.05142499879002571,-0.04881250113248825,-0.01484999991953373
1757088329367173400,5.94817333984375,-0.05389999970793724,-0.04262499883770943,-0.018562499433755875
1757088329376726300,5.957726318359375,-0.05142499879002571,-0.02681249938905239,-0.008799999952316284
1757088329386279200,5.967279052734375,-0.05389999970793724,-0.00976249948143959,0.002199999988079071
1757088329395832000,5.97683203125,-0.050187498331069946,-0.002337499987334013,0.007149999961256981
1757088329405385000,5.986385009765625,-0.035475000739097595,-0.023099999874830246,0.005912499967962503
1757088329414937600,5.9959375,-0.03918749839067459,-0.01952499896287918,-0.005087499972432852
1757088329424490500,6.005490478515625,-0.037950001657009125,-0.0170499999076128,-0.023512499406933784
1757088329434043400,6.01504345703125,-0.03189999982714653,-0.023099999874830246,-0.03451250120997429
1757088329443596300,6.02459619140625,-0.02213750034570694,-0.025575000792741776,-0.03451250120997429
1757088329453149200,6.034149169921875,-0.013612499460577965,-0.018287500366568565,-0.03451250120997429
1757088329462701800,6.043701904296875,-0.00494999997317791,-0.010862499475479126,-0.035612501204013824
1757088329472254700,6.053254638671875,0.0010999999940395355,-0.004812499973922968,-0.03451250120997429
1757088329481807600,6.0628076171875,0.004812499973922968,0.002474999986588955,-0.03451250120997429
1757088329491360500,6.072360595703125,0.007287499960511923,0.0037124999798834324,-0.038087498396635056
1757088329500913400,6.081913330078125,0.01209999993443489,0.0037124999798834324,-0.045512501150369644
1757088329510466000,6.091466064453125,0.018149999901652336,0.0012374999932944775,-0.05156249925494194
1757088329520019200,6.101019287109375,0.02433750033378601,-0.0035749999806284904,-0.057612501084804535
1757088329529571800,6.11057177734375,0.02681249938905239,-0.002337499987334013,-0.057612501084804535
1757088329539125000,6.120125,0.03162499889731407,0.00013749999925494194,-0.05403750017285347
1757088329548678000,6.129677978515625,0.0340999998152256,0.0012374999932944775,-0.047849997878074646
1757088329558230800,6.139230712890625,0.035337500274181366,0.006187499966472387,-0.043037500232458115
1757088329567783400,6.148783447265625,0.037812501192092896,0.007424999959766865,-0.03932499885559082
1757088329577336300,6.15833642578125,0.03657500073313713,0.011137500405311584,-0.035612501204013824
1757088329586889200,6.16788916015625,0.03657500073313713,0.01223750039935112,-0.03451250120997429
1757088329596442000,6.177442138671875,0.037812501192092896,0.01347499992698431,-0.03451250120997429
1757088329605995000,6.1869951171875,0.03657500073313713,0.00989999994635582,-0.03203750029206276
1757088329615548000,6.1965478515625,0.03904999792575836,0.0037124999798834324,-0.028324998915195465
1757088329625100500,6.2061005859375,0.04262499883770943,0.00013749999925494194,-0.025849999859929085
1757088329634653400,6.2156533203125,0.047575000673532486,-0.0035749999806284904,-0.02461249940097332
1757088329644206300,6.225206298828125,0.05238749831914902,-0.004812499973922968,-0.02461249940097332
1757088329653759200,6.23475927734375,0.05857500061392784,-0.007287499960511923,-0.02708750031888485
1757088329663312100,6.24431201171875,0.06462500244379044,-0.00976249948143959,-0.02956249937415123
1757088329672865000,6.253864990234375,0.06833750009536743,-0.006049999967217445,-0.02956249937415123
1757088329682417700,6.263417724609375,0.07081250101327896,-0.006049999967217445,-0.02956249937415123
1757088329691970600,6.272970458984375,0.07686249911785126,-0.004812499973922968,-0.028324998915195465
1757088329701523500,6.2825234375,0.08181250095367432,-0.0035749999806284904,-0.02708750031888485
1757088329711076400,6.292076416015625,0.08786249905824661,-0.004812499973922968,-0.025849999859929085
1757088329720629500,6.30162939453125,0.09267500042915344,-0.004812499973922968,-0.028324998915195465
1757088329730182100,6.31118212890625,0.09638749808073044,-0.007287499960511923,-0.028324998915195465
1757088329739735000,6.320735107421875,0.0976250022649765,-0.010862499475479126,-0.028324998915195465
1757088329749288000,6.330287841796875,0.10009999573230743,-0.014574999921023846,-0.025849999859929085
1757088329758840800,6.3398408203125,0.10009999573230743,-0.0170499999076128,-0.021037500351667404
1757088329768393500,6.3493935546875,0.1013374999165535,-0.015812499448657036,-0.01732499897480011
1757088329777946400,6.3589462890625,0.10009999573230743,-0.018287500366568565,-0.01484999991953373
1757088329787499300,6.368499267578125,0.10009999573230743,-0.0170499999076128,-0.013612499460577965
1757088329797052200,6.37805224609375,0.09638749808073044,-0.014574999921023846,-0.01251249946653843
1757088329806604800,6.387604736328125,0.09391249716281891,-0.01209999993443489,-0.011274999938905239
1757088329816158000,6.397157958984375,0.08910000324249268,-0.010862499475479126,-0.008799999952316284
1757088329825710600,6.406710693359375,0.08415000140666962,-0.0085249999538064,-0.007562499959021807
1757088329835263700,6.416263671875,0.08057499676942825,-0.00976249948143959,-0.010037500411272049
1757088329844816400,6.42581640625,0.07438749819993973,-0.01209999993443489,-0.01251249946653843
1757088329854369300,6.435369384765625,0.0695749968290329,-0.010862499475479126,-0.016087500378489494
1757088329863922200,6.444922119140625,0.06710000336170197,-0.01209999993443489,-0.018562499433755875
1757088329873475000,6.45447509765625,0.06091250106692314,-0.01209999993443489,-0.016087500378489494
1757088329883027700,6.46402783203125,0.05609999969601631,-0.007287499960511923,-0.01251249946653843
1757088329892580600,6.47358056640625,0.05238749831914902,-0.0035749999806284904,-0.008799999952316284
1757088329902133500,6.483133544921875,0.04633750021457672,-0.0010999999940395355,-0.0038499999791383743
1757088329911686400,6.492686279296875,0.040150001645088196,0.0037124999798834324,0.0009624999947845936
1757088329921239300,6.5022392578125,0.0340999998152256,0.006187499966472387,0.0009624999947845936
1757088329930792200,6.511792236328125,0.028049999848008156,0.007424999959766865,0.002199999988079071
1757088329940345000,6.521344970703125,0.020624998956918716,0.008662499487400055,0.0009624999947845936
1757088329949898200,6.530898193359375,0.015812499448657036,0.008662499487400055,-0.0002749999985098839
1757088329959451000,6.540450927734375,0.009624999947845936,0.00989999994635582,-0.0015124999918043613
1757088329969003800,6.550003662109375,0.004812499973922968,0.007424999959766865,-0.0038499999791383743
1757088329978556400,6.559556396484375,0.0010999999940395355,0.006187499966472387,-0.0038499999791383743
1757088329988109600,6.569109619140625,-0.002612499985843897,0.006187499966472387,-0.002749999985098839
1757088329997662200,6.578662109375,-0.0037124999798834324,0.00494999997317791,-0.002749999985098839
1757088330007215000,6.588215087890625,-0.007424999959766865,0.0037124999798834324,-0.002749999985098839
1757088330016768000,6.59776806640625,-0.007424999959766865,0.00494999997317791,-0.0002749999985098839
1757088330026321000,6.60732080078125,-0.00989999994635582,0.007424999959766865,0.0009624999947845936
1757088330035873500,6.61687353515625,-0.011137500405311584,0.008662499487400055,0.0009624999947845936
1757088330045426400,6.626426513671875,-0.012374999932944775,0.007424999959766865,0.002199999988079071
1757088330054979300,6.635979248046875,-0.012374999932944775,0.00494999997317791,0.0034374999813735485
1757088330064532200,6.6455322265625,-0.012374999932944775,0.002474999986588955,0.004674999974668026
1757088330074085000,6.655085205078125,-0.013612499460577965,0.0012374999932944775,0.005912499967962503
1757088330083637800,6.6646376953125,-0.012374999932944775,0.0012374999932944775,0.005912499967962503
1757088330093190700,6.674190673828125,-0.011137500405311584,0.002474999986588955,0.005912499967962503
1757088330102743600,6.68374365234375,-0.00989999994635582,0.002474999986588955,0.004674999974668026
1757088330112296400,6.69329638671875,-0.008662499487400055,0.002474999986588955,0.002199999988079071
1757088330121849300,6.702849365234375,-0.006187499966472387,0.00013749999925494194,0.0009624999947845936
1757088330131402200,6.71240234375,-0.00494999997317791,-0.002337499987334013,-0.0002749999985098839
1757088330140955100,6.721955078125,-0.0013749999925494194,-0.0035749999806284904,-0.0015124999918043613
1757088330150508000,6.731508056640625,-0.00013749999925494194,-0.006049999967217445,-0.0015124999918043613
1757088330160061000,6.74106103515625,0.0035749999806284904,-0.006049999967217445,-0.0002749999985098839
1757088330169613600,6.750613525390625,0.004812499973922968,-0.0035749999806284904,-0.0002749999985098839
1757088330179166500,6.76016650390625,0.0035749999806284904,-0.002337499987334013,0.0009624999947845936
1757088330188719400,6.76971923828125,0.004812499973922968,0.00013749999925494194,0.002199999988079071
1757088330198272300,6.779272216796875,0.0035749999806284904,0.0012374999932944775,0.002199999988079071
1757088330207825200,6.7888251953125,0.0035749999806284904,0.002474999986588955,0.002199999988079071
1757088330217377800,6.798377685546875,0.002337499987334013,0.002474999986588955,0.0009624999947845936
1757088330226930700,6.8079306640625,0.0035749999806284904,0.00013749999925494194,0.0009624999947845936
1757088330236483600,6.817483642578125,0.006049999967217445,-0.004812499973922968,-0.0002749999985098839
1757088330246036500,6.827036376953125,0.007287499960511923,-0.006049999967217445,-0.0002749999985098839
1757088330255589400,6.83658935546875,0.007287499960511923,-0.006049999967217445,0.0009624999947845936
1757088330265142300,6.846142333984375,0.006049999967217445,-0.002337499987334013,0.002199999988079071
1757088330274695200,6.855695068359375,0.007287499960511923,0.0012374999932944775,0.0034374999813735485
1757088330284248000,6.865248046875,0.006049999967217445,0.0012374999932944775,0.004674999974668026
1757088330293801000,6.874801025390625,0.006049999967217445,0.00013749999925494194,0.0034374999813735485
1757088330303353900,6.884353759765625,0.002337499987334013,0.00013749999925494194,0.0009624999947845936
1757088330312906800,6.89390673828125,0.0010999999940395355,-0.0035749999806284904,-0.0015124999918043613
1757088330322459400,6.90345947265625,-0.002612499985843897,-0.006049999967217445,-0.002749999985098839
1757088330332012300,6.91301220703125,-0.0013749999925494194,-0.0085249999538064,-0.002749999985098839
1757088330341565200,6.922565185546875,-0.002612499985843897,-0.006049999967217445,-0.0002749999985098839
1757088330351118000,6.9321181640625,-0.002612499985843897,-0.0035749999806284904,0.002199999988079071
1757088330360670700,6.941670654296875,-0.002612499985843897,-0.002337499987334013,0.007149999961256981
1757088330370223600,6.9512236328125,-0.0013749999925494194,0.00013749999925494194,0.007149999961256981
1757088330379776500,6.960776611328125,-0.0013749999925494194,0.00013749999925494194,0.004674999974668026
1757088330389329400,6.970329345703125,-0.002612499985843897,-0.0010999999940395355,0.002199999988079071
1757088330398882000,6.979882080078125,-0.0013749999925494194,-0.0010999999940395355,0.0009624999947845936
1757088330408435000,6.98943505859375,-0.002612499985843897,-0.002337499987334013,-0.0002749999985098839
1757088330417988000,6.998988037109375,-0.002612499985843897,-0.002337499987334013,-0.0015124999918043613
1757088330427540700,7.008540771484375,-0.002612499985843897,-0.004812499973922968,-0.0002749999985098839
1757088330437094000,7.018093994140625,-0.0037124999798834324,-0.004812499973922968,0.0009624999947845936
1757088330446646800,7.027646728515625,-0.00494999997317791,-0.002337499987334013,0.002199999988079071
1757088330456199400,7.037199462890625,-0.00494999997317791,0.0012374999932944775,0.0034374999813735485
1757088330465752300,7.04675244140625,-0.0037124999798834324,0.0037124999798834324,0.007149999961256981
1757088330475305200,7.05630517578125,-0.00494999997317791,0.00494999997317791,0.008249999955296516
1757088330484858000,7.065858154296875,-0.00494999997317791,0.00494999997317791,0.009487500414252281
1757088330494410800,7.07541064453125,-0.006187499966472387,0.006187499966472387,0.008249999955296516
1757088330503963600,7.084963623046875,-0.0037124999798834324,0.0037124999798834324,0.007149999961256981
1757088330513516500,7.0945166015625,-0.002612499985843897,0.00013749999925494194,0.005912499967962503
1757088330523069400,7.1040693359375,0.0010999999940395355,-0.002337499987334013,0.005912499967962503
1757088330532622300,7.113622314453125,0.002337499987334013,-0.0035749999806284904,0.004674999974668026
1757088330542175200,7.12317529296875,0.004812499973922968,-0.0035749999806284904,0.004674999974668026
1757088330551728400,7.132728271484375,0.006049999967217445,-0.0035749999806284904,0.005912499967962503
1757088330561281000,7.142281005859375,0.007287499960511923,-0.002337499987334013,0.005912499967962503
1757088330570834000,7.151833984375,0.004812499973922968,0.00013749999925494194,0.004674999974668026
1757088330580386800,7.16138671875,0.0035749999806284904,0.00013749999925494194,0.005912499967962503
1757088330589939700,7.170939697265625,0.002337499987334013,0.00013749999925494194,0.0034374999813735485
1757088330599492400,7.180492431640625,-0.00013749999925494194,0.0012374999932944775,0.005912499967962503
1757088330609045200,7.190045166015625,-0.0013749999925494194,0.00013749999925494194,0.0034374999813735485
1757088330618598100,7.19959814453125,-0.0037124999798834324,0.0012374999932944775,0.004674999974668026
1757088330628151000,7.209151123046875,-0.00494999997317791,0.002474999986588955,0.004674999974668026
1757088330637704000,7.218703857421875,-0.007424999959766865,0.0037124999798834324,0.007149999961256981
1757088330647256600,7.228256591796875,-0.006187499966472387,0.0037124999798834324,0.005912499967962503
1757088330656809500,7.2378095703125,-0.0037124999798834324,0.0037124999798834324,0.005912499967962503
1757088330666362400,7.2473623046875,-0.0037124999798834324,0.002474999986588955,0.004674999974668026
1757088330675915300,7.256915283203125,-0.00013749999925494194,0.002474999986588955,0.002199999988079071
1757088330685468200,7.26646826171875,0.002337499987334013,0.002474999986588955,-0.0002749999985098839
1757088330695021000,7.27602099609375,0.0035749999806284904,0.0012374999932944775,-0.002749999985098839
1757088330704574000,7.285573974609375,0.0010999999940395355,0.002474999986588955,-0.002749999985098839
1757088330714126800,7.295126953125,0.0010999999940395355,0.002474999986588955,-0.0015124999918043613
1757088330723679700,7.3046796875,-0.00013749999925494194,0.0012374999932944775,-0.0002749999985098839
1757088330733232400,7.314232421875,-0.002612499985843897,0.00013749999925494194,0.002199999988079071
1757088330742785300,7.323785400390625,-0.002612499985843897,0.00013749999925494194,0.004674999974668026
1757088330752338200,7.333338134765625,-0.002612499985843897,0.00013749999925494194,0.005912499967962503
1757088330761891000,7.34289111328125,-0.002612499985843897,-0.0010999999940395355,0.004674999974668026
1757088330771444000,7.35244384765625,-0.00013749999925494194,-0.0010999999940395355,0.0009624999947845936
1757088330780996600,7.36199658203125,0.0010999999940395355,0.00013749999925494194,-0.0038499999791383743
1757088330790549800,7.3715498046875,0.0010999999940395355,0.00013749999925494194,-0.008799999952316284
1757088330800102700,7.3811025390625,-0.002612499985843897,-0.002337499987334013,-0.013612499460577965
1757088330809655300,7.3906552734375,-0.0037124999798834324,-0.0085249999538064,-0.01484999991953373
1757088330819208200,7.400208251953125,-0.006187499966472387,-0.01209999993443489,-0.01251249946653843
1757088330828760800,7.4097607421875,-0.007424999959766865,-0.010862499475479126,-0.005087499972432852
1757088330838314000,7.41931396484375,-0.008662499487400055,-0.004812499973922968,0.0009624999947845936
1757088330847866600,7.42886669921875,-0.008662499487400055,0.0012374999932944775,0.005912499967962503
1757088330857419500,7.43841943359375,-0.00989999994635582,0.006187499966472387,0.007149999961256981
1757088330866972400,7.447972412109375,-0.012374999932944775,0.00494999997317791,0.0034374999813735485
1757088330876525300,7.457525390625,-0.0147124994546175,-0.0010999999940395355,-0.002749999985098839
1757088330886078200,7.467078125,-0.01718750037252903,-0.00976249948143959,-0.006324999965727329
1757088330895631000,7.476631103515625,-0.018424998968839645,-0.014574999921023846,-0.006324999965727329
1757088330905184000,7.48618408203125,-0.020899999886751175,-0.018287500366568565,-0.005087499972432852
1757088330914737000,7.49573681640625,-0.023375000804662704,-0.0170499999076128,-0.0038499999791383743
1757088330924289500,7.50528955078125,-0.02694999985396862,-0.013337500393390656,0.0009624999947845936
1757088330933842400,7.514842529296875,-0.029424998909235,-0.007287499960511923,0.007149999961256981
1757088330943395300,7.524395263671875,-0.033137500286102295,-0.006049999967217445,0.010724999941885471
1757088330952948200,7.5339482421875,-0.03437500074505806,-0.00976249948143959,0.009487500414252281
1757088330962500900,7.5435009765625,-0.033137500286102295,-0.015812499448657036,0.005912499967962503
1757088330972054000,7.553053955078125,-0.030662499368190765,-0.02186249941587448,0.0009624999947845936
1757088330981607000,7.56260693359375,-0.02694999985396862,-0.02928750030696392,-0.0038499999791383743
1757088330991159800,7.572159912109375,-0.02461249940097332,-0.03162499889731407,-0.005087499972432852
1757088331000712700,7.581712646484375,-0.02213750034570694,-0.0340999998152256,-0.005087499972432852
1757088331010265600,7.591265625,-0.020899999886751175,-0.035337500274181366,-0.0038499999791383743
1757088331019818200,7.600818359375,-0.01966249942779541,-0.0340999998152256,-0.002749999985098839
1757088331029371100,7.61037109375,-0.018424998968839645,-0.03162499889731407,-0.0002749999985098839
1757088331038924000,7.619924072265625,-0.01718750037252903,-0.02681249938905239,0.002199999988079071
1757088331048477000,7.629476806640625,-0.00989999994635582,-0.0170499999076128,0.005912499967962503
1757088331058029600,7.639029541015625,-0.006187499966472387,0.0012374999932944775,0.015675000846385956
1757088331067582500,7.64858251953125,-0.002612499985843897,0.03671250119805336,0.03396249935030937
1757088331077135400,7.65813525390625,0.0035749999806284904,0.02447500079870224,0.021724998950958252
1757088331086688300,7.667688232421875,0.0010999999940395355,-0.12457499653100967,-0.05637500062584877
1757088331096241200,7.6772412109375,-0.008662499487400055,-0.09157499670982361,-0.038087498396635056
1757088331105793800,7.686793701171875,0.009624999947845936,-0.006049999967217445,0.018149999901652336
1757088331115346700,7.6963466796875,0.04138749837875366,-0.013337500393390656,0.01924999989569187
1757088331124899600,7.705899658203125,0.04262499883770943,0.03918749839067459,0.03519999980926514
1757088331134452500,7.715452392578125,0.035337500274181366,0.08195000141859055,0.05101250112056732
1757088331144005400,7.72500537109375,0.040150001645088196,0.07218749821186066,0.037675000727176666
1757088331153558500,7.73455859375,0.045099999755620956,0.03189999982714653,0.025437500327825546
1757088331163111200,7.744111083984375,0.04386249929666519,-0.01209999993443489,0.013199999928474426
1757088331172664000,7.7536640625,0.03904999792575836,-0.018287500366568565,-0.008799999952316284
1757088331182217000,7.763217041015625,0.03657500073313713,-0.006049999967217445,-0.01979999989271164
1757088331191769900,7.772769775390625,0.03904999792575836,0.008662499487400055,-0.006324999965727329
1757088331201322500,7.782322509765625,0.04386249929666519,0.037950001657009125,0.01691249944269657
1757088331210875400,7.79187548828125,0.04881250113248825,0.06847500056028366,0.0364375002682209
1757088331220428300,7.80142822265625,0.05115000158548355,0.08195000141859055,0.04496249929070473
1757088331229981200,7.810981201171875,0.05238749831914902,0.07947500050067902,0.04124999791383743
1757088331239533800,7.820533935546875,0.05115000158548355,0.06599999964237213,0.03148749843239784
1757088331249086700,7.830086669921875,0.045099999755620956,0.05376249924302101,0.018149999901652336
1757088331258639600,7.8396396484375,0.040150001645088196,0.04166249930858612,0.008249999955296516
1757088331268192500,7.849192626953125,0.035337500274181366,0.032999999821186066,0.005912499967962503
1757088331277745400,7.858745361328125,0.030387500301003456,0.025712499395012856,0.007149999961256981
1757088331287298300,7.86829833984375,0.02681249938905239,0.018424998968839645,0.008249999955296516
1757088331296851200,7.877851318359375,0.023099999874830246,0.015949999913573265,0.010724999941885471
1757088331306404000,7.887404052734375,0.020624998956918716,0.0147124994546175,0.011962499469518661
1757088331315957000,7.89695703125,0.0170499999076128,0.0147124994546175,0.013199999928474426
1757088331325510000,7.906510009765625,0.01209999993443489,0.0147124994546175,0.013199999928474426
1757088331335062500,7.9160625,0.007287499960511923,0.011137500405311584,0.010724999941885471
1757088331344615400,7.925615478515625,0.0010999999940395355,0.0037124999798834324,0.008249999955296516
1757088331354168300,7.935168212890625,-0.006187499966472387,-0.007287499960511923,0.005912499967962503
1757088331363721200,7.94472119140625,-0.011137500405311584,-0.015812499448657036,0.0009624999947845936
1757088331373274000,7.954274169921875,-0.015949999913573265,-0.020624998956918716,-0.0015124999918043613
1757088331382827000,7.963826904296875,-0.018424998968839645,-0.02186249941587448,-0.002749999985098839
1757088331392379600,7.973379638671875,-0.020899999886751175,-0.02186249941587448,-0.005087499972432852
1757088331401932500,7.9829326171875,-0.023375000804662704,-0.02186249941587448,-0.005087499972432852
1757088331411485400,7.9924853515625,-0.023375000804662704,-0.020624998956918716,-0.0038499999791383743
1757088331421038300,8.002038330078125,-0.023375000804662704,-0.02186249941587448,-0.0038499999791383743
1757088331430591500,8.011591552734375,-0.02461249940097332,-0.02186249941587448,-0.0038499999791383743
1757088331440144100,8.02114404296875,-0.023375000804662704,-0.02186249941587448,-0.0038499999791383743
1757088331449697000,8.030697021484375,-0.02461249940097332,-0.020624998956918716,-0.006324999965727329
1757088331459249700,8.040249755859374,-0.023375000804662704,-0.020624998956918716,-0.007562499959021807
1757088331468802800,8.049802734375,-0.020899999886751175,-0.02186249941587448,-0.008799999952316284
1757088331478355700,8.059355712890625,-0.01718750037252903,-0.020624998956918716,-0.008799999952316284
1757088331487908400,8.068908447265626,-0.0147124994546175,-0.01952499896287918,-0.007562499959021807
1757088331497461200,8.078461181640625,-0.012374999932944775,-0.0170499999076128,-0.005087499972432852
1757088331507014100,8.08801416015625,-0.008662499487400055,-0.013337500393390656,-0.002749999985098839
1757088331516567000,8.097567138671875,-0.0037124999798834324,-0.0085249999538064,-0.0015124999918043613
1757088331526119700,8.10711962890625,-0.00013749999925494194,-0.0035749999806284904,0.0009624999947845936
1757088331535672600,8.116672607421876,0.002337499987334013,-0.0010999999940395355,0.0034374999813735485
1757088331545225500,8.1262255859375,0.006049999967217445,0.00013749999925494194,0.0034374999813735485
1757088331554778400,8.1357783203125,0.007287499960511923,0.0012374999932944775,0.005912499967962503
1757088331564331300,8.145331298828125,0.009624999947845936,0.002474999986588955,0.007149999961256981
1757088331573884400,8.154884521484375,0.010862499475479126,0.002474999986588955,0.009487500414252281
1757088331583437000,8.16443701171875,0.01209999993443489,0.0037124999798834324,0.010724999941885471
1757088331592990000,8.173989990234375,0.013337500393390656,0.007424999959766865,0.010724999941885471
1757088331602542800,8.18354296875,0.014574999921023846,0.008662499487400055,0.010724999941885471
1757088331612095700,8.193095703125,0.014574999921023846,0.00989999994635582,0.010724999941885471
1757088331621648600,8.202648681640625,0.014574999921023846,0.011137500405311584,0.010724999941885471
1757088331631201300,8.212201171875,0.014574999921023846,0.01223750039935112,0.008249999955296516
1757088331640754200,8.221754150390625,0.013337500393390656,0.011137500405311584,0.009487500414252281
1757088331650307000,8.23130712890625,0.014574999921023846,0.011137500405311584,0.007149999961256981
1757088331659860000,8.24085986328125,0.013337500393390656,0.00989999994635582,0.007149999961256981
1757088331669412600,8.25041259765625,0.010862499475479126,0.008662499487400055,0.004674999974668026
1757088331678965500,8.259965576171876,0.009624999947845936,0.00494999997317791,0.002199999988079071
1757088331688518400,8.269518310546875,0.007287499960511923,0.0037124999798834324,-0.002749999985098839
1757088331698071300,8.2790712890625,0.006049999967217445,0.002474999986588955,-0.0038499999791383743
1757088331707624200,8.288624267578125,0.004812499973922968,0.0012374999932944775,-0.005087499972432852
1757088331717176800,8.2981767578125,0.004812499973922968,0.0012374999932944775,-0.006324999965727329
1757088331726730000,8.30772998046875,-0.00013749999925494194,0.0012374999932944775,-0.007562499959021807
1757088331736282600,8.31728271484375,-0.0013749999925494194,0.00013749999925494194,-0.010037500411272049
1757088331745835500,8.32683544921875,-0.00494999997317791,-0.0035749999806284904,-0.011274999938905239
1757088331755388400,8.336388427734375,-0.00989999994635582,-0.0035749999806284904,-0.01251249946653843
1757088331764941300,8.34594140625,-0.0147124994546175,0.00013749999925494194,-0.010037500411272049
1757088331774494200,8.355494140625,-0.011137500405311584,-0.01209999993443489,-0.01251249946653843
1757088331784046800,8.365046875,-0.015949999913573265,-0.010862499475479126,-0.008799999952316284
1757088331793600000,8.37460009765625,-0.01718750037252903,-0.007287499960511923,-0.005087499972432852
1757088331803153000,8.38415283203125,-0.01718750037252903,-0.0085249999538064,-0.0038499999791383743
1757088331812705500,8.39370556640625,-0.015949999913573265,-0.010862499475479126,-0.002749999985098839
1757088331822258400,8.403258544921876,-0.01966249942779541,-0.013337500393390656,-0.0002749999985098839
1757088331831811300,8.412811279296875,-0.02213750034570694,-0.01209999993443489,0.002199999988079071
1757088331841364200,8.4223642578125,-0.02694999985396862,-0.010862499475479126,0.004674999974668026
1757088331850916900,8.431916748046875,-0.030662499368190765,-0.00976249948143959,0.010724999941885471
1757088331860469800,8.4414697265625,-0.033137500286102295,-0.004812499973922968,0.015675000846385956
1757088331870022700,8.451022705078126,-0.03437500074505806,-0.0035749999806284904,0.015675000846385956
1757088331879575600,8.460575439453125,-0.03671250119805336,-0.004812499973922968,0.014437500387430191
1757088331889128400,8.47012841796875,-0.03918749839067459,-0.007287499960511923,0.013199999928474426
1757088331898681300,8.479681396484375,-0.037950001657009125,-0.010862499475479126,0.010724999941885471
1757088331908234200,8.489234130859375,-0.03918749839067459,-0.010862499475479126,0.011962499469518661
1757088331917787100,8.498787109375,-0.03918749839067459,-0.00976249948143959,0.009487500414252281
1757088331927340000,8.508340087890625,-0.03671250119805336,-0.00976249948143959,0.008249999955296516
1757088331936893000,8.517892822265624,-0.03437500074505806,-0.01209999993443489,0.004674999974668026
1757088331946445600,8.527445556640625,-0.029424998909235,-0.015812499448657036,-0.002749999985098839
1757088331955998500,8.53699853515625,-0.02461249940097332,-0.020624998956918716,-0.007562499959021807
1757088331965551400,8.54655126953125,-0.01966249942779541,-0.023099999874830246,-0.010037500411272049
1757088331975104300,8.556104248046875,-0.01718750037252903,-0.02186249941587448,-0.007562499959021807
1757088331984657200,8.5656572265625,-0.01718750037252903,-0.015812499448657036,-0.005087499972432852
1757088331994209800,8.575209716796875,-0.018424998968839645,-0.006049999967217445,-0.002749999985098839
1757088332003762700,8.5847626953125,-0.01718750037252903,0.0012374999932944775,0.0009624999947845936
1757088332013315600,8.594315673828126,-0.013612499460577965,0.00494999997317791,0.0009624999947845936
1757088332022868500,8.603868408203125,-0.008662499487400055,-0.0010999999940395355,0.0034374999813735485
1757088332032421400,8.61342138671875,-0.007424999959766865,-0.002337499987334013,0.005912499967962503
1757088332041974000,8.62297412109375,-0.00494999997317791,-0.002337499987334013,0.005912499967962503
1757088332051527200,8.632527099609375,-0.002612499985843897,0.0012374999932944775,0.004674999974668026
1757088332061079800,8.642079833984376,-0.0013749999925494194,0.008662499487400055,0.004674999974668026
1757088332070633000,8.651633056640625,0.002337499987334013,0.01347499992698431,0.005912499967962503
1757088332080185900,8.661185791015624,0.006049999967217445,0.015949999913573265,0.004674999974668026
1757088332089738500,8.670738525390625,0.008387500420212746,0.0147124994546175,0.002199999988079071
1757088332099291400,8.68029150390625,0.01209999993443489,0.0147124994546175,0.002199999988079071
1757088332108844300,8.68984423828125,0.015812499448657036,0.015949999913573265,0.0034374999813735485
1757088332118397200,8.699397216796875,0.0193875003606081,0.01966249942779541,0.005912499967962503
1757088332127950000,8.7089501953125,0.023099999874830246,0.023237500339746475,0.009487500414252281
1757088332137502700,8.718502685546875,0.02681249938905239,0.025712499395012856,0.010724999941885471
1757088332147055600,8.7280556640625,0.030387500301003456,0.025712499395012856,0.011962499469518661
1757088332156608500,8.7376083984375,0.0340999998152256,0.02447500079870224,0.010724999941885471
1757088332166161400,8.747161376953125,0.040150001645088196,0.02199999988079071,0.005912499967962503
1757088332175714300,8.75671435546875,0.047575000673532486,0.03918749839067459,-0.005087499972432852
1757088332185267200,8.76626708984375,0.06091250106692314,0.020899999886751175,-0.01979999989271164
1757088332194820000,8.775820068359375,0.06710000336170197,0.01718750037252903,-0.02708750031888485
1757088332204373000,8.785373046875,0.07438749819993973,0.011137500405311584,-0.028324998915195465
1757088332213926000,8.79492578125,0.08415000140666962,0.0037124999798834324,-0.025849999859929085
1757088332223478500,8.804478515625,0.09638749808073044,-0.006049999967217445,-0.01979999989271164
1757088332233031400,8.814031494140625,0.10615000128746033,-0.0085249999538064,-0.01251249946653843
1757088332242584300,8.823584228515625,0.11715000122785568,-0.014574999921023846,-0.011274999938905239
1757088332252137200,8.83313720703125,0.12086249887943268,-0.00976249948143959,-0.011274999938905239
1757088332261690000,8.842690185546875,0.12086249887943268,-0.004812499973922968,-0.007562499959021807
1757088332271242800,8.85224267578125,0.13062499463558197,-0.01209999993443489,-0.006324999965727329
1757088332280795600,8.861795654296875,0.12815000116825104,-0.020624998956918716,-0.0038499999791383743
1757088332290348500,8.8713486328125,0.11715000122785568,-0.01952499896287918,-0.0002749999985098839
1757088332299901400,8.8809013671875,0.11233749985694885,-0.028049999848008156,-0.0002749999985098839
1757088332309454000,8.8904541015625,0.10862500220537186,-0.037812501192092896,0.005912499967962503
1757088332319007000,8.900007080078124,0.11110000312328339,-0.04262499883770943,0.01691249944269657
1757088332328559900,8.909559814453125,0.12443749606609344,-0.030524998903274536,0.022962499409914017
1757088332338113000,8.919113037109375,0.1256749927997589,-0.025575000792741776,0.03148749843239784
1757088332347665700,8.928665771484376,0.08538749814033508,0.007424999959766865,0.04867500066757202
1757088332357218800,8.93821875,0.08291249722242355,0.018424998968839645,0.05224999785423279
1757088332366771500,8.947771484375,0.07438749819993973,0.03189999982714653,0.05472499877214432
1757088332376324400,8.957324462890625,0.06091250106692314,0.040424998849630356,0.05348749831318855
1757088332385877200,8.966877197265624,0.040150001645088196,0.04399999976158142,0.05348749831318855
1757088332395430100,8.97643017578125,0.020624998956918716,0.045237500220537186,0.05596249923110008
1757088332404982800,8.985982666015625,-0.006187499966472387,0.04895000159740448,0.07067500054836273
1757088332414535700,8.99553564453125,-0.04413750022649765,0.062424998730421066,0.09748750180006027
1757088332424088600,9.005088623046875,-0.09542500227689743,0.08195000141859055,0.1280124932527542
1757088332443194000,9.024194091796875,-0.3007124960422516,0.20652499794960022,0.22824999690055847
1757088332452747000,9.0337470703125,-0.47905001044273376,0.32010000944137573,0.3063499927520752
1757088332462300000,9.0432998046875,-0.6451500058174133,0.42762500047683716,0.34677499532699585
1757088332471852800,9.052852783203125,-0.7856749892234802,0.45938751101493835,0.33329999446868896
1757088332481405700,9.06240576171875,-0.8639125227928162,0.46915000677108765,0.28806251287460327
1757088332490958600,9.07195849609375,-0.9322500228881836,0.4923875033855438,0.26358750462532043
1757088332500511700,9.08151171875,-0.9774875044822693,0.4973374903202057,0.2722499966621399
1757088332510064400,9.091064453125,-1.2425874471664429,0.6536750197410583,0.35887500643730164
1757088332519617300,9.1006171875,-1.380637526512146,0.8724374771118164,0.3503499925136566
1757088332529170200,9.110170166015624,-1.1620124578475952,0.5669124722480774,0.195250004529953
1757088332538723000,9.11972314453125,-0.9432500004768372,0.4703874886035919,0.06201250106096268
1757088332548275700,9.129275634765625,-0.8846749663352966,0.002474999986588955,0.05472499877214432
1757088332557828600,9.13882861328125,-0.9384375214576721,-0.24791249632835388,0.027912499383091927
1757088332567381500,9.148381591796875,-0.9395374655723572,-0.10257499665021896,-0.06132499873638153
1757088332576934400,9.157934326171874,-0.8552500009536743,-0.07081250101327896,-0.11261250078678131
1757088332586487300,9.1674873046875,-0.7954375147819519,0.011137500405311584,-0.07961250096559525
1757088332596040200,9.177040283203125,-0.7539125084877014,0.11123749613761902,-0.018562499433755875
1757088332605592800,9.1865927734375,-0.6733375191688538,0.1405249983072281,0.008249999955296516
1757088332615146000,9.19614599609375,-0.6121500134468079,0.1247124969959259,0.020487500354647636
1757088332624699000,9.205698974609374,-0.568149983882904,0.07095000147819519,0.02667500078678131
1757088332634251500,9.21525146484375,-0.5058624744415283,0.057475000619888306,0.020487500354647636
1757088332643804400,9.224804443359375,-0.43505001068115234,0.08318749815225601,0.007149999961256981
1757088332653357300,9.234357421875,-0.40933749079704285,0.0989999994635582,-0.043037500232458115
1757088332662910200,9.24391015625,-0.4008125066757202,0.14547500014305115,-0.057612501084804535
1757088332672462800,9.253462890625,-0.41552498936653137,0.24199999868869781,-0.055275000631809235
1757088332682015700,9.263015625,-0.38981249928474426,0.2297624945640564,-0.10408750176429749
1757088332691568600,9.272568603515625,-0.27623748779296875,0.11852499842643738,-0.1835625022649765
1757088332701121500,9.28212158203125,-0.25423750281333923,0.025712499395012856,-0.14313749969005585
1757088332710674400,9.29167431640625,-0.24447499215602875,0.054999999701976776,-0.07603749632835388
1757088332720227000,9.30122705078125,-0.21147499978542328,0.015949999913573265,-0.04908749833703041
1757088332729780000,9.310780029296875,-0.12099999934434891,0.015949999913573265,-0.023512499406933784
1757088332739333000,9.3203330078125,-0.15771250426769257,-0.04881250113248825,0.030249999836087227
1757088332748885800,9.3298857421875,-0.1662375032901764,-0.06104999780654907,0.027912499383091927
1757088332758438700,9.339438720703125,-0.3543374836444855,0.05142499879002571,-0.007562499959021807
1757088332767991600,9.348991455078124,-0.7942000031471252,0.2750000059604645,-0.1260875016450882
1757088332777544400,9.35854443359375,-1.0300124883651733,0.1942874938249588,-0.1480875015258789
1757088332787097300,9.368097412109375,-1.314637541770935,0.17104999721050262,-0.14561249315738678
1757088332796650200,9.377650146484376,-1.521162509918213,0.2835249900817871,-0.10408750176429749
1757088332806203100,9.387203125,-1.609162449836731,0.29205000400543213,-0.02708750031888485
1757088332815756000,9.396756103515624,-1.5577374696731567,0.25052499771118164,0.03519999980926514
1757088332825308700,9.40630859375,-1.4491125345230103,0.25052499771118164,0.03396249935030937
1757088332834861600,9.415861572265625,-1.368399977684021,0.3190000057220459,0.008249999955296516
1757088332844414500,9.42541455078125,-1.30611252784729,0.47286251187324524,-0.03451250120997429
1757088332853967400,9.43496728515625,-1.240112543106079,0.5535749793052673,-0.07232499867677689
1757088332863520000,9.44452001953125,-1.1510125398635864,0.5950999855995178,-0.0906125009059906
1757088332873073000,9.454072998046875,-0.9982500076293945,0.590149998664856,-0.08084999769926071
1757088332882625800,9.463625732421875,-0.821150004863739,0.6096749901771545,-0.040562499314546585
1757088332892178700,9.4731787109375,-0.7306749820709229,0.5413374900817871,-0.03684999793767929
1757088332901731300,9.4827314453125,-0.5926250219345093,0.42528748512268066,-0.01979999989271164
1757088332911284500,9.492284423828124,-0.44852501153945923,0.32752498984336853,-0.008799999952316284
1757088332920837400,9.50183740234375,-0.3543374836444855,0.22728750109672546,-0.007562499959021807
1757088332930390000,9.51139013671875,-0.2712875008583069,0.3018124997615814,-0.0002749999985098839
1757088332939943200,9.520943115234376,-0.17847499251365662,0.3531000018119812,-0.02461249940097332
1757088332949495800,9.530495849609375,-0.008662499487400055,0.2578125,0.0034374999813735485
1757088332959048700,9.540048583984374,0.1354375034570694,0.11742500215768814,0.06201250106096268
1757088332968601600,9.5496015625,0.12333749979734421,0.201712504029274,0.15853749215602875
1757088332978154500,9.559154541015625,0.1073874980211258,0.2554749846458435,0.23801249265670776
1757088332987707100,9.56870703125,0.06710000336170197,0.03189999982714653,0.1915374994277954
1757088332997260000,9.578260009765625,0.0193875003606081,0.007424999959766865,0.12677499651908875
1757088333006813000,9.58781298828125,-0.020899999886751175,0.01347499992698431,0.025437500327825546
1757088333016365800,9.59736572265625,-0.015949999913573265,0.03189999982714653,-0.060087498277425766
1757088333025918700,9.606918701171875,-0.02461249940097332,0.13695000112056732,-0.09184999763965607
1757088333035471400,9.616471435546876,-0.12347500026226044,0.3543374836444855,-0.02708750031888485
1757088333045024300,9.626024169921875,-0.2579500079154968,0.4166249930858612,0.07796250283718109
1757088333054577400,9.635577392578124,-0.38499999046325684,0.3910500109195709,0.147537499666214
1757088333064130000,9.645130126953125,-0.42157500982284546,0.4362874925136566,0.15372499823570251
1757088333073683000,9.654682861328125,-0.37400001287460327,0.5413374900817871,0.07919999957084656
1757088333083236000,9.664236083984376,-0.22247499227523804,0.6561499834060669,-0.040562499314546585
1757088333092788700,9.673788818359375,-0.00989999994635582,0.9725375175476074,-0.16266250610351562
1757088333102341600,9.683341552734374,0.16609999537467957,1.1070125102996826,-0.24584999680519104
1757088333111894500,9.69289453125,0.2381500005722046,0.817437469959259,-0.1993750035762787
1757088333121447400,9.702447509765625,0.22220000624656677,0.5608624815940857,-0.1358499974012375
1757088333131000000,9.712,0.1391499936580658,0.2872374951839447,-0.08208750188350677
1757088333140553200,9.72155322265625,0.07686249911785126,0.1381874978542328,-0.07961250096559525
1757088333150105900,9.73110595703125,0.06338749825954437,0.10147500038146973,-0.11137499660253525
1757088333159658800,9.74065869140625,0.030387500301003456,-0.05486249923706055,-0.13089999556541443
1757088333169211400,9.75021142578125,-0.025712499395012856,-0.1746249943971634,-0.11756250262260437
1757088333178764300,9.759764404296876,-0.05389999970793724,-0.17586250603199005,-0.057612501084804535
1757088333188317200,9.769317138671875,-0.07218749821186066,-0.3359124958515167,-0.02461249940097332
1757088333197870000,9.7788701171875,-0.0989999994635582,-0.5863000154495239,-0.03451250120997429
1757088333207423000,9.788423095703125,-0.14794999361038208,-0.7220125198364258,-0.04908749833703041
1757088333216976000,9.797975830078125,-0.22495000064373016,-0.7451124787330627,-0.052799999713897705
1757088333226528800,9.80752880859375,-0.33976250886917114,-0.559487521648407,-0.04427500069141388
1757088333236081700,9.81708154296875,-0.48262500762939453,-0.21986250579357147,-0.038087498396635056
1757088333245634600,9.826634521484374,-0.5755749940872192,0.042899999767541885,-0.033275000751018524
1757088333255187200,9.836187255859375,-0.6146249771118164,0.20528750121593475,0.022962499409914017
1757088333264740000,9.845739990234375,-0.6048625111579895,0.35557499527931213,0.0742499977350235
1757088333274293000,9.85529296875,-0.4998124837875366,0.7123875021934509,0.12443749606609344
1757088333283846000,9.864845947265625,-0.4020499885082245,0.8540124893188477,0.09748750180006027
1757088333293398800,9.874398681640624,-0.21147499978542328,0.8735374808311462,0.07672499865293503
1757088333302951400,9.883951416015625,0.04138749837875366,0.7562500238418579,0.07919999957084656
1757088333312504300,9.89350439453125,0.2307250052690506,0.5181000232696533,0.05967500060796738
1757088333322057200,9.90305712890625,0.2844874858856201,0.3568125069141388,0.03891250118613243
1757088333331610000,9.912610107421875,0.26743748784065247,0.4703874886035919,0.002199999988079071
1757088333341162800,9.922162841796874,0.2662000060081482,0.6708624958992004,-0.013612499460577965
1757088333350715600,9.931715576171875,0.29548749327659607,0.8980125188827515,0.020487500354647636
1757088333360268800,9.941268798828125,0.32615000009536743,1.0825375318527222,0.018149999901652336
1757088333369821400,9.950821533203126,0.4054875075817108,1.2303500175476074,0.008249999955296516
1757088333379374300,9.960374267578125,0.5422999858856201,1.288925051689148,0.04001250118017197
1757088333388927000,9.969927001953126,0.5655375123023987,1.4368749856948853,0.10119999945163727
1757088333398480000,9.97947998046875,0.4250124990940094,1.4722124338150024,0.13420000672340393
1757088333408033000,9.989032958984374,0.1891999989748001,1.517449975013733,0.1451999992132187
1757088333417585700,9.998585693359376,0.035337500274181366,1.4294500350952148,0.23182499408721924
1757088333427138600,10.008138671875,0.14767499268054962,0.7942000031471252,0.4908750057220459
1757088333446244400,10.027244384765625,0.05609999969601631,0.4581499993801117,0.779212474822998
1757088333455797000,10.036796875,-0.020899999886751175,0.7391999959945679,0.8695499897003174
1757088333465350100,10.04635009765625,-0.1527625024318695,1.5552624464035034,0.9550749659538269
1757088333474903000,10.055903076171875,-0.12223749607801437,2.1881749629974365,0.9477875232696533
1757088333484455700,10.06545556640625,-0.08813749998807907,2.5815625190734863,0.8317375183105469
1757088333494008600,10.075008544921875,-0.055137500166893005,3.148474931716919,0.8720250129699707
1757088333503561500,10.0845615234375,-0.04166249930858612,3.3488125801086426,0.9332125186920166
1757088333513114400,10.0941142578125,-0.10271249711513519,3.153287410736084,0.9685499668121338
1757088333522667000,10.1036669921875,-0.2994749844074249,2.657325029373169,1.1578874588012695
1757088333532220000,10.113219970703126,-0.3152875006198883,1.3451625108718872,1.374174952507019
1757088333541772800,10.122772705078125,-0.35557499527931213,0.5351499915122986,1.652750015258789
1757088333551325700,10.13232568359375,-0.3287625014781952,0.590149998664856,1.8420875072479248
1757088333560878300,10.14187841796875,-0.23594999313354492,0.8430125117301941,2.0033750534057617
1757088333570431500,10.151431396484375,-0.1662375032901764,1.4148750305175781,2.0583748817443848
1757088333579984600,10.160984619140624,-0.10395000129938126,1.6775000095367432,1.950850009918213
1757088333589537000,10.170537109375,-0.045375000685453415,1.5736874341964722,1.8078500032424927
1757088333599090200,10.180090087890624,-0.042899999767541885,1.809362530708313,1.7223249673843384
1757088333608642800,10.189642822265625,0.1868624985218048,2.1074624061584473,1.7517499923706055
1757088333618195700,10.19919580078125,0.35420000553131104,2.4605624675750732,1.7528499364852905
1757088333627748600,10.20874853515625,0.3102000057697296,2.4154624938964844,1.7797999382019043
1757088333637301500,10.218301513671875,0.20514999330043793,1.638450026512146,1.9093250036239624
1757088333646854100,10.227854248046874,0.1036750003695488,0.8577250242233276,1.9703749418258667
1757088333656407000,10.237406982421875,0.025575000792741776,0.6389625072479248,1.915374994277954
1757088333665960000,10.2469599609375,-0.057475000619888306,0.64267498254776,1.7517499923706055
1757088333675512800,10.256512939453126,-0.14176249504089355,0.5754374861717224,1.7247999906539917
1757088333685065700,10.266065673828125,-0.26276248693466187,0.4923875033855438,1.6344624757766724
1757088333694618600,10.27561865234375,-0.3104749917984009,0.5938624739646912,1.3876500129699707
1757088333704171500,10.285171630859375,-0.22495000064373016,0.7477250099182129,1.0515999794006348
1757088333713724400,10.294724365234375,-0.018424998968839645,0.8112499713897705,0.8414999842643738
1757088333723277300,10.30427734375,0.2626250088214874,0.8406749963760376,0.7059249877929688
1757088333732830200,10.313830322265625,0.4665375053882599,0.7404375076293945,0.5714499950408936
1757088333742383000,10.323383056640624,0.4690124988555908,0.5511000156402588,0.4175874888896942
1757088333751935700,10.332935791015625,0.2699125111103058,0.8222500085830688,0.24406249821186066
1757088333761488600,10.342488525390625,0.16843749582767487,0.7734375,0.0034374999813735485
1757088333771041500,10.35204150390625,0.1256749927997589,0.4142875075340271,-0.1896124929189682
1757088333780594400,10.361594482421875,0.05609999969601631,0.22481249272823334,-0.37290000915527344
1757088333790147000,10.37114697265625,0.010862499475479126,0.0037124999798834324,-0.4694249927997589
1757088333799700200,10.3807001953125,0.04262499883770943,-0.0976250022649765,-0.4754749834537506
1757088333809253000,10.390253173828125,0.04881250113248825,-0.2149125039577484,-0.4632374942302704
1757088333818805800,10.3998056640625,0.02914999984204769,-0.3151499927043915,-0.4278999865055084
1757088333828358700,10.409358642578125,-0.01966249942779541,-0.44343748688697815,-0.42294999957084656
1757088333837911600,10.41891162109375,-0.04895000159740448,-0.5277249813079834,-0.45100000500679016
1757088333847464400,10.42846435546875,-0.042899999767541885,-0.547249972820282,-0.550000011920929
1757088333857017300,10.438017333984375,-0.08813749998807907,-0.37248748540878296,-0.6978124976158142
1757088333866570200,10.4475703125,-0.1344749927520752,-0.25519999861717224,-0.7808625102043152
1757088333876123000,10.457122802734375,-0.2102375030517578,-0.19167499244213104,-0.7710999846458435
1757088333885675800,10.46667578125,-0.23828749358654022,-0.15262499451637268,-0.6917625069618225
1757088333895228700,10.476228759765625,-0.1882375031709671,-0.16733749210834503,-0.5524749755859375
1757088333904781600,10.485781494140625,-0.12966249883174896,-0.36643749475479126,-0.41690000891685486
1757088333914334200,10.495334228515626,-0.06971249729394913,-0.18933749198913574,-0.3386625051498413
1757088333923887000,10.50488720703125,-0.0147124994546175,0.04895000159740448,-0.31790000200271606
1757088333933440000,10.51443994140625,0.035337500274181366,-0.11481250077486038,-0.20308749377727509
1757088333942993000,10.523992919921875,-0.012374999932944775,0.1381874978542328,-0.17489999532699585
1757088333952546000,10.533546142578125,-0.05142499879002571,0.2872374951839447,-0.07356250286102295
1757088333962098400,10.543098388671876,-0.042899999767541885,-0.037812501192092896,-0.006324999965727329
1757088333971651300,10.5526513671875,-0.07095000147819519,-0.07562500238418579,-0.0625625029206276
1757088333981204500,10.56220458984375,-0.09418749809265137,0.10642500221729279,-0.07727500051259995
1757088333990757000,10.571757080078125,-0.062424998730421066,0.04647500067949295,0.04372499883174896
1757088334000309800,10.581309814453125,-0.008662499487400055,-0.24543750286102295,0.08167500048875809
1757088334009862700,10.590862548828126,-0.05637500062584877,-0.32862499356269836,-0.02956249937415123
1757088334019415800,10.600415771484375,-0.10271249711513519,-0.37248748540878296,0.013199999928474426
1757088334028968400,10.609968505859374,-0.14176249504089355,-0.39214998483657837,0.07301250100135803
1757088334038521300,10.619521240234375,-0.15895000100135803,-0.4666749835014343,0.10353749990463257
1757088334048074200,10.62907421875,-0.14547500014305115,-0.5374875068664551,0.13901250064373016
1757088334057627100,10.638627197265626,-0.09171249717473984,-0.5057250261306763,0.21601249277591705
1757088334067180000,10.648179931640625,-0.05142499879002571,-0.4544374942779541,0.2330625057220459
1757088334076733000,10.65773291015625,-0.04413750022649765,-0.3969624936580658,0.21353749930858612
1757088334086285800,10.667285888671875,-0.10642500221729279,-0.3529624938964844,0.2087250053882599
1757088334095838500,10.67683837890625,-0.18095000088214874,-0.1648624986410141,0.2087250053882599
1757088334105391400,10.686391357421876,-0.1882375031709671,-0.13186250627040863,0.2782999873161316
1757088334114944300,10.6959443359375,-0.18342499434947968,-0.020624998956918716,0.24901250004768372
1757088334124497200,10.7054970703125,-0.14176249504089355,0.10518749803304672,0.15853749215602875
1757088334134049800,10.7150498046875,-0.07590000331401825,0.25423750281333923,0.08043749630451202
1757088334143602700,10.724602783203125,-0.008662499487400055,0.38128748536109924,0.03272499889135361
1757088334153155600,10.734155517578126,0.059812501072883606,0.45704999566078186,-0.01251249946653843
1757088334162708500,10.74370849609375,0.10257499665021896,0.48881250619888306,-0.043037500232458115
1757088334172261000,10.75326123046875,0.12209999561309814,0.4545750021934509,-0.0906125009059906
1757088334181814300,10.762814208984375,0.1354375034570694,0.38362500071525574,-0.15908749401569366
1757088334191367200,10.7723671875,0.12333749979734421,0.3507624864578247,-0.20061250030994415
1757088334200920000,10.781920166015626,0.07315000146627426,0.3385249972343445,-0.272662490606308
1757088334210473000,10.791472900390625,0.007287499960511923,0.2712875008583069,-0.3862375020980835
1757088334220025900,10.80102587890625,-0.08195000141859055,0.11976250261068344,-0.4620000123977661
1757088334229578500,10.81057861328125,-0.14918750524520874,0.06847500056028366,-0.5157625079154968
1757088334239131400,10.82013134765625,-0.13199999928474426,0.45938751101493835,-0.593999981880188
1757088334248684300,10.829684326171876,-0.050187498331069946,0.3763374984264374,-0.5487625002861023
1757088334258237200,10.8392373046875,-0.11247500032186508,0.23471249639987946,-0.6404749751091003
1757088334267789800,10.848789794921874,-0.1467124968767166,0.0672374963760376,-0.6807624697685242
1757088334277342700,10.8583427734375,-0.36781248450279236,-0.26138749718666077,-0.729574978351593
1757088334286895600,10.8678955078125,-0.4680500030517578,-0.4507249891757965,-0.7210500240325928
1757088334296448500,10.877448486328126,-0.5193374752998352,-0.5631999969482422,-0.7833374738693237
1757088334306001200,10.887001220703125,-0.507099986076355,-0.5191999673843384,-0.8443874716758728
1757088334315554300,10.89655419921875,-0.4545750021934509,-0.24791249632835388,-0.9103875160217285
1757088334325107000,10.90610693359375,-0.4460499882698059,-0.12333749979734421,-0.7760499715805054
1757088334334660000,10.91566015625,-0.4375250041484833,-0.18314999341964722,-0.6294749975204468
1757088334344212700,10.925212646484376,-0.3568125069141388,-0.3957250118255615,-0.5059999823570251
1757088334353765600,10.934765625,-0.2162874937057495,-0.5619624853134155,-0.4094749987125397
1757088334363318500,10.944318603515624,-0.10766249895095825,-0.6352499723434448,-0.3361875116825104
1757088334372871400,10.953871337890625,-0.06613750010728836,-0.7768750190734863,-0.328900009393692
1757088334382424300,10.96342431640625,-0.28228750824928284,-1.0847375392913818,-0.45100000500679016
1757088334391977000,10.97297705078125,-0.7796249985694885,-1.9229375123977661,-0.5659499764442444
1757088334401529900,10.98252978515625,-0.5095750093460083,-1.3340250253677368,-0.29218751192092896
1757088334411082800,10.992082763671876,-0.08689999580383301,-0.7512999773025513,-0.26042500138282776
1757088334420635600,11.0016357421875,0.013337500393390656,-0.44948750734329224,-0.22261250019073486
1757088334430188300,11.011188232421874,0.07438749819993973,-0.2186249941587448,-0.03203750029206276
1757088334449294000,11.030294189453125,0.09638749808073044,-0.5522000193595886,0.3381125032901764
1757088334458847200,11.03984716796875,0.07809999585151672,-0.8013499975204468,0.3357749879360199
1757088334468399900,11.04939990234375,0.10862500220537186,-0.5680124759674072,0.34306249022483826
1757088334477953000,11.058953125,0.1746249943971634,-0.2503874897956848,0.2722499966621399
1757088334487505700,11.068505615234375,0.21367499232292175,-0.07081250101327896,0.11343749612569809
1757088334497058600,11.07805859375,0.19415000081062317,-0.05486249923706055,-0.01732499897480011
1757088334506611500,11.087611572265626,0.14038750529289246,-0.1746249943971634,-0.06984999775886536
1757088334516164000,11.0971640625,0.12691250443458557,-0.2320999950170517,-0.0845625028014183
1757088334525717000,11.106717041015624,0.17338749766349792,-0.2564375102519989,-0.07837499678134918
1757088334535270000,11.116269775390625,0.2283875048160553,-0.20514999330043793,-0.038087498396635056
1757088334544822800,11.12582275390625,0.2686749994754791,-0.05362499877810478,0.029012499377131462
1757088334554375700,11.135375732421876,0.28943750262260437,0.10876250267028809,0.06572499871253967
1757088334563928300,11.14492822265625,0.2601499855518341,0.24199999868869781,0.1732500046491623
1757088334573481200,11.154481201171874,0.202674999833107,0.32999998331069946,0.28929999470710754
1757088334583034000,11.1640341796875,0.1746249943971634,0.2773374915122986,0.4175874888896942
1757088334592587000,11.1735869140625,0.17338749766349792,0.29081249237060547,0.551925003528595
1757088334602140000,11.183139892578126,0.19538749754428864,0.19676250219345093,0.735212504863739
1757088334611692800,11.19269287109375,0.2662000060081482,0.3433375060558319,0.8782125115394592
1757088334621245700,11.20224560546875,0.32615000009536743,0.6561499834060669,0.9917874932289124
1757088334630798300,11.21179833984375,0.32120001316070557,0.8307750225067139,0.9832624793052673
1757088334640351200,11.221351318359375,0.40796250104904175,0.9420124888420105,0.8867374658584595
1757088334649904400,11.230904296875,0.47753748297691345,1.1118249893188477,0.9527375102043152
1757088334659457000,11.24045703125,0.4702500104904175,1.4159749746322632,1.1103124618530273
1757088334669010000,11.250010009765624,0.5130124688148499,1.5052125453948975,1.2703624963760376
1757088334678562800,11.259562744140625,0.6815875172615051,1.3391125202178955,1.4206500053405762
1757088334688115700,11.26911572265625,0.7512999773025513,1.185112476348877,1.601462483406067
1757088334697668400,11.27866845703125,0.6840624809265137,1.1643500328063965,1.9545625448226929
1757088334707221200,11.28822119140625,0.582587480545044,0.7954375147819519,2.093712568283081
1757088334716774100,11.297774169921874,0.5325375199317932,0.4801499843597412,2.423574924468994
1757088334726327000,11.3073271484375,0.4959625005722046,-0.07933750003576279,2.5946249961853027
1757088334735880000,11.3168798828125,0.35667499899864197,-0.7866374850273132,2.8694875240325928
1757088334745432600,11.3264326171875,0.037812501192092896,-1.6248375177383423,3.2641124725341797
1757088334754985500,11.3359853515625,-0.47052499651908875,-1.892412543296814,3.415637493133545
1757088334764538400,11.345538330078124,-0.7282000184059143,-2.73294997215271,3.458400011062622
1757088334774091300,11.35509130859375,-0.90048748254776,-2.677949905395508,3.6111624240875244
1757088334783644000,11.364643798828125,-0.7489625215530396,-2.4286625385284424,3.650212526321411
1757088334793196800,11.37419677734375,-0.05871250107884407,-1.2887874841690063,3.6892623901367188
1757088334802749700,11.383749755859375,0.4567750096321106,-0.23691250383853912,4.032599925994873
1757088334812302800,11.393302734375,0.896637499332428,0.6402000188827515,3.97760009765625
1757088334821855500,11.40285546875,1.1336874961853027,1.1508749723434448,3.839550018310547
1757088334831408400,11.412408447265625,1.198449969291687,1.2388750314712524,3.5708749294281006
1757088334840961300,11.421961181640626,1.1617374420166016,0.9310125112533569,3.2445874214172363
1757088334850514200,11.43151416015625,0.979687511920929,0.8247249722480774,2.974674940109253
1757088334860067000,11.441067138671874,0.7195374965667725,0.8735374808311462,2.715625047683716
1757088334869619700,11.45061962890625,0.3737249970436096,0.9652500152587891,2.4810500144958496
1757088334879172600,11.460172607421875,0.03657500073313713,0.9505375027656555,2.174424886703491
1757088334888725500,11.4697255859375,-0.21271249651908875,0.9762499928474426,1.8653249740600586
1757088334898278400,11.4792783203125,-0.3983374834060669,1.1338249444961548,1.5904624462127686
1757088334907831300,11.488831298828124,-0.491287499666214,1.4099249839782715,1.3594624996185303
1757088334917384000,11.498384033203125,-0.5083374977111816,1.8473124504089355,1.124887466430664
1757088334926936800,11.507936767578125,-0.5535749793052673,2.3384625911712646,0.9112125039100647
1757088334936489700,11.51748974609375,-0.5425750017166138,2.5840375423431396,0.7584499716758728
1757088334946042600,11.527042724609375,-0.4179999828338623,2.7306125164031982,0.6496874690055847
1757088334955595500,11.536595458984374,-0.19923749566078186,3.0384750366210938,0.5861625075340271
1757088334965148400,11.5461484375,0.057337500154972076,3.2132375240325928,0.5714499950408936
1757088334974701300,11.555701416015625,-0.020899999886751175,3.574862480163574,0.5201625227928162
1757088334984254200,11.565254150390626,-0.6733375191688538,3.828962564468384,0.08167500048875809
1757088334993806800,11.574806884765625,-1.6567374467849731,3.5967249870300293,-0.6087124943733215
1757088335003359700,11.58435986328125,-2.454512596130371,3.4330999851226807,-1.1401499509811401
1757088335012912600,11.59391259765625,-3.0214250087738037,3.632200002670288,-1.3160125017166138
1757088335022465500,11.603465576171875,-3.4330999851226807,4.116062641143799,-1.2329624891281128
1757088335032018400,11.613018310546876,-3.6761999130249023,4.667025089263916,-1.0582000017166138
1757088335041571000,11.622571044921875,-3.7556750774383545,5.078700065612793,-0.8701000213623047
1757088335051124000,11.6321240234375,-3.6542000770568848,4.98960018157959,-0.7785249948501587
1757088335060676900,11.6416767578125,-3.4611499309539795,4.580262660980225,-0.6892874836921692
1757088335070229800,11.651229736328125,-3.3341000080108643,4.07687520980835,-0.6012874841690063
1757088335079782400,11.660782470703126,-3.287762403488159,3.573625087738037,-0.4877125024795532
1757088335089335300,11.670335205078125,-3.3427624702453613,3.302337408065796,-0.41071251034736633
1757088335098888200,11.67988818359375,-3.463624954223633,3.288862466812134,-0.4254249930381775
1757088335108441000,11.689441162109375,-3.574862480163574,3.358574867248535,-0.46818751096725464
1757088335117994000,11.698993896484374,-3.7177250385284424,3.632200002670288,-0.4987125098705292
1757088335127547000,11.708546875,-3.9059624671936035,3.986537456512451,-0.49018749594688416
1757088335137099800,11.718099853515625,-4.102587699890137,4.294400215148926,-0.5072374939918518
1757088335146652700,11.727652587890624,-4.234587669372559,4.403162479400635,-0.5622375011444092
1757088335156205600,11.73720556640625,-4.268825054168701,4.498449802398682,-0.5890499949455261
1757088335165758200,11.74675830078125,-4.229637622833252,4.455687522888184,-0.5402374863624573
1757088335175311000,11.75631103515625,-4.141775131225586,4.444687366485596,-0.4620000123977661
1757088335184864000,11.765864013671875,-4.023250102996826,4.316400051116943,-0.39723750948905945
