time,seconds_elapsed,z,y,x
1757088323516042200,0.097042236328125,4.462050437927246,-2.943000078201294,7.849050521850586
1757088323525595100,0.10659521484375,4.551000118255615,-3.3480000495910645,8.377950668334961
1757088323544700700,0.12570068359375,4.639050006866455,-2.5909500122070312,8.3899507522583
1757088323554253600,0.135253662109375,4.06695032119751,-2.55495023727417,8.119050025939941
1757088323563806500,0.144806396484375,3.5839502811431885,-2.962050199508667,8.074049949645996
1757088323573359400,0.154359375,3.2890501022338867,-3.5440502166748047,8.332050323486328
1757088323582912300,0.163912353515625,3.3229501247406006,-3.681000232696533,8.361000061035156
1757088323592465200,0.173465087890625,3.5929501056671143,-3.7140002250671387,8.518950462341309
1757088323602018000,0.18301806640625,4.036050319671631,-3.6949501037597656,8.881050109863281
1757088323611571000,0.192571044921875,4.275000095367432,-3.6640501022338867,9.124950408935547
1757088323621123600,0.20212353515625,4.326000213623047,-3.891000270843506,9.582000732421875
1757088323630676500,0.211676513671875,4.600950241088867,-3.8749501705169678,9.782999992370605
1757088323640229400,0.2212294921875,4.531949996948242,-4.018050193786621,9.996000289916992
1757088323649782300,0.2307822265625,4.2370500564575195,-3.9850502014160156,9.433950424194336
1757088323659335200,0.240335205078125,3.9190502166748047,-3.991950273513794,8.89995002746582
1757088323668887800,0.2498876953125,3.643050193786621,-3.8389501571655273,8.689050674438477
1757088323678440700,0.259440673828125,3.378000259399414,-3.8359501361846924,8.47800064086914
1757088323687993600,0.26899365234375,3.295950174331665,-4.23900032043457,8.542950630187988
1757088323697546500,0.27854638671875,3.1600501537323,-4.969050407409668,8.962050437927246
1757088323707099400,0.288099365234375,3.007050037384033,-5.239050388336182,8.815950393676758
1757088323716652300,0.29765234375,3.2700002193450928,-5.112000465393066,7.726950168609619
1757088323726205000,0.307204833984375,3.330000162124634,-5.328000068664551,7.1419501304626465
1757088323735757800,0.3167578125,3.246000051498413,-5.323050022125244,6.883950233459473
1757088323745310700,0.326310791015625,2.6620500087738037,-6.277950286865234,8.089950561523438
1757088323754863600,0.335863525390625,2.3430001735687256,-6.934050559997559,8.586000442504883
1757088323764416500,0.34541650390625,2.4559500217437744,-6.979950428009033,8.284049987792969
1757088323773969400,0.354969482421875,2.302950143814087,-6.8580002784729,7.669050216674805
1757088323783522000,0.36452197265625,2.197050094604492,-6.985050201416016,6.98205041885376
1757088323793075200,0.3740751953125,1.5220500230789185,-7.582950592041016,6.996000289916992
1757088323802628000,0.383628173828125,0.19095000624656677,-7.945050239562988,7.774050235748291
1757088323812181000,0.393180908203125,-0.8590500354766846,-8.385000228881836,8.361000061035156
1757088323821734000,0.40273388671875,-1.4530500173568726,-8.457000732421875,8.067000389099121
1757088323831286800,0.412286865234375,-1.7910001277923584,-8.014050483703613,8.268000602722168
1757088323840839700,0.421839599609375,-2.233950138092041,-7.369950294494629,9.273000717163086
1757088323850392300,0.431392333984375,-2.6770501136779785,-7.003950119018555,10.573050498962402
1757088323859945500,0.440945556640625,-3.2220001220703125,-7.224000453948975,11.9239501953125
1757088323869498000,0.450498046875,-3.2509500980377197,-6.6660003662109375,11.431050300598145
1757088323879051000,0.460051025390625,-2.5540502071380615,-6.183000087738037,10.348050117492676
1757088323888604000,0.46960400390625,-2.3080501556396484,-6.007950305938721,9.960000038146973
1757088323898156800,0.47915673828125,-2.101950168609619,-6.0319504737854,9.630000114440918
1757088323907709700,0.488709716796875,-1.5610500574111938,-5.9070000648498535,8.976000785827637
1757088323917262600,0.4982626953125,-0.9000000357627869,-5.518950462341309,8.542950630187988
1757088323926815500,0.5078154296875,-0.8089500665664673,-5.212950229644775,8.590950012207031
1757088323936368400,0.517368408203125,-1.0800000429153442,-5.211000442504883,8.473950386047363
1757088323945921300,0.52692138671875,-1.360050082206726,-5.424000263214111,7.723950386047363
1757088323955474200,0.53647412109375,-1.3120501041412354,-5.485950469970703,6.7260003089904785
1757088323965027000,0.546027099609375,-0.7830000519752502,-5.548050403594971,6.136950492858887
1757088323974579700,0.555579833984375,-0.6490500569343567,-5.527050495147705,5.57895040512085
1757088323984132600,0.565132568359375,-0.9570000171661377,-5.517000198364258,5.433000087738037
1757088323993685500,0.574685546875,-0.7129500508308411,-5.445000171661377,5.890050411224365
1757088324003238400,0.58423828125,-0.43095001578330994,-5.449950218200684,6.276000499725342
1757088324012791600,0.59379150390625,-0.4330500066280365,-5.539050102233887,6.7950005531311035
1757088324022344200,0.60334423828125,-1.7479500770568848,-5.658000469207764,6.7950005531311035
1757088324031897000,0.61289697265625,-9.145950317382812,-6.355050086975098,5.902050495147705
1757088324041450000,0.622449951171875,-11.064000129699707,-5.8090500831604,5.050050258636475
1757088324051002600,0.632002685546875,-5.511000156402588,-5.320950031280518,6.58905029296875
1757088324060555800,0.6415556640625,0.7459500432014465,-5.304000377655029,8.035050392150879
1757088324070108700,0.651108642578125,3.1879501342773438,-5.773050308227539,8.089950561523438
1757088324079661300,0.660661376953125,0.43695002794265747,-7.093050479888916,6.69195032119751
1757088324089214500,0.67021435546875,-2.0179500579833984,-8.230050086975098,4.573050022125244
1757088324098767000,0.67976708984375,-0.25095000863075256,-8.839950561523438,4.087049961090088
1757088324108320000,0.689320068359375,2.242950201034546,-9.063000679016113,4.894050121307373
1757088324117873000,0.698872802734375,3.337050199508667,-9.372000694274902,5.517000198364258
1757088324127425800,0.70842578125,2.299950122833252,-9.622950553894043,5.773050308227539
1757088324136978700,0.717978759765625,2.1540000438690186,-10.521000862121582,5.043000221252441
1757088324146531600,0.727531494140625,0.6510000228881836,-10.03695011138916,6.304050445556641
1757088324156084200,0.737084228515625,0.15495000779628754,-10.132950782775879,7.2960004806518555
1757088324165637400,0.746637451171875,0.23400001227855682,-9.360000610351562,8.056950569152832
1757088324175190000,0.75618994140625,-0.32505002617836,-8.694000244140625,8.193000793457031
1757088324184743200,0.7657431640625,-0.9480000734329224,-8.689949989318848,6.877050399780273
1757088324194295800,0.7752958984375,-0.29205000400543213,-8.361000061035156,6.199050426483154
1757088324203848700,0.7848486328125,-2.4850502014160156,-6.444000244140625,6.288000106811523
1757088324213401600,0.794401611328125,-2.064000129699707,-5.4280500411987305,6.019050121307373
1757088324222954500,0.80395458984375,1.8499500751495361,-6.151950359344482,5.653050422668457
1757088324232507400,0.81350732421875,1.117050051689148,-6.4170002937316895,5.719950199127197
1757088324242060300,0.823060302734375,0.5140500068664551,-7.002000331878662,5.457000255584717
1757088324251613200,0.83261328125,1.2280501127243042,-7.5259504318237305,5.241000175476074
1757088324261166000,0.842166015625,1.6560001373291016,-8.080950736999512,4.89900016784668
1757088324270719000,0.851718994140625,1.5289500951766968,-8.527050018310547,4.767000198364258
1757088324280272000,0.86127197265625,0.6340500116348267,-8.44005012512207,5.031000137329102
1757088324289824800,0.87082470703125,-0.3679500222206116,-8.43600082397461,6.40500020980835
1757088324299377400,0.88037744140625,-0.51705002784729,-8.970000267028809,7.779000282287598
1757088324308930600,0.8899306640625,0.742050051689148,-9.886950492858887,7.063050270080566
1757088324318483500,0.8994833984375,0.2550000250339508,-10.971000671386719,5.233950138092041
1757088324328036000,0.9090361328125,-0.13395000994205475,-12.187950134277344,5.502000331878662
1757088324337589200,0.91858935546875,-0.7710000276565552,-12.714000701904297,6.199050426483154
1757088324347142000,0.928141845703125,-1.8190500736236572,-12.064950942993164,5.836950302124023
1757088324356694800,0.93769482421875,-1.3090500831604004,-10.758000373840332,6.039000511169434
1757088324366247700,0.94724755859375,-1.0049999952316284,-9.994050025939941,6.817050457000732
1757088324375800600,0.956800537109375,-0.5740500092506409,-9.255000114440918,7.078050136566162
1757088324385353200,0.966353271484375,-0.4210500121116638,-8.317950248718262,6.874050140380859
1757088324394906000,0.975906005859375,-0.34200000762939453,-7.324950218200684,6.928950309753418
1757088324404459000,0.985458984375,-0.4740000367164612,-6.877050399780273,6.877050399780273
1757088324414012200,0.99501220703125,0.05700000375509262,-6.598950386047363,6.175050258636475
1757088324423564800,1.004564697265625,0.5550000071525574,-6.633000373840332,5.446950435638428
1757088324433118000,1.014117919921875,0.9760500192642212,-6.6060004234313965,5.203050136566162
1757088324442670800,1.0236708984375,1.1290500164031982,-6.091950416564941,5.409000396728516
1757088324452223500,1.033223388671875,1.333050012588501,-5.725050449371338,5.47605037689209
1757088324461776400,1.0427763671875,0.6820500493049622,-5.701050281524658,5.725050449371338
1757088324471329300,1.052329345703125,-0.32505002617836,-5.503050327301025,6.124950408935547
1757088324480882200,1.061882080078125,-0.004950000438839197,-5.91195011138916,5.3710503578186035
1757088324490435000,1.07143505859375,0.9019500613212585,-6.112950325012207,5.599950313568115
1757088324499988000,1.080988037109375,-0.13395000994205475,-5.797050476074219,5.691000461578369
1757088324509540600,1.09054052734375,-1.432050108909607,-6.573000431060791,6.403050422668457
1757088324519093500,1.100093505859375,-1.218000054359436,-7.546950340270996,6.6250505447387695
1757088324528646400,1.109646484375,-2.3170502185821533,-7.344000339508057,5.287050247192383
1757088324538199300,1.11919921875,0.8160000443458557,-7.501950263977051,4.597050189971924
1757088324547752200,1.128752197265625,1.977000117301941,-8.565000534057617,6.249000072479248
1757088324557305000,1.13830517578125,2.479950189590454,-8.71095085144043,7.276050567626953
1757088324566858000,1.14785791015625,1.807050108909607,-7.866000175476074,6.952950477600098
1757088324576411000,1.157410888671875,1.0530000925064087,-6.990000247955322,6.015000343322754
1757088324585963800,1.1669638671875,1.4380500316619873,-7.408950328826904,6.867000102996826
1757088324595516700,1.1765166015625,2.230950117111206,-8.449950218200684,7.320000171661377
1757088324605069600,1.186069580078125,1.9870500564575195,-8.563050270080566,5.928000450134277
1757088324614622500,1.19562255859375,1.0579500198364258,-8.338050842285156,4.650000095367432
1757088324624175000,1.205175048828125,0.6190500259399414,-8.752050399780273,4.260000228881836
1757088324633728000,1.21472802734375,0.19095000624656677,-8.776050567626953,3.6850502490997314
1757088324643281000,1.224281005859375,-0.18405000865459442,-8.179950714111328,2.611950159072876
1757088324652833800,1.233833740234375,-0.21495001018047333,-8.023950576782227,2.6290500164031982
1757088324662386700,1.24338671875,-0.39705002307891846,-8.167950630187988,3.1249501705169678
1757088324671939600,1.252939697265625,-1.1269500255584717,-7.863000392913818,3.139050245285034
1757088324681492200,1.2624921875,-1.8889501094818115,-7.698000431060791,2.9790000915527344
1757088324691045400,1.27204541015625,-2.638050079345703,-8.244000434875488,2.7370500564575195
1757088324700598500,1.2815986328125,-3.0480000972747803,-7.308000564575195,2.2129499912261963
1757088324710151200,1.291151123046875,-2.6740500926971436,-7.606950283050537,0.5700000524520874
1757088324719704000,1.3007041015625,-2.0560500621795654,-8.484000205993652,-0.3460500240325928
1757088324729257000,1.310257080078125,-2.064000129699707,-9.47700023651123,-0.3910500109195709
1757088324738809900,1.319809814453125,-1.6210501194000244,-10.176000595092773,-0.15405000746250153
1757088324748362500,1.329362548828125,-0.5719500184059143,-8.079000473022461,1.7070001363754272
1757088324757915400,1.338915283203125,0.23895001411437988,-6.871950149536133,2.470950126647949
1757088324767468300,1.34846826171875,0,-6.453000068664551,1.8130500316619873
1757088324777021200,1.358021240234375,-1.1710500717163086,-6.006000518798828,1.4080500602722168
1757088324786574000,1.367573974609375,-1.7760001420974731,-5.433000087738037,0.8670000433921814
1757088324796127000,1.377126953125,-0.6990000605583191,-4.926000118255615,0.6559500098228455
1757088324805679900,1.386679931640625,0.9259500503540039,-5.124000072479248,0.45795002579689026
1757088324815232800,1.396232666015625,2.2669501304626465,-4.878000259399414,0.687000036239624
1757088324824785700,1.40578564453125,2.8410000801086426,-4.99500036239624,0.8290500640869141
1757088324834338600,1.415338623046875,2.041949987411499,-5.068950176239014,0.5560500025749207
1757088324843891500,1.424891357421875,0.25095000863075256,-4.878000259399414,1.0800000429153442
1757088324853444000,1.434444091796875,2.5470001697540283,-9.604050636291504,2.9640002250671387
1757088324862997000,1.4439970703125,1.6920000314712524,-17.848051071166992,0.9120000600814819
1757088324872550000,1.4535498046875,-2.7340500354766846,-29.320951461791992,0.11295000463724136
1757088324882102800,1.463102783203125,-3.9240002632141113,-40.09800338745117,1.489050030708313
1757088324891655700,1.47265576171875,-2.1760501861572266,-37.26795196533203,-8.254050254821777
1757088324901208600,1.48220849609375,2.9509501457214355,-29.007001876831055,-15.103950500488281
1757088324910761500,1.491761474609375,4.201050281524658,-20.242050170898438,-11.194050788879395
1757088324920314000,1.501314208984375,1.9870500564575195,-14.256000518798828,-6.243000507354736
1757088324929867300,1.5108671875,-1.2160500288009644,-10.150050163269043,-2.6610000133514404
1757088324939420200,1.520420166015625,-7.513050556182861,-6.763950347900391,-0.1469999998807907
1757088324948972800,1.529972900390625,-9.05505084991455,-4.689000129699707,-0.6600000262260437
1757088324958526000,1.53952587890625,-4.815000057220459,-3.871950149536133,-2.5699501037597656
1757088324968078800,1.549078857421875,1.2420001029968262,-3.4560000896453857,-3.700050115585327
1757088324977631700,1.5586318359375,4.254000186920166,-4.273950099945068,-3.8560502529144287
1757088324987184400,1.568184326171875,1.6560001373291016,-6.709050178527832,-3.183000087738037
1757088324996737300,1.5777373046875,-0.7870500087738037,-8.63700008392334,-2.704050064086914
1757088325006290200,1.587290283203125,-1.714050054550171,-10.107000350952148,-2.857950210571289
1757088325015843000,1.596843017578125,-1.6330500841140747,-11.196000099182129,-3.24495005607605
1757088325025396000,1.60639599609375,-0.9979500770568848,-11.72295093536377,-3.4150502681732178
1757088325034948900,1.615948974609375,-0.43095001578330994,-11.566950798034668,-3.1710002422332764
1757088325044501500,1.62550146484375,-0.226950004696846,-10.705050468444824,-2.605950117111206
1757088325054054400,1.635054443359375,-0.23205001652240753,-10.018050193786621,-2.4120001792907715
1757088325063607300,1.644607177734375,-0.14805001020431519,-9.51300048828125,-2.4720001220703125
1757088325073160200,1.65416015625,0.0019500000635161996,-9.103950500488281,-2.470050096511841
1757088325082713000,1.663713134765625,0.1570500135421753,-8.878950119018555,-2.4649500846862793
1757088325092266000,1.673265869140625,0.3270000219345093,-9.018000602722168,-2.608950138092041
1757088325101819000,1.68281884765625,0.40905001759529114,-9.397950172424316,-2.76705002784729
1757088325111371800,1.692371826171875,0.33705002069473267,-9.654000282287598,-2.7810001373291016
1757088325120924700,1.701924560546875,0.21705001592636108,-9.822000503540039,-2.6610000133514404
1757088325130477600,1.7114775390625,0.12105000764131546,-9.870000839233398,-2.556000232696533
1757088325140030500,1.721030517578125,0.1189500093460083,-9.83595085144043,-2.5249500274658203
1757088325149583000,1.7305830078125,0.18405000865459442,-9.742950439453125,-2.5390501022338867
1757088325159136000,1.740135986328125,0.21195000410079956,-9.688050270080566,-2.625000238418579
1757088325168689000,1.74968896484375,0.1789500117301941,-9.586950302124023,-2.7880501747131348
1757088325178241800,1.75924169921875,0.030000001192092896,-9.472050666809082,-2.908050060272217
1757088325187794700,1.768794677734375,-0.16500000655651093,-9.367050170898438,-2.994000196456909
1757088325197347600,1.77834765625,-0.3130500018596649,-9.340950012207031,-3.0799500942230225
1757088325206900500,1.787900390625,-0.43800002336502075,-9.393000602722168,-3.142050266265869
1757088325216453400,1.797453369140625,-0.5910000205039978,-9.5110502243042,-3.15405011177063
1757088325226006300,1.80700634765625,-0.7800000309944153,-9.601950645446777,-3.1020002365112305
1757088325235559000,1.816558837890625,-0.8280000686645508,-9.678000450134277,-3.0349502563476562
1757088325245112000,1.826112060546875,-0.7159500122070312,-9.688050270080566,-2.9220001697540283
1757088325254665000,1.8356650390625,-0.6130500435829163,-9.64995002746582,-2.805000066757202
1757088325264217900,1.8452177734375,-0.5410500168800354,-9.580050468444824,-2.7280502319335938
1757088325273770500,1.8547705078125,-0.48600003123283386,-9.517950057983398,-2.7589502334594727
1757088325283323400,1.864323486328125,-0.4140000343322754,-9.475050926208496,-2.817000150680542
1757088325292876300,1.873876220703125,-0.34005001187324524,-9.460050582885742,-2.896050214767456
1757088325311982000,1.892982177734375,-0.22200001776218414,-9.535050392150879,-2.889000177383423
1757088325321534700,1.90253466796875,-0.16995000839233398,-9.601950645446777,-2.8339500427246094
1757088325331087600,1.912087646484375,-0.09300000220537186,-9.652050018310547,-2.785950183868408
1757088325340640800,1.921640869140625,-0.028050001710653305,-9.654000282287598,-2.746950149536133
1757088325350193400,1.931193359375,0.030000001192092896,-9.637950897216797,-2.7280502319335938
1757088325359746300,1.940746337890625,0.05205000191926956,-9.574950218200684,-2.707050085067749
1757088325369299500,1.950299560546875,0.030000001192092896,-9.553950309753418,-2.7120001316070557
1757088325378852400,1.959852294921875,-0.013950000517070293,-9.56100082397461,-2.7589502334594727
1757088325388405000,1.969405029296875,-0.06705000251531601,-9.574950218200684,-2.8120501041412354
1757088325397958000,1.9789580078125,-0.12195000797510147,-9.586950302124023,-2.854950189590454
1757088325407510800,1.9885107421875,-0.20595000684261322,-9.592050552368164,-2.854950189590454
1757088325417063700,1.998063720703125,-0.3040500283241272,-9.613950729370117,-2.836050033569336
1757088325426616600,2.007616455078125,-0.37605002522468567,-9.585000038146973,-2.7880501747131348
1757088325436169200,2.017169189453125,-0.44700002670288086,-9.53895092010498,-2.7139501571655273
1757088325445722000,2.02672216796875,-0.45705002546310425,-9.505950927734375,-2.6760001182556152
1757088325455275300,2.036275146484375,-0.4330500066280365,-9.520050048828125,-2.6490001678466797
1757088325464828200,2.045828125,-0.37800002098083496,-9.597000122070312,-2.6520001888275146
1757088325474380800,2.055380859375,-0.3469500243663788,-9.628050804138184,-2.6610000133514404
1757088325483933700,2.06493359375,-0.30900001525878906,-9.688050270080566,-2.707050085067749
1757088325493486600,2.074486572265625,-0.28200000524520874,-9.694950103759766,-2.7310500144958496
1757088325503039500,2.08403955078125,-0.25095000863075256,-9.666000366210938,-2.7690000534057617
1757088325512592400,2.09359228515625,-0.1980000138282776,-9.604050636291504,-2.7690000534057617
1757088325522145300,2.103145263671875,-0.15105000138282776,-9.559050559997559,-2.7499501705169678
1757088325531698200,2.1126982421875,-0.11505000293254852,-9.504000663757324,-2.7430500984191895
1757088325541251000,2.1222509765625,-0.09495000541210175,-9.496050834655762,-2.7310500144958496
1757088325550804000,2.131803955078125,-0.11205000430345535,-9.53895092010498,-2.704050064086914
1757088325560356600,2.141356689453125,-0.1270500123500824,-9.618000030517578,-2.6920502185821533
1757088325569909800,2.15090966796875,-0.11205000430345535,-9.658950805664062,-2.6899502277374268
1757088325579462400,2.16046240234375,-0.12405000627040863,-9.702000617980957,-2.688000202178955
1757088325589015300,2.170015380859375,-0.1360500007867813,-9.6739501953125,-2.6680500507354736
1757088325598568200,2.179568115234375,-0.14595000445842743,-9.640050888061523,-2.6730000972747803
1757088325608120800,2.189120849609375,-0.16695000231266022,-9.645000457763672,-2.6490001678466797
1757088325617674000,2.198674072265625,-0.17505000531673431,-9.592050552368164,-2.6730000972747803
1757088325627227000,2.208226806640625,-0.20100000500679016,-9.580050468444824,-2.7019500732421875
1757088325636779800,2.21777978515625,-0.226950004696846,-9.57300090789795,-2.7090001106262207
1757088325646332700,2.227332763671875,-0.24900001287460327,-9.604050636291504,-2.745000123977661
1757088325655885600,2.236885498046875,-0.2560500204563141,-9.613950729370117,-2.7880501747131348
1757088325665438500,2.2464384765625,-0.25095000863075256,-9.646950721740723,-2.8030500411987305
1757088325674991000,2.2559912109375,-0.23895001411437988,-9.640050888061523,-2.7810001373291016
1757088325684544000,2.2655439453125,-0.21495001018047333,-9.618000030517578,-2.7739500999450684
1757088325694097000,2.275096923828125,-0.19395001232624054,-9.618000030517578,-2.7589502334594727
1757088325703649800,2.28464990234375,-0.1960500031709671,-9.571050643920898,-2.6920502185821533
1757088325713202700,2.29420263671875,-0.10695000737905502,-9.532050132751465,-2.620950222015381
1757088325722755600,2.303755615234375,-0.1189500093460083,-9.541950225830078,-2.6010000705718994
1757088325732308500,2.31330859375,-0.1360500007867813,-9.583050727844238,-2.659050226211548
1757088325741861400,2.322861328125,-0.12405000627040863,-9.604050636291504,-2.6830501556396484
1757088325751414300,2.332414306640625,-0.10695000737905502,-9.625950813293457,-2.734950065612793
1757088325760967200,2.34196728515625,-0.10695000737905502,-9.642000198364258,-2.7709500789642334
1757088325770520000,2.35152001953125,-0.11700000613927841,-9.616050720214844,-2.794950246810913
1757088325780073000,2.361072998046875,-0.10500000417232513,-9.618000030517578,-2.829000234603882
1757088325789625600,2.37062548828125,-0.06705000251531601,-9.604050636291504,-2.836050033569336
1757088325799178500,2.380178466796875,-0.016050001606345177,-9.568050384521484,-2.836050033569336
1757088325808731400,2.3897314453125,0.006000000052154064,-9.556050300598145,-2.809950113296509
1757088325818284300,2.3992841796875,0.004050000105053186,-9.553950309753418,-2.7810001373291016
1757088325827837200,2.408837158203125,-0.025950001552700996,-9.592050552368164,-2.7619500160217285
1757088325837390000,2.41839013671875,-0.07605000585317612,-9.604050636291504,-2.757000207901001
1757088325846943000,2.42794287109375,-0.1270500123500824,-9.622950553894043,-2.7709500789642334
1757088325856495900,2.437495849609375,-0.15495000779628754,-9.646950721740723,-2.76705002784729
1757088325866048500,2.447048583984375,-0.16695000231266022,-9.666000366210938,-2.797950029373169
1757088325875601400,2.456601318359375,-0.18405000865459442,-9.628050804138184,-2.817000150680542
1757088325885154600,2.466154541015625,-0.16995000839233398,-9.604050636291504,-2.8380000591278076
1757088325894707500,2.47570751953125,-0.16695000231266022,-9.57300090789795,-2.836050033569336
1757088325904260000,2.485260009765625,-0.1860000044107437,-9.562950134277344,-2.8530001640319824
1757088325913813000,2.49481298828125,-0.18195000290870667,-9.589950561523438,-2.9029500484466553
1757088325923366000,2.504365966796875,-0.1579500138759613,-9.604050636291504,-2.9170501232147217
1757088325932918800,2.513918701171875,-0.11505000293254852,-9.637950897216797,-2.886000156402588
1757088325942471700,2.5234716796875,-0.07905000448226929,-9.621000289916992,-2.8789501190185547
1757088325952024600,2.533024658203125,-0.0690000057220459,-9.613950729370117,-2.824050188064575
1757088325961577200,2.5425771484375,-0.08400000631809235,-9.597000122070312,-2.7880501747131348
1757088325971130000,2.552130126953125,-0.09300000220537186,-9.607050895690918,-2.7499501705169678
1757088325980683000,2.56168310546875,-0.10305000841617584,-9.589950561523438,-2.7430500984191895
1757088325990236200,2.571236083984375,-0.08100000023841858,-9.580050468444824,-2.7330000400543213
1757088325999788800,2.580788818359375,-0.08100000023841858,-9.57300090789795,-2.7400500774383545
1757088326009341700,2.590341796875,-0.07605000585317612,-9.585000038146973,-2.7520501613616943
1757088326018894800,2.599894775390625,-0.07200000435113907,-9.574950218200684,-2.785950183868408
1757088326028447500,2.609447509765625,-0.0690000057220459,-9.568050384521484,-2.814000129699707
1757088326038000400,2.61900048828125,-0.0690000057220459,-9.550950050354004,-2.797950029373169
1757088326047553300,2.62855322265625,-0.06000000238418579,-9.547050476074219,-2.7709500789642334
1757088326057106200,2.638106201171875,-0.07200000435113907,-9.556050300598145,-2.725950241088867
1757088326066659000,2.6476591796875,-0.08595000207424164,-9.586950302124023,-2.677950143814087
1757088326076212000,2.6572119140625,-0.11700000613927841,-9.607050895690918,-2.665950059890747
1757088326085764600,2.6667646484375,-0.11505000293254852,-9.630000114440918,-2.677950143814087
1757088326095317500,2.6763173828125,-0.15300001204013824,-9.618000030517578,-2.700000047683716
1757088326104870400,2.685870361328125,-0.1789500117301941,-9.625950813293457,-2.704050064086914
1757088326114423300,2.69542333984375,-0.18900001049041748,-9.597000122070312,-2.725950241088867
1757088326123976200,2.70497607421875,-0.22995001077651978,-9.609000205993652,-2.7210001945495605
1757088326133528800,2.71452880859375,-0.23205001652240753,-9.616050720214844,-2.7229502201080322
1757088326143082000,2.72408203125,-0.2370000183582306,-9.618000030517578,-2.7310500144958496
1757088326152635000,2.733634765625,-0.22005000710487366,-9.628050804138184,-2.7310500144958496
1757088326162187800,2.743187744140625,-0.20295001566410065,-9.613950729370117,-2.7280502319335938
1757088326171740700,2.75274072265625,-0.1789500117301941,-9.621000289916992,-2.7499501705169678
1757088326181293600,2.76229345703125,-0.16500000655651093,-9.601950645446777,-2.7400500774383545
1757088326190846500,2.771846435546875,-0.14295001327991486,-9.601950645446777,-2.7550501823425293
1757088326200399000,2.781399169921875,-0.14295001327991486,-9.583050727844238,-2.7499501705169678
1757088326209952300,2.7909521484375,-0.13395000994205475,-9.577950477600098,-2.757000207901001
1757088326219505000,2.8005048828125,-0.10695000737905502,-9.57300090789795,-2.7690000534057617
1757088326229057800,2.810057861328125,-0.11505000293254852,-9.586950302124023,-2.7709500789642334
1757088326238610700,2.819610595703125,-0.11505000293254852,-9.580050468444824,-2.7930002212524414
1757088326248163600,2.82916357421875,-0.12195000797510147,-9.607050895690918,-2.8410000801086426
1757088326257716200,2.83871630859375,-0.11505000293254852,-9.621000289916992,-2.877000093460083
1757088326267269000,2.84826904296875,-0.10695000737905502,-9.601950645446777,-2.857950210571289
1757088326276822000,2.857822021484375,-0.09795000404119492,-9.559050559997559,-2.814000129699707
1757088326286375000,2.867375,-0.08595000207424164,-9.550950050354004,-2.7709500789642334
1757088326295928000,2.876927978515625,-0.04500000178813934,-9.559050559997559,-2.757000207901001
1757088326305480700,2.886480712890625,-0.05205000191926956,-9.586950302124023,-2.746950149536133
1757088326315033600,2.89603369140625,-0.07605000585317612,-9.580050468444824,-2.737950086593628
1757088326324586500,2.90558642578125,-0.08400000631809235,-9.598950386047363,-2.7550501823425293
1757088326334139400,2.915139404296875,-0.0880500078201294,-9.597000122070312,-2.7709500789642334
1757088326343692300,2.9246923828125,-0.0880500078201294,-9.592050552368164,-2.8030500411987305
1757088326353245200,2.9342451171875,-0.07605000585317612,-9.580050468444824,-2.8030500411987305
1757088326362797800,2.9437978515625,-0.10005000233650208,-9.57300090789795,-2.809950113296509
1757088326372350700,2.953350830078125,-0.14295001327991486,-9.580050468444824,-2.805000066757202
1757088326381903600,2.962903564453125,-0.1579500138759613,-9.585000038146973,-2.7880501747131348
1757088326391456500,2.97245654296875,-0.1290000081062317,-9.607050895690918,-2.7690000534057617
1757088326401009400,2.982009521484375,-0.12195000797510147,-9.616050720214844,-2.7400500774383545
1757088326410562300,2.991562255859375,-0.1099500060081482,-9.628050804138184,-2.7120001316070557
1757088326420115500,3.001115478515625,-0.11205000430345535,-9.634950637817383,-2.7090001106262207
1757088326429668000,3.010668212890625,-0.10005000233650208,-9.633000373840332,-2.6899502277374268
1757088326439221000,3.020220947265625,-0.09300000220537186,-9.630000114440918,-2.7139501571655273
1757088326448774000,3.02977392578125,-0.08400000631809235,-9.637950897216797,-2.7229502201080322
1757088326458326800,3.039326904296875,-0.08595000207424164,-9.622950553894043,-2.725950241088867
1757088326467879700,3.048879638671875,-0.09105000644922256,-9.621000289916992,-2.7499501705169678
1757088326477432300,3.058432373046875,-0.10305000841617584,-9.622950553894043,-2.7709500789642334
1757088326486985200,3.067985107421875,-0.11205000430345535,-9.598950386047363,-2.7930002212524414
1757088326496538000,3.0775380859375,-0.1099500060081482,-9.562950134277344,-2.806950092315674
1757088326506091000,3.087091064453125,-0.10695000737905502,-9.568050384521484,-2.829000234603882
1757088326515644000,3.096643798828125,-0.12195000797510147,-9.583050727844238,-2.8189501762390137
1757088326525196800,3.10619677734375,-0.12195000797510147,-9.589950561523438,-2.797950029373169
1757088326534749400,3.11574951171875,-0.1270500123500824,-9.610950469970703,-2.76705002784729
1757088326544302600,3.125302490234375,-0.13095000386238098,-9.598950386047363,-2.7619500160217285
1757088326553855500,3.13485546875,-0.1270500123500824,-9.633000373840332,-2.7520501613616943
1757088326563408400,3.144408447265625,-0.11505000293254852,-9.622950553894043,-2.7520501613616943
1757088326572961300,3.153961181640625,-0.10500000417232513,-9.625950813293457,-2.7550501823425293
1757088326582514200,3.16351416015625,-0.11205000430345535,-9.628050804138184,-2.745000123977661
1757088326592066800,3.17306689453125,-0.10695000737905502,-9.628050804138184,-2.745000123977661
1757088326601619700,3.18261962890625,-0.12405000627040863,-9.610950469970703,-2.737950086593628
1757088326611172600,3.192172607421875,-0.1189500093460083,-9.613950729370117,-2.7139501571655273
1757088326620725500,3.2017255859375,-0.12405000627040863,-9.616050720214844,-2.688000202178955
1757088326630278700,3.211278564453125,-0.1360500007867813,-9.645000457763672,-2.6760001182556152
1757088326639831300,3.220831298828125,-0.14805001020431519,-9.664050102233887,-2.665950059890747
1757088326649384200,3.23038427734375,-0.17205001413822174,-9.702000617980957,-2.644050121307373
1757088326658937000,3.23993701171875,-0.16695000231266022,-9.730950355529785,-2.6520001888275146
1757088326668490000,3.249489990234375,-0.1789500117301941,-9.738000869750977,-2.620950222015381
1757088326678042600,3.259042724609375,-0.18195000290870667,-9.730950355529785,-2.580000162124634
1757088326687595800,3.268595703125,-0.1980000138282776,-9.688050270080566,-2.53695011138916
1757088326697148700,3.278148681640625,-0.20595000684261322,-9.68595027923584,-2.4600000381469727
1757088326706701600,3.28770166015625,-0.22005000710487366,-9.697050094604492,-2.4460501670837402
1757088326716254200,3.297254150390625,-0.23205001652240753,-9.693000793457031,-2.4940500259399414
1757088326725807000,3.30680712890625,-0.18195000290870667,-9.693000793457031,-2.518050193786621
1757088326735360000,3.316360107421875,-0.16305001080036163,-9.702000617980957,-2.5030500888824463
1757088326744913000,3.325912841796875,-0.13095000386238098,-9.700050354003906,-2.5420501232147217
1757088326754465500,3.335465576171875,-0.09495000541210175,-9.690000534057617,-2.556000232696533
1757088326764018400,3.345018310546875,-0.08595000207424164,-9.690000534057617,-2.5510501861572266
1757088326773571300,3.3545712890625,-0.08100000023841858,-9.6739501953125,-2.527050018310547
1757088326783124200,3.364124267578125,-0.09300000220537186,-9.66195011138916,-2.530050039291382
1757088326792677000,3.373677001953125,-0.10500000417232513,-9.613950729370117,-2.5200002193450928
1757088326802230000,3.38322998046875,-0.12405000627040863,-9.592050552368164,-2.5510501861572266
1757088326811782700,3.39278271484375,-0.1360500007867813,-9.574950218200684,-2.5920000076293945
1757088326821335800,3.402335693359375,-0.16995000839233398,-9.64995002746582,-2.647050142288208
1757088326830888700,3.411888671875,-0.17205001413822174,-9.645000457763672,-2.6800501346588135
1757088326840441600,3.421441650390625,-0.16695000231266022,-9.604050636291504,-2.677950143814087
1757088326849994500,3.430994384765625,-0.15105000138282776,-9.630000114440918,-2.7400500774383545
1757088326859547400,3.44054736328125,-0.12195000797510147,-9.633000373840332,-2.8030500411987305
1757088326869100000,3.45010009765625,-0.08400000631809235,-9.646950721740723,-2.877000093460083
1757088326878653000,3.45965283203125,-0.06195000186562538,-9.690000534057617,-2.983950138092041
1757088326888205800,3.469205810546875,-0.06405000388622284,-9.717000007629395,-3.025050163269043
1757088326897758700,3.4787587890625,-0.06195000186562538,-9.726000785827637,-3.0990002155303955
1757088326907311600,3.4883115234375,-0.0499500036239624,-9.670950889587402,-3.2380502223968506
1757088326916864500,3.497864501953125,-0.05700000375509262,-9.664050102233887,-3.372000217437744
1757088326926417200,3.507417236328125,-0.06195000186562538,-9.616050720214844,-3.436950206756592
1757088326935970300,3.51697021484375,-0.05505000427365303,-9.532050132751465,-3.5020501613616943
1757088326945523200,3.526523193359375,-0.009000000543892384,-9.46500015258789,-3.5350501537323
1757088326955075800,3.536075927734375,0.010950000956654549,-9.46500015258789,-3.4900500774383545
1757088326964629000,3.54562890625,0.009000000543892384,-9.48705005645752,-3.4300501346588135
1757088326974182000,3.555181884765625,0.013950000517070293,-9.516000747680664,-3.3030002117156982
1757088326983734500,3.564734619140625,0.018000001087784767,-9.523050308227539,-3.157050132751465
1757088326993287400,3.574287353515625,0.04500000178813934,-9.49905014038086,-3.037050247192383
1757088327002840300,3.58384033203125,0.07800000160932541,-9.493950843811035,-2.874000072479248
1757088327012393200,3.593393310546875,0.10200000554323196,-9.535050392150879,-2.7619500160217285
1757088327021946000,3.602946044921875,0.09495000541210175,-9.57300090789795,-2.647050142288208
1757088327031498800,3.612498779296875,0.05700000375509262,-9.618000030517578,-2.5510501861572266
1757088327041051600,3.6220517578125,-0.0070500001311302185,-9.68595027923584,-2.4940500259399414
1757088327050604800,3.631604736328125,-0.07200000435113907,-9.77400016784668,-2.451000213623047
1757088327060157400,3.641157470703125,-0.15495000779628754,-9.814950942993164,-2.4240000247955322
1757088327069710300,3.65071044921875,-0.1980000138282776,-9.742950439453125,-2.4000000953674316
1757088327079263000,3.660262939453125,-0.1960500031709671,-9.586950302124023,-2.296950101852417
1757088327088816000,3.669816162109375,-0.1770000010728836,-9.393000602722168,-2.209050178527832
1757088327098369000,3.679369140625,-0.16500000655651093,-9.26205062866211,-2.16795015335083
1757088327107922000,3.688921875,-0.18900001049041748,-9.313950538635254,-2.190000057220459
1757088327117474600,3.698474609375,-0.2560500204563141,-9.517950057983398,-2.2759501934051514
1757088327127027700,3.70802783203125,-0.33000001311302185,-9.676050186157227,-2.326050043106079
1757088327136580600,3.71758056640625,-0.3850500285625458,-9.772050857543945,-2.350050210952759
1757088327146133200,3.72713330078125,-0.4210500121116638,-9.81195068359375,-2.386050224304199
1757088327155686100,3.73668603515625,-0.4930500090122223,-9.765000343322754,-2.4120001792907715
1757088327165239000,3.746239013671875,-0.5860500335693359,-9.682950019836426,-2.439000129699707
1757088327174792000,3.7557919921875,-0.6919500231742859,-9.630000114440918,-2.458050012588501
1757088327184344800,3.7653447265625,-0.7830000519752502,-9.607050895690918,-2.5129501819610596
1757088327193897700,3.774897705078125,-0.8659500479698181,-9.625950813293457,-2.5819501876831055
1757088327203450400,3.784450439453125,-0.9139500260353088,-9.657000541687012,-2.647050142288208
1757088327213003300,3.794003173828125,-0.9570000171661377,-9.682950019836426,-2.6899502277374268
1757088327222556400,3.803556396484375,-0.9739500284194946,-9.637950897216797,-2.719050168991089
1757088327232109000,3.813109130859375,-0.9330000281333923,-9.57300090789795,-2.734950065612793
1757088327241662200,3.822662109375,-0.8350500464439392,-9.523050308227539,-2.7589502334594727
1757088327251214800,3.83221484375,-0.7200000286102295,-9.532050132751465,-2.77905011177063
1757088327260767700,3.841767822265625,-0.6010500192642212,-9.577950477600098,-2.806950092315674
1757088327270320600,3.851320556640625,-0.4930500090122223,-9.666000366210938,-2.8380000591278076
1757088327279873500,3.86087353515625,-0.4159500300884247,-9.757050514221191,-2.8500001430511475
1757088327289426400,3.870426513671875,-0.39000001549720764,-9.829050064086914,-2.8219501972198486
1757088327298979300,3.879979248046875,-0.39195001125335693,-9.832050323486328,-2.7739500999450684
1757088327308532200,3.8895322265625,-0.4039500057697296,-9.814950942993164,-2.734950065612793
1757088327318084900,3.8990849609375,-0.42600002884864807,-9.80505084991455,-2.6640000343322754
1757088327327637800,3.9086376953125,-0.4429500102996826,-9.834000587463379,-2.656050205230713
1757088327337190700,3.918190673828125,-0.51705002784729,-9.853050231933594,-2.7589502334594727
1757088327346743600,3.92774365234375,-0.6010500192642212,-9.906000137329102,-2.934000253677368
1757088327356296400,3.93729638671875,-0.742050051689148,-9.870000839233398,-3.0400500297546387
1757088327365849300,3.946849365234375,-0.853950023651123,-9.846000671386719,-3.0949501991271973
1757088327375402200,3.95640234375,-0.9450000524520874,-9.862950325012207,-3.1020002365112305
1757088327384955100,3.965955078125,-0.9910500645637512,-9.838950157165527,-3.058950185775757
1757088327394508000,3.975508056640625,-0.9529500603675842,-9.778950691223145,-3.013050079345703
1757088327404061000,3.98506103515625,-0.7950000166893005,-9.705000877380371,-2.8530001640319824
1757088327413613800,3.99461376953125,-0.5359500050544739,-9.625950813293457,-2.707050085067749
1757088327423166500,4.00416650390625,-0.10005000233650208,-9.547050476074219,-2.6520001888275146
1757088327432719400,4.01371923828125,0.37995001673698425,-9.5110502243042,-2.6010000705718994
1757088327442272300,4.023272216796875,0.6859500408172607,-9.429000854492188,-2.5699501037597656
1757088327451825200,4.0328251953125,0.8110500574111938,-9.37695026397705,-2.587050199508667
1757088327461378000,4.0423779296875,0.7800000309944153,-9.427050590515137,-2.575050115585327
1757088327470931000,4.051930908203125,0.7320000529289246,-9.528000831604004,-2.5630500316619873
1757088327480483600,4.061483642578125,0.742050051689148,-9.550950050354004,-2.5540502071380615
1757088327490036700,4.07103662109375,0.7920000553131104,-9.53895092010498,-2.48895001411438
1757088327499589400,4.08058935546875,0.7249500155448914,-9.550950050354004,-2.3809502124786377
1757088327509142300,4.090142333984375,0.49695003032684326,-9.45300006866455,-2.4120001792907715
1757088327518695400,4.0996953125,0.3270000219345093,-9.20205020904541,-2.439000129699707
1757088327528248000,4.109248046875,0.22905001044273376,-8.898000717163086,-2.4310500621795654
1757088327537801000,4.118801025390625,0.04200000315904617,-8.563050270080566,-2.545950174331665
1757088327547353900,4.128353759765625,-0.1960500031709671,-8.254050254821777,-2.814000129699707
1757088327556906800,4.13790673828125,-0.4020000100135803,-8.023950576782227,-3.20205020904541
1757088327566459600,4.147459716796875,-0.5820000171661377,-7.795950412750244,-3.6310501098632812
1757088327576012500,4.157012451171875,-0.7129500508308411,-7.657950401306152,-3.9760501384735107
1757088327585565200,4.166565185546875,-0.8779500126838684,-7.641000270843506,-4.11899995803833
1757088327595118000,4.1761181640625,-1.218000054359436,-7.765050411224365,-4.206000328063965
1757088327604671200,4.185671142578125,-1.9560000896453857,-8.011950492858887,-4.182000160217285
1757088327614224100,4.19522412109375,-2.751000165939331,-8.43600082397461,-4.273050308227539
1757088327623777000,4.204777099609375,-3.8779501914978027,-9.160950660705566,-3.730950117111206
1757088327633329700,4.21432958984375,-3.9379501342773438,-9.20895004272461,-3.145050048828125
1757088327642882600,4.223882568359375,-3.748950242996216,-9.195000648498535,-2.4190502166748047
1757088327652435500,4.233435546875,-3.4930500984191895,-9.276000022888184,-2.098950147628784
1757088327661988400,4.24298828125,-3.2700002193450928,-9.25005054473877,-1.9210500717163086
1757088327671541200,4.252541259765625,-3.5380501747131348,-9.127950668334961,-1.8160500526428223
1757088327681094100,4.26209423828125,-4.1509504318237305,-8.850000381469727,-2.0119500160217285
1757088327690647000,4.27164697265625,-4.579950332641602,-8.613000869750977,-2.127000093460083
1757088327700199700,4.28119970703125,-5.332050323486328,-8.505000114440918,-2.2759501934051514
1757088327709752600,4.290752685546875,-4.80495023727417,-8.155950546264648,-2.247000217437744
1757088327719305500,4.300305419921875,-3.9049501419067383,-7.962000370025635,-2.388000011444092
1757088327728858400,4.3098583984375,-3.238950252532959,-8.365950584411621,-2.436000108718872
1757088327738411300,4.319411376953125,-2.6670000553131104,-8.689949989318848,-2.067000150680542
1757088327747964200,4.328964111328125,-3.1150500774383545,-9.135000228881836,-1.5259500741958618
1757088327757517000,4.33851708984375,-3.7800002098083496,-9.565950393676758,-0.5490000247955322
1757088327767070000,4.348070068359375,-4.954050064086914,-9.595050811767578,0.51705002784729
1757088327776622800,4.357622802734375,-6.538950443267822,-9.77400016784668,0.8449500203132629
1757088327786175700,4.36717578125,-6.744000434875488,-10.023000717163086,0.6130500435829163
1757088327795728400,4.376728271484375,-5.926050186157227,-10.183950424194336,0.7500000596046448
1757088327805281300,4.38628125,-5.2860002517700195,-9.81705093383789,-0.22095000743865967
1757088327814834200,4.395834228515625,-5.278950214385986,-8.955000877380371,-0.8779500126838684
1757088327824387000,4.405386962890625,-5.449050426483154,-7.761000156402588,-1.311000108718872
1757088327833940000,4.41493994140625,-5.623950481414795,-6.97005033493042,-2.1349501609802246
1757088327843492600,4.42449267578125,-5.607000350952148,-6.541950225830078,-3.126000165939331
1757088327853045500,4.43404541015625,-5.077950477600098,-6.075000286102295,-3.2569501399993896
1757088327862598400,4.443598388671875,-5.230950355529785,-5.895000457763672,-2.8620002269744873
1757088327872151300,4.4531513671875,-5.574000358581543,-5.836050510406494,-2.6110501289367676
1757088327881704200,4.4627041015625,-5.566050052642822,-5.778000354766846,-2.5729501247406006
1757088327891256800,4.4722568359375,-5.811000347137451,-5.902950286865234,-2.2489500045776367
1757088327900809700,4.481809814453125,-6.6060004234313965,-6.252000331878662,-1.9210500717163086
1757088327910362600,4.491362548828125,-6.559950351715088,-6.901050090789795,-1.5769500732421875
1757088327919915800,4.500915771484375,-5.95395040512085,-7.381950378417969,-1.371000051498413
1757088327929468700,4.51046875,-6.313050270080566,-7.234050273895264,-1.4140501022338867
1757088327939021600,4.520021484375,-6.418950080871582,-6.922950267791748,-1.2510000467300415
1757088327948574200,4.52957421875,-6.823050498962402,-6.444000244140625,-1.480950117111206
1757088327958127000,4.539127197265625,-7.288050174713135,-6.195000171661377,-1.6819500923156738
1757088327967680000,4.548679931640625,-7.44795036315918,-6.022050380706787,-1.8619500398635864
1757088327977233000,4.55823291015625,-7.350000381469727,-6.111000061035156,-1.609950065612793
1757088327986785800,4.567785888671875,-7.348050117492676,-6.1080002784729,-1.9549500942230225
1757088327996338700,4.577338623046875,-7.207050323486328,-6.094050407409668,-1.4470500946044922
1757088328005891300,4.586891357421875,-7.288050174713135,-5.910000324249268,-1.2390000820159912
1757088328015444200,4.5964443359375,-7.5420002937316895,-5.734950065612793,-1.270050048828125
1757088328024997000,4.6059970703125,-7.879050254821777,-5.7370500564575195,-1.3180500268936157
1757088328034550000,4.615550048828125,-8.131050109863281,-5.6770501136779785,-1.5859500169754028
1757088328044102700,4.6251025390625,-8.06100082397461,-5.6509504318237305,-1.6219500303268433
1757088328053655800,4.63465576171875,-7.897950172424316,-5.4720001220703125,-1.7010000944137573
1757088328063208700,4.644208740234375,-7.824000358581543,-5.151000022888184,-1.6219500303268433
1757088328072761600,4.65376171875,-7.948950290679932,-4.927950382232666,-1.609950065612793
1757088328082314500,4.663314453125,-8.394000053405762,-4.605000019073486,-1.6009501218795776
1757088328091867400,4.672867431640625,-8.344050407409668,-4.440000057220459,-1.612950086593628
1757088328101420300,4.682420166015625,-8.526000022888184,-4.285950183868408,-1.4550000429153442
1757088328110973000,4.691972900390625,-8.683950424194336,-4.063950061798096,-1.3639500141143799
1757088328120526000,4.701526123046875,-8.455950736999512,-3.8550002574920654,-1.3129500150680542
1757088328130078700,4.71107861328125,-8.29800033569336,-3.693000078201294,-0.9450000524520874
1757088328139631600,4.720631591796875,-8.386950492858887,-3.4699501991271973,-0.6930000185966492
1757088328149184500,4.7301845703125,-8.680950164794922,-3.4870500564575195,-0.7030500173568726
1757088328158737200,4.739737060546875,-9.076050758361816,-3.5269501209259033,-0.7699500322341919
1757088328168290000,4.7492900390625,-9.178950309753418,-3.891000270843506,-0.8940000534057617
1757088328177843200,4.75884326171875,-8.988000869750977,-4.123950004577637,-0.9919500350952148
1757088328187395800,4.768395751953125,-8.731950759887695,-4.483050346374512,-0.9040500521659851
1757088328196948700,4.77794873046875,-9.031050682067871,-4.188000202178955,-0.8100000619888306
1757088328206501600,4.787501708984375,-9.217950820922852,-4.000950336456299,-1.0279500484466553
1757088328216054500,4.797054443359375,-9.2989501953125,-4.140000343322754,-1.0090500116348267
1757088328225607400,4.806607421875,-9.115050315856934,-3.9130501747131348,-0.9420000314712524
1757088328235160300,4.816160400390625,-8.980950355529785,-3.6040501594543457,-1.1460000276565552
1757088328244713200,4.825713134765625,-9.258000373840332,-3.361950159072876,-1.2490500211715698
1757088328254266000,4.83526611328125,-9.454950332641602,-3.541950225830078,-1.078950047492981
1757088328263818800,4.84481884765625,-9.473999977111816,-3.5470502376556396,-0.9400500655174255
1757088328273371600,4.85437158203125,-9.481050491333008,-3.403050184249878,-0.909000039100647
1757088328282924500,4.863924560546875,-9.52695083618164,-3.369000196456909,-0.9300000667572021
1757088328292477400,4.8734775390625,-9.495000839233398,-3.3450002670288086,-1.0279500484466553
1757088328302030000,4.883030029296875,-9.475950241088867,-3.30495023727417,-1.240950107574463
1757088328311583000,4.8925830078125,-10.06095027923584,-3.376950263977051,-1.0519500970840454
1757088328321136000,4.90213623046875,-10.099050521850586,-3.4699501991271973,-0.739050030708313
1757088328330688800,4.911688720703125,-10.096050262451172,-3.30495023727417,-0.29805001616477966
1757088328340241700,4.92124169921875,-9.973950386047363,-2.791950225830078,-0.1879500150680542
1757088328349794800,4.930794921875,-10.168050765991211,-2.296950101852417,-0.21405000984668732
1757088328359347500,4.940347412109375,-10.297950744628906,-2.055000066757202,-0.44895002245903015
1757088328368900400,4.949900390625,-10.336050033569336,-2.0689501762390137,-0.2670000195503235
1757088328378453200,4.959453369140625,-10.029000282287598,-2.1220500469207764,0.19200000166893005
1757088328388006100,4.969006103515625,-9.466950416564941,-2.02905011177063,0.30705001950263977
1757088328397559000,4.97855908203125,-9.676950454711914,-1.8370500802993774,0.18000000715255737
1757088328407111700,4.988111572265625,-10.44795036315918,-1.6840500831604004,0.11295000463724136
1757088328416664800,4.997664794921875,-10.609050750732422,-1.8850500583648682,0.6420000195503235
1757088328426217500,5.007217529296875,-9.946050643920898,-1.8870000839233398,0.325950026512146
1757088328435770400,5.016770263671875,-9.190950393676758,-1.4350500106811523,0.3949500322341919
1757088328445323300,5.0263232421875,-9.414000511169434,-1.2430500984191895,0.08400000631809235
1757088328454876200,5.035876220703125,-9.559950828552246,-1.1809500455856323,-0.19305001199245453
1757088328464429000,5.045428955078125,-9.718050003051758,-1.3489500284194946,-0.2569500207901001
1757088328473982000,5.05498193359375,-9.61305046081543,-1.2960000038146973,-0.3079500198364258
1757088328483534800,5.064534912109375,-9.478950500488281,-1.1239500045776367,-0.23595000803470612
1757088328493087700,5.074087646484375,-9.498000144958496,-1.0969500541687012,-0.46800002455711365
1757088328502640400,5.083640380859375,-9.201000213623047,-0.9610500335693359,-0.23595000803470612
1757088328512193500,5.093193603515625,-9.473999977111816,-0.8650500178337097,0.2350500077009201
1757088328521746200,5.10274609375,-10.008000373840332,-1.308000087738037,0.004950000438839197
1757088328531299000,5.112299072265625,-10.468050956726074,-1.168950080871582,0.022050000727176666
1757088328540852000,5.12185205078125,-10.852950096130371,-0.906000018119812,0.08205000311136246
1757088328550404900,5.13140478515625,-10.884000778198242,-0.597000002861023,-0.019950000569224358
1757088328559957800,5.140957763671875,-10.312050819396973,-0.40800002217292786,-0.11595000326633453
1757088328569510400,5.150510498046875,-10.108050346374512,-0.47505003213882446,-0.2569500207901001
1757088328579063300,5.160063232421875,-10.16295051574707,-0.6640500426292419,-0.5809500217437744
1757088328588616200,5.1696162109375,-10.333050727844238,-0.8959500193595886,-0.7150500416755676
1757088328598169000,5.179169189453125,-10.609050750732422,-1.1380500793457031,-0.6640500426292419
1757088328607722000,5.188721923828125,-11.133000373840332,-1.3680000305175781,-0.39900001883506775
1757088328617275000,5.19827490234375,-11.028000831604004,-1.4869500398635864,-0.13305000960826874
1757088328626827800,5.207827880859375,-10.771950721740723,-1.3870500326156616,0.2160000056028366
1757088328636380700,5.217380615234375,-10.531950950622559,-1.144950032234192,0.48600003123283386
1757088328645933600,5.22693359375,-10.195050239562988,-0.9100500345230103,0.505050003528595
1757088328655486500,5.236486572265625,-9.997950553894043,-0.9130500555038452,0.3349500298500061
1757088328665039000,5.2460390625,-10.008000373840332,-0.7720500230789185,0.3040500283241272
1757088328674592000,5.255592041015625,-9.891000747680664,-0.778950035572052,0.49800002574920654
1757088328684145000,5.265144775390625,-9.820950508117676,-0.7090500593185425,0.6660000085830688
1757088328693697800,5.27469775390625,-9.77595043182373,-0.7669500112533569,0.7110000252723694
1757088328703251000,5.2842509765625,-9.780000686645508,-0.817050039768219,0.7450500130653381
1757088328712803800,5.293803955078125,-9.766050338745117,-0.9559500217437744,0.9000000357627869
1757088328722356500,5.3033564453125,-9.768000602722168,-0.999000072479248,1.0230000019073486
1757088328731909400,5.312909423828125,-9.703950881958008,-0.987000048160553,1.1089500188827515
1757088328741462300,5.322462158203125,-9.607950210571289,-0.9220500588417053,1.1089500188827515
1757088328751015000,5.332014892578125,-9.670050621032715,-0.8050500154495239,1.0249500274658203
1757088328760568000,5.341568115234375,-9.646050453186035,-0.6490500569343567,1.0800000429153442
1757088328770120700,5.35112060546875,-9.630000114440918,-0.4990500211715698,1.1850000619888306
1757088328779673600,5.360673583984375,-9.685050010681152,-0.364950031042099,1.1640000343322754
1757088328789226500,5.3702265625,-9.747000694274902,-0.2350500077009201,1.1809500455856323
1757088328798779100,5.379779052734375,-9.760950088500977,-0.1969500035047531,1.1809500455856323
1757088328808332000,5.38933203125,-9.718050003051758,-0.19905000925064087,1.2480000257492065
1757088328817885200,5.39888525390625,-9.685050010681152,-0.10095000267028809,1.360050082206726
1757088328827437800,5.408437744140625,-9.736950874328613,-0.15105000138282776,1.168950080871582
1757088328836990700,5.41799072265625,-9.747000694274902,-0.2950500249862671,1.01295006275177
1757088328846543600,5.427543701171875,-9.76395034790039,-0.4050000309944153,0.9220500588417053
1757088328856096500,5.437096435546875,-9.784950256347656,-0.5179499983787537,0.8689500689506531
1757088328865649400,5.4466494140625,-9.871050834655762,-0.5730000138282776,0.8650500178337097
1757088328875202300,5.456202392578125,-9.919050216674805,-0.6109500527381897,0.843000054359436
1757088328884755200,5.465755126953125,-10.015050888061523,-0.7020000219345093,0.7540500164031982
1757088328894308000,5.47530810546875,-9.979050636291504,-0.7669500112533569,0.6709500551223755
1757088328903861000,5.484861083984375,-9.93600082397461,-0.8580000400543213,0.6079500317573547
1757088328913413600,5.49441357421875,-9.868950843811035,-0.8770500421524048,0.6040500402450562
1757088328922966500,5.503966552734375,-9.772950172424316,-0.9250500202178955,0.6829500198364258
1757088328932519400,5.51351953125,-9.711000442504883,-0.9889500737190247,0.7519500255584717
1757088328942072300,5.523072265625,-9.582000732421875,-1.1069999933242798,0.7740000486373901
1757088328951625000,5.532625,-9.457050323486328,-1.1950500011444092,0.7330500483512878
1757088328961177900,5.542177734375,-9.35205078125,-1.2580500841140747,0.7300500273704529
1757088328970730800,5.551730712890625,-9.483000755310059,-1.2580500841140747,0.7159500122070312
1757088328980283600,5.56128369140625,-9.754050254821777,-1.270050048828125,0.6469500064849854
1757088328989836500,5.57083642578125,-9.87600040435791,-1.1400001049041748,0.5839500427246094
1757088328999389400,5.580389404296875,-9.856950759887695,-0.9850500226020813,0.5080500245094299
1757088329008942000,5.589942138671875,-9.86400032043457,-0.8269500136375427,0.5560500025749207
1757088329018495000,5.599494873046875,-9.879000663757324,-0.7429500222206116,0.5580000281333923
1757088329028048000,5.6090478515625,-9.86400032043457,-0.673050045967102,0.48600003123283386
1757088329037600800,5.618600830078125,-9.847050666809082,-0.6469500064849854,0.48900002241134644
1757088329047153400,5.6281533203125,-9.859050750732422,-0.6019500494003296,0.49605002999305725
1757088329056706600,5.63770654296875,-9.868950843811035,-0.5850000381469727,0.43095001578330994
1757088329066259500,5.647259521484375,-9.87600040435791,-0.8389500379562378,0.283050000667572
1757088329075812000,5.65681201171875,-9.820950508117676,-1.3650000095367432,0.09105000644922256
1757088329085365000,5.666364990234375,-9.619950294494629,-1.6219500303268433,0.38100001215934753
1757088329094918000,5.67591796875,-9.52695083618164,-1.4130001068115234,0.6040500402450562
1757088329104470800,5.685470703125,-9.58905029296875,-1.1239500045776367,0.7230000495910645
1757088329114023700,5.695023681640625,-9.658050537109375,-0.6640500426292419,1.2000000476837158
1757088329123576600,5.70457666015625,-9.390000343322754,-0.24195000529289246,1.4989501237869263
1757088329133129500,5.71412939453125,-9.201000213623047,-0.44805002212524414,1.3030500411987305
1757088329142682000,5.72368212890625,-9.1360502243042,-0.7399500608444214,1.3650000095367432
1757088329152235000,5.733235107421875,-9.357000350952148,-0.8839500546455383,1.0489500761032104
1757088329161788000,5.742787841796875,-9.61500072479248,-0.9540000557899475,0.931950032711029
1757088329171340800,5.7523408203125,-9.843000411987305,-0.9130500555038452,0.9030000567436218
1757088329180893700,5.761893798828125,-9.867000579833984,-0.9630000591278076,0.987000048160553
1757088329190446600,5.771446533203125,-9.795000076293945,-0.9420000314712524,1.0870500802993774
1757088329199999700,5.780999755859375,-9.76395034790039,-0.9850500226020813,1.2690000534057617
1757088329209552400,5.790552490234375,-9.780000686645508,-0.8890500664710999,1.4059500694274902
1757088329219105300,5.800105224609375,-9.661050796508789,-0.7480500340461731,1.492050051689148
1757088329228658200,5.809658203125,-9.598050117492676,-0.5749500393867493,1.4989501237869263
1757088329238211000,5.819211181640625,-9.718050003051758,-0.4339500069618225,1.4100000858306885
1757088329247763700,5.828763671875,-9.735000610351562,-0.3739500045776367,1.3410000801086426
1757088329257316600,5.838316650390625,-9.790050506591797,-0.5010000467300415,1.2880500555038452
1757088329266869500,5.847869384765625,-9.744000434875488,-0.7210500240325928,1.1929500102996826
1757088329276422400,5.85742236328125,-9.62505054473877,-1.1040000915527344,0.9270000457763672
1757088329285975300,5.866975341796875,-9.655950546264648,-1.4440500736236572,0.7930500507354736
1757088329295528000,5.87652783203125,-9.724950790405273,-1.519050121307373,0.8089500665664673
1757088329305081000,5.8860810546875,-9.780000686645508,-1.324950098991394,0.8449500203132629
1757088329314633700,5.8956337890625,-9.700950622558594,-1.0009500980377197,0.8070000410079956
1757088329324186600,5.9051865234375,-9.618000030517578,-0.8820000290870667,0.7540500164031982
1757088329333739500,5.914739501953125,-9.64905071258545,-0.8410500288009644,0.7210500240325928
1757088329343292400,5.92429248046875,-9.673050880432129,-0.9150000214576721,0.5839500427246094
1757088329352845300,5.93384521484375,-9.699000358581543,-0.9850500226020813,0.5269500017166138
1757088329362398200,5.943398193359375,-9.646050453186035,-0.8190000653266907,0.49800002574920654
1757088329371951000,5.952951171875,-9.61305046081543,-0.7720500230789185,0.4650000333786011
1757088329381504000,5.96250390625,-9.646050453186035,-0.7810500264167786,0.48405003547668457
1757088329391056600,5.972056640625,-9.697050094604492,-0.8650500178337097,0.45795002579689026
1757088329400609500,5.981609619140625,-9.675000190734863,-1.0399500131607056,0.25905001163482666
1757088329410162400,5.991162353515625,-9.663000106811523,-1.0950000286102295,0.3469500243663788
1757088329419715300,6.00071533203125,-9.675000190734863,-0.8460000157356262,0.364050030708313
1757088329429268000,6.01026806640625,-9.652950286865234,-0.8029500246047974,0.36705002188682556
1757088329438820900,6.01982080078125,-9.661050796508789,-0.8359500169754028,0.36195001006126404
1757088329448373800,6.029373779296875,-9.742050170898438,-0.9079500436782837,0.40005001425743103
1757088329457926700,6.0389267578125,-9.780000686645508,-1.0230000019073486,0.38805001974105835
1757088329467479600,6.0484794921875,-9.75195026397705,-1.0399500131607056,0.45000001788139343
1757088329477032200,6.0580322265625,-9.711000442504883,-1.0369499921798706,0.5080500245094299
1757088329486585300,6.06758544921875,-9.688950538635254,-1.0330500602722168,0.520050048828125
1757088329496138200,6.07713818359375,-9.691950798034668,-0.9780000448226929,0.547950029373169
1757088329505691100,6.086691162109375,-9.691950798034668,-0.9630000591278076,0.5680500268936157
1757088329515244000,6.096244140625,-9.706050872802734,-0.9660000205039978,0.6130500435829163
1757088329524796700,6.105796630859375,-9.721050262451172,-0.9580500721931458,0.6490500569343567
1757088329534349600,6.115349609375,-9.730050086975098,-0.9580500721931458,0.690000057220459
1757088329543902500,6.12490234375,-9.742050170898438,-0.987000048160553,0.7159500122070312
1757088329553455400,6.134455322265625,-9.742050170898438,-1.0230000019073486,0.7279500365257263
1757088329563008300,6.14400830078125,-9.744000434875488,-1.01295006275177,0.7380000352859497
1757088329572561200,6.15356103515625,-9.76395034790039,-1.0330500602722168,0.7230000495910645
1757088329582113800,6.16311376953125,-9.742050170898438,-1.015950083732605,0.7300500273704529
1757088329591666700,6.172666748046875,-9.715950012207031,-0.973050057888031,0.7399500608444214
1757088329601219600,6.182219482421875,-9.709050178527832,-0.931950032711029,0.7300500273704529
1757088329610772500,6.1917724609375,-9.688950538635254,-0.8700000643730164,0.7780500650405884
1757088329620325400,6.201325439453125,-9.688950538635254,-0.8629500269889832,0.7980000376701355
1757088329629878300,6.210878173828125,-9.691950798034668,-0.8839500546455383,0.8190000653266907
1757088329639431200,6.22043115234375,-9.685050010681152,-0.9010500311851501,0.856950044631958
1757088329648984000,6.229984130859375,-9.709050178527832,-0.9180000424385071,0.8770500421524048
1757088329658537000,6.239536865234375,-9.721050262451172,-0.9100500345230103,0.8500500321388245
1757088329668089600,6.249089599609375,-9.718050003051758,-0.9100500345230103,0.8329500555992126
1757088329677642500,6.258642578125,-9.712950706481934,-0.9420000314712524,0.8380500674247742
1757088329687195400,6.2681953125,-9.700950622558594,-0.8770500421524048,0.8500500321388245
1757088329696748300,6.277748291015625,-9.700950622558594,-0.9030000567436218,0.831000030040741
1757088329706301200,6.28730126953125,-9.687000274658203,-0.9079500436782837,0.8020500540733337
1757088329715853800,6.296853759765625,-9.673050880432129,-0.8460000157356262,0.8190000653266907
1757088329725406700,6.30640673828125,-9.661050796508789,-0.8670000433921814,0.7950000166893005
1757088329734959600,6.315959716796875,-9.667950630187988,-0.8479500412940979,0.8020500540733337
1757088329744512500,6.325512451171875,-9.679950714111328,-0.8479500412940979,0.7860000133514404
1757088329754065400,6.3350654296875,-9.694050788879395,-0.8290500640869141,0.7900500297546387
1757088329763618000,6.3446181640625,-9.718050003051758,-0.8460000157356262,0.7620000243186951
1757088329773171000,6.3541708984375,-9.724950790405273,-0.8100000619888306,0.7710000276565552
1757088329782723800,6.363723876953125,-9.733050346374512,-0.8239500522613525,0.7300500273704529
1757088329792276700,6.37327685546875,-9.718050003051758,-0.8530500531196594,0.7020000219345093
1757088329801830000,6.382829833984375,-9.687000274658203,-0.8550000190734863,0.6970500349998474
1757088329811382800,6.3923828125,-9.682050704956055,-0.8359500169754028,0.7180500626564026
1757088329820935400,6.401935302734375,-9.679950714111328,-0.8290500640869141,0.6799500584602356
1757088329830488300,6.41148828125,-9.667950630187988,-0.843000054359436,0.6850500106811523
1757088329840041200,6.421041259765625,-9.673050880432129,-0.8239500522613525,0.673050045967102
1757088329849594000,6.430593994140625,-9.699000358581543,-0.7909500598907471,0.6949500441551208
1757088329859146800,6.440146728515625,-9.694050788879395,-0.7930500507354736,0.703950047492981
1757088329868699600,6.44969970703125,-9.724950790405273,-0.7980000376701355,0.7230000495910645
1757088329878252500,6.45925244140625,-9.733050346374512,-0.7930500507354736,0.7210500240325928
1757088329887805400,6.468805419921875,-9.744000434875488,-0.7860000133514404,0.7450500130653381
1757088329897358300,6.4783583984375,-9.739950180053711,-0.817050039768219,0.7620000243186951
1757088329906911200,6.4879111328125,-9.736950874328613,-0.8220000267028809,0.7690500617027283
1757088329916464000,6.497464111328125,-9.727950096130371,-0.8290500640869141,0.7570500373840332
1757088329926017000,6.50701708984375,-9.723000526428223,-0.8340000510215759,0.7690500617027283
1757088329935570000,6.51656982421875,-9.699000358581543,-0.8700000643730164,0.7710000276565552
1757088329945122600,6.52612255859375,-9.694050788879395,-0.8580000400543213,0.7980000376701355
1757088329954675500,6.535675537109375,-9.691950798034668,-0.8460000157356262,0.8020500540733337
1757088329964228400,6.545228271484375,-9.687000274658203,-0.8359500169754028,0.8119500279426575
1757088329973781200,6.55478125,-9.694050788879395,-0.8190000653266907,0.8290500640869141
1757088329983334100,6.564334228515625,-9.697050094604492,-0.8220000267028809,0.8380500674247742
1757088329992886800,6.57388671875,-9.709050178527832,-0.831000030040741,0.859950065612793
1757088330002439700,6.583439697265625,-9.718050003051758,-0.8770500421524048,0.8719500303268433
1757088330011992600,6.59299267578125,-9.733050346374512,-0.8890500664710999,0.8620500564575195
1757088330021545500,6.60254541015625,-9.730050086975098,-0.8940000534057617,0.8380500674247742
1757088330031098400,6.612098388671875,-9.712950706481934,-0.8530500531196594,0.8209500312805176
1757088330040651000,6.621651123046875,-9.709050178527832,-0.859950065612793,0.8119500279426575
1757088330050204000,6.631203857421875,-9.700950622558594,-0.859950065612793,0.7879500389099121
1757088330059756800,6.6407568359375,-9.699000358581543,-0.8580000400543213,0.7690500617027283
1757088330069309700,6.650309814453125,-9.700950622558594,-0.8479500412940979,0.7470000386238098
1757088330078862300,6.6598623046875,-9.697050094604492,-0.8460000157356262,0.7330500483512878
1757088330088415700,6.669415771484375,-9.700950622558594,-0.8389500379562378,0.7279500365257263
1757088330097968400,6.678968505859375,-9.697050094604492,-0.8389500379562378,0.7140000462532043
1757088330107521300,6.688521240234375,-9.697050094604492,-0.8410500288009644,0.7090500593185425
1757088330117074200,6.69807421875,-9.688950538635254,-0.8290500640869141,0.7020000219345093
1757088330126627000,6.707626953125,-9.687000274658203,-0.8239500522613525,0.7140000462532043
1757088330136179700,6.7171796875,-9.697050094604492,-0.8389500379562378,0.7069500088691711
1757088330145732600,6.726732666015625,-9.715950012207031,-0.843000054359436,0.7180500626564026
1757088330155285500,6.736285400390625,-9.724950790405273,-0.859950065612793,0.7090500593185425
1757088330164838400,6.74583837890625,-9.730050086975098,-0.8790000677108765,0.7159500122070312
1757088330174391300,6.755391357421875,-9.744000434875488,-0.8820000290870667,0.7159500122070312
1757088330183944000,6.76494384765625,-9.733050346374512,-0.8719500303268433,0.7159500122070312
1757088330193496800,6.774496826171875,-9.711000442504883,-0.8509500622749329,0.7069500088691711
1757088330203049700,6.7840498046875,-9.715950012207031,-0.859950065612793,0.6990000605583191
1757088330212602600,6.7936025390625,-9.688950538635254,-0.8530500531196594,0.7090500593185425
1757088330222155500,6.803155517578125,-9.685050010681152,-0.831000030040741,0.7300500273704529
1757088330231708400,6.81270849609375,-9.694050788879395,-0.8239500522613525,0.7330500483512878
1757088330241261300,6.82226123046875,-9.706050872802734,-0.8239500522613525,0.7590000629425049
1757088330250814000,6.83181396484375,-9.712950706481934,-0.8479500412940979,0.7860000133514404
1757088330260367000,6.8413671875,-9.706050872802734,-0.8479500412940979,0.7980000376701355
1757088330269920000,6.850919921875,-9.697050094604492,-0.8550000190734863,0.8070000410079956
1757088330279472600,6.86047265625,-9.676950454711914,-0.8550000190734863,0.8050500154495239
1757088330289025500,6.870025634765625,-9.673050880432129,-0.8700000643730164,0.7930500507354736
1757088330298578400,6.879578369140625,-9.676950454711914,-0.859950065612793,0.7879500389099121
1757088330308131300,6.88913134765625,-9.688950538635254,-0.8479500412940979,0.7570500373840332
1757088330317684200,6.898684326171875,-9.699000358581543,-0.8530500531196594,0.742050051689148
1757088330327236900,6.90823681640625,-9.724950790405273,-0.843000054359436,0.7330500483512878
1757088330336789800,6.917789794921875,-9.747000694274902,-0.8410500288009644,0.7230000495910645
1757088330346342700,6.9273427734375,-9.75195026397705,-0.8460000157356262,0.742050051689148
1757088330355895600,6.9368955078125,-9.735000610351562,-0.8389500379562378,0.742050051689148
1757088330365448400,6.946448486328125,-9.715950012207031,-0.8460000157356262,0.7279500365257263
1757088330375001300,6.95600146484375,-9.711000442504883,-0.8530500531196594,0.6990000605583191
1757088330384554200,6.96555419921875,-9.691950798034668,-0.8650500178337097,0.7090500593185425
1757088330394107000,6.97510693359375,-9.682050704956055,-0.8550000190734863,0.6970500349998474
1757088330403659800,6.98465966796875,-9.673050880432129,-0.8410500288009644,0.687000036239624
1757088330413213000,6.994212890625,-9.688950538635254,-0.8550000190734863,0.6709500551223755
1757088330422765600,7.003765625,-9.706050872802734,-0.859950065612793,0.6660000085830688
1757088330441871400,7.022871337890625,-9.735000610351562,-0.843000054359436,0.690000057220459
1757088330451424300,7.03242431640625,-9.739950180053711,-0.8550000190734863,0.6780000329017639
1757088330460977200,7.04197705078125,-9.730050086975098,-0.8580000400543213,0.6780000329017639
1757088330470530000,7.051530029296875,-9.735000610351562,-0.8629500269889832,0.6919500231742859
1757088330480083000,7.0610830078125,-9.721050262451172,-0.8700000643730164,0.6919500231742859
1757088330489635600,7.070635498046875,-9.697050094604492,-0.8460000157356262,0.7159500122070312
1757088330499188500,7.0801884765625,-9.673050880432129,-0.8410500288009644,0.7260000109672546
1757088330508741400,7.089741455078125,-9.676950454711914,-0.8410500288009644,0.742050051689148
1757088330518294300,7.099294189453125,-9.670050621032715,-0.843000054359436,0.7570500373840332
1757088330527847200,7.10884716796875,-9.685050010681152,-0.843000054359436,0.7639500498771667
1757088330537400000,7.118400146484375,-9.706050872802734,-0.8550000190734863,0.7780500650405884
1757088330546953000,7.127952880859375,-9.703950881958008,-0.8509500622749329,0.7879500389099121
1757088330556505900,7.137505859375,-9.706050872802734,-0.8530500531196594,0.7690500617027283
1757088330566058500,7.14705859375,-9.718050003051758,-0.8530500531196594,0.7639500498771667
1757088330575611400,7.156611328125,-9.715950012207031,-0.8509500622749329,0.7300500273704529
1757088330585164300,7.166164306640625,-9.712950706481934,-0.8629500269889832,0.7110000252723694
1757088330594717200,7.17571728515625,-9.718050003051758,-0.8580000400543213,0.703950047492981
1757088330604269800,7.185269775390625,-9.723000526428223,-0.8749500513076782,0.6919500231742859
1757088330613823000,7.194822998046875,-9.724950790405273,-0.8790000677108765,0.6829500198364258
1757088330623375600,7.204375732421875,-9.718050003051758,-0.8719500303268433,0.6829500198364258
1757088330632928500,7.213928466796875,-9.709050178527832,-0.843000054359436,0.690000057220459
1757088330642481400,7.2234814453125,-9.694050788879395,-0.8190000653266907,0.703950047492981
1757088330652034600,7.23303466796875,-9.691950798034668,-0.8190000653266907,0.7279500365257263
1757088330661587200,7.242587158203125,-9.682050704956055,-0.831000030040741,0.742050051689148
1757088330671140000,7.25214013671875,-9.673050880432129,-0.859950065612793,0.7470000386238098
1757088330680693000,7.26169287109375,-9.687000274658203,-0.8749500513076782,0.7780500650405884
1757088330690246000,7.271245849609375,-9.703950881958008,-0.8959500193595886,0.7810500264167786
1757088330699798500,7.280798583984375,-9.700950622558594,-0.8890500664710999,0.7860000133514404
1757088330709351400,7.290351318359375,-9.715950012207031,-0.8770500421524048,0.7740000486373901
1757088330718904300,7.299904296875,-9.724950790405273,-0.8890500664710999,0.7660500407218933
1757088330728457200,7.309457275390625,-9.712950706481934,-0.8719500303268433,0.775950014591217
1757088330738010000,7.319010009765625,-9.703950881958008,-0.8530500531196594,0.775950014591217
1757088330747562800,7.328562744140625,-9.687000274658203,-0.8509500622749329,0.7830000519752502
1757088330757115600,7.33811572265625,-9.664950370788574,-0.8509500622749329,0.7930500507354736
1757088330766668500,7.34766845703125,-9.663000106811523,-0.8670000433921814,0.7999500632286072
1757088330776221400,7.357221435546875,-9.643950462341309,-0.8770500421524048,0.7930500507354736
1757088330785774000,7.366774169921875,-9.646050453186035,-0.8629500269889832,0.7660500407218933
1757088330795327000,7.376326904296875,-9.667950630187988,-0.8389500379562378,0.7620000243186951
1757088330804880100,7.385880126953125,-9.700950622558594,-0.7980000376701355,0.7500000596046448
1757088330814433000,7.39543310546875,-9.712950706481934,-0.7960500121116638,0.7620000243186951
1757088330823985700,7.404985595703125,-9.736950874328613,-0.8080500364303589,0.7639500498771667
1757088330833538800,7.414538818359375,-9.736950874328613,-0.8190000653266907,0.7900500297546387
1757088330843091500,7.424091552734375,-9.709050178527832,-0.8190000653266907,0.8050500154495239
1757088330852644400,7.433644287109375,-9.685050010681152,-0.8050500154495239,0.8089500665664673
1757088330862197200,7.443197265625,-9.661050796508789,-0.8100000619888306,0.8050500154495239
1757088330871750100,7.452750244140625,-9.661050796508789,-0.8119500279426575,0.8209500312805176
1757088330881302800,7.462302734375,-9.652950286865234,-0.8220000267028809,0.8239500522613525
1757088330890856000,7.47185595703125,-9.688950538635254,-0.859950065612793,0.8089500665664673
1757088330900408600,7.48140869140625,-9.715950012207031,-0.8790000677108765,0.7879500389099121
1757088330909961500,7.49096142578125,-9.766050338745117,-0.8940000534057617,0.8050500154495239
1757088330919514400,7.500514404296875,-9.78795051574707,-0.9220500588417053,0.8070000410079956
1757088330929067300,7.5100673828125,-9.778050422668457,-0.9340500235557556,0.8070000410079956
1757088330938620200,7.5196201171875,-9.744000434875488,-0.9610500335693359,0.8119500279426575
1757088330948173000,7.529173095703125,-9.724950790405273,-0.9679500460624695,0.814050018787384
1757088330957726000,7.538725830078125,-9.694050788879395,-0.9820500612258911,0.7830000519752502
1757088330967278800,7.54827880859375,-9.694050788879395,-0.9970500469207764,0.7639500498771667
1757088330976831500,7.55783154296875,-9.694050788879395,-1.015950083732605,0.7330500483512878
1757088330986384400,7.56738427734375,-9.723000526428223,-1.0330500602722168,0.690000057220459
1757088330995937300,7.576937255859375,-9.723000526428223,-1.01295006275177,0.6559500098228455
1757088331005490200,7.586490234375,-9.744000434875488,-1.0039499998092651,0.6109500527381897
1757088331015043000,7.59604296875,-9.742050170898438,-0.9660000205039978,0.5530500411987305
1757088331024596000,7.605595947265625,-9.735000610351562,-0.9180000424385071,0.5100000500679016
1757088331034148600,7.615148681640625,-9.721050262451172,-0.8340000510215759,0.4650000333786011
1757088331043701500,7.624701416015625,-9.661050796508789,-0.775950014591217,0.3930000066757202
1757088331053254400,7.63425439453125,-9.586050033569336,-0.7690500617027283,0.37095001339912415
1757088331062807300,7.643807373046875,-9.402000427246094,-0.597000002861023,0.41895002126693726
1757088331072360000,7.65335986328125,-9.529050827026367,-0.36195001006126404,0.3570000231266022
1757088331081913000,7.6629130859375,-10.314000129699707,-1.0249500274658203,0.4240500330924988
1757088331091466000,7.672466064453125,-9.772950172424316,-1.144950032234192,0.6990000605583191
1757088331101018600,7.6820185546875,-9.62505054473877,-0.5730000138282776,0.5410500168800354
1757088331110571800,7.69157177734375,-10.075050354003906,-0.5179499983787537,0.2989500164985657
1757088331120124700,7.701124755859375,-9.804000854492188,-0.8839500546455383,0.4410000145435333
1757088331129677300,7.71067724609375,-9.57705020904541,-0.9130500555038452,0.534000039100647
1757088331139230200,7.720230224609375,-9.574050903320312,-0.7210500240325928,0.4620000123977661
1757088331148783000,7.729783203125,-9.427950859069824,-0.6970500349998474,0.3550500273704529
1757088331158335700,7.739335693359375,-9.450000762939453,-0.6850500106811523,0.3160500228404999
1757088331167889000,7.748888916015625,-9.706050872802734,-0.6520500183105469,0.38100001215934753
1757088331177441500,7.758441650390625,-9.816000938415527,-0.7330500483512878,0.4720500111579895
1757088331186994400,7.767994384765625,-9.808950424194336,-0.7720500230789185,0.5700000524520874
1757088331196547300,7.77754736328125,-9.838050842285156,-0.7720500230789185,0.6300000548362732
1757088331206100200,7.787100341796875,-9.823050498962402,-0.8220000267028809,0.6780000329017639
1757088331215653000,7.796653076171875,-9.75195026397705,-0.8530500531196594,0.7159500122070312
1757088331225205800,7.806205810546875,-9.706050872802734,-0.8700000643730164,0.7690500617027283
1757088331234758700,7.815758544921875,-9.679950714111328,-0.8910000324249268,0.8190000653266907
1757088331244311600,7.8253115234375,-9.667950630187988,-0.9030000567436218,0.8880000710487366
1757088331253864400,7.834864501953125,-9.63900089263916,-0.9439500570297241,0.9529500603675842
1757088331263417300,7.844417236328125,-9.634050369262695,-0.9559500217437744,1.0150500535964966
1757088331272970200,7.85397021484375,-9.646050453186035,-0.973050057888031,1.0750499963760376
1757088331282523100,7.863523193359375,-9.667950630187988,-0.9970500469207764,1.1299500465393066
1757088331292076000,7.873075927734375,-9.670050621032715,-0.9970500469207764,1.152000069618225
1757088331301629000,7.88262890625,-9.711000442504883,-1.0090500116348267,1.1640000343322754
1757088331311181600,7.892181640625,-9.735000610351562,-1.0249500274658203,1.152000069618225
1757088331320734500,7.901734375,-9.733050346374512,-1.0330500602722168,1.1089500188827515
1757088331330287400,7.911287353515625,-9.721050262451172,-1.057050108909607,1.0579500198364258
1757088331339840300,7.92084033203125,-9.711000442504883,-1.0800000429153442,1.0249500274658203
1757088331349393000,7.930392822265625,-9.709050178527832,-1.0609500408172607,1.0060499906539917
1757088331358945800,7.93994580078125,-9.703950881958008,-1.059000015258789,0.999000072479248
1757088331368498700,7.949498779296875,-9.694050788879395,-1.0350000858306885,0.9510000348091125
1757088331378051800,7.9590517578125,-9.703950881958008,-1.0009500980377197,0.9100500345230103
1757088331387604500,7.9686044921875,-9.721050262451172,-0.970050036907196,0.8449500203132629
1757088331397157000,7.9781572265625,-9.727950096130371,-0.9510000348091125,0.8020500540733337
1757088331406710300,7.987710205078125,-9.712950706481934,-0.931950032711029,0.7500000596046448
1757088331416263200,7.99726318359375,-9.706050872802734,-0.9100500345230103,0.7159500122070312
1757088331425816000,8.006816162109375,-9.700950622558594,-0.8890500664710999,0.687000036239624
1757088331435369000,8.016368896484375,-9.675000190734863,-0.8890500664710999,0.6630000472068787
1757088331444921900,8.025921875,-9.673050880432129,-0.8509500622749329,0.6250500082969666
1757088331454474500,8.035474609375,-9.655950546264648,-0.8269500136375427,0.6060000061988831
1757088331464027400,8.04502734375,-9.651000022888184,-0.7960500121116638,0.5920500159263611
1757088331473580300,8.054580322265625,-9.664950370788574,-0.7980000376701355,0.5770500302314758
1757088331483133200,8.06413330078125,-9.670050621032715,-0.7810500264167786,0.5680500268936157
1757088331492685800,8.073685791015626,-9.676950454711914,-0.7600500583648682,0.5680500268936157
1757088331502238700,8.08323876953125,-9.679950714111328,-0.7519500255584717,0.5890500545501709
1757088331511791600,8.09279150390625,-9.697050094604492,-0.7570500373840332,0.5890500545501709
1757088331521344800,8.1023447265625,-9.697050094604492,-0.7639500498771667,0.5940000414848328
1757088331530897400,8.1118974609375,-9.694050788879395,-0.7840500473976135,0.5839500427246094
1757088331540450300,8.1214501953125,-9.691950798034668,-0.7909500598907471,0.6109500527381897
1757088331550003500,8.13100341796875,-9.685050010681152,-0.7999500632286072,0.6060000061988831
1757088331559556000,8.14055615234375,-9.688950538635254,-0.8190000653266907,0.6180000305175781
1757088331569109000,8.15010888671875,-9.700950622558594,-0.8269500136375427,0.6390000581741333
1757088331578662000,8.159661865234375,-9.715950012207031,-0.8389500379562378,0.6589500308036804
1757088331588214500,8.169214599609376,-9.718050003051758,-0.8749500513076782,0.687000036239624
1757088331597767400,8.178767333984375,-9.727950096130371,-0.8940000534057617,0.7020000219345093
1757088331607320300,8.1883203125,-9.718050003051758,-0.9150000214576721,0.7090500593185425
1757088331616873200,8.197873291015625,-9.718050003051758,-0.9559500217437744,0.7350000143051147
1757088331626426000,8.207426025390625,-9.724950790405273,-0.973050057888031,0.7350000143051147
1757088331635979000,8.21697900390625,-9.711000442504883,-0.9660000205039978,0.7399500608444214
1757088331645531600,8.22653173828125,-9.709050178527832,-0.9660000205039978,0.7500000596046448
1757088331655084500,8.23608447265625,-9.711000442504883,-0.970050036907196,0.7470000386238098
1757088331664637400,8.245637451171875,-9.712950706481934,-0.9889500737190247,0.7570500373840332
1757088331674190000,8.255190185546875,-9.703950881958008,-0.999000072479248,0.7519500255584717
1757088331683743200,8.2647431640625,-9.711000442504883,-0.999000072479248,0.7450500130653381
1757088331693296000,8.274296142578125,-9.709050178527832,-0.999000072479248,0.7740000486373901
1757088331702849000,8.28384912109375,-9.703950881958008,-0.9889500737190247,0.7690500617027283
1757088331712401700,8.293401611328125,-9.703950881958008,-0.9780000448226929,0.7780500650405884
1757088331721954800,8.302954833984375,-9.691950798034668,-0.9490500688552856,0.7830000519752502
1757088331731507500,8.312507568359376,-9.703950881958008,-0.9220500588417053,0.7740000486373901
1757088331741060400,8.322060302734375,-9.703950881958008,-0.9540000557899475,0.7690500617027283
1757088331750613200,8.33161328125,-9.715950012207031,-0.9540000557899475,0.7950000166893005
1757088331760166100,8.341166259765625,-9.688950538635254,-0.7960500121116638,0.8620500564575195
1757088331769719000,8.350718994140625,-9.706050872802734,-0.8389500379562378,0.7930500507354736
1757088331779271700,8.360271728515626,-9.685050010681152,-0.970050036907196,0.7950000166893005
1757088331788824600,8.369824462890625,-9.676950454711914,-0.9370500445365906,0.856950044631958
1757088331798377500,8.37937744140625,-9.682050704956055,-0.8119500279426575,0.8449500203132629
1757088331807930400,8.388930419921875,-9.709050178527832,-0.7810500264167786,0.8479500412940979
1757088331817483300,8.398483154296875,-9.721050262451172,-0.8029500246047974,0.859950065612793
1757088331827036000,8.408035888671876,-9.730050086975098,-0.843000054359436,0.8620500564575195
1757088331836588800,8.4175888671875,-9.723000526428223,-0.8770500421524048,0.8530500531196594
1757088331846141700,8.4271416015625,-9.712950706481934,-0.9010500311851501,0.8449500203132629
1757088331855694600,8.436694580078125,-9.715950012207031,-0.9010500311851501,0.843000054359436
1757088331865247500,8.44624755859375,-9.703950881958008,-0.9420000314712524,0.8239500522613525
1757088331874800400,8.45580029296875,-9.721050262451172,-0.970050036907196,0.8070000410079956
1757088331884353000,8.46535302734375,-9.736950874328613,-1.0060499906539917,0.7639500498771667
1757088331893906200,8.47490625,-9.724950790405273,-1.0279500484466553,0.7500000596046448
1757088331903459000,8.484458984375,-9.718050003051758,-1.0470000505447388,0.7140000462532043
1757088331913012000,8.494011962890625,-9.715950012207031,-1.0249500274658203,0.690000057220459
1757088331922564600,8.503564697265626,-9.709050178527832,-0.9970500469207764,0.673050045967102
1757088331932117500,8.513117431640625,-9.697050094604492,-0.9889500737190247,0.6439500451087952
1757088331941670400,8.52267041015625,-9.699000358581543,-0.9490500688552856,0.6109500527381897
1757088331951223300,8.532223388671875,-9.694050788879395,-0.9340500235557556,0.5800500512123108
1757088331960776000,8.54177587890625,-9.706050872802734,-0.9150000214576721,0.5389500260353088
1757088331970328800,8.551328857421876,-9.697050094604492,-0.8770500421524048,0.5320500135421753
1757088331979881700,8.5608818359375,-9.697050094604492,-0.859950065612793,0.4930500090122223
1757088331989434600,8.5704345703125,-9.703950881958008,-0.8220000267028809,0.46695002913475037
1757088331998987300,8.5799873046875,-9.682050704956055,-0.8080500364303589,0.4740000367164612
1757088332008540200,8.5895400390625,-9.679950714111328,-0.7690500617027283,0.48405003547668457
1757088332018093300,8.59909326171875,-9.652950286865234,-0.778950035572052,0.505050003528595
1757088332027646000,8.60864599609375,-9.670050621032715,-0.7639500498771667,0.4909500181674957
1757088332037198800,8.61819873046875,-9.699000358581543,-0.778950035572052,0.45000001788139343
1757088332046751700,8.627751708984375,-9.699000358581543,-0.7860000133514404,0.453000009059906
1757088332056304600,8.6373046875,-9.694050788879395,-0.7860000133514404,0.4930500090122223
1757088332065857500,8.646857421875,-9.685050010681152,-0.7879500389099121,0.5389500260353088
1757088332075410400,8.656410400390625,-9.699000358581543,-0.7860000133514404,0.5719500184059143
1757088332084963300,8.66596337890625,-9.667950630187988,-0.817050039768219,0.6300000548362732
1757088332094516200,8.67551611328125,-9.658050537109375,-0.8029500246047974,0.6319500207901001
1757088332104068900,8.68506884765625,-9.667950630187988,-0.8100000619888306,0.6510000228881836
1757088332113621800,8.694621826171876,-9.676950454711914,-0.8190000653266907,0.6540000438690186
1757088332123174700,8.704174560546875,-9.675000190734863,-0.8340000510215759,0.6709500551223755
1757088332132727600,8.7137275390625,-9.673050880432129,-0.859950065612793,0.7069500088691711
1757088332142280200,8.7232802734375,-9.675000190734863,-0.8749500513076782,0.7260000109672546
1757088332151833300,8.732833251953124,-9.687000274658203,-0.8890500664710999,0.7399500608444214
1757088332161386000,8.742385986328125,-9.697050094604492,-0.9540000557899475,0.7230000495910645
1757088332170939100,8.751939208984375,-9.691950798034668,-0.9799500703811646,0.7399500608444214
1757088332180492000,8.761491943359376,-9.655950546264648,-0.999000072479248,0.8070000410079956
1757088332190045000,8.771044921875,-9.63900089263916,-1.059000015258789,0.7780500650405884
1757088332199597600,8.78059765625,-9.699000358581543,-1.0399500131607056,0.7230000495910645
1757088332209150500,8.790150390625,-9.75195026397705,-0.973050057888031,0.7260000109672546
1757088332218703400,8.799703369140625,-9.780000686645508,-0.9750000238418579,0.7570500373840332
1757088332228256300,8.80925634765625,-9.807000160217285,-1.0369499921798706,0.7900500297546387
1757088332237809000,8.818808837890625,-9.790050506591797,-1.0969500541687012,0.775950014591217
1757088332247361800,8.82836181640625,-9.768000602722168,-1.0800000429153442,0.7780500650405884
1757088332256914700,8.837914794921875,-9.748950004577637,-1.0849500894546509,0.7540500164031982
1757088332266467600,8.847467529296875,-9.688950538635254,-1.0249500274658203,0.7710000276565552
1757088332276020200,8.857020263671876,-9.652950286865234,-0.9630000591278076,0.7450500130653381
1757088332285573000,8.866572998046875,-9.661050796508789,-1.0399500131607056,0.6319500207901001
1757088332295126300,8.876126220703124,-9.699000358581543,-0.9390000700950623,0.6250500082969666
1757088332304679000,8.885678955078125,-9.718050003051758,-0.843000054359436,0.7020000219345093
1757088332314231800,8.895231689453125,-9.756000518798828,-0.8190000653266907,0.6850500106811523
1757088332323784700,8.90478466796875,-9.772950172424316,-0.8389500379562378,0.7810500264167786
1757088332333337600,8.914337646484375,-9.730050086975098,-0.8389500379562378,0.8650500178337097
1757088332342890500,8.923890380859374,-9.816000938415527,-0.8719500303268433,0.4600500166416168
1757088332352443400,8.933443359375,-9.850050926208496,-0.8080500364303589,0.3139500021934509
1757088332361996300,8.942996337890625,-9.735000610351562,-0.7960500121116638,0.5869500041007996
1757088332371549000,8.952548828125,-9.694050788879395,-0.7840500473976135,0.690000057220459
1757088332381101800,8.962101806640625,-9.691950798034668,-0.7980000376701355,0.6510000228881836
1757088332390654700,8.97165478515625,-9.687000274658203,-0.8029500246047974,0.6490500569343567
1757088332400207600,8.98120751953125,-9.667950630187988,-0.8650500178337097,0.6469500064849854
1757088332409760500,8.990760498046875,-9.712950706481934,-0.9250500202178955,0.6390000581741333
1757088332419313400,9.0003134765625,-9.739950180053711,-0.9580500721931458,0.6130500435829163
1757088332428866000,9.009865966796875,-9.711000442504883,-0.9510000348091125,0.675000011920929
1757088332438419200,9.019419189453124,-9.57705020904541,-0.9490500688552856,0.775950014591217
1757088332447971800,9.028971923828125,-9.463950157165527,-0.9460500478744507,0.8550000190734863
1757088332457525000,9.03852490234375,-9.63705062866211,-1.0039499998092651,0.6850500106811523
1757088332467077600,9.04807763671875,-9.682050704956055,-1.0999500751495361,0.7620000243186951
1757088332476630500,9.057630615234375,-9.655950546264648,-1.0399500131607056,0.7330500483512878
1757088332486183400,9.067183349609374,-9.486000061035156,-0.9750000238418579,0.931950032711029
1757088332495736300,9.076736328125,-9.457050323486328,-1.0330500602722168,0.9340500235557556
1757088332505289200,9.086289306640625,-9.27495002746582,-1.0489500761032104,1.5349500179290771
1757088332514841900,9.095841796875,-9.724950790405273,-1.0999500751495361,0.9630000591278076
1757088332524394800,9.105394775390625,-9.87405014038086,-0.5419500470161438,0.62295001745224
1757088332533947600,9.11494775390625,-9.675000190734863,-0.5250000357627869,1.3720500469207764
1757088332543500500,9.12450048828125,-9.529050827026367,-2.5309500694274902,1.645050048828125
1757088332553053200,9.13405322265625,-10.125000953674316,-2.9190001487731934,1.801050066947937
1757088332562606300,9.1436064453125,-9.795000076293945,-2.3400001525878906,1.7359501123428345
1757088332572159200,9.1531591796875,-9.598050117492676,-1.8109500408172607,1.758000135421753
1757088332581712100,9.162712158203124,-9.511950492858887,-1.1160000562667847,1.8679500818252563
1757088332591265000,9.17226513671875,-9.493050575256348,-0.4990500211715698,1.8130500316619873
1757088332600817700,9.181817626953125,-9.75195026397705,-0.45600003004074097,1.3240500688552856
1757088332610370600,9.19137060546875,-9.630000114440918,-0.6420000195503235,1.1809500455856323
1757088332619923700,9.200923828125,-9.534000396728516,-0.7639500498771667,1.2139500379562378
1757088332629476400,9.210476318359374,-9.60300064086914,-0.8719500303268433,1.1059499979019165
1757088332639029200,9.220029296875,-9.436050415039062,-0.817050039768219,1.1880000829696655
1757088332648582100,9.22958203125,-9.598050117492676,-0.7050000429153442,1.5520501136779785
1757088332658134800,9.239134765625,-9.462000846862793,-0.89805006980896,1.4440500736236572
1757088332667687700,9.248687744140625,-9.727950096130371,-0.8100000619888306,1.4059500694274902
1757088332677240600,9.258240478515624,-9.63900089263916,-0.2689500153064728,1.5229500532150269
1757088332686793200,9.267793212890625,-9.739950180053711,-1.0639500617980957,1.1299500465393066
1757088332696346400,9.277346435546875,-9.369000434875488,-1.1670000553131104,1.5250500440597534
1757088332705899300,9.286899169921876,-9.574050903320312,-0.9220500588417053,1.5730500221252441
1757088332715452200,9.2964521484375,-9.706050872802734,-0.8650500178337097,1.5829501152038574
1757088332725004800,9.3060048828125,-9.664950370788574,-1.495050072669983,1.1809500455856323
1757088332734557700,9.3155576171875,-9.622050285339355,-1.4640001058578491,1.4269500970840454
1757088332744110600,9.325110595703125,-9.838050842285156,-1.3609501123428345,1.3120501041412354
1757088332753663500,9.33466357421875,-9.910050392150879,-0.9490500688552856,1.908000111579895
1757088332763216400,9.34421630859375,-9.630000114440918,-0.5419500470161438,2.1289501190185547
1757088332772769300,9.353769287109374,-9.190950393676758,-0.5130000114440918,1.114050030708313
1757088332782322000,9.363322021484375,-9.541050910949707,-0.6400500535964966,1.576050043106079
1757088332791874800,9.372874755859375,-9.481050491333008,-1.1020500659942627,1.4440500736236572
1757088332801427700,9.382427734375,-9.499950408935547,-1.5829501152038574,0.999000072479248
1757088332810980600,9.391980712890625,-9.86205005645752,-2.0239500999450684,0.5890500545501709
1757088332820533500,9.401533447265624,-10.177950859069824,-2.1790502071380615,0.817050039768219
1757088332830086400,9.41108642578125,-9.85200023651123,-1.927950143814087,1.8990000486373901
1757088332839639000,9.42063916015625,-9.481050491333008,-1.1430000066757202,2.245950222015381
1757088332849192000,9.43019189453125,-9.354000091552734,-0.36000001430511475,2.1790502071380615
1757088332858744800,9.439744873046875,-9.306000709533691,0.09195000678300858,2.0710501670837402
1757088332868297700,9.449297607421874,-9.225000381469727,0.42195001244544983,2.0190000534057617
1757088332877850400,9.458850341796875,-9.115050315856934,0.46995002031326294,2.0310001373291016
1757088332887403500,9.468403564453125,-9.418950080871582,0.48900002241134644,2.5600500106811523
1757088332896956200,9.4779560546875,-9.415950775146484,-0.015000000596046448,2.0880000591278076
1757088332906509300,9.48750927734375,-9.661050796508789,-0.5590500235557556,2.124000072479248
1757088332916062200,9.497062255859374,-9.916950225830078,-0.8550000190734863,2.791950225830078
1757088332925614800,9.50661474609375,-9.61305046081543,-0.8389500379562378,2.584050178527832
1757088332935167700,9.516167724609375,-9.75195026397705,-0.8239500522613525,2.7199501991271973
1757088332944720600,9.525720703125,-9.531000137329102,-1.2649500370025635,2.572050094604492
1757088332954273300,9.535273193359375,-9.700950622558594,-1.6980000734329224,2.69100022315979
1757088332963826200,9.544826171875,-9.699000358581543,-1.1430000066757202,2.659950017929077
1757088332973379000,9.554379150390625,-9.618000030517578,-0.6330000162124634,1.8220500946044922
1757088332982932000,9.563931884765625,-9.843000411987305,-0.6210000514984131,1.8460501432418823
1757088332992484900,9.57348486328125,-9.483000755310059,-0.5590500235557556,1.686000108718872
1757088333002037500,9.58303759765625,-9.406949996948242,-0.45795002579689026,1.738050103187561
1757088333011590400,9.59259033203125,-9.127050399780273,-0.5899500250816345,1.6950000524520874
1757088333021143300,9.602143310546875,-9.133950233459473,-0.7909500598907471,1.9320000410079956
1757088333030696200,9.6116962890625,-9.234000205993652,-0.8190000653266907,2.413950204849243
1757088333040249300,9.621249267578126,-9.658050537109375,-0.9030000567436218,2.02305006980896
1757088333049802000,9.630802001953125,-9.84000015258789,-0.8269500136375427,2.026050090789795
1757088333059355000,9.64035498046875,-10.104000091552734,-0.5659500360488892,2.1859500408172607
1757088333068907800,9.64990771484375,-9.958050727844238,-0.24000000953674316,2.8780500888824463
1757088333078460700,9.659460693359375,-9.445050239562988,-0.0990000069141388,3.1249501705169678
1757088333088013600,9.669013671875,-8.940000534057617,-0.08895000070333481,3.283050060272217
1757088333097566500,9.67856640625,-8.896950721740723,-0.3960000276565552,3.4620001316070557
1757088333107119000,9.688119140625,-8.671950340270996,-0.5899500250816345,3.582000255584717
1757088333116672000,9.697672119140625,-9.309000015258789,-0.7960500121116638,3.301950216293335
1757088333126225000,9.707224853515624,-9.2920503616333,-0.8080500364303589,3.61995005607605
1757088333135777500,9.716777587890626,-9.370950698852539,-0.5850000381469727,3.391050100326538
1757088333145330400,9.726330322265625,-9.402000427246094,-0.5610000491142273,2.8729500770568848
1757088333154883300,9.73588330078125,-9.268050193786621,-0.8190000653266907,2.802000045776367
1757088333164436200,9.745436279296875,-9.342000007629395,-1.1260499954223633,2.871000051498413
1757088333173989000,9.754989013671874,-9.280050277709961,-0.9220500588417053,2.602950096130371
1757088333183542000,9.7645419921875,-9.297000885009766,-0.8770500421524048,2.3970000743865967
1757088333193095000,9.774094970703125,-9.232050895690918,-0.8119500279426575,2.3560500144958496
1757088333202647800,9.783647705078126,-9.342000007629395,-0.8629500269889832,2.5260000228881836
1757088333212200700,9.79320068359375,-9.55305004119873,-1.0399500131607056,2.5909500122070312
1757088333221753600,9.802753662109374,-9.727950096130371,-0.9079500436782837,2.8399500846862793
1757088333231306200,9.81230615234375,-9.77595043182373,-0.9510000348091125,3.0859501361846924
1757088333240859100,9.821859130859375,-9.991050720214844,-0.8940000534057617,2.992950201034546
1757088333250412000,9.831412109375,-9.733050346374512,-1.1880000829696655,2.7900002002716064
1757088333259965000,9.84096484375,-9.748950004577637,-1.2000000476837158,2.593050241470337
1757088333269517800,9.850517822265624,-9.850050926208496,-1.068000078201294,2.1259500980377197
1757088333279070500,9.860070556640625,-9.844950675964355,-0.831000030040741,2.0089499950408936
1757088333288623400,9.869623291015625,-9.451950073242188,-1.4850000143051147,2.098050117492676
1757088333298176300,9.87917626953125,-9.028950691223145,-2.761050224304199,2.703000068664551
1757088333307729200,9.888729248046875,-9.153000831604004,-3.5629501342773438,3.4930500984191895
1757088333317281800,9.89828173828125,-9.11205005645752,-3.6259500980377197,3.7189502716064453
1757088333326834700,9.907834716796875,-9.676950454711914,-3.24495005607605,3.6750001907348633
1757088333336387600,9.9173876953125,-9.742050170898438,-2.845050096511841,3.349950075149536
1757088333345940500,9.9269404296875,-9.306000709533691,-2.3899500370025635,2.8810501098632812
1757088333355493400,9.936493408203125,-9.306000709533691,-1.9620001316070557,2.6650500297546387
1757088333365046000,9.9460458984375,-9.153000831604004,-0.9559500217437744,2.502000093460083
1757088333374599200,9.95559912109375,-9.079050064086914,-0.4240500330924988,2.1670501232147217
1757088333384152000,9.965152099609375,-8.964000701904297,-0.04605000093579292,2.992950201034546
1757088333393705000,9.974705078125,-8.953950881958008,0.022050000727176666,4.164000034332275
1757088333403257900,9.9842578125,-8.871000289916992,0.325950026512146,4.570950031280518
1757088333412810500,9.993810546875,-8.521050453186035,0.8119500279426575,3.9940502643585205
1757088333422363400,10.00336328125,-7.951050281524658,0.30000001192092896,2.863950252532959
1757088333431916300,10.012916259765625,-8.559000015258789,-0.8290500640869141,4.212000370025635
1757088333441469000,10.022468994140626,-9.376049995422363,-2.565000057220459,5.2510504722595215
1757088333451021800,10.032021728515625,-9.664950370788574,-4.581000328063965,5.55495023727417
1757088333460575000,10.041574951171874,-9.433050155639648,-5.991000175476074,6.50100040435791
1757088333470127600,10.051127685546875,-8.653050422668457,-4.807950019836426,6.333000183105469
1757088333479680500,10.060680419921875,-8.731950759887695,-2.545950174331665,6.058050155639648
1757088333489233200,10.070233154296876,-8.550000190734863,-1.6050000190734863,6.133950233459473
1757088333498786000,10.0797861328125,-9.009000778198242,-1.3920000791549683,5.6770501136779785
1757088333508339000,10.0893388671875,-10.237950325012207,-1.3560000658035278,5.329950332641602
1757088333517891800,10.098891845703125,-9.531000137329102,-0.5370000004768372,4.990050315856934
1757088333527444500,10.108444580078125,-8.650050163269043,0.2569500207901001,3.8209502696990967
1757088333536997600,10.11799755859375,-6.661050319671631,-0.2740500271320343,4.216950416564941
1757088333546550500,10.127550537109375,-5.635950088500977,-1.339050054550171,4.6810503005981445
1757088333556103200,10.137103271484374,-5.752950191497803,-1.3609501123428345,5.517000198364258
1757088333565656300,10.14665625,-6.901950359344482,-1.6980000734329224,6.369000434875488
1757088333575209000,10.156208984375,-8.746050834655762,-0.7500000596046448,7.075050354003906
1757088333584761900,10.165761962890626,-9.430950164794922,-0.1399500072002411,7.008000373840332
1757088333594314800,10.175314697265625,-8.85105037689209,0.6469500064849854,7.408050537109375
1757088333603867600,10.18486767578125,-7.963050365447998,0.47505003213882446,6.256050109863281
1757088333613420500,10.194420654296875,-8.329050064086914,-0.453000009059906,5.8690505027771
1757088333622973200,10.20397314453125,-8.253000259399414,-0.9420000314712524,6.180000305175781
1757088333632526000,10.213526123046876,-7.180050373077393,-0.9970500469207764,5.971950054168701
1757088333642079000,10.223078857421875,-6.0859503746032715,-1.576050043106079,6.142050266265869
1757088333651631900,10.2326318359375,-4.579950332641602,-2.950050115585327,6.412050247192383
1757088333661184800,10.242184814453125,-4.300050258636475,-3.160950183868408,7.162050247192383
1757088333670737700,10.251737548828125,-3.337050199508667,-2.347050189971924,7.687950134277344
1757088333680290800,10.261290771484376,-4.465050220489502,-1.0879501104354858,8.232000350952148
1757088333689843500,10.270843505859375,-6.886050224304199,-1.2910500764846802,7.651950359344482
1757088333699396400,10.280396240234374,-9.301950454711914,-1.546950101852417,6.403050422668457
1757088333708949000,10.289948974609375,-9.571950912475586,-2.373000144958496,5.362950325012207
1757088333718502000,10.299501953125,-8.365050315856934,-2.617950201034546,4.963950157165527
1757088333728054800,10.3090546875,-6.760950088500977,-2.6700000762939453,5.641050338745117
1757088333737607700,10.318607666015625,-5.743950366973877,-2.4979500770568848,7.25700044631958
1757088333747160300,10.328160400390624,-5.313000202178955,-2.625000238418579,8.770050048828125
1757088333756713500,10.33771337890625,-5.3580002784729,-1.8469500541687012,9.189000129699707
1757088333766266000,10.34726611328125,-5.5570502281188965,-3.2089500427246094,9.544050216674805
1757088333775819000,10.356819091796876,-5.550000190734863,-3.7960500717163086,9.136950492858887
1757088333785372200,10.3663720703125,-5.214000225067139,-2.8789501190185547,8.008950233459473
1757088333794924800,10.3759248046875,-5.128050327301025,-3.0010502338409424,6.979950428009033
1757088333804477700,10.385477783203125,-5.38200044631958,-3.1780500411987305,6.735000133514404
1757088333814030600,10.395030517578125,-5.53095006942749,-3.0490500926971436,7.0249505043029785
1757088333823583500,10.40458349609375,-5.748000144958496,-2.6920502185821533,7.603950500488281
1757088333833136000,10.41413623046875,-6.1459503173828125,-2.1100502014160156,7.735950469970703
1757088333842689000,10.42368896484375,-6.4830002784729,-2.11995005607605,8.039999961853027
1757088333852242000,10.433241943359375,-6.4710001945495605,-2.866950035095215,8.746950149536133
1757088333861794800,10.442794921875,-5.218950271606445,-4.176000118255615,8.646000862121582
1757088333871347700,10.45234765625,-4.876950263977051,-5.424000263214111,8.76300048828125
1757088333880900400,10.461900390625,-4.795050144195557,-5.164950370788574,7.654950141906738
1757088333890453200,10.471453369140624,-4.522950172424316,-4.650000095367432,6.441000461578369
1757088333900006100,10.481006103515625,-5.329050064086914,-5.116950035095215,6.256050109863281
1757088333909559000,10.49055908203125,-5.8470001220703125,-4.7410502433776855,6.1459503173828125
1757088333919112000,10.50011181640625,-5.95395040512085,-4.392000198364258,6.558000087738037
1757088333928664600,10.50966455078125,-5.571000099182129,-4.878000259399414,7.566000461578369
1757088333938217700,10.5192177734375,-5.90595006942749,-4.272000312805176,8.281949996948242
1757088333947770600,10.5287705078125,-4.906050205230713,-3.3889501094818115,8.419050216674805
1757088333957323300,10.5383232421875,-5.8660502433776855,-4.813050270080566,8.289000511169434
1757088333966876200,10.547876220703126,-6.280050277709961,-4.617000102996826,8.095050811767578
1757088333976429000,10.557428955078125,-5.53095006942749,-3.4699501991271973,7.51800012588501
1757088333985981700,10.566981689453126,-4.647000312805176,-2.3899500370025635,6.877050399780273
1757088333995534600,10.57653466796875,-6.366000175476074,-3.7069501876831055,7.255050182342529
1757088334005087500,10.58608740234375,-6.202950477600098,-3.289950132369995,7.324050426483154
1757088334014640600,10.595640625,-5.052000045776367,-3.3169500827789307,7.504050254821777
1757088334024193300,10.605193359375,-5.131050109863281,-3.274050235748291,7.25700044631958
1757088334033746200,10.61474609375,-5.574000358581543,-3.2160000801086426,7.039050102233887
1757088334043299000,10.624299072265625,-6.1050004959106445,-3.112950086593628,7.300050258636475
1757088334052852000,10.63385205078125,-5.830050468444824,-3.472050189971924,7.0489501953125
1757088334062404600,10.643404541015625,-6.366000175476074,-3.5869500637054443,7.105950355529785
1757088334071957500,10.65295751953125,-6.433050155639648,-3.681000232696533,7.320000171661377
1757088334081510400,10.662510498046874,-6.009000301361084,-3.919950246810913,7.693050384521484
1757088334091063300,10.672063232421875,-6.076050281524658,-3.9900002479553223,7.777050495147705
1757088334100616200,10.6816162109375,-5.995050430297852,-3.5850002765655518,7.240950107574463
1757088334110168800,10.6911689453125,-6.357000350952148,-2.3020501136779785,6.889050483703613
1757088334119721700,10.7007216796875,-7.051050186157227,-1.831950068473816,6.619950294494629
1757088334129274600,10.710274658203126,-7.104000568389893,-1.7680500745773315,6.675000190734863
1757088334138827500,10.71982763671875,-6.49500036239624,-1.9350000619888306,6.8359503746032715
1757088334148380400,10.72938037109375,-6.345000267028809,-2.436000108718872,7.056000232696533
1757088334157933300,10.738933349609376,-6.175050258636475,-2.7180001735687256,7.197000503540039
1757088334167486000,10.74848583984375,-6.033000469207764,-2.6509501934051514,7.260000228881836
1757088334177039000,10.7580390625,-6.1050004959106445,-2.6580002307891846,7.192950248718262
1757088334186591700,10.767591796875,-6.190950393676758,-2.5360500812530518,7.255050182342529
1757088334196144600,10.77714453125,-6.58905029296875,-2.376000165939331,7.1449503898620605
1757088334205697500,10.786697509765625,-6.86400032043457,-2.6010000705718994,7.000950336456299
1757088334215250400,10.79625048828125,-6.402000427246094,-2.9070000648498535,7.008000373840332
1757088334224803300,10.80580322265625,-6.2440505027771,-2.9029500484466553,6.604050159454346
1757088334234356000,10.81535595703125,-6.133950233459473,-2.9700000286102295,6.57705020904541
1757088334243908900,10.824908935546874,-6.139050483703613,-3.538950204849243,7.297950267791748
1757088334253461800,10.834461669921875,-5.808000087738037,-3.444000244140625,7.8409504890441895
1757088334263014700,10.8440146484375,-5.158950328826904,-3.682950258255005,7.533000469207764
1757088334272567300,10.8535673828125,-4.921950340270996,-4.294050216674805,8.4660005569458
1757088334282120400,10.863120361328125,-5.064000129699707,-3.6259500980377197,7.747950553894043
1757088334291673300,10.87267333984375,-6.154950141906738,-2.527050018310547,7.53000020980835
1757088334301226000,10.88222607421875,-6.330000400543213,-2.436000108718872,7.818000316619873
1757088334310779100,10.891779052734375,-7.012950420379639,-2.5980000495910645,8.100000381469727
1757088334320331800,10.901331787109376,-5.410950183868408,-3.5149502754211426,8.265000343322754
1757088334329884700,10.910884765625,-5.032950401306152,-4.087950229644775,7.9800004959106445
1757088334339437600,10.9204375,-5.511000156402588,-4.107000350952148,7.200000286102295
1757088334348990500,10.929990478515625,-5.947050094604492,-3.6610500812530518,7.092000484466553
1757088334358543000,10.939543212890625,-6.268050193786621,-3.3259501457214355,7.954050540924072
1757088334368096300,10.94909619140625,-6.390000343322754,-2.7090001106262207,8.480999946594238
1757088334377649000,10.95864892578125,-6.652950286865234,-2.7330000400543213,8.611950874328613
1757088334387201800,10.968201904296874,-5.81505012512207,-3.2539501190185547,8.301000595092773
1757088334396754700,10.977754638671875,-4.4239501953125,-4.998000144958496,5.304000377655029
1757088334406307300,10.987307373046875,-6.2749505043029785,-1.858950138092041,6.112950325012207
1757088334415860500,10.996860595703126,-7.513050556182861,-1.3489500284194946,9.168000221252441
1757088334425413000,11.0064130859375,-7.365000247955322,-1.9999500513076782,8.665050506591797
1757088334434966000,11.015966064453124,-6.835050106048584,-2.1100502014160156,7.456050395965576
1757088334444519000,11.025518798828125,-6.430950164794922,-3.0769500732421875,7.000950336456299
1757088334454071800,11.03507177734375,-7.261950492858887,-2.5789501667022705,7.180950164794922
1757088334463624700,11.044624755859376,-7.678050518035889,-2.325000047683716,6.883950233459473
1757088334473177600,11.054177490234375,-7.752000331878662,-1.6669501066207886,6.6160502433776855
1757088334482730500,11.06373046875,-7.420050144195557,-1.5090000629425049,6.465000152587891
1757088334492283100,11.073283203125,-6.886050224304199,-1.818000078201294,6.637050151824951
1757088334501836000,11.0828359375,-6.241950511932373,-2.2200000286102295,6.6850504875183105
1757088334511389000,11.092388916015626,-6.318000316619873,-2.3449501991271973,6.430950164794922
1757088334520941800,11.10194189453125,-6.688950538635254,-2.448000192642212,6.312000274658203
1757088334530494500,11.111494384765624,-6.997950553894043,-2.4790501594543457,6.70395040512085
1757088334540047600,11.121047607421875,-7.063050270080566,-2.373000144958496,7.248000144958496
1757088334549600300,11.130600341796875,-7.137000560760498,-2.40405011177063,7.51800012588501
1757088334559153400,11.1401533203125,-7.0219502449035645,-2.761050224304199,7.818000316619873
1757088334568706000,11.1497060546875,-6.778050422668457,-3.1060502529144287,7.462950229644775
1757088334578259000,11.159259033203124,-6.8710503578186035,-3.682950258255005,6.793050289154053
1757088334587811800,11.168811767578125,-6.874050140380859,-3.9439501762390137,6.321000099182129
1757088334597364500,11.178364501953125,-7.029000282287598,-4.216950416564941,6.397950172424316
1757088334606917600,11.187917724609376,-6.996000289916992,-3.7669501304626465,6.264000415802002
1757088334616470500,11.197470458984375,-7.2709503173828125,-3.781050205230713,6.7260003089904785
1757088334626023400,11.2070234375,-7.309050559997559,-4.765050411224365,7.762050151824951
1757088334635576000,11.216576171875,-6.579000473022461,-4.44195032119751,7.930050373077393
1757088334645129000,11.22612890625,-5.908950328826904,-5.170050144195557,8.506950378417969
1757088334654681600,11.235681640625,-5.065950393676758,-6.013050079345703,9.133950233459473
1757088334664234800,11.24523486328125,-4.776000022888184,-5.682000160217285,8.821050643920898
1757088334673787400,11.254787353515624,-4.932000160217285,-5.0209503173828125,7.533000469207764
1757088334683340300,11.26434033203125,-4.762050151824951,-5.035950183868408,7.717050552368164
1757088334692893200,11.27389306640625,-3.487950086593628,-5.638950347900391,8.196000099182129
1757088334702445800,11.28344580078125,-4.654050350189209,-5.328000068664551,7.45395040512085
1757088334711998700,11.292998779296875,-2.920950174331665,-7.320000171661377,5.521050453186035
1757088334721551600,11.302551513671874,-4.080000400543213,-6.481950283050537,5.305950164794922
1757088334731104500,11.3121044921875,-5.94195032119751,-6.469950199127197,6.333000183105469
1757088334740657400,11.321657470703125,-6.663000106811523,-6.159000396728516,8.128950119018555
1757088334750210300,11.331210205078126,-8.926050186157227,-3.961050271987915,8.866050720214844
1757088334759763200,11.34076318359375,-8.75100040435791,-3.0870001316070557,7.008000373840332
1757088334769315800,11.35031591796875,-10.495950698852539,-3.2539501190185547,6.960000514984131
1757088334778868700,11.35986865234375,-5.902050495147705,-6.4009504318237305,2.9790000915527344
1757088334788421600,11.369421630859375,0.7849500179290771,-7.164000511169434,-0.14205001294612885
1757088334797974800,11.378974853515626,0.07095000147819519,-10.039950370788574,2.014050006866455
1757088334807527400,11.38852734375,-4.350000381469727,-12.922950744628906,3.8550002574920654
1757088334817080300,11.398080322265624,-5.152050018310547,-13.480051040649414,5.620050430297852
1757088334826633000,11.407633056640625,-5.610000133514404,-12.544050216674805,7.020000457763672
1757088334836185900,11.417185791015624,-7.0600504875183105,-11.842950820922852,8.006999969482422
1757088334845738800,11.42673876953125,-6.225000381469727,-10.89900016784668,9.154050827026367
1757088334855291600,11.436291748046875,-7.285950183868408,-9.75,10.309950828552246
1757088334864844500,11.445844482421874,-7.039050102233887,-8.232000350952148,11.245950698852539
1757088334874397200,11.455397216796875,-7.422000408172607,-7.456050395965576,11.35200023651123
1757088334883950000,11.4649501953125,-7.486950397491455,-6.753000259399414,10.738950729370117
1757088334893503000,11.4745029296875,-7.240050315856934,-6.13200044631958,10.10205078125
1757088334903056000,11.484055908203125,-6.859050273895264,-5.881050109863281,9.031050682067871
1757088334912608500,11.4936083984375,-6.874050140380859,-5.991000175476074,8.004000663757324
1757088334922161700,11.50316162109375,-6.7420501708984375,-6.276000499725342,8.002050399780273
1757088334931714300,11.51271435546875,-6.061950206756592,-5.728050231933594,7.456050395965576
1757088334941267200,11.52226708984375,-5.479950428009033,-4.650000095367432,6.0960001945495605
1757088334950820400,11.5318203125,-4.906050205230713,-3.9940502643585205,5.0209503173828125
1757088334960373200,11.541373291015624,-4.282950401306152,-3.9060001373291016,4.806000232696533
1757088334969926100,11.550926025390625,-3.4360501766204834,-4.537950038909912,7.8510003089904785
1757088334979478800,11.560478759765624,-5.392050266265869,-5.115000247955322,14.416050910949707
1757088334989031700,11.57003173828125,-8.21505069732666,-5.019000053405762,19.96095085144043
1757088334998584600,11.57958447265625,-7.417050361633301,-4.297950267791748,19.534950256347656
1757088335008137200,11.58913720703125,-4.7910003662109375,-4.297950267791748,17.18895149230957
1757088335017690400,11.5986904296875,-2.6290500164031982,-4.762950420379639,15.142050743103027
1757088335027243000,11.608242919921874,-1.390950083732605,-5.179050445556641,12.82905101776123
1757088335036796000,11.6177958984375,-0.742050051689148,-5.163000106811523,10.545000076293945
1757088335046348800,11.627348876953125,-0.6889500617980957,-4.962000370025635,8.104949951171875
1757088335055901700,11.636901611328126,0.35805001854896545,-4.447050094604492,6.8020501136779785
1757088335065454600,11.64645458984375,1.4119501113891602,-3.453000068664551,7.474950313568115
1757088335075007200,11.65600732421875,2.0250000953674316,-2.9100000858306885,8.65095043182373
1757088335084560100,11.66556005859375,2.0220000743865967,-2.854950189590454,9.745050430297852
1757088335094113300,11.67511328125,1.429050087928772,-2.5099501609802246,10.557000160217285
1757088335103666000,11.684666015625,1.1770501136779785,-1.801050066947937,10.741050720214844
1757088335113218800,11.69421875,1.0120500326156616,-1.4160000085830688,10.88700008392334
1757088335122771700,11.703771728515624,1.0890001058578491,-1.6980000734329224,11.119050979614258
1757088335132324600,11.71332470703125,1.3350000381469727,-2.0119500160217285,11.092950820922852
1757088335141877200,11.722877197265625,1.5460500717163086,-2.3299500942230225,10.37700080871582
1757088335151430100,11.73243017578125,1.8960001468658447,-2.4840002059936523,9.2920503616333
1757088335160983000,11.741983154296875,2.449050188064575,-2.347050189971924,8.050050735473633
1757088335170536000,11.751535888671874,2.974950075149536,-2.187000036239624,6.928950309753418
1757088335180088800,11.7610888671875,3.1930501461029053,-2.2009501457214355,6.397950172424316
1757088335189641500,11.770641357421875,3.0829501152038574,-2.4880502223968506,6.409950256347656
1757088335199194400,11.7801943359375,2.884050130844116,-2.9359500408172607,6.630000114440918
1757088335208747300,11.789747314453125,2.9389500617980957,-2.8690500259399414,6.358950138092041
1757088335218300200,11.799300048828124,3.1650002002716064,-2.3929500579833984,5.565000057220459
1757088335227852800,11.808852783203125,3.6700501441955566,-1.686000108718872,4.996950149536133
1757088335237406000,11.818406005859375,3.9240002632141113,-1.0660500526428223,4.482000350952148
1757088335246958600,11.82795849609375,4.170000076293945,-0.5059500336647034,3.9240002632141113
1757088335256511700,11.83751171875,3.9760501384735107,-0.6400500535964966,3.598950147628784
1757088335266064400,11.847064453125,3.9589502811431885,-0.8119500279426575,3.2250001430511475
1757088335275617300,11.8566171875,4.240050315856934,-0.7189500331878662,2.8969502449035645
1757088335285170200,11.866170166015625,7.3399505615234375,-1.0470000505447388,6.631950378417969
1757088335294723000,11.87572314453125,5.734050273895264,-0.8770500421524048,7.035000324249268
1757088335304275700,11.885275634765625,6.775050163269043,-0.7170000076293945,8.256000518798828
1757088335313828600,11.89482861328125,8.431950569152832,0.18300001323223114,8.292000770568848
1757088335323381500,11.904381591796875,8.032050132751465,-0.6300000548362732,5.260050296783447
1757088335332934400,11.913934326171875,7.570050239562988,-0.33105000853538513,2.863950252532959
1757088335342487000,11.923487060546876,7.504950523376465,-1.2480000257492065,2.1289501190185547
1757088335352040200,11.933040283203125,6.567000389099121,-1.1620500087738037,1.4440500736236572
1757088335361592800,11.9425927734375,6.4110002517700195,-0.8410500288009644,0.5920500159263611
1757088335371145700,11.952145751953125,10.314000129699707,0.40995001792907715,-1.024049997329712
1757088335380698600,11.96169873046875,7.599000453948975,0.7720500230789185,-1.3320000171661377
1757088335390251500,11.97125146484375,6.438000202178955,0.8080500364303589,-2.0220000743865967
1757088335399804400,11.980804443359375,4.957950115203857,3.0919501781463623,-3.375000238418579
1757088335409357000,11.990357177734374,9.568950653076172,3.0990002155303955,-2.814000129699707
1757088335418910200,11.99991015625,10.837950706481934,4.483050346374512,-1.9650001525878906
1757088335428463000,12.009463134765625,11.475000381469727,3.7360501289367676,0.38100001215934753
1757088335438015700,12.019015625,11.281050682067871,2.9580001831054688,2.074050188064575
1757088335447568600,12.028568603515625,9.92400074005127,2.206050157546997,2.7199501991271973
1757088335457121500,12.03812158203125,9.232050895690918,2.31600022315979,2.8999500274658203
1757088335466674400,12.04767431640625,8.782050132751465,2.5990500450134277,2.5570502281188965
1757088335476227300,12.057227294921875,7.909950256347656,2.934000253677368,1.321950078010559
1757088335485780000,12.066780029296876,7.354950428009033,3.324000120162964,0.27300000190734863
1757088335495332900,12.076332763671875,7.639050483703613,3.8170502185821533,-0.3630000054836273
1757088335504885800,12.0858857421875,8.176050186157227,4.063950061798096,-0.595050036907196
1757088335514438700,12.095438720703125,8.793000221252441,4.051949977874756,-0.22095000743865967
1757088335523991300,12.1049912109375,9.38700008392334,4.107000350952148,0.40995001792907715
1757088335533544200,12.114544189453126,9.700950622558594,3.951000213623047,0.7830000519752502
1757088335543097000,12.12409716796875,9.718050003051758,3.6259500980377197,0.9120000600814819
1757088335552650000,12.13364990234375,9.636000633239746,3.4150502681732178,0.9049500226974487
1757088335562203100,12.143203125,9.59595012664795,3.3379502296447754,0.8359500169754028
1757088335571755800,12.152755859375,9.672000885009766,3.283050060272217,0.7540500164031982
1757088335581308700,12.16230859375,9.775050163269043,3.2089500427246094,0.7470000386238098
1757088335590861600,12.171861572265625,9.808950424194336,3.1560001373291016,0.7519500255584717
1757088335600414200,12.181414306640624,9.720000267028809,3.100950241088867,0.7300500273704529
1757088335609967400,12.19096728515625,9.576000213623047,3.1369502544403076,0.6040500402450562
1757088335619520000,12.20052001953125,9.370950698852539,3.2569501399993896,0.40995001792907715
