time,seconds_elapsed,z,y,x
1757088915680285700,0.02028564453125,-1.1677414646029471,0.4503983736619353,-0.10865852763950824
1757088915690331600,0.03033154296875,-0.9887620310246944,0.40621904019564387,-0.14291326394081114
1757088915700378600,0.040378662109375,-0.7625842084199189,0.22131182400360702,-0.29374679948687554
1757088915710424600,0.050424560546875,-0.4708569320619106,0.10806056174635886,-0.20512889709621668
1757088915720471600,0.060471435546875,-0.06799333977401256,0.07261588500812649,-0.04271861326396465
1757088915730517500,0.070517578125,0.29940964755415916,0.016369827781617642,0.057419631050527095
1757088915740564500,0.080564453125,0.2739455359518528,-0.02737929757386446,0.20068536169081924
1757088915750610700,0.090610595703125,0.1545844125121832,-0.14900602785795927,0.12327537427395581
1757088915760657700,0.10065771484375,0.1654150186061859,-0.18886559842899442,-0.11880641216635704
1757088915770703600,0.11070361328125,0.09291443054080009,-0.11337065085321664,-0.1368155315876007
1757088915780750600,0.12075048828125,0.1918973673403263,-0.06236907015144825,-0.10039309585839509
1757088915790796500,0.130796630859375,0.3228039671450853,-0.053191345831006764,-0.13194149581044912
1757088915800843800,0.14084375,0.5569640206754207,-0.10450199248194694,-0.08420067047029733
1757088915810889700,0.1508896484375,0.7399415839791298,-0.07196706571057439,-0.0865457722917199
1757088915820936700,0.160936767578125,0.7811486236363648,0.034366526112705464,-0.12234656899124383
1757088915830982700,0.170982666015625,0.6475690052300691,0.15895678237751126,0.1442591255918145
1757088915841029600,0.181029541015625,0.8524538644373416,0.03992839802354574,0.372654331985116
1757088915851075600,0.19107568359375,0.7585311336368322,-0.08156944518387317,0.154970781481266
1757088915861122600,0.20112255859375,0.8099100232183932,0.004429506880044937,0.29271774870008227
1757088915871168500,0.21116845703125,0.8418518064022064,0.06635171004682779,0.6789186677396297
1757088915881215500,0.221215576171875,0.5985854863524437,0.041469343855231995,0.7782306903630495
1757088915891261700,0.23126171875,0.4581038334727287,0.013716975185275078,0.595259556800127
1757088915901308400,0.241308349609375,0.5367524227738381,-0.0286170226752758,0.3052218409642577
1757088915911354600,0.251354736328125,0.6052139645814896,-0.041110593545436856,0.21876900765299795
1757088915921401900,0.26140185546875,0.3181903358697891,0.22581702646836638,0.16501286754608152
1757088915931447600,0.271447509765625,-0.3747656250506639,0.34933044728189705,0.353368324495852
1757088915941494800,0.281494873046875,-0.7858043404877185,0.31353914906308056,0.360035673430562
1757088915951540700,0.291540771484375,-0.7611006918638944,0.15840163271278143,-0.2368096912562847
1757088915961587700,0.301587646484375,-0.3525193064510822,0.15776333480924368,-0.42421325430870055
1757088915971633700,0.311633544921875,-0.03218494428992271,0.1307505324602127,-0.4378337833821773
1757088915981680600,0.3216806640625,-0.03540273729264736,0.20245149458050726,-0.334611893838644
1757088915991726600,0.3317265625,-0.07835632835626602,0.1597287896633148,-0.34898294901847837
1757088916001773600,0.341773681640625,-0.07294014852643013,-0.1403159409239888,-0.368008552005887
1757088916011819500,0.351819580078125,0.2659235575377941,-0.23660393955111503,-0.1451461375594139
1757088916021866500,0.361866455078125,0.4209820173025131,-0.09303250396251678,-0.2107230638414621
1757088916031912400,0.371912353515625,0.6739356186300516,-0.15352408980429172,-0.6703057376950979
1757088916041959400,0.38195947265625,1.1218740319192408,-0.4196738573133945,-0.7712146741211414
1757088916052005600,0.392005615234375,1.409219147670269,-0.4350204795271158,-0.5903437277078628
1757088916062052600,0.402052490234375,1.4532383221387861,-0.5498015817001461,-0.6655167498528957
1757088916072098800,0.412098876953125,0.872545050829649,-0.45487581133693455,-0.31731413755714893
1757088916082145800,0.422145751953125,0.4280664226055145,-0.07980097420662641,-0.43704292526543137
1757088916092191700,0.432191650390625,-0.2615361362338066,0.21715280462801456,-0.5603799665987491
1757088916102238700,0.44223876953125,-0.8436585635632277,0.4903596510417759,-0.5045546190023422
1757088916112284700,0.45228466796875,-1.5293722982704638,0.6121941788576543,-1.088460422617197
1757088916122331600,0.46233154296875,-1.9179244566112756,0.44742271885201335,-1.1993652678787707
1757088916132377600,0.472377685546875,-2.0787083082854747,0.28590280798822637,-0.5703811361312866
1757088916142424600,0.482424560546875,-1.9332079504609108,0.008563537944853305,-0.3542068211466074
1757088916152470500,0.492470458984375,-1.183096270123124,0.14469547118246553,-0.12152093182206153
1757088916162517500,0.502517578125,-0.18732640616297722,0.0227862706951797,-0.15212299083471298
1757088916172563500,0.5125634765625,0.11954057165980338,-0.34705475743487474,0.10768179156184196
1757088916182610400,0.5226103515625,0.10314181004464626,-0.4335634125865996,0.3765758893430233
1757088916192656600,0.53265673828125,0.0364554612159729,-0.3366518752336502,0.33343817388415337
1757088916202703600,0.54270361328125,-0.20735504871308802,-0.20850158839970825,0.24101649529635905
1757088916212749800,0.552749755859375,-0.3327385011821985,-0.17579671188890933,0.1688578525364399
1757088916222796800,0.562796875,-0.15099486358761788,-0.33024639210551976,0.1575245576173067
1757088916232842800,0.5728427734375,0.25583003354668615,-0.6014021512083709,0.04543780909478664
1757088916242889700,0.5828896484375,1.039791376516223,-0.7310755559563636,-0.15970950044095517
1757088916252935700,0.592935791015625,1.418866681459546,-0.5792918800786138,0.020761632999777794
1757088916262982700,0.602982666015625,1.3750585193932057,-0.6417971438303589,0.22993279122412202
1757088916273028600,0.613028564453125,1.5214426743149756,-0.2730608620718121,0.2981991027206182
1757088916283075600,0.62307568359375,1.558576180922985,-0.09096256582066416,0.019265256962180136
1757088916293121500,0.63312158203125,1.6758780337452888,-0.2678803906939924,0.2659720728546381
1757088916303168500,0.64316845703125,1.924926444327831,-0.22396876825317738,0.4704834225744009
1757088916313214500,0.65321435546875,1.447913912245631,-0.28851050626859065,0.06418167253136635
1757088916323261700,0.66326171875,0.7935311353474855,-0.0398484646551311,-0.2771113065063953
1757088916333307600,0.6733076171875,0.2812643345326185,0.09065861443802714,-0.3112631669551134
1757088916343354600,0.683354736328125,0.15188392138183116,-0.19670929766669867,-0.5756219593942165
1757088916353400800,0.69340087890625,0.568485531643033,-0.2439886429749429,-0.9655915833175182
1757088916363447600,0.703447509765625,0.6586620616525412,0.07575842081755399,-1.0683838492721318
1757088916373493800,0.71349365234375,0.2824012296080589,0.381332143959403,-1.0637877536535263
1757088916383540700,0.723540771484375,-0.5239274279922247,0.5686017053686082,-1.4058891264647244
1757088916393586700,0.733586669921875,-1.8389234006106852,0.853344675797224,-1.3506529769331217
1757088916403633700,0.743633544921875,-2.2812258538395165,0.8920851792104542,-1.244244274047017
1757088916413679600,0.7536796875,-2.1353619233995675,1.050328260360658,-1.4739572850406168
1757088916423726600,0.7637265625,-1.8222312090069055,1.2134006613634527,-1.3821926090568304
1757088916433772500,0.7737724609375,-1.4960715016931294,1.2946603099457918,-1.1635276463001967
1757088916443819500,0.783819580078125,-1.2893357539221644,1.166450109618157,-0.6821288619577884
1757088916453865500,0.793865478515625,-0.5111056480810046,0.7104073003284632,-0.10269815793037414
1757088916463912700,0.80391259765625,0.4300707481652498,0.22630773259475825,-0.07864625121355057
1757088916473958700,0.813958740234375,1.299692605024576,0.18567615473791957,-0.23589257641136646
1757088916484005600,0.824005615234375,2.242896999967098,0.44408509886190295,-0.5743132148832082
1757088916494051600,0.834051513671875,2.7475638471722603,0.764754465131089,-1.449019827660918
1757088916504098600,0.8440986328125,2.6072908686071634,0.8518607208497821,-2.535630238497257
1757088916514144800,0.854144775390625,1.429791980099678,1.2498356643132864,-2.094180018183589
1757088916524191700,0.864191650390625,-0.8619678349748253,1.7412883712887763,-0.6075637425780296
1757088916534237700,0.87423779296875,-3.3610379828378556,1.3538612714551388,0.5727583866566419
1757088916544284700,0.88428466796875,-6.073807287743687,0.39512324382681396,1.509636501187086
1757088916554330600,0.89433056640625,-7.161218493568897,-0.26398517335373906,1.7827677981466055
1757088916564377600,0.904377685546875,-5.396192103818058,-0.04212455636095255,1.558330097207427
1757088916574423600,0.914423583984375,-3.8269390460580586,0.32085528076272457,0.6759831988096237
1757088916584470500,0.924470458984375,-1.8430355121046305,0.4659403357846662,-0.7980056504130363
1757088916594516500,0.9345166015625,0.07098733395822346,0.41220469047650693,-1.8236019128382206
1757088916604563700,0.944563720703125,1.4560370129466056,0.3979339173333719,-2.346656065127253
1757088916614609700,0.954609619140625,2.3920909516125914,0.38635026438236236,-2.29453541726768
1757088916624656600,0.96465673828125,2.7306290789842604,0.22616193091589956,-1.8295681277662514
1757088916634702600,0.97470263671875,2.534806062632799,0.10523480026852339,-1.5410019457876682
1757088916644749600,0.98474951171875,1.9889760149121283,0.04459584184531122,-1.0725158345103263
1757088916654795500,0.99479541015625,1.446709212630987,-0.166484218740277,0.06376841555535794
1757088916664843000,1.004843017578125,0.9334487246036529,-0.49261674578618253,0.9092319827139377
1757088916674889000,1.014888916015625,0.24936522144675252,-0.6317726664874702,0.771039902076125
1757088916684936000,1.02493603515625,-0.22978140005469322,-0.3702587420854717,0.1576250953823328
1757088916694982100,1.034982177734375,-0.21763751940503714,0.18807795518264173,-0.5925654954105615
1757088916705029000,1.045029052734375,0.16397577958330511,0.7936931209761648,-1.3023276297032833
1757088916715075000,1.055074951171875,-0.0431435606777668,1.2318708224251866,-0.9809230079621076
1757088916725122300,1.065122314453125,-0.6137048756815493,1.216994375006482,-0.35303660832345485
1757088916735168300,1.075168212890625,-1.4252856085911392,0.8309623827930539,0.18650456838607787
1757088916745215200,1.08521533203125,-2.060421248705685,0.3207569349547848,0.5224953493624925
1757088916755261200,1.09526123046875,-2.2051230034984646,0.0033871764865703877,0.8730646907895803
1757088916765308200,1.10530810546875,-1.8750072520352898,-0.21585728492476045,0.8541103994727134
1757088916775354000,1.11535400390625,-1.1921956685103476,-0.3230212631575763,0.15108254187107084
1757088916785401000,1.125401123046875,-0.17993191199749708,-0.016806794426776468,-0.6297475173354149
1757088916795447000,1.135447021484375,0.5232230791151523,0.49249531136360014,-0.5200713370859623
1757088916805494000,1.145493896484375,0.8866124468877911,0.6574409954249858,-0.07794131781458855
1757088916815540000,1.1555400390625,1.0196804625101388,0.629589184968546,0.0959551134109497
1757088916825587000,1.1655869140625,0.6553218113139271,0.46788551503568887,0.48604807145297524
1757088916835633200,1.175633056640625,0.02963087589293718,0.1411105984330177,0.9217857593387365
1757088916845680000,1.18568017578125,-0.45259734501093624,-0.2028746701623313,1.1544067667335272
1757088916855726300,1.195726318359375,-0.6408221613183617,-0.18200930279344318,1.049561659902334
1757088916865773300,1.205773193359375,-0.5322688476189971,-0.10948051154688,0.3195294755190611
1757088916875819300,1.2158193359375,-0.3379894074477255,-0.019231738285068422,-0.2727630481690168
1757088916885866200,1.2258662109375,0.05522869687750935,0.2910866586332209,-0.624226708087325
1757088916895912200,1.235912109375,0.6004761224046349,0.840731204874441,-0.3185398799598217
1757088916905959200,1.245959228515625,0.9770119719982147,1.237714141625911,0.251188345220685
1757088916916005000,1.256005126953125,1.016228714621067,1.1781006537929177,0.7047796697050333
1757088916926052000,1.266052001953125,0.5844473631456494,0.8024339882493019,1.4069114552497863
1757088916936098000,1.27609814453125,-0.08527268361598253,0.30464367575012147,2.095063815280795
1757088916946145000,1.28614501953125,-0.8565610074952245,-0.4775692526495084,2.160589303636551
1757088916956191000,1.29619091796875,-1.294469025157392,-1.7510680070251226,1.2488310173153876
1757088916966238000,1.306238037109375,-1.2682292530074715,-2.476651395305991,0.7237941667765379
1757088916976284000,1.316283935546875,-0.8819117218509316,-2.668981893366575,0.5220575424671173
1757088916986331100,1.3263310546875,-0.22768676586300132,-2.5072838494569063,0.25773557490706445
1757088916996377300,1.33637744140625,0.32823388323932884,-2.505098322111368,-0.20652678119540213
1757088917006424000,1.346424072265625,0.6504153345718979,-2.314777994829416,-0.30472879675030706
1757088917016470300,1.35647021484375,0.7266618311673403,-1.7607612796522676,-0.08889175089597702
1757088917026517200,1.366517333984375,-0.08044482506811618,-1.1156009429991245,0.3311176219820976
1757088917036563200,1.376563232421875,-1.7725544471681116,-0.826446220542863,0.8354670738011598
1757088917046610200,1.386610107421875,-3.2976655808627604,-0.6193015266448259,1.1178963604599237
1757088917056656100,1.39665625,-3.912581439769268,0.03858925837427377,1.3248679628133773
1757088917066703000,1.406703125,-2.7684230953276154,0.6176655960060655,1.222140578788519
1757088917076749000,1.4167490234375,-1.3396375157915055,0.6583784224055707,0.9692220487743616
1757088917086796000,1.426796142578125,-0.6526711506746709,0.49807183285430073,1.0923381408333779
1757088917096842000,1.436842041015625,0.3636581017114222,0.5585421567123383,1.609884343355894
1757088917106889000,1.446888916015625,8.857560638672114,0.021510405540466307,1.704067186397314
1757088917116935000,1.456934814453125,8.231037344080208,-0.048517727996781466,1.1049614755630492
1757088917126982100,1.466982177734375,1.7349976005814969,0.06487718051485716,1.3596616282969713
1757088917137028000,1.477028076171875,1.052615202254057,-0.556512550580874,-0.4611971233129501
1757088917147075000,1.487074951171875,1.4615806185483933,-0.28403051131032403,-0.6945663187265396
1757088917157121300,1.497121337890625,1.5409306341171263,-0.15952917543798684,-0.4021341089695692
1757088917167168300,1.507168212890625,0.6711795979201793,-0.6416238330900669,-0.4799100070893764
1757088917177214200,1.517214111328125,0.11244104185290633,-0.8892943794481456,-0.7206055998682975
1757088917187261200,1.52726123046875,-0.3122387339890003,-0.5609915226258337,-0.42168110548257826
1757088917197307100,1.53730712890625,-0.7158756487369536,-0.3880504924289882,-0.06803016465306282
1757088917207354000,1.54735400390625,-0.7903589350521564,-0.06424319346025585,0.3023334260463714
1757088917217400000,1.557400146484375,-0.6583434241574257,0.22221030721329152,0.43034664249718185
1757088917227447000,1.567447021484375,-0.6288403393626213,0.30155856921635565,0.19859598819613455
1757088917237494300,1.577494384765625,-0.5567150874156505,0.20153613330125808,-0.062494742357730865
1757088917247540200,1.587540283203125,-0.1817418840289116,0.06205868902802467,-0.1817097353249788
1757088917257587200,1.597587158203125,0.003977160002663732,-0.10256218352578579,-0.2330664130747318
1757088917267633200,1.607633056640625,0.49480947005748743,-0.3685915395256132,-0.6319388898998498
1757088917277680000,1.61768017578125,0.6081144352633505,-0.46290516933985054,-0.765519677349925
1757088917287726000,1.62772607421875,0.6963888579785823,-0.5498395025577396,-0.7299871761977672
1757088917297773000,1.63777294921875,0.7302782680988311,-0.36184118848256763,-0.4377332456171512
1757088917307819000,1.647819091796875,0.3051367199640721,-0.07770378273166716,-0.11556523828804492
1757088917317866000,1.657865966796875,-0.2051391992945224,0.13944588009119033,0.1195446633130312
1757088917327912200,1.667912109375,-0.5197265422362833,0.22823080961182712,0.3926432270467281
1757088917337959200,1.677959228515625,-0.5606664553899318,0.15241722454093395,0.48676644885540005
1757088917348005000,1.688005126953125,-0.25773433279804886,0.12407536554522812,0.19298399353325366
1757088917358052000,1.698052001953125,0.09841945769786835,0.16816241761818526,-0.060734746947884555
1757088917368098000,1.70809814453125,0.3307797683298588,0.11443082743063568,-0.04035714482963085
1757088917378145300,1.718145263671875,0.5388005874752998,0.20054032719694076,-0.0706102442741394
1757088917388191200,1.728191162109375,0.6199485193114728,0.2969553132046014,0.1752747338414192
1757088917398238200,1.73823828125,0.5680640182953327,0.21646277653723953,0.5806950248748064
1757088917408285200,1.74828515625,0.20480470664314923,0.1713029806662351,0.6569651946067809
1757088917418331100,1.7583310546875,-0.0890320361495018,0.154928842035681,0.45411154896616934
1757088917428378000,1.768378173828125,-0.33993462323136625,0.23503844380006192,0.25412849032580853
1757088917438424000,1.778424072265625,-0.40932665082216263,0.13204568683728574,0.008176292192935943
1757088917448471000,1.788470947265625,-0.1920830991707742,-0.11223565547391771,-0.11300678597688674
1757088917458517000,1.79851708984375,-0.025965485253185032,-0.3027539164807647,-0.32232816632688044
1757088917468564000,1.80856396484375,0.03347783364467322,-0.3788963681798428,-0.38974867464900015
1757088917478610000,1.81860986328125,-0.05972060146927833,-0.4485842369120568,-0.32706220911145206
1757088917488657200,1.8286572265625,-0.16726451893039046,-0.4496855492174625,-0.2873550526231527
1757088917498703400,1.838703369140625,-0.08756254811882973,-0.35757381336167454,-0.2342120759785175
1757088917508750000,1.84875,0.0523193853020668,-0.28947599029988047,-0.10681202298998832
1757088917518797000,1.858797119140625,0.01556106868200004,-0.25477884399332107,-0.10760697275996207
1757088917528843300,1.86884326171875,-0.0844225695926696,-0.1611026352997869,-0.114794838437438
1757088917538890200,1.87889013671875,-0.06441906148381531,-0.09795819686166941,-0.07824176206588744
1757088917548936200,1.888936279296875,-0.022984715876728293,-0.08067856075875461,-0.09629530515074729
1757088917558983200,1.898983154296875,-0.03243168559260666,-0.06587810118570923,-0.03776303668320179
1757088917569029000,1.909029052734375,-0.051236923827603455,-0.06689180827289819,0.02435235096812248
1757088917579076000,1.919076171875,-0.1488414849460125,-0.0926161051813513,0.059382747817039484
1757088917589122000,1.9291220703125,-0.22218612262010573,-0.10077259669527411,0.06813420954942703
1757088917599169000,1.9391689453125,-0.24607085607647894,-0.09903101372495293,0.0756599288791418
1757088917609215000,1.949215087890625,-0.22376666980981824,-0.14400142450369893,0.04606909273564815
1757088917619262200,1.95926220703125,-0.1899976711988449,-0.11701149157360195,0.01007657285630703
1757088917629309200,1.96930908203125,-0.21189042712040243,0.007177344283461571,0.035195816543698306
1757088917639355100,1.979355224609375,-0.16509586965441703,-0.49184024498835205,0.18235329392552374
1757088917649402000,1.989402099609375,-0.03933013986945152,-0.2997110416535288,0.050364159581065174
1757088917659447600,1.999447509765625,-0.06009937165379524,-0.050848070640489455,-0.23843758471906185
1757088917669494300,2.009494384765625,-0.15337152959108352,-0.0037329759832471607,-0.22046002947986124
1757088917679540500,2.01954052734375,-0.14000219879969952,0.041523046803846955,-0.07024725618064404
1757088917689587500,2.02958740234375,-0.024969606083631513,0.04171988455019891,-0.10060732313096522
1757088917699633400,2.03963330078125,0.0651427726484835,0.10757592003457248,-0.03228314396739006
1757088917709680400,2.049680419921875,0.025108868423849344,0.100420787582919,-0.09088087888658046
1757088917719726300,2.059726318359375,-0.0382944401461631,0.10118117749616504,-0.1419002875059843
1757088917729773300,2.069773193359375,-0.041298809593915936,0.1410646403994411,-0.026355507484078406
1757088917739820300,2.0798203125,-0.07434183201789855,0.16898177117705343,0.11190028603971004
1757088917749866200,2.0898662109375,-0.10765731470771134,0.18333127211220562,0.22722177869975566
1757088917759913500,2.09991357421875,-0.051726680105924606,0.19129560205489396,0.29580665462613104
1757088917769959400,2.10995947265625,-0.018122735863551495,0.1692272703707218,0.20921324380040168
1757088917780006400,2.12000634765625,0.0037793724082410335,0.15990071216411889,0.19875848528146742
1757088917790052400,2.13005224609375,-0.050945904991775745,0.1280770754672587,0.15932722312510011
1757088917800099300,2.140099365234375,-0.12022811553254723,0.038707404861226674,-0.04091653227806091
1757088917810145300,2.150145263671875,-0.11257058651670813,-0.044883317017182706,-0.20048224033415316
1757088917820192300,2.160192138671875,-0.02599003517255187,-0.1161517329391092,-0.29685236428678036
1757088917830239200,2.1702392578125,0.05304886862039566,-0.16115107755139468,-0.3960585884481668
1757088917840285200,2.18028515625,0.15752981831431387,-0.17087291868589818,-0.42070203131735323
1757088917850332200,2.190332275390625,0.19713702155947685,-0.1875700787257403,-0.3618435996353626
1757088917860378400,2.20037841796875,0.14394772155508398,-0.18575572278015315,-0.26189912432730195
1757088917870425300,2.21042529296875,0.1137234098136425,-0.14575827810838818,-0.15728198103308677
1757088917880471300,2.22047119140625,0.019879735598713158,-0.10911723119243978,-0.06715747347176075
1757088917890518500,2.2305185546875,-0.06791559836268425,-0.075604545430094,0.0022439795345067974
1757088917900564500,2.240564453125,-0.14685644860863684,-0.04795271452516317,0.02200608010292053
1757088917910611500,2.250611572265625,-0.13949395701661704,0.03286949248798191,-0.059276949355006214
1757088917920657400,2.260657470703125,-0.10576792076453566,0.05815532491393387,-0.16366554459035396
1757088917930704400,2.270704345703125,-0.04052124935016036,0.028405425751209256,-0.20984102030992507
1757088917940751400,2.28075146484375,-0.00964344213604927,-0.004450622733309865,-0.22027590508460998
1757088917950797300,2.29079736328125,0.004255173226445913,-0.02548508132509887,-0.16154840630590914
1757088917960844300,2.30084423828125,0.006829699889570474,-0.05451433806307614,-0.05146773690879344
1757088917970890200,2.31089013671875,-0.043575960745662445,-0.07297887310162186,0.0332049349874258
1757088917980937200,2.320937255859375,-0.09573869418129324,-0.05656067613363266,0.14442542206943035
1757088917990983200,2.330983154296875,-0.1461770880423486,-0.016087649839371443,0.1831400603890419
1757088918001030400,2.341030517578125,-0.16427403187751768,0.019453984467312693,0.21446458845734595
1757088918011076400,2.351076416015625,-0.15772051858082412,0.04712035535424947,0.19088497542738914
1757088918021123300,2.361123291015625,-0.1317592711113393,0.039849925959855315,0.1028694228440523
1757088918031169500,2.37116943359375,-0.11402502310872077,0.03078296853750944,0.056363107734918594
1757088918041216300,2.38121630859375,-0.07618892118930816,0.0209115628644824,0.033819267493486405
1757088918051263200,2.39126318359375,-0.05866612398028374,0.007737170123308897,-0.05225274980664253
1757088918061309400,2.401309326171875,-0.032750615348666905,-0.000098272742703557,-0.1267722764790058
1757088918071356400,2.4113564453125,0.029304420417547224,-0.056380278065428134,-0.13726210631132124
1757088918081402400,2.42140234375,0.06086158819794654,-0.11656374780610203,-0.15791151110827922
1757088918091449300,2.431449462890625,0.09451032143011688,-0.14928886338733136,-0.18163374747931957
1757088918101495300,2.441495361328125,0.08640519477725028,-0.15910517787225545,-0.20676058995127677
1757088918111542300,2.451542236328125,0.023409955551475285,-0.17140344536602495,-0.21766075415015218
1757088918121588200,2.461588134765625,-0.051391164541244504,-0.1835376814045012,-0.22037235119640827
1757088918131635500,2.471635498046875,-0.06915113150700926,-0.15718721542172134,-0.1638677891641855
1757088918141682400,2.481682373046875,-0.10830591480955482,-0.09542305236086249,-0.051507484397292136
1757088918151728400,2.491728271484375,-0.13429156606793402,-0.012815130974724889,0.06965981168150902
1757088918161775400,2.501775390625,-0.09924714069366454,0.08823650185763836,0.09555471591651439
1757088918171821300,2.5118212890625,-0.12995660560354588,0.16097075254842638,0.018859598770737646
1757088918181868300,2.521868408203125,-0.14551329037137328,0.18076631699502468,0.02747720499038696
1757088918191914200,2.531914306640625,-0.12934183470606803,0.1708844629932195,0.027813305076956747
1757088918201961200,2.541961181640625,-0.14358561024442315,0.11639781665466725,-0.027128245422244072
1757088918212007200,2.552007080078125,-0.12400281176567077,0.026700740725174546,-0.07426818225979805
1757088918222054100,2.56205419921875,-0.06697802525162697,-0.0590034661758691,-0.13543605992794036
1757088918232101400,2.572101318359375,-0.020553981598466633,-0.10775595277659594,-0.19893910254538058
1757088918242147300,2.582147216796875,-0.020230156471580267,-0.16532273721285162,-0.22512568320333956
1757088918252194300,2.5921943359375,-0.046886911924555894,-0.2168115169096738,-0.1710492251008749
1757088918262240500,2.602240478515625,-0.061599254822731014,-0.2109166136521846,-0.08267652964293956
1757088918272287500,2.61228759765625,-0.09530863220095634,-0.18045710491538047,0.018394903868436813
1757088918282333400,2.62233349609375,-0.12888824571967125,-0.17284319584555924,0.09481646476984024
1757088918292380400,2.63238037109375,-0.11399228988289832,-0.12051036654002964,0.09850888954699039
1757088918302427400,2.642427490234375,-0.12376651879176497,-0.06857895764224231,0.07234978141784668
1757088918312473300,2.652473388671875,-0.12580299305543302,-0.026629355989396572,0.028614684587717053
1757088918322520300,2.662520263671875,-0.11412439182996749,0.005706029621884227,-0.012917933762073517
1757088918332566300,2.672566162109375,-0.0927821824632585,0.021276962110772728,-0.04739011220633983
1757088918342613200,2.68261328125,-0.06153261932730674,0.001432005564495921,-0.04826163434386253
1757088918352659200,2.6926591796875,-0.07019406468868256,-0.013132672491297124,-0.03610299451649189
1757088918362706400,2.70270654296875,-0.10099836827516555,-0.032121304469183085,-0.0073369187593460075
1757088918372752400,2.71275244140625,-0.10376900203227996,-0.06798398742377758,-0.022449147695302964
1757088918382799400,2.72279931640625,-0.0517171816252172,-0.07531688759513198,-0.06847264772355556
1757088918392846300,2.732846435546875,-0.0010157529138028621,-0.08756422861926257,-0.13002806340456008
1757088918402892300,2.742892333984375,0.041069530882686375,-0.11055237856209277,-0.19694763646721838
1757088918412939300,2.752939208984375,0.08297609711140394,-0.0585517768856138,-0.23557751911282537
1757088918422985200,2.762985107421875,0.06998012967705726,-0.036228739788010715,-0.21212124020159243
1757088918433032200,2.7730322265625,0.072144029712677,-0.03900412278547883,-0.1478682559996843
1757088918443078400,2.783078369140625,0.0871161195255816,-0.009634089785814285,-0.11728431716561316
1757088918453125000,2.793125,0.023473083915561438,-0.003212532305717468,-0.05039923089444637
1757088918463172400,2.80317236328125,-0.04886617610827088,0.004964636670053005,-0.006624386575818061
1757088918473218600,2.813218505859375,-0.06193243229985237,0.016864844756945968,-0.00007715688943862914
1757088918483265300,2.823265380859375,-0.007325082191079854,0.058231897281482814,-0.032739655563235284
1757088918493311500,2.8333115234375,0.033077070824056864,0.07305873340480029,-0.05712473975718021
1757088918503358500,2.8433583984375,0.04998480487465858,0.060108943199738855,-0.08602233293950558
1757088918513404400,2.853404296875,0.1017933180451393,0.0615923866905272,-0.04330371967554092
1757088918523451400,2.863451416015625,0.10904138947725295,0.06639715662375092,-0.022947160345315933
1757088918533497300,2.873497314453125,0.06090016664266586,0.03084690061919391,0.0116986211001873
1757088918543544300,2.88354443359375,0.04061024280786514,0.027059344904497264,-0.02675707402229309
1757088918553591300,2.89359130859375,0.04192541705965996,-0.019264745505526662,-0.07194704583585262
1757088918563637200,2.90363720703125,0.05491232440471649,-0.03882759717479348,-0.09069324735999107
1757088918573684200,2.913684326171875,0.1185037759579718,-0.03974610025919974,-0.13775310469865798
1757088918583730200,2.923730224609375,0.138641724101454,-0.037229149002209305,-0.1525187121540308
1757088918593777400,2.93377734375,0.11199892410859465,-0.02167933236658573,-0.14437281509935854
1757088918603823400,2.9438232421875,0.08359364448785782,0.018456497862562538,-0.16235563103556633
1757088918613870300,2.953870361328125,0.06746303228959441,0.029534648976847527,-0.12280980258882045
1757088918623917300,2.963917236328125,0.03676759590506554,0.010775076514482498,-0.09325345323681831
1757088918633963300,2.97396337890625,0.03004091799855232,-0.0373513140771538,-0.09758417591750622
1757088918644010200,2.98401025390625,0.061368807067722075,-0.06658698010742664,-0.09206278214752674
1757088918654056200,2.99405615234375,0.03357946738824248,-0.09818411457203328,-0.02802314843535423
1757088918664104000,3.00410400390625,-0.06605915684103965,-0.12246062382496893,0.04963233817517757
1757088918674150000,3.01414990234375,-0.16289835961014032,-0.16281769558936357,-0.008708207112550735
1757088918684196900,3.02419677734375,-0.24696882782950996,-0.18521628214120864,-0.08013327490091324
1757088918694243000,3.0342431640625,-0.31256372815966604,-0.18099493811912834,-0.11605272954404354
1757088918704289800,3.044289794921875,-0.36133988789692517,-0.15628471362404525,-0.1827747342079878
1757088918714336800,3.054336669921875,-0.3799661163032055,-0.1440687906514853,-0.276397605279088
1757088918724383000,3.064383056640625,-0.3648984571613371,-0.12440430523864925,-0.37753567428588863
1757088918734430000,3.074429931640625,-0.29797289274930955,-0.11372136398702859,-0.4187117342829704
1757088918744476000,3.084475830078125,-0.22760127953663467,-0.09031118923984467,-0.3831891700029373
1757088918754523100,3.094523193359375,-0.1192855739854276,-0.05936630813889205,-0.30663726072013375
1757088918764569000,3.104569091796875,0.02418985388278961,-0.042706995891407126,-0.1966676504820585
1757088918774616000,3.114615966796875,0.12641791008338332,-0.031804274409264324,-0.05526362206041813
1757088918784662000,3.124662109375,0.19266177584156394,-0.016266513537615535,0.04042728745639324
1757088918794709000,3.134708984375,0.1687500082477927,0.005391702975705266,0.0855202286362648
1757088918804756000,3.144755859375,0.10517053939327597,0.056012102340161796,0.09368775300085544
1757088918814802000,3.154802001953125,0.006491700106859207,0.09112864310257136,0.098556235820055
1757088918824849000,3.164848876953125,-0.08509834996238351,0.09317673473879694,0.09203180248737335
1757088918834894800,3.174894775390625,-0.12482494180351494,0.08362177460379898,0.08942015868425368
1757088918844941800,3.18494189453125,-0.11949059503823518,0.035418300187960265,0.08977087181806563
1757088918854987800,3.19498779296875,-0.13375512110367416,0.0049047962415963405,0.11084814663827419
1757088918865035000,3.205034912109375,-0.15664602121710777,-0.04406323280595243,0.11944880172312258
1757088918875082000,3.21508203125,-0.19123700373545288,-0.07067717203050851,0.10583645595610142
1757088918885128000,3.2251279296875,-0.24589681468382477,-0.0986197295103222,0.0783007987767458
1757088918895175000,3.2351748046875,-0.24018135964646933,-0.12055486326888203,0.0019739304214715955
1757088918905220900,3.245220947265625,-0.21511004675403236,-0.12831475668065248,-0.07726444146633148
1757088918915267800,3.255267822265625,-0.14531345695033668,-0.09766396315544842,-0.10407353793680667
1757088918925314000,3.26531396484375,-0.11591083685532212,-0.07116254439465701,-0.12334288655221462
1757088918935361000,3.275361083984375,-0.10994389127492904,-0.09068528324924409,-0.13904080642163752
1757088918945407000,3.285406982421875,-0.11882628591060637,-0.09723682378455996,-0.11675649389922618
1757088918955454000,3.295453857421875,-0.17490297791957854,-0.10329714673683046,-0.09705343004167079
1757088918965501200,3.305501220703125,-0.23380641778707503,-0.08140256418436766,-0.09616261868178844
1757088918975547100,3.315547119140625,-0.1869653177656233,-0.06730411540083586,-0.11567395935952662
1757088918985594000,3.325593994140625,-0.11164031992927193,-0.09351590356528758,-0.12949907109439374
1757088918995640000,3.33564013671875,-0.010231617287546395,-0.12159392399303615,-0.15373685577213764
1757088919005687000,3.34568701171875,0.059912470779567954,-0.11957410860322415,-0.142723294326663
1757088919015733000,3.35573291015625,0.025198592533916233,-0.14563348268494009,-0.1263946753382683
1757088919025780000,3.365780029296875,-0.007123276008665561,-0.16137158843427896,-0.14668985987007618
1757088919035826000,3.375825927734375,-0.007504238150268793,-0.17821758236028254,-0.1878933923959732
1757088919045873000,3.385872802734375,0.0006229542039334774,-0.149941335946694,-0.12882687092125414
1757088919055919900,3.395919921875,-0.019361849204450846,-0.1348950118537992,-0.01569967343509197
1757088919065965800,3.4059658203125,-0.05270633879303932,-0.09629596273787319,0.06939268517792224
1757088919076012800,3.4160126953125,-0.09014365065321325,-0.0549083788819611,0.06099018301367759
1757088919086058800,3.426058837890625,-0.05678747062683105,-0.0029728783309459685,0.06175123051404953
1757088919096106000,3.43610595703125,-0.08623699860349297,0.007460618204250932,0.0410737686663866
1757088919106152000,3.44615185546875,-0.06838438491821289,0.03202916920632124,0.018733926564455033
1757088919116199000,3.456198974609375,-0.04760463173985481,0.05282178186625242,-0.02590133397579193
1757088919126245000,3.4662451171875,-0.013493249431997537,0.04502038740031421,-0.08135083399713039
1757088919136292000,3.4762919921875,0.02168561597689986,0.05399908201731741,-0.11513327661156654
1757088919146338800,3.4863388671875,0.04595043479204178,0.03422507181540131,-0.10171674567759037
1757088919156385000,3.496385009765625,0.040367227832227945,0.019605448701977727,-0.07412146726548671
1757088919166432000,3.506431884765625,0.024213380888849497,0.03267579654678702,-0.0071329206198453895
1757088919176478000,3.51647802734375,-0.05078793795108795,0.016736834463104606,0.012711013013124465
1757088919186525000,3.52652490234375,-0.08169979356527328,0.001426671802252531,-0.00010287585258483886
1757088919196571000,3.53657080078125,-0.0643326253093779,-0.003403232572227716,-0.04783551788628101
1757088919206618000,3.5466181640625,-0.08199921490326523,-0.006070113693922758,-0.0775076025724411
1757088919216665000,3.5566650390625,-0.08037307500615716,0.0006268997266888619,-0.0650508565813303
1757088919226711000,3.5667109375,-0.08745382704734801,0.0037089375205338,-0.05667758051156997
1757088919236758000,3.576758056640625,-0.05573883835673332,0.011435367054119705,-0.02915770542323589
1757088919246804000,3.586803955078125,-0.043175270990282295,0.02073817905895412,-0.02300911966562271
1757088919256851000,3.596850830078125,-0.049930152077972884,0.013683949698507785,-0.05112871421277523
1757088919266897000,3.60689697265625,-0.04560892787799239,-0.0029617724150419232,-0.05543313340842723
1757088919276944000,3.61694384765625,-0.044888943040370936,-0.04641067271493375,-0.06012392157316208
1757088919286989800,3.62698974609375,-0.05144508668556809,-0.07463738089837134,-0.06925415349006653
1757088919297036800,3.637036865234375,-0.024729952108860014,-0.0909513137742877,-0.07545768430531025
1757088919307083800,3.647083740234375,-0.013075754672288893,-0.07405702372714877,-0.09644494275450706
1757088919317129700,3.657129638671875,-0.037628012126684186,-0.070469739824906,-0.12381342667341232
1757088919327177000,3.667177001953125,-0.04947042561173439,-0.08800780766829848,-0.12405834134519099
1757088919337223200,3.67722314453125,-0.07080313649773597,-0.08955562163218855,-0.08091185805797577
1757088919347270000,3.687269775390625,-0.08502659990042448,-0.07026610701158642,-0.040349546045064924
1757088919357316000,3.697316162109375,-0.08862886217609048,-0.08600048643387853,-0.009413725033402442
1757088919367363000,3.707363037109375,-0.07012260688766837,-0.06173815183676779,-0.0035667525708675384
1757088919377409000,3.717408935546875,-0.05384747165217995,-0.024816022957116365,-0.01786123538315296
1757088919387456000,3.7274560546875,-0.03545943591594696,-0.01239537119269371,-0.05829319901466369
1757088919397503000,3.7375029296875,-0.0321929814659059,0.010196984365582466,-0.06233925953507423
1757088919407549000,3.747548828125,-0.04712298570275306,0.008745178122073411,-0.051291795819997786
1757088919417596000,3.757595947265625,-0.07167626607045531,-0.011245324374735355,-0.08196692006886006
1757088919427641900,3.767641845703125,-0.07713233951926231,-0.02458119128793478,-0.06579670651257037
1757088919437689000,3.777689208984375,-0.05295899837985635,-0.03135981857739389,-0.05532441233694553
1757088919447735000,3.787735107421875,-0.058895256561040873,-0.050143940959125756,-0.08465455171763897
1757088919457782000,3.797781982421875,-0.04953340784534812,-0.046557679970189926,-0.09932371306121349
1757088919467828000,3.807827880859375,-0.046279959007352586,-0.04194740969575941,-0.10156126285493373
1757088919477875000,3.817875,-0.06875730988383293,-0.036409283986687656,-0.10496493381857872
1757088919487922000,3.827921875,-0.09964213136062025,-0.02454392801746726,-0.11746025825440883
1757088919497967900,3.8379677734375,-0.12212415841221809,-0.03663111004382372,-0.10052198293507099
1757088919508014800,3.848014892578125,-0.10234963675364851,-0.02447999593578279,-0.10041326186358929
1757088919518060800,3.858060791015625,-0.05377469867691397,-0.051653249543532724,-0.0735907213896513
1757088919528107800,3.868107666015625,-0.018141075237840414,-0.04373538909107447,-0.052962359380722045
1757088919538154000,3.878154052734375,-0.031150486675649878,-0.05002557527646422,-0.03697334761023521
1757088919548201000,3.888200927734375,-0.031450930926948784,-0.07071648112758994,-0.04431494254469871
1757088919558247000,3.898246826171875,-0.028806407767534254,-0.07967004130333662,-0.06214578278958797
1757088919568294100,3.908294189453125,-0.042726358179003,-0.07580394045971334,-0.03577916938960552
1757088919578340000,3.918340087890625,-0.0576782819867134,-0.07752762244716287,-0.047238721036911006
1757088919588387000,3.928386962890625,-0.04422258808612823,-0.08246741693690418,-0.06315700565874577
1757088919598434000,3.93843408203125,-0.00048281508088111874,-0.072222355645895,-0.08191782023012638
1757088919608480000,3.94847998046875,0.007395224817842245,-0.06658617638982832,-0.11549568018317222
1757088919618527000,3.95852685546875,0.007628887443244457,-0.05142192500568926,-0.10013619848787784
1757088919628573000,3.968572998046875,0.005205605819076299,-0.045761195830255744,-0.09311199893951415
1757088919638620000,3.978619873046875,-0.019154928455501794,-0.06503025218471885,-0.09343348597884178
1757088919648665900,3.988665771484375,-0.02063976018577814,-0.031151801849901673,-0.08271803069710731
1757088919658712800,3.998712890625,-0.009615385085344314,-0.038369989600405094,-0.044158290678262706
1757088919668759000,4.008759033203125,-0.03562091008797288,-0.03634995501488447,-0.03467150040864944
1757088919678806000,4.018805908203125,-0.06023045068755745,-0.03150090754851698,-0.031467151409387585
1757088919688853000,4.02885302734375,-0.08128829015493393,-0.0022630495611578225,-0.053795303073525425
1757088919698899000,4.03889892578125,-0.09414543364048003,0.01906301238834858,-0.0921691651314497
1757088919708946200,4.0489462890625,-0.04670680611729622,-0.0072698448725044724,-0.11504910545945167
1757088919718992100,4.0589921875,-0.019819091452658175,-0.010399375069886446,-0.11230009901225566
1757088919729039000,4.0690390625,0.037509938704967494,0.004862345339357852,-0.08955050706565379
1757088919739085300,4.079085205078125,0.04100172634348273,0.0277292800553143,-0.045505029112100595
1757088919749132000,4.089132080078125,-0.012777794639021157,0.007154840190708637,-0.029791911673545834
1757088919759178200,4.09917822265625,-0.062290305826812976,-0.00001147124208509922,-0.007698737809062004
1757088919769225200,4.10922509765625,-0.10383329944014548,-0.00042019817344844337,-0.03847147721350193
1757088919779272200,4.119272216796875,-0.0646316082559526,-0.026414178868755696,-0.08070026113390923
1757088919789318100,4.129318115234375,-0.05365428716763854,-0.03259491333030164,-0.0802963565081358
1757088919799365000,4.139365234375,-0.01293780750632286,-0.03355345616415143,-0.1024386302113533
1757088919809411000,4.1494111328125,-0.00001651274338364601,-0.01869286390170455,-0.10753741465508937
1757088919819458000,4.1594580078125,-0.02450330374613404,-0.00007657236754894256,-0.0774374599456787
1757088919829504000,4.16950390625,-0.055091188102960584,-0.030202976692467926,-0.06687573392093181
1757088919839551200,4.17955126953125,-0.0474655155301094,-0.04711239124350249,-0.04125730853974819
1757088919849597200,4.18959716796875,-0.0550993714094162,-0.06291632877066732,-0.008483750706911087
1757088919859644200,4.19964404296875,-0.04193243132233619,-0.0719691846024245,-0.04473696734905243
1757088919869691100,4.209691162109375,-0.014802432334423065,-0.06992423477135598,-0.07333236271440982
1757088919879737000,4.219737060546875,0.006774462570995092,-0.049978521264344454,-0.08816168305575847
1757088919889784000,4.2297841796875,0.010501666400581597,-0.03740874335281551,-0.09560440027713775
1757088919899830000,4.239830078125,-0.009715046067535876,-0.010326382898911832,-0.10150924040675163
1757088919909877000,4.249876953125,-0.028584289449453352,-0.009706278239190578,-0.08869535154104233
1757088919919923000,4.2599228515625,-0.05016600666046142,-0.013378756206855177,-0.06730418846607208
1757088919929970000,4.269969970703125,-0.07375979434624313,-0.03070866119228303,-0.06958323931396007
1757088919940016000,4.28001611328125,-0.07411854465603827,-0.04946465345807373,-0.04444821353554725
1757088919950063000,4.29006298828125,-0.08209010805711149,-0.07596066539138555,-0.054577393361926074
1757088919960110000,4.300110107421875,-0.0680441931784153,-0.08260536410287023,-0.060166591671109194
1757088919970156300,4.31015625,-0.05052271114364266,-0.07261829616092146,-0.08550795367658137
1757088919980203300,4.320203369140625,-0.029698534301668404,-0.04847250061556697,-0.10414894126057624
1757088919990249200,4.330249267578125,-0.02635039291754365,-0.020932021130621432,-0.11417582975625991
1757088920000296200,4.340296142578125,-0.016304653590917588,-0.018525690641254186,-0.11454349402487277
1757088920010342100,4.350342041015625,-0.021363106024265287,-0.022962357914447784,-0.11446750617921352
1757088920020389000,4.36038916015625,-0.021488193708658218,-0.0028683219779282805,-0.07003799734413624
1757088920030435000,4.37043505859375,-0.04380173232555389,-0.006631839229911565,-0.03739595693647861
1757088920040482000,4.38048193359375,-0.06387187592983246,-0.023477687025442718,-0.03397533483803272
1757088920050529300,4.390529296875,-0.051483665130287404,-0.01138612108491361,-0.020683891588449476
1757088920060575000,4.400574951171875,-0.04426102040037513,-0.020509850195795296,-0.015322072294354437
1757088920070622200,4.410622314453125,-0.052600978722423315,-0.014289075984805822,-0.032114801663160324
1757088920080668200,4.420668212890625,-0.043051206219196315,-0.010125964955985545,-0.05996083996593952
1757088920090715100,4.430715087890625,-0.043901247177273034,-0.01672923567853868,-0.10313771839141846
1757088920100761000,4.440760986328125,-0.025253537591546773,-0.028492957904189823,-0.12271452552080153
1757088920110808000,4.45080810546875,-0.017299363716691732,-0.036071868725866076,-0.118903442800045
1757088920120854000,4.46085400390625,-0.041606414238363504,-0.03686090021170676,-0.10946867497861384
1757088920130901000,4.47090087890625,-0.05512289841547608,-0.03207235076092183,-0.08980828121900558
1757088920140948000,4.480947998046875,-0.06704466074705123,-0.03518646419346332,-0.07704758384525776
1757088920150994200,4.490994140625,-0.044855040770769114,-0.04153977874293923,-0.04108429006040096
1757088920161041000,4.501041015625,-0.039839842957258224,-0.041126594832167025,-0.03475567156076431
1757088920171087000,4.511087158203125,-0.02652925661578774,-0.025583719393983483,-0.044592005920410155
1757088920181134300,4.52113427734375,-0.017053864523023366,-0.027487068797275423,-0.05891513030529022
1757088920191180300,4.53118017578125,-0.017584610398858783,-0.03178425453454256,-0.07695289129912852
1757088920201227300,4.541227294921875,-0.031252047353982924,-0.021603271455690264,-0.08866320283710956
1757088920211273200,4.551273193359375,-0.04241144701093435,-0.027642697750404475,-0.09622165539264678
1757088920221320200,4.5613203125,-0.040208237878233195,-0.04394735134132206,-0.06072539459764957
1757088920231367200,4.5713671875,-0.03439092990159988,-0.044216450606286525,-0.027154548907279967
1757088920241413000,4.5814130859375,-0.030063422091305254,-0.06080817751027643,-0.009868483063578605
1757088920251460000,4.591460205078125,-0.053273471156507726,-0.05967595860995352,-0.013283259943127632
1757088920261506000,4.601506103515625,-0.03799377669915557,-0.053727863860502836,-0.012473112604022025
1757088920271553000,4.611552978515625,-0.044138416934013366,-0.019307123342528938,-0.06254559576213359
1757088920281599000,4.621598876953125,-0.025541414622217415,-0.017987857437506315,-0.11992694062888622
1757088920291646200,4.631646240234375,-0.022262246821075676,-0.01391878136768937,-0.15529986730515957
1757088920301692000,4.64169189453125,-0.003296849588304758,-0.007181509001925587,-0.1592290234476328
1757088920311739100,4.6517392578125,-0.01669642938748002,-0.001959317374229431,-0.13465280059576035
1757088920321786000,4.6617861328125,-0.03879486394897103,-0.0279358354780823,-0.09363456150889396
1757088920331832000,4.67183203125,-0.042216508960723875,-0.03260192759297788,-0.05963701483905315
1757088920341879000,4.681879150390625,-0.024837504136562345,-0.04965001996234059,-0.028200258567929265
1757088920351925200,4.69192529296875,-0.02613748081922531,-0.054661856774985786,-0.02358078207373619
1757088920361972000,4.701971923828125,-0.011730185282230377,-0.02807970092818141,-0.05461889441609382
1757088920372018200,4.71201806640625,-0.008055003900825976,-0.005663286458700895,-0.09779577284157276
1757088920382065200,4.722065185546875,-0.011178542748838663,-0.019415113761648534,-0.13096271390616893
1757088920392111000,4.732111083984375,0.005090162745863199,-0.03576740588657558,-0.1264373454362154
1757088920402158000,4.742157958984375,-0.003580634965747595,-0.04127141013033688,-0.11703180370926856
1757088920412205300,4.752205322265625,-0.0005529577076435089,-0.06609642011150717,-0.1132177983790636
1757088920422251300,4.762251220703125,0.018179653682559728,-0.07458915784247219,-0.08228489997684955
1757088920432298200,4.77229833984375,0.005157967285066843,-0.034568040034174914,-0.08044131793677807
1757088920442344200,4.78234423828125,-0.004354541947692633,0.014149959775060415,-0.06639350336194039
1757088920452391200,4.79239111328125,-0.07235664955005049,0.0438612074278295,-0.02902735704183578
1757088920462437000,4.80243701171875,-0.11671499284505843,0.07529489495903254,0.0069254153490066524
1757088920472484000,4.812484130859375,-0.12928805869221688,0.05212846583984792,0.031186580902338026
1757088920482530000,4.822530029296875,-0.13985738350152968,-0.0013447656724601984,0.01300619656741619
1757088920492577000,4.832576904296875,-0.2075473564147949,-0.10079363948330283,0.02933773816525936
1757088920502624000,4.8426240234375,0.19168591654673217,0.02811250721924007,0.039651626908779145
1757088920512670000,4.852669921875,0.004567307915538549,-0.012368994642421603,-0.0919815336048603
1757088920522717200,4.86271728515625,-0.10851882690787315,-0.11354096591882407,-0.005846387940645218
1757088920532763100,4.87276318359375,-0.1328209089934826,-0.08903700458556413,-0.05456394935846329
1757088920542810000,4.88281005859375,-0.10481880334615706,-0.014885799768939613,-0.17208616693317888
1757088920552856300,4.892856201171875,-0.09231602625623345,-0.016304653590917588,-0.17031272751986978
1757088920562903000,4.902903076171875,-0.060156800929456945,-0.06038987903296947,-0.13057459137141703
1757088920572950000,4.912949951171875,-0.005068827696889639,-0.06287606982551515,-0.10767068564593792
1757088920582996200,4.922996337890625,0.04386471455916762,-0.02292823644913733,-0.07203297055363654
1757088920593043200,4.933043212890625,0.021855273455381394,-0.009507467731460929,-0.019814707538485524
1757088920603089200,4.943089111328125,-0.009932049819082021,0.0025619594424962995,-0.028443419674038885
1757088920613136100,4.95313623046875,-0.029039047479629515,0.009972601025179028,-0.03075578826963901
1757088920623182000,4.96318212890625,0.0024631752431392667,0.003329802009835839,-0.06546177546977996
1757088920633229000,4.97322900390625,0.0030558804392814636,-0.0015557050094008446,-0.08478490009903908
1757088920643275000,4.98327490234375,-0.016948796713352202,-0.034389541662111875,-0.10059271008372306
1757088920653322200,4.993322265625,-0.026784254290163515,-0.04296915395893156,-0.12137597039341926
1757088920663369000,5.003368896484375,-0.02908829344883561,-0.05125489787571132,-0.10482231047749518
1757088920673415000,5.013414794921875,0.032480566235631704,-0.052408744085952634,-0.15238719472885132
1757088920683462000,5.0234619140625,0.03722352297902107,-0.08182312768399715,-0.12270692673623561
1757088920693507800,5.0335078125,0.022855974930524825,-0.06708265466988086,-0.11581599817872047
1757088920703554800,5.043554931640625,0.0006580255173146725,-0.05940262156128883,-0.10125029720962048
1757088920713600800,5.053600830078125,-0.02513444125652313,-0.01924012252092361,-0.06586217296421527
1757088920723648000,5.06364794921875,-0.031600422400236125,-0.0228848356988281,-0.05930675997138023
1757088920733694000,5.07369384765625,-0.06028641865849495,-0.03522723459526896,-0.0623491964071989
1757088920743741000,5.083740966796875,-0.08092953984513879,0.005730068084597587,-0.061308747443556785
1757088920753788000,5.093787841796875,-0.06640753188729286,-0.016936521753668783,-0.061735448423027986
1757088920763834000,5.103834228515625,-0.06854001387134194,-0.04093976702317595,-0.0672901599407196
1757088920773880800,5.113880859375,-0.11546294695734977,-0.018035057580098508,-0.04494681070744991
1757088920783927000,5.123927001953125,-0.10757175531610846,-0.036458018499240276,-0.010724807631969452
1757088920793974000,5.13397412109375,-0.1176936286188662,-0.045335444698855275,0.0034071780949831007
1757088920804020000,5.14402001953125,-0.11319850915670394,-0.03743146664127707,0.017177344772219657
1757088920814067000,5.15406689453125,-0.11053528129681944,-0.04884586397260427,-0.007707505637407302
1757088920824113000,5.16411279296875,-0.096690295817703,-0.04454721693061292,-0.05470306556820869
1757088920834159900,5.174159912109375,-0.06630012599006295,-0.02111176161170006,-0.08220715856552123
1757088920844205800,5.184205810546875,-0.03707987672463059,-0.006000920915231109,-0.12130407420098781
1757088920854253000,5.194253173828125,-0.006662526629120111,-0.01554419061243534,-0.13144435994327067
1757088920864300000,5.204300048828125,0.022815935181081295,-0.009634747372940181,-0.11821779862344264
1757088920874346000,5.214345947265625,0.018612346011400223,-0.0029295506458729506,-0.09069500092566013
1757088920884393000,5.22439306640625,0.007922609692811965,-0.008839140015840529,-0.08092647110521793
1757088920894439000,5.23443896484375,-0.025522709921747443,-0.005448109338060021,-0.05062485634386539
1757088920904486000,5.24448583984375,0.009631751698255538,-0.0038764030419290063,-0.026037527576088904
1757088920914531800,5.25453173828125,0.024128040692955256,-0.021339871279150248,-0.03882803556621074
1757088920924578800,5.264578857421875,0.030937574577331543,-0.008455839786678552,-0.025672201395034788
1757088920934625000,5.274625,0.01954977299198508,0.01144829960092902,-0.03402268111109733
1757088920944671700,5.284671630859375,0.00017418752312660217,-0.005910027761384844,-0.049261751297116275
1757088920954719000,5.294718994140625,-0.0017899521566927432,-0.008412658232077956,-0.052072132542729375
1757088920964765200,5.30476513671875,0.00935571123585105,-0.011433540423214435,-0.07495324191451072
1757088920974812000,5.31481201171875,-0.0011795651733875275,-0.023086788011714814,-0.0630032764017582
1757088920984858000,5.324858154296875,-0.0009561316810548305,-0.02645969851091504,-0.06259878725409507
1757088920994905000,5.334905029296875,-0.012342910353094339,-0.0021250293299555777,-0.04285305329859256
1757088921004951000,5.344950927734375,-0.04154781591892242,0.004511851401254535,-0.04603577498793602
1757088921014998000,5.354998046875,-0.05829802132025361,0.007446589678898453,-0.06479483599364758
1757088921025044000,5.3650439453125,-0.06997998354658484,0.013042436924576758,-0.0643798254519701
1757088921035091000,5.375091064453125,-0.06460954255461693,0.007360007373988628,-0.05991057108342647
1757088921045137000,5.385136962890625,-0.056210109130293125,-0.019240926238521933,-0.057435120880603784
1757088921055184000,5.395183837890625,-0.06713116998672485,-0.044954555622488256,-0.06985445747077465
1757088921065230800,5.40523095703125,-0.05456263418421149,-0.0637033874951303,-0.06154197167754173
1757088921075276800,5.41527685546875,-0.01999532480239868,-0.07324694945327938,-0.1096580600708723
1757088921085324000,5.425323974609375,0.004297258802503347,-0.0788321291744709,-0.12878478534519672
1757088921095370000,5.435369873046875,0.01773424800261855,-0.09294394889622926,-0.14408055415451526
1757088921105417000,5.4454169921875,0.009874912804365157,-0.08354556756243109,-0.1696019489020109
1757088921115463000,5.455462890625,-0.028913959795236584,-0.0780881789393723,-0.14038053059279917
1757088921125510000,5.465510009765625,-0.025815847649425266,-0.08131159796528517,-0.11742752502858637
1757088921135556000,5.47555615234375,-0.06142988960519433,-0.05807371104508638,-0.10450433056950569
1757088921145602800,5.485602783203125,-0.07799290187135338,-0.011891878649964927,-0.09793138191998005
1757088921155649000,5.49564892578125,-0.08315525307059288,-0.00573299069404602,-0.10351122787892818
1757088921165696000,5.505696044921875,-0.047866351415961975,-0.014312310729920863,-0.08990238924324512
1757088921175743000,5.515742919921875,-0.022999913445860148,-0.0011584493201225996,-0.06933072585761546
1757088921185789000,5.525788818359375,-0.030364743125438687,0.012586729046329855,-0.04039572327435016
1757088921195836200,5.535836181640625,-0.05638166630491614,0.03717661509737372,-0.04525076209008693
1757088921205882000,5.545882080078125,-0.07671133762821555,0.04841485214419663,-0.02030044522881508
1757088921215929000,5.55592919921875,-0.07167538928762078,0.022734905834123492,-0.009376900154352188
1757088921225975000,5.56597509765625,-0.04658420265093446,0.0007081482693552971,0.01083119061589241
1757088921236022000,5.57602197265625,-0.029622400325536726,-0.021178981629014014,0.006247954478859901
1757088921246068000,5.58606787109375,0.0005167173504829406,0.001315977969393134,-0.026625556597113607
1757088921256115000,5.596114990234375,0.024857231750339267,0.006021379181370139,-0.07046294475793838
1757088921266162000,5.606161865234375,0.03407046577557921,-0.018178338508307933,-0.09580956746041774
1757088921276207900,5.616207763671875,0.021837737798690793,-0.03746310388855636,-0.13601006042361258
1757088921286254800,5.6262548828125,0.027607991763204335,-0.03623180852793157,-0.13267244043350218
1757088921296300800,5.63630078125,0.028766368018090724,-0.035431598060950635,-0.13582827411592005
1757088921306347800,5.64634765625,0.030378625520318746,-0.04331131846010685,-0.08304711652100086
1757088921316393700,5.656393798828125,-0.008254325865209102,-0.05573123957216739,-0.07093523844480513
1757088921326441000,5.66644091796875,-0.0033680151283740994,-0.037717590106278655,-0.05332359390854835
1757088921336487200,5.676487060546875,-0.027083237236738205,-0.03753339264579117,-0.03014847002625465
1757088921346534000,5.686533935546875,-0.05531082220301032,-0.032707141533121466,-0.04787351180911064
1757088921356580000,5.696580078125,-0.07480243526697158,-0.017730302479863166,-0.058436406877636904
1757088921366627000,5.706626953125,-0.042361324258893725,-0.00817512314915657,-0.05801788920462131
1757088921376674000,5.716674072265625,-0.01509951558485627,-0.0011523118402808905,-0.0832587134450674
1757088921386720000,5.726719970703125,-0.017057663915306328,-0.014574249601736663,-0.100072485601902
1757088921396767000,5.73676708984375,-0.024028525841236114,-0.01485270121693611,-0.13011807977557183
1757088921406813000,5.74681298828125,-0.015072481447458267,-0.02792546021454036,-0.12024082888364791
1757088921416860000,5.75685986328125,-0.03914411577805876,-0.06467025976590812,-0.0912187325388193
1757088921426905900,5.76690576171875,-0.0406686949968338,-0.046979339448362585,-0.09661153149306774
1757088921436953000,5.776953125,-0.05276230676397681,-0.04001395741514861,-0.07564531583189964
1757088921446999000,5.7869990234375,-0.059740475213527676,-0.04170315261110663,-0.05446107350587844
1757088921457046000,5.7970458984375,-0.08762348452582955,-0.04247201809175312,-0.03314940540790558
1757088921467092000,5.807092041015625,-0.08281637650504708,-0.01587349563203752,-0.052309448429942125
1757088921477139000,5.817138916015625,-0.06214417535439133,-0.025073358719050882,-0.06380757852196693
1757088921487185000,5.827184814453125,-0.04553893138170242,-0.006203896141424775,-0.07339899820983409
1757088921497232000,5.83723193359375,-0.030368104126304387,0.005033537187799811,-0.05488660544157028
1757088921507278800,5.84727880859375,-0.03031695846095681,0.0013129822947084903,-0.039408465802669525
1757088921517324800,5.85732470703125,-0.02366261513829231,-0.007918006582930683,-0.023757892206311224
1757088921527371800,5.867371826171875,-0.010752864682674407,0.0005907324347645044,-0.04284662355780601
1757088921537418000,5.87741796875,-0.021110592567920684,-0.020048954685777425,-0.05441255818903446
1757088921547465000,5.88746484375,-0.03153261786103249,-0.014810688706114888,-0.07472878550887108
1757088921557511000,5.897510986328125,-0.031124475451558827,-0.012308131300657986,-0.09252455444037913
1757088921567558100,5.90755810546875,-0.03318681480884552,-0.022039836242049932,-0.10559914006888865
1757088921577604000,5.91760400390625,-0.04901581371203065,-0.016056816309690476,-0.12307868265807628
1757088921587651000,5.927651123046875,-0.04079612076878547,-0.028491642729938028,-0.13528817588984965
1757088921597697000,5.937697021484375,0.009280161781609057,-0.01951419022195041,-0.12282792276740073
1757088921607744000,5.947743896484375,0.05795081531777978,-0.004783361819013953,-0.12331541402339935
1757088921617791000,5.957791015625,0.05416209055930376,-0.013675108804926275,-0.057851300466060636
1757088921627837000,5.9678369140625,0.0074899173639714715,-0.03357844447493553,-0.00852758984863758
1757088921637884000,5.9778837890625,-0.051510260876268144,-0.018649682347103954,0.04249181877076626
1757088921647929900,5.987929931640625,-0.07493789821490646,-0.014588424257561563,0.008668459624052048
1757088921657976800,5.997976806640625,-0.07097016362771391,-0.009815218506380915,-0.04100888673663139
1757088921668022800,6.008022705078125,-0.03708674485683441,-0.005173018723726272,-0.06693886228501797
1757088921678069800,6.01806982421875,-0.007118161442130804,-0.040280426331609484,-0.09210662128925323
1757088921688115700,6.02811572265625,0.009064765465259552,-0.0664908262565732,-0.11597674169838428
1757088921698162700,6.03816259765625,0.033565438862890006,-0.06387092608176172,-0.13918810593783854
1757088921708209000,6.048208984375,0.008192512675374746,-0.02060870746038854,-0.1533849735945463
1757088921718255900,6.058255859375,-0.027132337075471878,-0.025204876144230365,-0.12438684264719485
1757088921728301800,6.0683017578125,-0.05789338604211807,-0.04446750275790691,-0.10992694014012813
1757088921738349000,6.07834912109375,-0.09663082071542739,-0.0425954252757132,-0.08293371927440166
1757088921748396000,6.08839599609375,-0.10254165219441055,-0.009548822655156254,-0.05538754070103168
1757088921758442000,6.09844189453125,-0.10565583869218825,-0.023694033189862965,-0.08071779679059982
1757088921768489000,6.108489013671875,-0.07408230429887772,-0.022277809716388583,-0.05643617297112941
1757088921778535000,6.118534912109375,-0.0181024967931211,-0.020933774696290493,-0.06732113960087299
1757088921788582000,6.128581787109375,-0.0006511573851108551,-0.021653686468675732,-0.0604191051274538
1757088921798627800,6.1386279296875,0.005719108299165963,0.00048157297186553476,-0.053453357768058776
1757088921808674800,6.1486748046875,-0.02268427162542939,0.0001591360844671726,-0.03425707438886166
1757088921818720800,6.158720703125,-0.052639995558559895,-0.003128215023130178,-0.015907178705930707
1757088921828767700,6.168767822265625,-0.061995414533466096,-0.01972797910310328,-0.05978080722391605
1757088921838813700,6.178813720703125,-0.06313873934969305,-0.028433628932386636,-0.08600538180470466
1757088921848861000,6.18886083984375,-0.05793795583620667,-0.042700127759203316,-0.11479776104688644
1757088921858908000,6.198907958984375,-0.033645226100832225,-0.038272447510063645,-0.12650982615053652
1757088921868953900,6.208953857421875,-0.027285627941042185,-0.051899917780980465,-0.10175064794719219
1757088921879000800,6.219000732421875,-0.01039981346130371,-0.06354710095487534,-0.0679261197566986
1757088921889046800,6.229046875,0.013412439280748367,-0.0739627695724368,-0.04340659552812576
1757088921899093800,6.23909375,0.02616670691370964,-0.055327554142102595,-0.024791911429166792
1757088921909140000,6.249139892578125,-0.0009330430664122104,-0.0369928560283035,-0.04968202253580093
1757088921919187000,6.25918701171875,-0.01862286740541458,-0.020443799222260712,-0.05874737252295017
1757088921929233000,6.26923291015625,-0.029071634574979542,0.0032606822963804007,-0.07420563841760158
1757088921939280000,6.27927978515625,-0.03682838618159294,0.010636033369973302,-0.06972294004559516
1757088921949325800,6.289325927734375,-0.06829290724247694,0.005405073913931847,-0.07631167078614234
1757088921959372800,6.299372802734375,-0.06021393794417381,-0.01454641174674034,-0.0860778625190258
1757088921969420000,6.309419921875,-0.032183629115670916,-0.038752559177204965,-0.09603110125660896
1757088921979466000,6.319466064453125,0.016131488981097935,-0.05675444514006376,-0.12125380531847477
1757088921989513000,6.329512939453125,0.019826690237224102,-0.08674889364838599,-0.14400105917751788
1757088921999559000,6.339558837890625,0.0185892573967576,-0.11822583579942583,-0.1736287202000618
1757088922009606000,6.34960595703125,0.02866027729511261,-0.07914141431935132,-0.18217092309594154
1757088922019651800,6.35965185546875,-0.011936083117872476,-0.07092362107224762,-0.11086334420740604
1757088922029698800,6.36969873046875,-0.06500014930739999,-0.030697993667796252,-0.03242342922091484
1757088922039744800,6.379744873046875,-0.0920037454366684,-0.00447860671877861,0.04866904610097408
1757088922049791700,6.389791748046875,-0.11923662027716636,0.01893273707218468,0.08376666296720504
1757088922059837700,6.399837646484375,-0.14724004109874367,0.039185689897462725,0.10617547865211963
1757088922069884700,6.409884765625,-0.12266191855072975,0.0802883193321526,0.1190431435316801
1757088922079931000,6.419930908203125,-0.061189066586643456,0.10944894736483693,0.05964870527684688
1757088922089977900,6.429977783203125,-0.00709025052189827,0.08777816363088786,-0.02049041484296322
1757088922100024800,6.44002490234375,0.00666954089179635,0.05594422473572194,-0.07778992664515971
1757088922110071000,6.450071044921875,0.0356231020450592,0.029772476320713757,-0.10738894609510898
1757088922120118000,6.460117919921875,0.020716478683799503,-0.019178382396325466,-0.10824527066349983
1757088922130164000,6.4701640625,-0.032241204521805046,-0.05039214356653392,-0.10733283199369907
1757088922140211000,6.4802109375,-0.06065364453569054,-0.07470781578607857,-0.11434066492915153
1757088922150257000,6.4902568359375,-0.05460267393365502,-0.09244834739901125,-0.12277882292866706
1757088922160303900,6.500303955078125,-0.04831789457574486,-0.0826592862471938,-0.13354980778992176
1757088922170349800,6.510349853515625,-0.022804683134704826,-0.05560279088690877,-0.13094751633703708
1757088922180396800,6.520396728515625,-0.015194208130985497,-0.0227923351097852,-0.09330313759744167
1757088922190442800,6.53044287109375,-0.02427051790356636,0.007951762722060085,-0.10895429571568965
1757088922200489700,6.54048974609375,-0.02049333745241165,0.028280922588706014,-0.1283370415776968
1757088922210537000,6.550536865234375,-0.02113967253193259,0.023705650562420487,-0.09354629870355129
1757088922220583000,6.5605830078125,-0.035337709232419724,0.01447261585816741,-0.05423427901268005
1757088922230630000,6.5706298828125,-0.047383536335080856,0.0035228403639048335,-0.027863573959469794
1757088922240675800,6.58067578125,-0.046948944310098883,-0.0322611513312906,-0.006139817929267883
1757088922250722800,6.590722900390625,-0.04633855732679367,-0.05395611965842545,-0.025819500911235808
1757088922260768800,6.600768798828125,-0.0129272861123085,-0.07497326178923248,-0.05096972425878048
1757088922270815700,6.610815673828125,0.02335880988612771,-0.08280081360973417,-0.05094868147075176
1757088922280862000,6.620862060546875,0.06570274461880325,-0.0876474499233067,-0.08333587033450603
1757088922290909000,6.630908935546875,0.08217690955772995,-0.06448774280585348,-0.07858546093702316
1757088922300955000,6.640954833984375,0.0982524305678904,-0.06106193307563662,-0.05578267749845981
1757088922311001900,6.651001953125,0.06451031996384263,-0.08115151203274726,-0.07334522219598293
1757088922321047800,6.6610478515625,0.05147635860666632,-0.07960347887314856,-0.06255787072181701
1757088922331095000,6.671094970703125,0.07775792407169937,-0.05659289790280163,-0.10240063628852367
1757088922341142000,6.68114208984375,0.12657704616785048,-0.05030928758867085,-0.14672726927101612
1757088922351188000,6.69118798828125,0.14427972998842598,-0.03893266498446464,-0.16897534143626688
1757088922361235000,6.70123486328125,0.12291092487573622,-0.04382781661488116,-0.14286650218963623
1757088922371281000,6.711281005859375,0.05109671163931489,-0.03145458418875933,-0.08562310448884963
1757088922381328000,6.721327880859375,-0.02705269596800208,-0.04152436197809875,0.0025929391026496885
1757088922391373800,6.731373779296875,-0.08182254316210746,-0.09356171546839177,0.10004092141985893
1757088922401420800,6.7414208984375,-0.08955912876352667,-0.1561446475662291,0.15929916607439518
1757088922411466800,6.751466796875,-0.07650207879170776,-0.16516440484598277,0.12648001553416252
1757088922421513700,6.761513671875,-0.058404404304176566,-0.14504187346734107,0.05879939497113228
1757088922431559700,6.7715595703125,-0.0570915681399405,-0.1106909102499485,-0.040709027007222176
1757088922441606700,6.781606689453125,-0.13865677554011344,-0.09671206925809382,-0.10805997722446918
1757088922451652900,6.79165283203125,-0.20226795470714568,-0.05342347408644855,-0.19444296016991136
1757088922461699800,6.801699951171875,-0.23398075144067404,-0.008071370513737202,-0.2644628373354673
1757088922471746800,6.811746826171875,-0.2487574648119509,-0.003099427320063114,-0.27226503551900383
1757088922481793000,6.82179296875,-0.2763455828309059,-0.032614129487425085,-0.21520868482291697
1757088922491840000,6.831840087890625,-0.31518370139971374,-0.05350355358533561,-0.1172223578453064
1757088922501886000,6.841885986328125,-0.33369536351561546,-0.07916318775974214,-0.006322188758850098
1757088922511933000,6.851932861328125,-0.3079156100928783,-0.1028072443280369,0.05080898073911667
1757088922521979000,6.861978759765625,-0.2509739718176424,-0.09282689838781952,0.11655132671594619
1757088922532025900,6.87202587890625,-0.2145033130325377,-0.023703823931515215,0.14295184238553046
1757088922542071800,6.88207177734375,-0.24610826547741887,0.041720103745907546,0.13519582143127917
1757088922552118800,6.892118896484375,-0.29689956442937254,-0.13754559942781924,0.20624153451323507
1757088922562164700,6.902164794921875,-0.23196035152897237,-0.11229739559851586,0.3491314175784588
1757088922572212000,6.9122119140625,-0.1459481015920639,-0.14744703491292893,0.3982125516116619
1757088922582259000,6.922259033203125,-0.08137845265641808,-0.18470277966111898,0.36262568992376326
1757088922592305000,6.932304931640625,0.07404708685502409,-0.12459727052748203,0.17594342688322065
1757088922602351900,6.942351806640625,0.1622561161838472,-0.09884301687218248,0.07220248190164566
1757088922612397800,6.952397705078125,0.20957667028531432,-0.10843282912485301,-0.08735328928232193
1757088922622444800,6.96244482421875,0.20808160942196846,-0.12595328824631868,-0.20319266833662986
1757088922632490800,6.97249072265625,0.13552373821139335,-0.13499978740252552,-0.3213718885153532
1757088922642537700,6.982537841796875,0.07239537412524223,-0.11481873076967894,-0.43392450098395347
1757088922652584000,6.992583984375,0.025479309171438216,-0.13665339982844887,-0.4913473469048738
1757088922662631000,7.002630859375,0.04557867887020111,-0.16987893921248615,-0.4868529580950737
1757088922672677400,7.012677490234375,0.07879004359841346,-0.14331351530477404,-0.4451256939560175
1757088922682724400,7.022724365234375,0.08519406542181968,-0.15125008045770227,-0.3711293143749237
1757088922692770600,7.0327705078125,0.20148791024535892,-0.15488193415403365,-0.29860709899961946
1757088922702817500,7.042817626953125,0.3370024422369897,-0.11032836054787039,-0.22394202637672422
1757088922712864500,7.052864501953125,0.3866540696345269,-0.07553586410805582,-0.12804711872041225
1757088922722910500,7.062910400390625,0.36522184389680623,-0.027058687317371367,-0.06514847173690795
1757088922732957400,7.07295751953125,0.3079612028002739,0.035608854323998095,-0.05737666869163513
1757088922743003400,7.08300341796875,0.37382498319968577,-0.039728199276328084,-0.008821604359149932
1757088922753050400,7.09305029296875,0.44581031521931286,-0.11203048829063772,0.09700374568104743
1757088922763096300,7.103096435546875,0.45513095514178276,-0.2046876561347395,0.17769933063983917
1757088922773143300,7.113143310546875,0.2941935203410685,-0.20522395496852694,0.2997130144149065
1757088922783189200,7.123189208984375,0.019635259318351743,-0.14260916642770172,0.3689361882448196
1757088922793236200,7.133236328125,-0.10599471525773406,-0.04793320610709488,0.30832360637187955
1757088922803282200,7.1432822265625,-0.059123220098018646,-0.01403422444090247,0.155890234413743
1757088922813329400,7.153329345703125,-0.04154299361333251,-0.05994768822342157,-0.05185936657488346
1757088922823376400,7.16337646484375,-0.1499905088506639,-0.09938991016522049,0.08939911589622497
1757088922833422300,7.17342236328125,-0.39755204187631604,-0.13527144395075738,0.18945991106033325
1757088922843469300,7.18346923828125,-0.7218167292237282,-0.3313563991740346,0.29163959807455536
1757088922853515300,7.193515380859375,-0.7943054807208478,-0.5994663608402013,0.453642177888751
1757088922863562200,7.203562255859375,-0.541868158352375,-0.8851192857205867,0.3587596621453762
1757088922873608400,7.2136083984375,-0.006789806270599365,-1.1269552807062864,0.41193946366906165
1757088922883655400,7.223655517578125,-0.18200974118486046,-1.0467729059666395,0.4618260688662529
1757088922893701400,7.233701416015625,0.04404138630032539,-1.131481087567657,0.1435129833996296
1757088922903748400,7.243748291015625,-0.6312450624167919,-1.3285396370634437,0.2914075428843498
1757088922913794300,7.253794189453125,-1.1176410705246032,-1.3057850766807795,0.21473931374549865
1757088922923841500,7.263841552734375,-0.8419079205036163,-1.5231985780715942,0.13578618853986263
1757088922933887500,7.273887451171875,-0.40419009165130554,-1.3448844765342771,0.4252992959797382
1757088922943934500,7.2839345703125,-0.257404808582738,-1.4568468680247664,0.9702262573808431
1757088922953981400,7.2939814453125,-0.042915597140789026,-1.6873172732569277,1.4718378086686132
1757088922964027400,7.30402734375,0.30920842638239265,-1.592814696741849,1.8258803791642189
1757088922974074400,7.314074462890625,0.6481903519988059,-1.2724502317033708,1.6014292342215775
1757088922984120300,7.324120361328125,0.35742929032444953,-0.864620395310223,1.2759691996097564
1757088922994167300,7.334167236328125,0.31183884795121847,-0.40822804193049667,1.463652748647332
1757088923004213200,7.344213134765625,-0.44590603067874907,-0.369855787307769,1.773836888194084
1757088923014260200,7.35426025390625,-0.3296002031564712,-0.04488470525667071,2.1800305016875265
1757088923024306200,7.36430615234375,-0.38673020361065863,0.099216453294456,1.977216019013524
1757088923034353200,7.374353271484375,0.10449264013171196,0.3669578739091754,2.134521380922198
1757088923044399400,7.3843994140625,0.22938268306069073,0.6194555481627583,1.9601818821042776
1757088923054446300,7.3944462890625,0.23813063766174017,0.8182812534615397,1.740854656046629
1757088923064492500,7.404492431640625,0.5149041635811329,1.0064327122718095,1.4263865555703639
1757088923074539500,7.41453955078125,0.6479740058343857,1.2319599620133637,1.2441899135112762
1757088923084586500,7.42458642578125,0.5314484346142039,1.4617059984937308,1.151993860372901
1757088923094632400,7.434632568359375,0.5242540661307051,1.5972200920939446,1.0827513973206282
1757088923104679400,7.444679443359375,0.653697717243433,1.765567657020688,0.5673001212507486
1757088923114725400,7.454725341796875,0.8092191183447838,1.9593626746758817,0.3205915517926216
1757088923124772400,7.4647724609375,0.8293185611087829,1.8521724660232661,0.27987726408839225
1757088923134818300,7.474818359375,0.8766811277210712,1.772887916906178,0.5866822825908661
1757088923144865300,7.484865234375,0.7786556377768517,1.702282641068101,1.2285089447766542
1757088923154911200,7.4949111328125,0.7003846496164798,1.5127087482392787,1.5592822833657263
1757088923164958500,7.50495849609375,0.8244483247239143,1.4509750533819197,1.4752730438143014
1757088923175004400,7.51500439453125,0.8402900369782,1.3305784494146704,1.4956015460938215
1757088923185051400,7.525051513671875,0.7074971119701862,1.2193933259069918,1.1363158142477274
1757088923195098400,7.535098388671875,0.6801766319114715,1.2308718745157121,0.6495896974027157
1757088923205144300,7.545144287109375,0.5829425115406512,1.382536307927966,0.22591595679819582
1757088923215191300,7.55519140625,0.2312017517140135,1.1813663775905967,-0.09840952082574367
1757088923225237200,7.5652373046875,0.07567688001394271,0.9088479518324136,0.012203063490986822
1757088923235284200,7.5752841796875,0.11393624884672462,0.710580464938283,-0.010030980148911475
1757088923245330400,7.585330322265625,0.10216631607599556,0.622678894123435,-0.48593408968448637
1757088923255377400,7.59537744140625,-0.0441278590073809,0.45500002223849295,-0.9584095628589391
1757088923265423400,7.60542333984375,-0.053264045741036534,0.04416822755038738,-1.001780502551794
1757088923275470300,7.61547021484375,0.009528802780434489,-0.41757483920753,-0.4692360528618097
1757088923285516300,7.625516357421875,-0.08407766514513641,-0.7216238370001316,-0.2863239560097456
1757088923295563500,7.6355634765625,-0.2721732655823231,-0.9167162009894847,0.12220540695488452
1757088923305609500,7.645609375,-0.3178068529775366,-1.1062146904945374,0.2888029133439064
1757088923315656400,7.655656494140625,-0.7123930673182011,-1.2920277694851159,0.04260229340791702
1757088923325703400,7.665703369140625,-0.6067571023702621,-1.6697002218931913,-0.04296352793574333
1757088923335749400,7.675749267578125,-0.17252397382855414,-1.8060598264068364,-0.5210281994193792
1757088923345796400,7.68579638671875,0.5681950242638588,-1.7203396912842988,-0.6247124457776546
1757088923355842300,7.69584228515625,0.3193792533934116,-1.8362468748778105,-0.8053630274385213
1757088923365889300,7.70588916015625,0.22816927041662854,-1.993128458416462,-1.0942203013181686
1757088923375935200,7.715935302734375,0.46407414005398745,-1.94572314864099,-1.2959861517220734
1757088923385982200,7.725982177734375,0.35159459282159805,-1.9784780017733572,-1.101026474201679
1757088923396028200,7.736028076171875,-0.07285948450565338,-1.9314093766063452,-0.6928373029768466
1757088923406075400,7.746075439453125,-0.38986207189559935,-1.8141607152760029,-0.09818389537632465
1757088923416121600,7.75612158203125,-0.7025859590530396,-1.5897002179831266,-0.33195991802513597
1757088923426168300,7.766168212890625,-0.9037094199001788,-1.1236784509927034,0.19093056813478468
1757088923436215300,7.77621533203125,-0.9672130470395087,-0.9157797969222068,0.044619478449225425
1757088923446261500,7.786261474609375,-1.153138938754797,-0.7122153726637364,-0.018416531178355216
1757088923456308500,7.79630859375,-0.8669546834766865,-0.629818244484067,-0.06417524279057979
1757088923466354400,7.8063544921875,-0.1349076521396637,-0.43790275696516034,-0.11465689127147197
1757088923476401400,7.8164013671875,-0.10340718298256396,-0.16899755326807497,-0.17063304551541805
1757088923486447400,7.826447265625,-0.03426934934854507,-0.4273205726742744,-0.4130670063942671
1757088923496494300,7.836494384765625,0.08700316067039966,-0.3692056528359651,-0.7201444120973348
1757088923506540300,7.846540283203125,0.268581378570199,-0.3627601299583912,-1.0710966153621673
1757088923516587300,7.856587158203125,0.47644496132731434,-0.4315566028088331,-1.1591390559524297
1757088923526633200,7.86663330078125,0.5689747764647006,-0.48414486818015573,-0.6137415544301271
1757088923536680400,7.876680419921875,0.47324295041561126,-0.6104618021070957,-0.16559212873876095
1757088923546727400,7.8867275390625,0.47735509844217444,-0.8015542828053236,0.18262275851666926
1757088923556773400,7.8967734375,0.3337240050882101,-1.1620955676704645,0.9219315975502133
1757088923566820400,7.9068203125,0.5702993030667305,-1.574600264006853,1.2078919809445738
1757088923576866300,7.9168662109375,0.5923012915164232,-2.0551608439594506,1.1748594799146055
1757088923586913300,7.926913330078125,0.5209954661935567,-2.3976883332282304,1.0515060719683766
1757088923596959200,7.936959228515625,0.5521691876143217,-2.607541628497839,0.8781351259216665
1757088923607006200,7.947006103515625,0.4697779046535492,-2.546761288842559,0.5754571242213249
1757088923617052400,7.957052490234375,0.24096797997951505,-1.9554536845386028,0.5642413182020187
1757088923627099400,7.967099365234375,-0.1700286498814821,-1.027340475744009,0.4111921524330973
1757088923637145300,7.977145263671875,-0.6636421881526708,-0.21054420014321804,0.2622092131897807
1757088923647192600,7.987192626953125,-0.780555333918333,0.12416647789478301,0.5261231844708323
1757088923657238500,7.997238525390625,-0.5283516741752624,0.06982932302951812,0.8871601438984275
1757088923667285200,8.00728515625,-0.7060784773439168,-0.3277145355403423,1.2696326900646089
1757088923677332200,8.017332275390626,-0.8614952490270137,-0.6462625988066196,1.3315052088707684
1757088923687378200,8.027378173828126,-0.8837626104146241,-0.9646166008055209,1.138230123436451
1757088923697425400,8.03742529296875,-0.8362111701667309,-1.0182552520126105,0.7750362782359123
1757088923707471000,8.04747119140625,-0.5789882209569216,-1.199838730609417,-0.09501783256083726
1757088923717518300,8.057518310546875,-0.3722527654469013,-1.1629127292722463,-0.9454930904015898
1757088923727564300,8.067564208984376,-0.5599257930904626,-0.35016076062619683,-1.8419585305228827
1757088923737611300,8.077611328125,-0.4458481630116701,0.0779167678952217,-2.4714228470027444
1757088923747657200,8.0876572265625,0.046460740668047215,-1.0621516768842936,-2.105697437497973
1757088923757704200,8.0977041015625,0.6411310811370611,-0.4764432077616453,-1.2958575569063424
1757088923767750100,8.107750244140625,0.5395195493996143,-0.3685241003125906,-0.03661415890902281
1757088923777797000,8.117797119140626,0.5018424374341964,-0.6982289328873157,0.16631664362102747
1757088923787843300,8.12784326171875,0.4003945718258619,-0.5770061072289944,0.09154577253609895
1757088923797890300,8.137890380859375,0.7185755553454161,-0.17825579547882078,-0.03354103507399559
1757088923807937000,8.14793701171875,0.9464204343795776,0.2966881136357784,-0.26446166829168793
1757088923817983200,8.157983154296875,0.5341863716781139,0.4276408906698227,-0.8013421013593673
1757088923828030500,8.168030517578124,-0.13093233703421428,0.25467034211754797,-0.9043354428440332
1757088923838076400,8.178076416015625,-0.36722529267370696,-0.11242284860908984,-0.6769172647893429
1757088923848123400,8.188123291015625,-0.42036125505566596,-0.05419102439284324,-0.6788347888484597
1757088923858169300,8.19816943359375,-0.5828793831765652,0.06781389155387878,-0.8394336393445729
1757088923868216300,8.20821630859375,-0.6801414875328541,0.4262748630136251,-0.9529705866754055
1757088923878262300,8.21826220703125,-0.4703840538531541,0.4939689275801182,-0.8903264989748597
1757088923888309200,8.228309326171875,-0.3686526951283216,0.41986850310266016,-0.9816910697251557
1757088923898355200,8.238355224609375,-0.2059668092250824,0.215825939938426,-0.8253943003371358
1757088923908402200,8.248402099609375,0.01343757372200489,0.15297054757475853,-0.601046615768969
1757088923918449200,8.25844921875,-0.0019049568384885787,0.05047288065254688,-0.28098654050454497
1757088923928495000,8.2684951171875,0.15904840618371963,-0.09062310473322868,-0.21132745947539805
1757088923938542300,8.278542236328125,0.35269641658365725,-0.14941022474467752,0.045454760229587554
1757088923948588000,8.288588134765625,0.16814826122866944,-0.04433247820138931,0.39208515477254985
1757088923958635300,8.29863525390625,-0.0767517975027673,-0.08516600837111472,0.7093826334558427
1757088923968681200,8.30868115234375,-0.3647679626494646,-0.37039866201281546,1.0288954501010477
1757088923978728200,8.318728271484375,-0.5770546225458383,-0.4002285676091909,0.7366587629161775
1757088923988774400,8.3287744140625,-0.4477572115033865,-0.3342962520182133,0.11484364601522683
1757088923998821400,8.3388212890625,-0.20295301436185836,-0.49793490860164163,-0.5152132295303047
1757088924008867300,8.348867431640626,0.13632917284276336,-0.48543373894691466,-1.215401187530905
1757088924018914300,8.358914306640624,0.28609131629765033,-0.6568816079765558,-1.4699066944755612
1757088924028961300,8.368961181640625,0.2257464454501867,-0.7515706469744443,-1.3199195466257632
1757088924039007200,8.37900732421875,-0.05873860469460487,-0.7362532508552074,-0.9234070769302546
1757088924049054200,8.38905419921875,-0.39854923622012134,-0.5682610752373933,-0.423473834118247
1757088924059100200,8.39910009765625,-0.3546984040558338,-0.3292576733291149,-0.1664760719664395
1757088924069147400,8.4091474609375,-0.26546118245674294,0.013528759136795996,-0.2573053667962551
1757088924079193300,8.419193359375,-0.12939559245361015,0.029119126978516575,-0.5667538855448365
1757088924089240300,8.429240234375,0.056747723138332366,0.1398445240199566,-0.8039289029821753
1757088924099286300,8.439286376953126,0.045587446698546405,0.7671089923679828,-1.0597728189237414
1757088924109333200,8.449333251953124,0.14364976152181624,1.2291139249324798,-1.2622563160777092
1757088924119379200,8.459379150390625,0.1333551620006561,0.8989543343275785,-0.9730496442385017
1757088924129426200,8.46942626953125,0.2365665666827932,0.6719044050633907,-0.42671997643262144
1757088924139473200,8.47947314453125,0.10990944101605564,0.35502690535783765,-0.04491057035028934
1757088924149519000,8.48951904296875,0.008264554998278618,0.16199790363907812,0.2007641260154545
1757088924159566000,8.499566162109375,-0.27589955609645694,-0.024276363122463226,0.552995190109685
1757088924169612300,8.5096123046875,-0.049322505041025574,-0.16864099491536616,0.6005293138965964
1757088924179659300,8.5196591796875,0.19564711179528385,-0.05818681603074073,0.2944122776582837
1757088924189705200,8.529705322265626,-0.17022388019263743,-0.23019757964015006,0.029138562331348657
1757088924199752400,8.53975244140625,-0.45373570139110087,-0.2555500475615263,-0.08063749809600412
1757088924209798400,8.54979833984375,0.08846621896028518,0.04359890322983265,-0.26161205101422963
1757088924219845400,8.559845458984375,-0.11899758735690265,-0.16234686320722103,-0.8788875517241657
1757088924229891300,8.569891357421875,-0.38011805546190586,-0.5468342563271522,-1.3397165723770856
1757088924239938300,8.579938232421876,-0.3151145451536402,-0.3842389713168144,-1.5899521469175815
1757088924249984300,8.589984375,0.010938158121705054,0.07877075437605381,-0.714822851748392
1757088924260031200,8.60003125,-0.0700654333403334,0.12997721000015736,-0.18241810279004275
1757088924270078200,8.610078125,-0.3544225462565198,0.09351765713095664,0.027559257250651715
1757088924280124200,8.620124267578126,-0.3994541126379743,0.07779810995161533,0.4012417632397264
1757088924290171100,8.630171142578124,-0.4364566132774576,-0.05362403815984726,0.5795551341246813
1757088924300217000,8.640217041015624,-0.3126841031363234,-0.03403027989566326,0.3392065281525254
1757088924310264300,8.650264404296875,-0.056564731254242356,0.0734030898630619,-0.09081621615253388
1757088924320310300,8.660310302734375,0.18612579820156097,0.1098018524557352,-0.42643275698907673
1757088924330357200,8.670357177734376,0.2411842530786991,0.11435586249828338,-0.6295820976406336
1757088924340403200,8.6804033203125,0.030441205895133314,0.14550094234645367,-0.909566840691492
1757088924350450200,8.6904501953125,-0.1142810436964035,0.24613982965946196,-1.0094869122106582
1757088924360496400,8.700496337890625,-0.19468389278631656,0.3368184639722109,-0.8612489461157471
1757088924370543400,8.71054345703125,-0.1503098039329052,0.38046705156266686,-0.6628150896787643
1757088924380590000,8.720590087890624,-0.06829846020042896,0.3330623263090849,-0.47462826729416846
1757088924390636300,8.73063623046875,-0.05686926715876907,0.2616185538202524,-0.2581255971379578
1757088924400683300,8.740683349609375,-0.043808746588230134,0.18118074301481246,-0.06754420776702463
1757088924410729200,8.750729248046875,-0.06936053647398949,0.1472983471572399,0.044636648779734965
1757088924420776400,8.7607763671875,-0.11604746884703636,0.04136369152367115,0.15368315282352268
1757088924430822100,8.770822265625,-0.14308745146393775,-0.03983165965080261,0.13611885456033052
1757088924440869400,8.780869384765625,-0.16987375158071516,-0.08924071046411991,0.07818791298680007
1757088924450915300,8.790915283203125,-0.1342968267649412,-0.10180383943915366,-0.050545288301631804
1757088924460962300,8.80096240234375,-0.07948566117975861,-0.09781973823904991,-0.2703394742839038
1757088924471008300,8.81100830078125,-0.01439856424126774,-0.05289572388529777,-0.5591209795136004
1757088924481055200,8.82105517578125,0.026755283924005925,0.013215455403923987,-0.8512034990500659
1757088924491102200,8.831102294921875,-0.004724105912446976,0.0058580783784389495,-1.04706348641105
1757088924501148200,8.841148193359375,-0.05151157605051994,0.09185410783290862,-1.0966522046402096
1757088924511195100,8.851195068359376,-0.0945043666133657,0.16646248183250426,-0.9401058444052934
1757088924521241000,8.861240966796874,-0.11234452267587185,0.08330489067435264,-0.571652836567536
1757088924531288000,8.8712880859375,-0.14143036843929438,-0.10306757576465606,-0.19581614821925758
1757088924541334300,8.881334228515625,-0.15944295845925807,-0.22399171073734758,0.01067322357520461
1757088924551381200,8.89138134765625,-0.13636665530893952,-0.23186580511331556,0.03162679895050823
1757088924561427500,8.901427490234376,-0.04680204665269702,-0.030004093119502067,-0.09303564576767384
1757088924571474400,8.911474365234374,0.044615971317887304,0.15338731168210507,-0.23761706211641428
1757088924581520400,8.921520263671875,0.07675999907553195,0.2003372789055109,-0.30409882828369733
1757088924591567400,8.9315673828125,0.07699494034256786,0.15208850404322147,-0.22221206077896058
1757088924601614300,8.9416142578125,0.044404958915710446,0.08355214343369007,-0.1059781294491142
1757088924611660300,8.951660400390624,-0.008261011334322393,0.03593932838737964,-0.013612638027966022
1757088924621707300,8.961707275390625,-0.0939507513185963,0.01987374424934387,0.012628303165733814
1757088924631753200,8.971753173828125,-0.1522205329250544,-0.005215688821673393,-0.021361717784777284
1757088924641800200,8.98180029296875,-0.14621055192053317,0.030799627411365507,-0.05455233198590576
1757088924651846100,8.99184619140625,-0.152287278018333,0.07070727490782737,-0.10156491611674427
1757088924661893400,9.001893310546874,-0.1531973420679569,0.1061111812442541,-0.12470350738093257
1757088924671938800,9.011938720703125,-0.1223281565517187,0.11570435449779033,-0.13541501713991164
1757088924681985800,9.02198583984375,-0.09371350849661976,0.08082067264318465,-0.12307795200571417
1757088924692031700,9.03203173828125,-0.004614215797185898,0.037842531660199165,-0.12395122770890593
1757088924702078700,9.04207861328125,0.05438979836795479,0.019541735816001892,-0.13331358788125217
1757088924712125700,9.052125732421874,0.03044482262432575,-0.02408347089886665,-0.1860428691584617
1757088924722172000,9.062171875,0.009784311911463736,-0.08372282382547855,-0.19559315311834216
1757088924732218600,9.072218505859375,-0.007759564618207514,-0.12660919487178324,-0.1608812476340681
1757088924742264800,9.082264892578126,-0.040972061857581135,-0.051158524829149246,-0.13701638792194426
1757088924752312000,9.09231201171875,-0.03419741662349552,0.021105331870913506,-0.10235168258026242
1757088924762358000,9.10235791015625,-0.00996200656592846,-0.009450549912452698,-0.016287483260408044
1757088924772405000,9.112405029296875,-0.023999847736023365,-0.02144143195748329,0.08889576948396861
1757088924782451000,9.122450927734375,-0.04540799847841263,-0.013057634493708609,0.1792847001351416
1757088924792498000,9.132497802734376,-0.06253741245567798,0.023660277050733564,0.2731416722230613
1757088924802543900,9.1425439453125,-0.05739716349039226,0.007546177595853805,0.33697971894852813
1757088924812590800,9.1525908203125,-0.047405309775471687,-0.026143910560011863,0.35656346727535126
1757088924822636800,9.16263671875,-0.05201663949582726,-0.04822656303048133,0.3776587161436677
1757088924832683800,9.172683837890625,-0.11459321491811424,-0.0294318461894989,0.2671981075182557
1757088924842730800,9.182730712890624,-0.13782562194559722,0.042541503131389616,0.04648578377775848
1757088924852776700,9.192776611328124,-0.11552315271198749,0.08828034099936485,-0.12508337354399263
1757088924862823700,9.20282373046875,-0.057098436272144316,0.05357727640867233,-0.2534801824849099
1757088924872869600,9.21286962890625,-0.007210662031173706,-0.01548573842346668,-0.27266338718682526
1757088924882916900,9.222916748046876,0.0366863473623991,-0.05606032539606094,-0.2616956376444548
1757088924892962800,9.232962890625,-0.024079963767528533,-0.0564671526312828,-0.2540104169040918
1757088924903009800,9.243009765625,-0.03711830903887749,-0.007716857987642288,-0.2492989512775093
1757088924913056000,9.253055908203125,-0.029641689547896383,-0.02037175689935684,-0.14709829454049467
1757088924923103000,9.26310302734375,-0.01872749682366848,-0.07340835056006909,-0.037402021351084114
1757088924933149000,9.27314892578125,-0.023033596519753334,-0.01631809759438038,-0.0039429654721170665
1757088924943196000,9.28319580078125,-0.04641684672739357,0.060196402287483214,-0.027047946727648375
1757088924953243000,9.293242919921875,-0.06478661615457386,0.029327216771245,-0.056478039351478215
1757088924963288800,9.303288818359375,-0.01591711557805538,-0.0333007965773344,-0.04819076106473803
1757088924973335800,9.313335693359376,-0.0012900398105382919,-0.03369067267775536,-0.05495265641510486
1757088924983381800,9.3233818359375,-0.0036678748577833173,-0.024508418312668798,-0.07288103875033557
1757088924993429000,9.333428955078125,-0.02253156528174877,-0.022491233271360395,-0.09790580908730626
1757088925003475000,9.343474853515625,-0.038404878250695766,-0.0440846409201622,-0.10342617994397878
1757088925013522000,9.35352197265625,-0.05401979601178318,-0.04829612113535404,-0.03571392213366926
1757088925023568000,9.36356787109375,-0.08072367854211479,-0.03555179037451744,0.014144187621399759
1757088925033614800,9.37361474609375,-0.08797405152916908,-0.025440730726718902,0.037208836866542694
1757088925043660800,9.383660888671875,-0.12135489107277243,0.008676058408617973,-0.021555632921680806
1757088925053707800,9.393707763671875,-0.09403905065655707,0.020647066709399222,-0.04941555361934006
1757088925063754800,9.403754638671876,-0.03229541892707348,0.014463409638404845,-0.03232552180439233
1757088925073800700,9.41380078125,0.04579316187109798,-0.011664134308695792,-0.020210574988275765
1757088925083847700,9.42384765625,0.06832476368546485,-0.022720950374007225,-0.023278584256768226
1757088925093894000,9.433893798828125,0.06582238894309848,-0.04187281008958816,-0.027267800023406744
1757088925103940600,9.443940673828125,0.010339607706665992,-0.05072597863078117,-0.03764956637136638
1757088925113986800,9.45398681640625,-0.041649522727727886,-0.060331426844000814,-0.05695851634480059
1757088925124034000,9.464033935546874,-0.0954670376330614,-0.03461713987290859,-0.045992155041918156
1757088925134080000,9.474080078125,-0.08712707931101321,0.013277414724230765,-0.01715878620222211
1757088925144127000,9.484126953125,-0.08585515967905522,0.05942775600254535,-0.004177431815117597
1757088925154173000,9.4941728515625,-0.0778168146520853,0.029748072531819342,-0.039255174937099215
1757088925164220000,9.504219970703126,-0.03484214426781982,0.009348843103647232,-0.08160378584489227
1757088925174267000,9.514266845703125,-0.018299590267799794,0.010476385828852653,-0.13785744185596704
1757088925184312800,9.524312744140625,-0.008744447469711304,0.019191607204079628,-0.1537372941635549
1757088925194359800,9.53435986328125,-0.028646212237142026,0.016639000111818313,-0.142759680814296
1757088925204405800,9.54440576171875,-0.026578758313320575,-0.007488309928774833,-0.07641695779152215
1757088925214452700,9.55445263671875,-0.040737047525309024,-0.03293839300572872,0.043994040027260775
1757088925224498700,9.564498779296875,-0.07138353020157664,0.02219254258573055,0.14150858477465808
1757088925234546000,9.5745458984375,-0.09185703044235706,0.09089783002138137,0.22427907631136476
1757088925244591900,9.584591796875,-0.0874334053138271,0.10495616599023341,0.2520155167598277
1757088925254638800,9.594638916015626,-0.06536357579231261,0.07052022790312766,0.2066479233570397
1757088925264684800,9.604684814453124,-0.04509703283309936,0.03768938692510128,0.14461838735826313
1757088925274731800,9.614731689453125,-0.026159108129143713,0.018085107266902923,0.0058619508359581225
1757088925284778800,9.62477880859375,-0.08903495875895023,0.03169628399014473,-0.10951645964309573
1757088925294825000,9.634824951171876,-0.16405542069077492,-0.027413492104411123,-0.15779811386168002
1757088925304871700,9.64487158203125,-0.11079437062442302,-0.0763484956651926,-0.12450031295903026
1757088925314918000,9.65491796875,0.004812916707061231,-0.03957856167256832,-0.20134696740470825
1757088925324964900,9.66496484375,0.16928747612535952,0.025010522615909574,-0.3589369184084236
1757088925335010800,9.6750107421875,0.2652876342544332,0.055794367936253544,-0.4879601156193763
1757088925345057800,9.685057861328126,0.17082356311883776,-0.07695932103991508,-0.5336638091087341
1757088925355103700,9.695103759765624,0.07959843737185,-0.13146423368752003,-0.4668962117373943
1757088925365151000,9.70515087890625,0.0010807444414123893,-0.06183189453482627,-0.338970381309092
1757088925375197000,9.715197021484375,-0.028063516978360712,0.01888940938711166,-0.26549868318922815
1757088925385244000,9.725243896484375,-0.10782737404499203,0.09422785122692584,-0.10394048614166676
1757088925395289900,9.735289794921876,-0.14987086452636866,0.09422843574881554,0.05832863565422594
1757088925405336800,9.7453369140625,-0.05932601266112178,0.03169569946825504,0.19961605195887386
1757088925415383800,9.7553837890625,0.035277065086364745,-0.014319032731652259,0.2486670100495219
1757088925425429800,9.7654296875,0.11890285827815532,-0.062003159448504444,0.1628227370906621
1757088925435476700,9.775476806640626,0.1586409944266081,0.004350011903047561,-0.038150428565591574
1757088925445522700,9.785522705078124,0.13605510514173655,0.06669862378835678,-0.19639029484540224
1757088925455569700,9.795569580078125,0.07162789688408375,0.02014437788426876,-0.21760420165732502
1757088925465616000,9.805615966796875,-0.04509761735498905,-0.012399462845921515,-0.17539733730778098
1757088925475662800,9.815662841796875,-0.16753157236874103,0.00717559071779251,-0.10443798733502625
1757088925485708800,9.825708740234376,-0.2270803244024515,0.027135844206809995,-0.04718487195782363
1757088925495756000,9.835756103515624,-0.25668749062623825,-0.006239771172404289,-0.02562456286102533
1757088925505802800,9.845802734375,-0.21787001298665998,-0.019786065965890883,-0.01668042810074985
1757088925515849000,9.855848876953125,-0.16064531998634338,-0.04216799364387989,-0.05969546702802181
1757088925525896000,9.86589599609375,-0.11062599178757518,-0.022861235627532003,-0.07088219308331609
1757088925535942000,9.87594189453125,-0.08491817108988761,0.0004056581914424896,-0.08415624680668116
1757088925545988900,9.88598876953125,-0.06880461962427943,-0.026372458618879317,-0.06616787791252136
1757088925556034800,9.896034912109375,-0.042844833459518845,-0.07742226237654685,-0.025676146917790174
1757088925566081800,9.906081787109375,-0.011426233899593352,-0.07252981415987014,0.01929755179658532
1757088925576127700,9.916127685546876,0.010225114481523632,-0.019003975677490233,0.05461867522038519
1757088925586174700,9.9261748046875,0.004172353781200945,-0.0037450317472219464,0.06430244936682283
1757088925596220700,9.936220703125,-0.04815934301316738,-0.011787468427419661,0.07626973134055733
1757088925606268000,9.946267822265625,-0.11819500226974487,-0.02366612226963043,0.040039018791168925
1757088925616313900,9.95631396484375,-0.09047350366208702,-0.04461830940544605,-0.038482510064169764
1757088925626360800,9.96636083984375,-0.06399871717989444,-0.004783727145195007,-0.12608875119425356
1757088925636407800,9.97640771484375,-0.02881638117227703,-0.011207038190960883,-0.20244206916503607
1757088925646453800,9.986453857421875,0.01615676955282688,-0.018129530930519104,-0.21495025308243929
1757088925656500700,9.996500732421875,0.04870123133752495,0.015772154149413107,-0.15914382938221097
1757088925666547000,10.006546875,0.06014675445947796,0.04395604610443115,-0.12650186203978955
1757088925676594200,10.01659423828125,0.03682718060519546,0.05643500392735004,-0.1308911099746823
1757088925686640400,10.026640380859375,0.03502747423946857,0.0034071780949831007,-0.1105018904838711
1757088925696687400,10.036687255859375,0.033623452660441394,-0.015610826107859611,-0.09091660778708756
1757088925706733600,10.046733642578126,0.06677523268852383,0.016852935123443602,-0.0472332411441952
1757088925716780500,10.056780517578124,0.09069266283810139,0.07669920879900455,-0.07707987867966294
1757088925726826500,10.066826416015624,0.04316281336750835,0.08012041541934013,-0.052128027448430654
1757088925736873500,10.07687353515625,0.05520988257918506,0.06964110698103905,-0.0147621733892709
1757088925746920400,10.08692041015625,0.08696458222568035,0.05843699139952659,-0.038738676782324906
1757088925756966400,10.09696630859375,0.07576452176477759,0.045751697349548336,-0.09154431123137474
1757088925767013400,10.107013427734374,0.025531879608891903,0.035655250748991965,-0.11771474447213112
1757088925777059300,10.117059326171875,-0.024120295777916908,0.00838555102944374,-0.1452838655296713
1757088925787106300,10.127106201171875,-0.0798995026776567,0.006090133568644523,-0.18622830872796475
1757088925797152300,10.13715234375,-0.10839783087670803,0.009757423904538154,-0.2400555413097143
1757088925807199500,10.147199462890624,-0.07329729140102863,0.002467266896367073,-0.2624821849122643
1757088925817245400,10.157245361328124,-0.05461776190493255,-0.015195815566182136,-0.23090090560391544
1757088925827292400,10.16729248046875,-0.0333007965773344,-0.0388736282736063,-0.17158713136985898
1757088925837338400,10.17733837890625,-0.014787782754562794,-0.030223288828134534,-0.11061506853476166
1757088925847385300,10.18738525390625,-0.05602119896207004,-0.019326631760597228,-0.04184416851699352
1757088925857432300,10.197432373046874,-0.06250877088308333,-0.04178746989369392,0.015548428396135568
1757088925867478300,10.207478271484375,-0.04863751845154911,-0.02216682362258434,0.036973274544999005
1757088925877525200,10.217525146484375,-0.009035575903393328,0.015457681372761725,-0.009293386589363217
1757088925887571500,10.227571533203125,0.019487959802150723,0.050879123365879055,-0.09544920971542596
1757088925897618200,10.2376181640625,-0.001471241596341133,0.06743161423802375,-0.1364779701963067
1757088925907664400,10.247664306640624,0.0024620061993598937,0.06688157913982867,-0.16419819016233086
1757088925917711400,10.25771142578125,0.02717325360774994,0.046077860563993454,-0.13452449804097413
1757088925927757300,10.26775732421875,0.013206651042960583,-0.0036328035444021223,-0.09968377854526042
1757088925937804500,10.277804443359376,-0.012850165755487978,-0.034520109239220616,-0.10130918779000639
1757088925947850500,10.2878505859375,-0.048639235484600064,-0.047616322177648544,-0.07571516619771719
1757088925957897500,10.2978974609375,-0.08945522999763489,-0.049510173100233076,-0.05034954653382301
1757088925967944400,10.3079443359375,-0.0929009865373373,-0.060064300340414045,-0.0009225216723978518
1757088925977990400,10.317990478515625,-0.10023958579711616,-0.07163374210298061,0.048964814177155494
1757088925988037400,10.328037353515626,-0.09655888799037783,-0.037089667466282845,0.07449263866543769
1757088925998083300,10.338083251953124,-0.05827796491291374,0.020064882907271386,0.07581804205030203
1757088926008130300,10.34813037109375,-0.055292227100394664,0.0018079262048006056,0.07283624976053833
1757088926018176300,10.35817626953125,-0.0639478637754917,-0.04833411505818367,0.09771481655985116
1757088926028223200,10.36822314453125,-0.07928633921537548,-0.08422259004116057,0.15479761687144636
1757088926038269200,10.378269287109376,-0.07324059277772903,-0.07651625344753266,0.14658625336512923
1757088926048316400,10.38831640625,-0.06556227670218795,-0.0389911171734333,0.09754939686506986
1757088926058362400,10.3983623046875,-0.053791795942187304,0.0007557868033647537,0.038083646939694876
1757088926068409300,10.408409423828125,-0.07092530157268047,-0.031201778471469876,0.007754851910471916
1757088926078456300,10.418456298828126,-0.038945560998655857,-0.031305238845944404,0.005567717129737138
1757088926088502500,10.42850244140625,-0.04470715673267841,-0.013602408894896506,0.011121844125539064
1757088926098549200,10.43854931640625,-0.04531213688850402,-0.01476034675836563,0.02313946804702282
1757088926108595500,10.448595458984375,-0.052079694794677195,-0.014430676412582397,0.009893325243890284
1757088926118642400,10.458642333984375,-0.06032207449376583,-0.029212065958976744,0.014555471836030483
1757088926128688400,10.4686884765625,-0.041160277906060215,-0.039219665232300756,-0.007176029109209775
1757088926138735400,10.4787353515625,-0.053417117410898204,-0.05159224007129669,-0.004248597355186939
1757088926148781300,10.48878125,-0.03142974200844764,-0.0666542001247406,-0.01822407734617591
1757088926158828300,10.498828369140625,-0.038648587346076964,-0.06852817730307578,-0.050120121692121024
1757088926168874200,10.508874267578125,-0.04805880524814129,-0.08745558061301707,-0.12475070752352475
1757088926178921500,10.51892138671875,-0.05054828397631645,-0.08230302015542984,-0.19194865913614628
1757088926188968400,10.528968505859375,-0.04817395606040954,-0.042000235861539836,-0.2150210532963276
1757088926199014400,10.539014404296875,-0.011958733341097831,-0.014127894073724745,-0.1933705086328089
1757088926209061400,10.549061279296875,0.036816111221909524,-0.040890813314914704,-0.11772694636657834
1757088926219107300,10.559107421875,0.007507635683752596,-0.04509411022365093,-0.04133110442832112
1757088926229154300,10.569154296875,-0.12265895940866321,0.06726151836812495,0.02416691139861941
1757088926239200300,10.5792001953125,-0.1625526149123907,0.24503040711283683,0.07232260114997625
1757088926249247200,10.589247314453125,-0.07725220303926617,0.3001262713909149,0.19025676052644847
1757088926259293400,10.59929345703125,0.0036760581642389296,0.08120061187148093,0.3111678898870945
1757088926269340200,10.609340087890626,0.08903616433534771,-0.11512275521755218,0.320309227719903
1757088926279386400,10.619386474609374,0.06131517718434334,-0.1537871246546507,0.1775618218652904
1757088926289433600,10.62943359375,0.027506979074142873,-0.09379121337532996,-0.01056757124364376
1757088926299480300,10.639480224609375,0.009725238667987286,-0.02207446916401386,-0.25682912758663295
1757088926309526500,10.649526611328126,0.01622340504825115,0.01414250712096691,-0.44030937971547246
1757088926319573500,10.659573486328124,0.033570261168479915,0.0032458500534296034,-0.49887569658309217
1757088926329619500,10.669619384765625,0.026603344765305518,0.005701426512002944,-0.44989422353208064
1757088926339666400,10.67966650390625,-0.041378889092802996,-0.028508301603794098,-0.29658333808705206
1757088926349712400,10.68971240234375,-0.06172668059468269,-0.046288872966170305,-0.08025602449774742
1757088926359759400,10.69975927734375,-0.015707308752276,-0.013050620231032371,0.04838964463770389
1757088926369805300,10.709805419921874,0.009915208282135426,-0.029947394496202467,0.15698694360926746
1757088926379852300,10.719852294921875,0.05800207058098167,-0.04241933805644512,0.2739956587038934
1757088926389898200,10.729898193359375,0.04575286639332771,-0.036226913157105446,0.3215225490324199
1757088926399945200,10.7399453125,0.030698541657067833,0.0380108739644289,0.2556939860768616
1757088926409992400,10.749992431640624,-0.016929507490992545,0.08098784590363502,0.13804565790444612
1757088926420038400,10.760038330078125,-0.04774140986204147,0.11923778932094574,0.03339212812259793
1757088926430085400,10.77008544921875,-0.05945175793264061,0.10468027165830135,0.004191021949052811
1757088926440131300,10.78013134765625,-0.07256134180929512,0.09787292973101139,0.08943959403708576
1757088926450178300,10.79017822265625,-0.06818677998688072,0.03055295917391777,0.17555311239138244
1757088926460224500,10.800224609375,-0.09011862580981105,-0.03734218092262745,0.2015653593957424
1757088926470271200,10.810271240234375,-0.10279632107522338,-0.06786240687072277,0.15839242649301885
1757088926480317400,10.8203173828125,-0.056413376617431635,-0.10612988594472407,0.10123480737954378
1757088926490364400,10.830364501953126,-0.034870822373032566,-0.13710194731354713,0.02056158038303256
1757088926500410400,10.840410400390626,-0.020493921974301336,-0.15405717376768588,-0.03598419044241309
1757088926510457300,10.850457275390625,-0.0036357626864686604,-0.17152327235341072,-0.0161461020283401
1757088926520504600,10.860504638671875,-0.004007445543073118,-0.14202829779982565,0.010864216102659701
1757088926530550500,10.870550537109375,-0.0655517918407917,-0.09772095403969287,-0.03606397768035531
1757088926540597500,10.880597412109376,-0.09831479174699634,-0.09662322193086147,-0.041376258744299406
1757088926550643500,10.8906435546875,-0.13691318327579646,-0.03590367255210876,-0.021400077033787965
1757088926560690400,10.9006904296875,-0.17275953615009784,0.008300795355439186,-0.04849281275123357
1757088926570736400,10.910736328125,-0.16628073205742985,0.009341244319081305,-0.05873246721476316
1757088926580783400,10.920783447265626,-0.1489239390650764,0.021114099699258804,-0.11150909476503729
1757088926590829300,10.930829345703126,-0.10082125814259052,0.06830605898499488,-0.15456687685549259
1757088926600876300,10.940876220703124,-0.04333875445630401,0.10874445235729217,-0.26245368947014214
1757088926610922200,10.950922119140625,0.04989537302553653,0.04439736013114452,-0.3991287896737456
1757088926620969200,10.96096923828125,0.11120707961115986,0.023861352580785748,-0.3527797109529376
1757088926631016400,10.971016357421876,0.08395484248306602,0.0926695158690214,-0.3094391663983464
1757088926641062100,10.981062255859374,-0.024071195939183235,0.09086042062044143,-0.5309034044846892
1757088926651109400,10.991109375,0.058275663357973094,0.14022797037959098,-0.3746817461594939
1757088926661155600,11.001155517578125,0.14016889713611452,-0.02900748329758644,-0.3336965325593948
1757088926671202000,11.0112021484375,0.045941082441806794,-0.0008832125753164291,-0.19188436172828077
1757088926681248000,11.021248046875,0.022049371255375445,0.06370411814749241,-0.23841186575591564
1757088926691295000,11.031294921875,0.06964581968877465,0.06354921984672546,-0.3089578126221895
1757088926701341000,11.0413408203125,0.13414543559551237,0.08515665602087974,-0.22302944157645105
1757088926711388200,11.05138818359375,0.08396715397536754,0.09118307670354843,-0.17667685572430492
1757088926721434000,11.06143408203125,0.07711301376428455,0.04030746046900749,-0.11735051426962018
1757088926731481000,11.071481201171874,0.06498597465157509,-0.005696750336885452,-0.10394698894768953
1757088926741528000,11.081528076171875,0.0736170614073053,-0.021168460234999655,-0.1280029873177409
1757088926751574000,11.091573974609375,0.039531251932121814,-0.013192074528336524,-0.19884236417263745
1757088926761621000,11.10162109375,0.021188370511867106,-0.012591770547628401,-0.21080913468971849
1757088926771667000,11.1116669921875,-0.011133351900242268,0.042938393494486804,-0.16399229232668874
1757088926781714000,11.1217138671875,-0.01753035946097225,0.06626490854620933,-0.1483987096145749
1757088926791760000,11.131759765625,-0.0305295417657122,0.020683891588449476,-0.11186740668341517
1757088926801806800,11.141806884765625,-0.11240235381033271,0.0493523521900177,-0.14218845679759978
1757088926811853000,11.15185302734375,-0.13670447242856024,0.0656254415988922,-0.12532324671447276
1757088926821899800,11.161899658203126,-0.10972180948946625,0.06319792219102383,-0.054021659175306554
1757088926831946000,11.171946044921874,-0.13139880376849322,-0.01399345403909683,0.01220540157854557
1757088926841993200,11.1819931640625,-0.10562485903203486,-0.06474807424247264,-0.011875438971817493
1757088926852040000,11.1920400390625,-0.08833707615528255,-0.00009586158990859984,-0.052440673594176763
1757088926862086100,11.202086181640626,-0.05073240837156772,0.06362228508293628,-0.09156593854129313
1757088926872133000,11.212133056640624,-0.05748772785067558,0.074139587444067,-0.12243833892792462
1757088926882179000,11.222178955078125,-0.0893798266738653,0.0087228201597929,-0.11597265004515647
1757088926892226000,11.23222607421875,-0.09650456398725508,-0.01722469104528427,-0.10207724955305457
1757088926902272000,11.24227197265625,-0.15720307057797908,-0.03718903618752956,-0.07035247012078762
1757088926912319000,11.252319091796876,-0.18329375311341137,-0.060729486250877374,-0.03819733644723892
1757088926922365000,11.262364990234374,-0.1784650908479467,-0.023078093248605727,0.010805179391801357
1757088926932412000,11.272411865234375,-0.153327690449357,0.02890811457633972,0.04772460485771298
1757088926942457900,11.282457763671875,-0.15558916910793633,0.028334114080667494,0.11797887530103325
1757088926952505000,11.292505126953126,-0.19297869630362838,-0.04287058895528316,0.16859569446891545
1757088926962552000,11.302552001953124,-0.2262391974031925,-0.035468203744292257,0.19853928957283495
1757088926972598000,11.312597900390625,-0.1761947712957859,-0.005995441022515297,0.14504530753344297
1757088926982645000,11.32264501953125,-0.10607965359482914,0.015019289955496787,0.06395414738580583
1757088926992691000,11.33269091796875,-0.04101005578041077,0.022861820149421692,-0.06603343787789344
1757088927002738000,11.342738037109376,0.00827153272833675,0.038292028993368143,-0.15150500506684184
1757088927012784000,11.3527841796875,0.029283341096900402,0.004440028274059296,-0.16449249693378806
1757088927022830800,11.362830810546875,0.006431494352221488,-0.03958265332579612,-0.09031433104500174
1757088927032877000,11.372876953125,-0.024155330558679997,-0.0812801068484783,0.07427826526239514
1757088927042924000,11.382924072265626,-0.07084872920513152,-0.1210123977780342,0.16795768882632253
1757088927052971000,11.392970947265624,-0.0761304324677214,-0.12565993132293224,0.15582286826595662
1757088927063017000,11.403016845703124,-0.05761160995867103,-0.13854337829351424,0.04146203733161091
1757088927073064200,11.413064208984375,-0.02052197902500629,-0.07821136692762375,-0.09726575761809944
1757088927083110100,11.423110107421875,0.011396423283219336,0.015565233400464057,-0.20267843520417808
1757088927093157000,11.4331572265625,0.024081132811307904,0.021852935367822644,-0.17941066460236907
1757088927103203000,11.443203125,0.04001753761172294,-0.02682838569283485,-0.08093830767348409
1757088927113250000,11.45325,0.05299976878166198,-0.02883271125257015,-0.00980666987374425
1757088927123296000,11.4632958984375,0.07073182482719421,0.01767009672522545,0.05060878199189901
1757088927133343000,11.473343017578125,0.0975409212976694,0.041325113078951835,0.06996814697831868
1757088927143389000,11.483388916015626,0.07161098228190094,0.05724456674456596,0.06905848478749393
1757088927153436000,11.493435791015624,0.05018299432788044,0.06133329736292362,-0.013626812683790922
1757088927163481900,11.50348193359375,0.0343336832890287,0.04878068978190422,-0.0938178091213107
1757088927173528800,11.51352880859375,0.043234198103286325,0.03736030110120773,-0.13078984155729412
1757088927183576000,11.523576171875,0.05920275160763412,0.029634090763330456,-0.16871771341338754
1757088927193622000,11.5336220703125,0.0737426605483517,0.019022095856070516,-0.1660644224256277
1757088927203669000,11.5436689453125,0.04343176650200039,-0.010800795477628708,-0.11696823695376515
1757088927213715200,11.553715087890625,0.030789069484733044,0.00010287585258483886,-0.07223404608368873
1757088927223762000,11.563761962890625,-0.04683890806436539,0.0058019642770290375,-0.013506255044043063
1757088927233808100,11.57380810546875,-0.08833532258961349,-0.0017675941944122313,0.07828618572950363
1757088927243855000,11.583855224609374,-0.06161445239186287,0.03445230470001697,0.11357713321074843
1757088927253901000,11.593901123046875,-0.028473851344920694,0.02202127767205238,0.11576792125329374
1757088927263948000,11.603947998046875,-0.022025369325280188,-0.039541736793518065,0.05623612035438418
1757088927273995000,11.6139951171875,-0.01023556281030178,-0.027625089028477667,-0.029948417409509417
1757088927284041000,11.624041015625,0.009673873806931077,0.0023398411244153973,-0.06118132167160511
1757088927294088000,11.634087890625,0.0011456629037857055,-0.021305822879076,-0.07789835545569658
1757088927304134000,11.6441337890625,-0.007196633505821228,-0.026695114701986312,-0.0522593256779015
1757088927314181000,11.65418115234375,-0.022936090962029993,0.011451368340849876,-0.036328035444021224
1757088927324227000,11.66422705078125,-0.01407937875688076,-0.028801147070527076,-0.03415332175344229
1757088927334274000,11.674274169921874,0.005317980152368545,-0.06395721612572669,0.005492313805967569
1757088927344320000,11.684320068359375,-0.005796667047403752,-0.0676776979535818,0.003359247300028801
1757088927354367000,11.694366943359375,-0.0504892472654581,-0.034146015229821206,-0.009880611892789602
1757088927364413000,11.704412841796875,-0.08053250335156917,-0.03893792568147182,-0.055687984952330585
1757088927374460000,11.7144599609375,-0.11105093920137732,-0.05272621253728866,-0.06803878635093569
1757088927384507000,11.7245068359375,-0.11277177164461463,-0.03132043641507625,-0.09243950650542974
1757088927394552800,11.734552734375,-0.06823007113933563,-0.006788052704930305,-0.12012480128854512
1757088927404599800,11.744599853515625,-0.04508475787341595,-0.012055763974785805,-0.1725945548467338
1757088927414646000,11.75464599609375,-0.05500117173194885,0.00177636202275753,-0.21957754755690692
1757088927424693000,11.76469287109375,-0.058920427534915505,0.003253448837995529,-0.2557292035207152
1757088927434739200,11.7747392578125,-0.05756020856499672,-0.006004793372750282,-0.24348507736697791
1757088927444786200,11.7847861328125,-0.07070785942971707,-0.01820142712295055,-0.19361995334923265
1757088927454832000,11.79483203125,-0.09400693848524243,-0.026585224586725232,-0.13958762664943933
1757088927464879000,11.804879150390626,-0.11300386336743831,-0.01088087497651577,-0.08326397414207458
1757088927474925000,11.814925048828124,-0.07787588789556175,-0.02134907749891281,-0.027677257607132195
1757088927484972000,11.824971923828125,-0.03494209751095623,0.011935352465510368,0.026286095509678125
1757088927495019000,11.83501904296875,-0.025295184776186943,0.04047755633890628,0.04918634797334671
1757088927505065000,11.84506494140625,-0.013277962713502347,0.031495792981982226,0.053081455715745685
1757088927515112000,11.85511181640625,-0.007784078004956245,0.020167174237966535,0.03356149334013462
1757088927525158000,11.865157958984375,0.02302026211414486,-0.004015080860257148,0.020594313608855008
1757088927535204900,11.875204833984375,0.06799337630663067,0.006823708540201187,-0.02104351868107915
1757088927545250800,11.885250732421875,0.020139738241769373,0.019892448949813842,-0.041976854985952376
1757088927555298000,11.895298095703126,-0.013460918064974247,0.02321954754590988,-0.04334112907648086
1757088927565344000,11.905343994140624,-0.016991466811299323,-0.030436639317870138,-0.036235534854978324
1757088927575391000,11.915390869140625,-0.033504173662327226,-0.046641339665651316,-0.06234656605869531
1757088927585437200,11.925437255859375,-0.030881460475921628,-0.03468552893400192,-0.061924248993396755
1757088927595484000,11.93548388671875,-0.025426117679476737,-0.032581834653019906,-0.08759937299787998
1757088927605531000,11.94553076171875,-0.01706511656939983,-0.03344809609353542,-0.08413345045298337
1757088927615577000,11.9555771484375,-0.04476268631219864,0.009839841490983962,-0.10701061430200934
1757088927625624000,11.9656240234375,-0.02964695024490356,0.07454816824495791,-0.1102865672327578
1757088927635670000,11.975669921875,-0.03660513535235077,0.09871522577404976,-0.07833484717682003
1757088927645717000,11.985717041015626,0.0021370120286941527,0.09163374308049678,-0.05074716754928231
1757088927655763000,11.995762939453124,0.0048251916667446495,0.05823708491325378,0.0005694704510271548
1757088927665810200,12.00581005859375,0.010022212320566177,0.04942892455756664,0.03248874954208732
1757088927675855600,12.015855712890625,0.029871370117925105,0.03875263224244117,0.04919789228066802
1757088927685902600,12.025902587890625,0.01566927829682827,0.011281856992840766,0.04064341442510486
1757088927695948500,12.035948486328126,-0.009646401278115809,0.0033493104279041287,-0.012126637253910302
1757088927705995800,12.045995849609374,-0.023517032655142246,0.0015747019708156585,-0.0652925563827157
1757088927716042800,12.056042724609375,-0.02171206559240818,-0.023427052816748617,-0.1037760162949562
1757088927726088700,12.066088623046875,-0.04308627753257751,-0.06556406680047512,-0.12920973275899886
1757088927736135700,12.0761357421875,-0.07717555760648101,-0.0851800368964672,-0.13492153453454375
1757088927746181600,12.086181640625,-0.07874792148973793,-0.04107084605693817,-0.13017960070446133
1757088927756228600,12.096228515625,-0.06535363892018795,0.015609657064080237,-0.15795169698819517
1757088927766274800,12.10627490234375,-0.03262275118529796,0.05584229873120784,-0.1536563378818333
1757088927776321500,12.116321533203125,0.011897943064570426,0.04298749333322048,-0.14970876929983495
1757088927786367700,12.12636767578125,0.04277122023403644,0.012872341054677962,-0.15191621621623635
1757088927796414700,12.136414794921874,0.05432199382875114,0.006907879692316055,-0.13715017036944627
1757088927806460700,12.146460693359375,0.027365561309456825,0.008761398604512215,-0.09093027098625898
1757088927816508000,12.1565078125,-0.00040448914766311644,0.015203414350748061,-0.05925955982878804
1757088927826555000,12.166554931640626,0.0004541369756683707,0.014746318233013152,-0.04664908458068966
