time,seconds_elapsed,z,y,x
1757088915671494700,0.01149462890625,-1.0334930419921875,-0.0770416259765625,0.3691253662109375
1757088915686564600,0.026564697265625,-1.0220794677734375,-0.0908660888671875,0.370025634765625
1757088915696611600,0.036611572265625,-1.0008697509765625,-0.1071014404296875,0.3556671142578125
1757088915706657500,0.046657470703125,-0.973602294921875,-0.1282958984375,0.3539581298828125
1757088915716704500,0.05670458984375,-0.936553955078125,-0.136749267578125,0.3727264404296875
1757088915726750700,0.066750732421875,-0.892822265625,-0.1456756591796875,0.3838043212890625
1757088915736797700,0.076797607421875,-0.877960205078125,-0.153594970703125,0.395263671875
1757088915746843600,0.08684375,-0.8938751220703125,-0.167266845703125,0.4002838134765625
1757088915756890600,0.096890625,-0.893310546875,-0.180084228515625,0.374664306640625
1757088915766936600,0.1069365234375,-0.897857666015625,-0.179168701171875,0.364410400390625
1757088915776983800,0.11698388671875,-0.8956756591796875,-0.177093505859375,0.3691864013671875
1757088915787029800,0.12702978515625,-0.8806304931640625,-0.180511474609375,0.369293212890625
1757088915797076700,0.13707666015625,-0.8587493896484375,-0.1900787353515625,0.372222900390625
1757088915807122700,0.147122802734375,-0.832611083984375,-0.1970977783203125,0.380401611328125
1757088915817169700,0.157169677734375,-0.8170623779296875,-0.19525146484375,0.3793487548828125
1757088915827215600,0.167215576171875,-0.8264617919921875,-0.1870269775390625,0.401031494140625
1757088915837262600,0.1772626953125,-0.809326171875,-0.196136474609375,0.4438323974609375
1757088915847308500,0.18730859375,-0.8016510009765625,-0.2206573486328125,0.4396514892578125
1757088915857355500,0.19735546875,-0.801727294921875,-0.2220916748046875,0.4429779052734375
1757088915867401500,0.2074013671875,-0.7841949462890625,-0.2192840576171875,0.4893798828125
1757088915877448400,0.217448486328125,-0.795501708984375,-0.2218780517578125,0.520263671875
1757088915887494700,0.22749462890625,-0.8144989013671875,-0.23101806640625,0.5193939208984375
1757088915897541600,0.237541748046875,-0.8077850341796875,-0.236358642578125,0.495941162109375
1757088915907587600,0.247587646484375,-0.7923431396484375,-0.24505615234375,0.4871826171875
1757088915917634800,0.257634765625,-0.797698974609375,-0.229034423828125,0.490142822265625
1757088915927680800,0.2676806640625,-0.85443115234375,-0.2083587646484375,0.5054931640625
1757088915937727700,0.277727783203125,-0.9060211181640625,-0.211273193359375,0.536956787109375
1757088915947773700,0.287773681640625,-0.9134674072265625,-0.227386474609375,0.498931884765625
1757088915957820700,0.297820556640625,-0.874755859375,-0.2403717041015625,0.46954345703125
1757088915967866600,0.30786669921875,-0.8235321044921875,-0.2414398193359375,0.4782562255859375
1757088915977913600,0.31791357421875,-0.805633544921875,-0.2454376220703125,0.4971160888671875
1757088915987959600,0.32795947265625,-0.7996063232421875,-0.2425537109375,0.51361083984375
1757088915998006500,0.338006591796875,-0.7932891845703125,-0.2701263427734375,0.52203369140625
1757088916008052500,0.348052490234375,-0.76031494140625,-0.295562744140625,0.5504913330078125
1757088916018099500,0.358099365234375,-0.721405029296875,-0.2869873046875,0.57562255859375
1757088916028145700,0.368145751953125,-0.697235107421875,-0.2816925048828125,0.5507354736328125
1757088916038192400,0.3781923828125,-0.6445465087890625,-0.309326171875,0.5257568359375
1757088916048238600,0.388238525390625,-0.60076904296875,-0.3163299560546875,0.5623779296875
1757088916058285800,0.398285888671875,-0.5680084228515625,-0.31964111328125,0.5632781982421875
1757088916068331800,0.408331787109375,-0.604583740234375,-0.319183349609375,0.6033477783203125
1757088916078378800,0.418378662109375,-0.6436309814453125,-0.284881591796875,0.6230926513671875
1757088916088424700,0.4284248046875,-0.6986236572265625,-0.2429351806640625,0.609100341796875
1757088916098471700,0.4384716796875,-0.757171630859375,-0.21173095703125,0.6289215087890625
1757088916108517600,0.448517578125,-0.8187103271484375,-0.181060791015625,0.5970611572265625
1757088916118564600,0.458564697265625,-0.87127685546875,-0.187896728515625,0.554168701171875
1757088916128610600,0.468610595703125,-0.8879852294921875,-0.1958770751953125,0.6136932373046875
1757088916138657500,0.478657470703125,-0.883453369140625,-0.2260589599609375,0.6613311767578125
1757088916148703500,0.488703369140625,-0.823211669921875,-0.225860595703125,0.6857757568359375
1757088916158750500,0.49875048828125,-0.710784912109375,-0.21978759765625,0.7023468017578125
1757088916168796400,0.50879638671875,-0.6448211669921875,-0.2567138671875,0.71600341796875
1757088916178843600,0.51884375,-0.6362457275390625,-0.2780303955078125,0.7588043212890625
1757088916188889900,0.528889892578125,-0.635406494140625,-0.270660400390625,0.7666015625
1757088916198936600,0.5389365234375,-0.6540069580078125,-0.255340576171875,0.75836181640625
1757088916208982800,0.548982666015625,-0.6760406494140625,-0.24456787109375,0.749481201171875
1757088916219029800,0.55902978515625,-0.6697998046875,-0.2524871826171875,0.7474822998046875
1757088916229075700,0.56907568359375,-0.6407928466796875,-0.275665283203125,0.7387542724609375
1757088916239122700,0.579122802734375,-0.5752105712890625,-0.2987060546875,0.717193603515625
1757088916249168600,0.589168701171875,-0.509307861328125,-0.2881317138671875,0.71661376953125
1757088916259215600,0.599215576171875,-0.5067138671875,-0.2864227294921875,0.743896484375
1757088916269261600,0.609261474609375,-0.4951324462890625,-0.2719268798828125,0.767120361328125
1757088916279308500,0.61930859375,-0.479888916015625,-0.229156494140625,0.7455902099609375
1757088916289354500,0.6293544921875,-0.47491455078125,-0.2406158447265625,0.754302978515625
1757088916299401500,0.6394013671875,-0.44140625,-0.2327728271484375,0.7905426025390625
1757088916309447400,0.649447509765625,-0.46282958984375,-0.22735595703125,0.7746429443359375
1757088916319494700,0.65949462890625,-0.5287017822265625,-0.204437255859375,0.728363037109375
1757088916329540600,0.66954052734375,-0.58612060546875,-0.1663055419921875,0.724456787109375
1757088916339587600,0.679587646484375,-0.6162567138671875,-0.176300048828125,0.7142181396484375
1757088916349633800,0.6896337890625,-0.584930419921875,-0.186248779296875,0.68115234375
1757088916359680800,0.6996806640625,-0.54351806640625,-0.157501220703125,0.66265869140625
1757088916369726700,0.709726806640625,-0.5585174560546875,-0.112701416015625,0.6808013916015625
1757088916379773700,0.719773681640625,-0.6045074462890625,-0.085357666015625,0.6646575927734375
1757088916389819600,0.729819580078125,-0.7106475830078125,-0.0527496337890625,0.6649932861328125
1757088916399866600,0.73986669921875,-0.7798614501953125,-0.039337158203125,0.6990814208984375
1757088916409912600,0.74991259765625,-0.75018310546875,-0.031036376953125,0.69921875
1757088916419959600,0.75995947265625,-0.6987762451171875,-0.0152587890625,0.7073822021484375
1757088916430005500,0.770005615234375,-0.6326751708984375,-0.009033203125,0.7449493408203125
1757088916440052500,0.780052490234375,-0.5839385986328125,-0.01434326171875,0.7915802001953125
1757088916450098400,0.790098388671875,-0.5048675537109375,-0.051422119140625,0.8709259033203125
1757088916460145700,0.800145751953125,-0.3875274658203125,-0.1062164306640625,0.9019927978515625
1757088916470191600,0.810191650390625,-0.287384033203125,-0.1261138916015625,0.8943939208984375
1757088916480238600,0.820238525390625,-0.1829833984375,-0.09808349609375,0.8738555908203125
1757088916490284800,0.830284912109375,-0.1095428466796875,-0.0549468994140625,0.81317138671875
1757088916500331500,0.84033154296875,-0.0958709716796875,-0.01971435546875,0.693115234375
1757088916510377700,0.850377685546875,-0.1665191650390625,0.016632080078125,0.670989990234375
1757088916520424700,0.8604248046875,-0.3524169921875,0.0974884033203125,0.810943603515625
1757088916530470700,0.870470703125,-0.5810546875,0.1066436767578125,0.95831298828125
1757088916540517600,0.880517578125,-0.8058013916015625,0.0315399169921875,1.077484130859375
1757088916550563600,0.8905634765625,-0.9986724853515625,-0.0621337890625,1.143463134765625
1757088916560610600,0.900610595703125,-0.8410491943359375,-0.070892333984375,1.1475067138671875
1757088916570656500,0.910656494140625,-0.6313934326171875,-0.036376953125,1.0948638916015625
1757088916580703700,0.920703857421875,-0.41302490234375,-0.015869140625,0.9624786376953125
1757088916590749700,0.930749755859375,-0.1680145263671875,-0.0172271728515625,0.837799072265625
1757088916600796700,0.940796630859375,0.0239715576171875,-0.0179290771484375,0.7710418701171875
1757088916610842600,0.950842529296875,0.169342041015625,-0.011688232421875,0.7539215087890625
1757088916620889600,0.9608896484375,0.258270263671875,-0.014190673828125,0.793609619140625
1757088916630935600,0.970935546875,0.2886810302734375,-0.0231170654296875,0.8337554931640625
1757088916640982500,0.980982421875,0.27197265625,-0.0194091796875,0.863006591796875
1757088916651028700,0.99102880859375,0.2426300048828125,-0.026153564453125,0.9562835693359375
1757088916661076000,1.001075927734375,0.215850830078125,-0.049835205078125,1.0657501220703125
1757088916671122200,1.0111220703125,0.1688995361328125,-0.0702972412109375,1.088043212890625
1757088916681169200,1.021169189453125,0.1193084716796875,-0.0554962158203125,1.0303955078125
1757088916691215000,1.031215087890625,0.0994110107421875,-0.0030364990234375,0.964508056640625
1757088916701262300,1.041262451171875,0.1384429931640625,0.0621185302734375,0.8751068115234375
1757088916711308300,1.051308349609375,0.1425628662109375,0.1214141845703125,0.8687591552734375
1757088916721355300,1.061355224609375,0.097412109375,0.1434478759765625,0.9305419921875
1757088916731401200,1.071401123046875,0.0286407470703125,0.1215362548828125,0.9903717041015625
1757088916741448200,1.0814482421875,-0.040863037109375,0.0728912353515625,1.0296783447265625
1757088916751494100,1.091494140625,-0.06427001953125,0.0351104736328125,1.063201904296875
1757088916761541000,1.101541015625,-0.034515380859375,0.01153564453125,1.0810394287109375
1757088916771587000,1.111587158203125,0.0320892333984375,-0.0071563720703125,1.031524658203125
1757088916781634000,1.121634033203125,0.13848876953125,0.0062408447265625,0.93890380859375
1757088916791680000,1.131679931640625,0.2376251220703125,0.057281494140625,0.91058349609375
1757088916801727000,1.14172705078125,0.2924957275390625,0.089569091796875,0.9557647705078125
1757088916811773200,1.151773193359375,0.3257598876953125,0.09295654296875,0.977813720703125
1757088916821820000,1.16181982421875,0.3156890869140625,0.0836639404296875,1.005126953125
1757088916831866000,1.1718662109375,0.2611846923828125,0.0567626953125,1.0509490966796875
1757088916841913300,1.181913330078125,0.2098388671875,0.0177001953125,1.0811309814453125
1757088916851959300,1.191959228515625,0.181060791015625,0.00335693359375,1.0889892578125
1757088916862006300,1.20200634765625,0.1866302490234375,0.0125732421875,1.0308380126953125
1757088916872052200,1.21205224609375,0.202667236328125,0.0164337158203125,0.960662841796875
1757088916882099200,1.22209912109375,0.234405517578125,0.03887939453125,0.9131011962890625
1757088916892145200,1.232145263671875,0.28619384765625,0.0871429443359375,0.9166717529296875
1757088916902192000,1.242192138671875,0.3343658447265625,0.1419677734375,0.974822998046875
1757088916912238000,1.252238037109375,0.3570098876953125,0.1561126708984375,1.02056884765625
1757088916922285000,1.26228515625,0.334136962890625,0.130279541015625,1.0816497802734375
1757088916932331000,1.2723310546875,0.2798309326171875,0.087738037109375,1.1548309326171875
1757088916942378000,1.2823779296875,0.206878662109375,0.0267486572265625,1.1954193115234375
1757088916952424000,1.292423828125,0.1511383056640625,-0.08929443359375,1.12567138671875
1757088916962471000,1.302470947265625,0.140380859375,-0.18951416015625,1.048065185546875
1757088916972517000,1.31251708984375,0.1671905517578125,-0.2249908447265625,1.018310546875
1757088916982564000,1.322564208984375,0.2229156494140625,-0.2127227783203125,1.003173828125
1757088916992610300,1.3326103515625,0.282318115234375,-0.2017669677734375,0.9552459716796875
1757088917002657300,1.3426572265625,0.3132476806640625,-0.190093994140625,0.933074951171875
1757088917012703200,1.352703125,0.3259735107421875,-0.1436614990234375,0.946075439453125
1757088917022750200,1.362750244140625,0.2726898193359375,-0.0709228515625,0.9851226806640625
1757088917032796200,1.372796142578125,0.103729248046875,-0.01776123046875,1.0411834716796875
1757088917042843100,1.382843017578125,-0.087188720703125,0.00103759765625,1.083221435546875
1757088917052889000,1.39288916015625,-0.218902587890625,0.059234619140625,1.108551025390625
1757088917062936000,1.40293603515625,-0.1790618896484375,0.136199951171875,1.1171722412109375
1757088917072982000,1.41298193359375,-0.0273284912109375,0.165985107421875,1.089202880859375
1757088917083029000,1.423029052734375,0.0658721923828125,0.1517486572265625,1.0847625732421875
1757088917093075000,1.433074951171875,0.1047821044921875,0.1547393798828125,1.1256103515625
1757088917103122200,1.4431220703125,0.656402587890625,0.1292724609375,1.1750030517578125
1757088917113168100,1.453168212890625,1.201171875,0.0811614990234375,1.09735107421875
1757088917123215000,1.463215087890625,0.4444732666015625,0.11627197265625,1.1495819091796875
1757088917133261300,1.47326123046875,0.212066650390625,0.055908203125,1.0073089599609375
1757088917143308300,1.483308349609375,0.2183837890625,0.050537109375,0.909912109375
1757088917153354200,1.493354248046875,0.26019287109375,0.0830230712890625,0.9428558349609375
1757088917163401200,1.503401123046875,0.1868133544921875,0.0528717041015625,0.950653076171875
1757088917173447200,1.513447265625,0.111328125,0.0052337646484375,0.9237060546875
1757088917183494100,1.523494140625,0.063934326171875,0.0262298583984375,0.931610107421875
1757088917193540000,1.5335400390625,0.020477294921875,0.05218505859375,0.973968505859375
1757088917203587000,1.543587158203125,-0.009857177734375,0.0775146484375,1.008026123046875
1757088917213633000,1.553633056640625,0.002685546875,0.113739013671875,1.038116455078125
1757088917223680000,1.563679931640625,0.0078582763671875,0.1284942626953125,1.0230712890625
1757088917233727200,1.573727294921875,0.0038604736328125,0.1245880126953125,0.995452880859375
1757088917243773200,1.583773193359375,0.0370025634765625,0.110076904296875,0.9761505126953125
1757088917253820200,1.593820068359375,0.060516357421875,0.09637451171875,0.9764404296875
1757088917263866000,1.6038662109375,0.1003570556640625,0.067047119140625,0.941314697265625
1757088917273913000,1.6139130859375,0.1248931884765625,0.05596923828125,0.9184417724609375
1757088917283959000,1.623958984375,0.1316070556640625,0.045135498046875,0.9145660400390625
1757088917294006000,1.634006103515625,0.139007568359375,0.0533447265625,0.9349822998046875
1757088917304052200,1.64405224609375,0.1170501708984375,0.0830535888671875,0.9701995849609375
1757088917314099200,1.65409912109375,0.0623931884765625,0.1098785400390625,0.99664306640625
1757088917324145200,1.664145263671875,0.025177001953125,0.1255035400390625,1.022125244140625
1757088917334192000,1.674192138671875,0.0145263671875,0.12164306640625,1.0428009033203125
1757088917344238000,1.684238037109375,0.03546142578125,0.1152191162109375,1.0258941650390625
1757088917354285300,1.694285400390625,0.07928466796875,0.1180572509765625,0.9903564453125
1757088917364331000,1.7043310546875,0.1072845458984375,0.1170654296875,0.9861907958984375
1757088917374378200,1.714378173828125,0.13427734375,0.11614990234375,0.984222412109375
1757088917384424200,1.724424072265625,0.1487274169921875,0.131805419921875,0.9942779541015625
1757088917394471200,1.73447119140625,0.153411865234375,0.1283416748046875,1.034942626953125
1757088917404518100,1.74451806640625,0.1285552978515625,0.1219329833984375,1.0600128173828125
1757088917414564000,1.754564208984375,0.094024658203125,0.11663818359375,1.044708251953125
1757088917424611000,1.764611083984375,0.07061767578125,0.123443603515625,1.0241546630859375
1757088917434657000,1.774656982421875,0.0525054931640625,0.1200103759765625,0.9995574951171875
1757088917444704000,1.7847041015625,0.067230224609375,0.0984649658203125,0.9828338623046875
1757088917454750000,1.79475,0.0883331298828125,0.073944091796875,0.9663848876953125
1757088917464797000,1.804796875,0.09722900390625,0.0616455078125,0.950469970703125
1757088917474843100,1.814843017578125,0.0959625244140625,0.0553436279296875,0.955108642578125
1757088917484890000,1.82489013671875,0.0824432373046875,0.050384521484375,0.9593048095703125
1757088917494936300,1.834936279296875,0.085113525390625,0.0576019287109375,0.9639892578125
1757088917504983300,1.8449833984375,0.1019134521484375,0.067413330078125,0.974517822265625
1757088917515030300,1.8550302734375,0.1088104248046875,0.0706329345703125,0.9808197021484375
1757088917525076200,1.865076171875,0.0984039306640625,0.078582763671875,0.977203369140625
1757088917535123200,1.875123291015625,0.097412109375,0.0879058837890625,0.980499267578125
1757088917545169200,1.885169189453125,0.103118896484375,0.0908203125,0.98004150390625
1757088917555216100,1.895216064453125,0.103240966796875,0.093292236328125,0.982696533203125
1757088917565262000,1.905261962890625,0.104156494140625,0.0940704345703125,0.9893798828125
1757088917575309000,1.91530908203125,0.0968475341796875,0.0915374755859375,0.9942779541015625
1757088917585355000,1.92535498046875,0.0885162353515625,0.090545654296875,0.9950714111328125
1757088917595402200,1.93540234375,0.0845794677734375,0.0914459228515625,0.996490478515625
1757088917605448000,1.945447998046875,0.0869293212890625,0.0888519287109375,0.993988037109375
1757088917615495200,1.9554951171875,0.090118408203125,0.087005615234375,0.9912109375
1757088917625542100,1.965542236328125,0.0933990478515625,0.105865478515625,0.9887847900390625
1757088917635588000,1.975588134765625,0.089263916015625,0.0706634521484375,1.0018310546875
1757088917645635000,1.985635009765625,0.103424072265625,0.0587158203125,1.0028228759765625
1757088917655680500,1.995680419921875,0.10968017578125,0.0944061279296875,0.9737396240234375
1757088917665727500,2.0057275390625,0.0985107421875,0.1024627685546875,0.9608001708984375
1757088917675773400,2.0157734375,0.0965118408203125,0.1090545654296875,0.9767608642578125
1757088917685820400,2.0258203125,0.1053314208984375,0.110565185546875,0.9804229736328125
1757088917695866400,2.035866455078125,0.1156768798828125,0.11480712890625,0.978485107421875
1757088917705913300,2.045913330078125,0.1206207275390625,0.1201934814453125,0.9835357666015625
1757088917715959300,2.055959228515625,0.1123199462890625,0.1171875,0.9724884033203125
1757088917726006300,2.06600634765625,0.1124725341796875,0.122406005859375,0.9785003662109375
1757088917736053200,2.07605322265625,0.1132049560546875,0.125213623046875,0.9941864013671875
1757088917746099200,2.08609912109375,0.110382080078125,0.127532958984375,1.005157470703125
1757088917756146400,2.096146484375,0.11480712890625,0.12860107421875,1.016204833984375
1757088917766192400,2.1061923828125,0.121551513671875,0.1281585693359375,1.0120391845703125
1757088917776239400,2.1162392578125,0.124237060546875,0.1250762939453125,1.0042266845703125
1757088917786285300,2.126285400390625,0.1252288818359375,0.12384033203125,1.0058746337890625
1757088917796332300,2.136332275390625,0.117095947265625,0.1162872314453125,0.9899139404296875
1757088917806378200,2.146378173828125,0.1151580810546875,0.107574462890625,0.9703369140625
1757088917816425200,2.15642529296875,0.122039794921875,0.099456787109375,0.959716796875
1757088917826472200,2.16647216796875,0.131011962890625,0.0934295654296875,0.9481964111328125
1757088917836518400,2.176518310546875,0.140045166015625,0.0904693603515625,0.94287109375
1757088917846565000,2.186565185546875,0.146514892578125,0.0897216796875,0.9454345703125
1757088917856611300,2.196611328125,0.1423187255859375,0.0890655517578125,0.9553070068359375
1757088917866658600,2.206658447265625,0.1377410888671875,0.092926025390625,0.9665679931640625
1757088917876704300,2.216704345703125,0.129974365234375,0.0963897705078125,0.97576904296875
1757088917886751500,2.22675146484375,0.1207427978515625,0.1002044677734375,0.9845733642578125
1757088917896797400,2.23679736328125,0.111785888671875,0.10302734375,0.988555908203125
1757088917906844400,2.246844482421875,0.1094207763671875,0.10931396484375,0.9843597412109375
1757088917916890400,2.256890380859375,0.1143646240234375,0.11468505859375,0.97332763671875
1757088917926937300,2.266937255859375,0.119140625,0.1139984130859375,0.9665069580078125
1757088917936984300,2.276984375,0.1268463134765625,0.109588623046875,0.9633026123046875
1757088917947030300,2.2870302734375,0.1267852783203125,0.107269287109375,0.96539306640625
1757088917957077200,2.2970771484375,0.1278076171875,0.1041107177734375,0.97607421875
1757088917967123200,2.307123291015625,0.1237030029296875,0.1011199951171875,0.985260009765625
1757088917977170200,2.317170166015625,0.1166229248046875,0.1025390625,0.9969635009765625
1757088917987216100,2.327216064453125,0.1121673583984375,0.104766845703125,1.003936767578125
1757088917997263400,2.337263427734375,0.108734130859375,0.10992431640625,1.0064697265625
1757088918007309300,2.347309326171875,0.108612060546875,0.111846923828125,1.00872802734375
1757088918017356300,2.357356201171875,0.1104278564453125,0.11248779296875,1.0002288818359375
1757088918027402500,2.367402587890625,0.113067626953125,0.11041259765625,0.99237060546875
1757088918037449500,2.377449462890625,0.115692138671875,0.110107421875,0.9909820556640625
1757088918047496200,2.38749609375,0.1188812255859375,0.107666015625,0.984222412109375
1757088918057542400,2.39754248046875,0.120452880859375,0.106658935546875,0.9763641357421875
1757088918067589400,2.40758935546875,0.12518310546875,0.103363037109375,0.97259521484375
1757088918077635300,2.41763525390625,0.1300506591796875,0.095458984375,0.9714813232421875
1757088918087682300,2.427682373046875,0.1318206787109375,0.0910491943359375,0.969451904296875
1757088918097728300,2.437728271484375,0.1347198486328125,0.0893402099609375,0.9660186767578125
1757088918107775500,2.447775390625,0.12896728515625,0.0896148681640625,0.9650421142578125
1757088918117821200,2.4578212890625,0.1200408935546875,0.0872955322265625,0.9638824462890625
1757088918127868400,2.467868408203125,0.11614990234375,0.0893402099609375,0.9670257568359375
1757088918137915400,2.477915283203125,0.112091064453125,0.09442138671875,0.9774932861328125
1757088918147961300,2.48796142578125,0.1081695556640625,0.10272216796875,0.98992919921875
1757088918158008300,2.49800830078125,0.1106109619140625,0.112274169921875,0.997650146484375
1757088918168054300,2.50805419921875,0.109649658203125,0.12164306640625,0.99169921875
1757088918178101200,2.518101318359375,0.10565185546875,0.1260833740234375,0.9887542724609375
1757088918188147200,2.528147216796875,0.106109619140625,0.12548828125,0.99017333984375
1757088918198194200,2.538194091796875,0.1068572998046875,0.1213226318359375,0.9868011474609375
1757088918208240400,2.548240478515625,0.1058807373046875,0.1130218505859375,0.9808349609375
1757088918218287000,2.558287109375,0.1120147705078125,0.1028289794921875,0.975921630859375
1757088918228334300,2.568334228515625,0.1171112060546875,0.0962982177734375,0.9686126708984375
1757088918238380500,2.578380615234375,0.120025634765625,0.09197998046875,0.96435546875
1757088918248427300,2.58842724609375,0.1181793212890625,0.0851593017578125,0.967010498046875
1757088918258473500,2.598473388671875,0.11688232421875,0.0825958251953125,0.9750213623046875
1757088918268520400,2.6085205078125,0.114990234375,0.085784912109375,0.9853057861328125
1757088918278566400,2.61856640625,0.1121063232421875,0.0875244140625,0.994171142578125
1757088918288613400,2.62861328125,0.1118011474609375,0.090057373046875,0.9977874755859375
1757088918298660400,2.638660400390625,0.113037109375,0.0965423583984375,0.995208740234375
1757088918308706300,2.648706298828125,0.112213134765625,0.10040283203125,0.9914398193359375
1757088918318753300,2.658753173828125,0.113189697265625,0.104034423828125,0.9860687255859375
1757088918328799200,2.66879931640625,0.1157989501953125,0.1060638427734375,0.9828338623046875
1757088918338846500,2.678846435546875,0.11920166015625,0.1061248779296875,0.98089599609375
1757088918348892400,2.688892333984375,0.121124267578125,0.103302001953125,0.9822998046875
1757088918358939400,2.698939453125,0.11773681640625,0.1006622314453125,0.9846343994140625
1757088918368985300,2.7089853515625,0.1172637939453125,0.09765625,0.984588623046875
1757088918379032300,2.7190322265625,0.1212158203125,0.0956878662109375,0.9805145263671875
1757088918389079300,2.729079345703125,0.128204345703125,0.0949554443359375,0.9759063720703125
1757088918399125200,2.739125244140625,0.1322784423828125,0.092681884765625,0.968505859375
1757088918409172200,2.749172119140625,0.1382904052734375,0.093963623046875,0.9628143310546875
1757088918419218200,2.75921826171875,0.1386871337890625,0.0991668701171875,0.9625396728515625
1757088918429265200,2.76926513671875,0.137298583984375,0.098236083984375,0.9691162109375
1757088918439311400,2.779311279296875,0.1401214599609375,0.1007080078125,0.97332763671875
1757088918449358300,2.7893583984375,0.135101318359375,0.102813720703125,0.97882080078125
1757088918459405300,2.7994052734375,0.1281890869140625,0.1019287109375,0.9838409423828125
1757088918469451500,2.809451416015625,0.1241302490234375,0.1032562255859375,0.986724853515625
1757088918479498500,2.81949853515625,0.12762451171875,0.1060791015625,0.9843597412109375
1757088918489544400,2.82954443359375,0.1338958740234375,0.1090087890625,0.981597900390625
1757088918499591400,2.83959130859375,0.134857177734375,0.1079864501953125,0.97821044921875
1757088918509637400,2.849637451171875,0.13885498046875,0.10638427734375,0.9802093505859375
1757088918519684400,2.859684326171875,0.14288330078125,0.107666015625,0.9825592041015625
1757088918529730300,2.869730224609375,0.1393280029296875,0.1040802001953125,0.987091064453125
1757088918539777300,2.87977734375,0.135528564453125,0.1026611328125,0.985443115234375
1757088918549824300,2.88982421875,0.1356658935546875,0.098388671875,0.9808349609375
1757088918559870200,2.8998701171875,0.13671875,0.0945892333984375,0.9785614013671875
1757088918569917400,2.90991748046875,0.140716552734375,0.0928802490234375,0.9746246337890625
1757088918579963400,2.91996337890625,0.146331787109375,0.093841552734375,0.9704742431640625
1757088918590010400,2.93001025390625,0.14398193359375,0.0929107666015625,0.97161865234375
1757088918600056300,2.940056396484375,0.1413421630859375,0.0956573486328125,0.9700164794921875
1757088918610103300,2.950103271484375,0.1387786865234375,0.09735107421875,0.9723052978515625
1757088918620150300,2.960150390625,0.136199951171875,0.0966644287109375,0.9762420654296875
1757088918630196200,2.9701962890625,0.1339569091796875,0.091033935546875,0.977081298828125
1757088918640243200,2.9802431640625,0.1352691650390625,0.087005615234375,0.97735595703125
1757088918650289400,2.990289306640625,0.1360015869140625,0.0821685791015625,0.981719970703125
1757088918660337000,3.0003369140625,0.1272430419921875,0.08013916015625,0.99053955078125
1757088918670383000,3.010383056640625,0.1175384521484375,0.0755462646484375,0.9901123046875
1757088918680429800,3.020429931640625,0.1082000732421875,0.0724945068359375,0.98150634765625
1757088918690476000,3.03047607421875,0.1009368896484375,0.0709686279296875,0.9775543212890625
1757088918700523000,3.04052294921875,0.094757080078125,0.0732574462890625,0.971282958984375
1757088918710570000,3.050570068359375,0.091888427734375,0.074920654296875,0.9634246826171875
1757088918720616000,3.060615966796875,0.09100341796875,0.0771026611328125,0.9515380859375
1757088918730663200,3.0706630859375,0.0978851318359375,0.078857421875,0.945556640625
1757088918740709000,3.080709228515625,0.1037139892578125,0.0802459716796875,0.9466552734375
1757088918750756000,3.090756103515625,0.112945556640625,0.0845794677734375,0.9531402587890625
1757088918760802000,3.100802001953125,0.126953125,0.0856475830078125,0.9622802734375
1757088918770849000,3.11084912109375,0.138885498046875,0.088714599609375,0.97625732421875
1757088918780895000,3.12089501953125,0.147674560546875,0.090087890625,0.9874114990234375
1757088918790942000,3.13094189453125,0.14990234375,0.0925445556640625,0.995025634765625
1757088918800989000,3.140989013671875,0.1441192626953125,0.09600830078125,0.9961700439453125
1757088918811035000,3.151034912109375,0.136383056640625,0.1002044677734375,0.997406005859375
1757088918821081900,3.161081787109375,0.1260223388671875,0.1024017333984375,0.9962158203125
1757088918831127800,3.1711279296875,0.1192474365234375,0.1016693115234375,0.9956207275390625
1757088918841174800,3.1811748046875,0.1196746826171875,0.0969085693359375,0.9960479736328125
1757088918851220700,3.191220703125,0.117919921875,0.0937347412109375,0.9969635009765625
1757088918861268000,3.20126806640625,0.11529541015625,0.088958740234375,0.9988861083984375
1757088918871315000,3.21131494140625,0.11358642578125,0.085357666015625,0.9990997314453125
1757088918881361000,3.22136083984375,0.1084136962890625,0.0814666748046875,0.997344970703125
1757088918891408000,3.231407958984375,0.1067962646484375,0.0789947509765625,0.990478515625
1757088918901454000,3.2414541015625,0.1084136962890625,0.0775604248046875,0.9817962646484375
1757088918911501000,3.2515009765625,0.1147918701171875,0.0796051025390625,0.976715087890625
1757088918921547000,3.261547119140625,0.1194915771484375,0.0824127197265625,0.975128173828125
1757088918931594000,3.271593994140625,0.1221466064453125,0.0826263427734375,0.972900390625
1757088918941640000,3.281639892578125,0.1215667724609375,0.08148193359375,0.9737396240234375
1757088918951687000,3.29168701171875,0.1184539794921875,0.0807952880859375,0.97650146484375
1757088918961734100,3.301734130859375,0.110382080078125,0.081573486328125,0.97735595703125
1757088918971780000,3.311780029296875,0.1116943359375,0.084228515625,0.9757843017578125
1757088918981827000,3.3218271484375,0.1185760498046875,0.082611083984375,0.9739227294921875
1757088918991873000,3.331873046875,0.128204345703125,0.079254150390625,0.9720458984375
1757088919001920000,3.341919921875,0.13861083984375,0.07977294921875,0.971343994140625
1757088919011966000,3.351966064453125,0.1376800537109375,0.0772247314453125,0.9732513427734375
1757088919022013000,3.362012939453125,0.133270263671875,0.076019287109375,0.973541259765625
1757088919032059000,3.372058837890625,0.132049560546875,0.07391357421875,0.9688720703125
1757088919042105900,3.38210595703125,0.133056640625,0.07568359375,0.9705810546875
1757088919052152800,3.39215283203125,0.131500244140625,0.0774383544921875,0.9807891845703125
1757088919062198800,3.40219873046875,0.1280517578125,0.0814361572265625,0.9911651611328125
1757088919072246000,3.41224609375,0.124786376953125,0.0853118896484375,0.993865966796875
1757088919082292000,3.4222919921875,0.1259918212890625,0.0910491943359375,0.9920501708984375
1757088919092339000,3.4323388671875,0.126251220703125,0.0933074951171875,0.9920806884765625
1757088919102385200,3.44238525390625,0.1252288818359375,0.094970703125,0.988922119140625
1757088919112432000,3.45243212890625,0.1296844482421875,0.0978851318359375,0.985748291015625
1757088919122478000,3.46247802734375,0.1309967041015625,0.0980682373046875,0.980438232421875
1757088919132525000,3.472525146484375,0.13555908203125,0.0984039306640625,0.9759674072265625
1757088919142572000,3.482572021484375,0.1399078369140625,0.098419189453125,0.9748992919921875
1757088919152618000,3.492617919921875,0.14056396484375,0.095123291015625,0.9774322509765625
1757088919162665000,3.5026650390625,0.138671875,0.096771240234375,0.983428955078125
1757088919172711000,3.5127109375,0.1341705322265625,0.09637451171875,0.9873504638671875
1757088919182758000,3.5227578125,0.1279296875,0.0949859619140625,0.986724853515625
1757088919192803800,3.532803955078125,0.1285247802734375,0.0938720703125,0.9831085205078125
1757088919202851000,3.54285107421875,0.1291656494140625,0.09332275390625,0.9792938232421875
1757088919212898000,3.55289794921875,0.128662109375,0.0935516357421875,0.9790496826171875
1757088919222944000,3.562944091796875,0.127532958984375,0.0939788818359375,0.98040771484375
1757088919232991000,3.572990966796875,0.1304779052734375,0.095184326171875,0.9826202392578125
1757088919243037000,3.583036865234375,0.1328125,0.0950469970703125,0.9842071533203125
1757088919253084000,3.593083984375,0.1328277587890625,0.0963897705078125,0.9820098876953125
1757088919263129900,3.6031298828125,0.1328887939453125,0.093353271484375,0.980010986328125
1757088919273176800,3.6131767578125,0.1331024169921875,0.0911102294921875,0.9794464111328125
1757088919283223000,3.62322314453125,0.13275146484375,0.0865325927734375,0.9791412353515625
1757088919293269800,3.633269775390625,0.1335906982421875,0.085418701171875,0.9786376953125
1757088919303317000,3.64331689453125,0.1370391845703125,0.0850830078125,0.97686767578125
1757088919313363200,3.65336328125,0.1348724365234375,0.0856475830078125,0.9742279052734375
1757088919323410000,3.663409912109375,0.133209228515625,0.085052490234375,0.973846435546875
1757088919333456100,3.6734560546875,0.131591796875,0.0840606689453125,0.976287841796875
1757088919343503000,3.683503173828125,0.12896728515625,0.0850677490234375,0.9800567626953125
1757088919353549000,3.693549072265625,0.1282196044921875,0.085113525390625,0.9848785400390625
1757088919363596000,3.703595947265625,0.12933349609375,0.085784912109375,0.985443115234375
1757088919373642000,3.71364208984375,0.1319427490234375,0.0894775390625,0.984954833984375
1757088919383689000,3.72368896484375,0.1340484619140625,0.09136962890625,0.981842041015625
1757088919393736000,3.73373583984375,0.135345458984375,0.09295654296875,0.97943115234375
1757088919403782000,3.743781982421875,0.1340179443359375,0.0939788818359375,0.9812469482421875
1757088919413828900,3.753828857421875,0.1319122314453125,0.092559814453125,0.979400634765625
1757088919423874800,3.763874755859375,0.13031005859375,0.090301513671875,0.978271484375
1757088919433922000,3.773922119140625,0.1331024169921875,0.0890655517578125,0.9804840087890625
1757088919443968000,3.783968017578125,0.1339874267578125,0.08795166015625,0.978240966796875
1757088919454015000,3.794014892578125,0.1337127685546875,0.0871734619140625,0.97607421875
1757088919464061000,3.80406103515625,0.13507080078125,0.088348388671875,0.9754486083984375
1757088919474108000,3.81410791015625,0.1331024169921875,0.0887298583984375,0.9749908447265625
1757088919484155000,3.82415478515625,0.130950927734375,0.08917236328125,0.97418212890625
1757088919494200800,3.834200927734375,0.127777099609375,0.0882720947265625,0.97430419921875
1757088919504247800,3.844247802734375,0.1285247802734375,0.08929443359375,0.9746551513671875
1757088919514294000,3.8542939453125,0.133209228515625,0.08740234375,0.976837158203125
1757088919524341000,3.864341064453125,0.138336181640625,0.0870819091796875,0.979522705078125
1757088919534387000,3.874386962890625,0.1380157470703125,0.086944580078125,0.981170654296875
1757088919544434200,3.88443408203125,0.136627197265625,0.0857086181640625,0.982025146484375
1757088919554480000,3.894480224609375,0.1372528076171875,0.0842437744140625,0.980316162109375
1757088919564527000,3.904527099609375,0.1363067626953125,0.08447265625,0.9816131591796875
1757088919574573000,3.914572998046875,0.1351776123046875,0.084136962890625,0.9827423095703125
1757088919584620000,3.9246201171875,0.135345458984375,0.0832061767578125,0.97943115234375
1757088919594667000,3.9346669921875,0.1387939453125,0.0850067138671875,0.9789581298828125
1757088919604713000,3.944712890625,0.141326904296875,0.084686279296875,0.974822998046875
1757088919614760000,3.954760009765625,0.141845703125,0.08624267578125,0.97509765625
1757088919624806000,3.964805908203125,0.141754150390625,0.0875396728515625,0.9763946533203125
1757088919634852900,3.974852783203125,0.1390380859375,0.085601806640625,0.97607421875
1757088919644898800,3.98489892578125,0.138641357421875,0.0874176025390625,0.9761505126953125
1757088919654945800,3.99494580078125,0.1393280029296875,0.0880584716796875,0.9799652099609375
1757088919664992000,4.004991943359375,0.138519287109375,0.088104248046875,0.9816131591796875
1757088919675039000,4.0150390625,0.135009765625,0.08868408203125,0.9828643798828125
1757088919685086000,4.0250859375,0.13427734375,0.0902252197265625,0.9815673828125
1757088919695132000,4.0351318359375,0.13104248046875,0.094329833984375,0.9769744873046875
1757088919705179100,4.04517919921875,0.1353302001953125,0.09210205078125,0.974945068359375
1757088919715225300,4.055225341796875,0.1370391845703125,0.0908050537109375,0.9735565185546875
1757088919725272000,4.06527197265625,0.1422271728515625,0.0914764404296875,0.9758453369140625
1757088919735318300,4.075318359375,0.1446380615234375,0.094268798828125,0.9793548583984375
1757088919745365200,4.085365234375,0.141387939453125,0.0941162109375,0.9822998046875
1757088919755411200,4.0954111328125,0.1363372802734375,0.0924530029296875,0.98394775390625
1757088919765458200,4.105458251953125,0.1303558349609375,0.0918121337890625,0.9836578369140625
1757088919775505200,4.115505126953125,0.1325531005859375,0.09051513671875,0.9796600341796875
1757088919785551000,4.125551025390625,0.1347808837890625,0.088836669921875,0.977020263671875
1757088919795598000,4.13559814453125,0.1378326416015625,0.088104248046875,0.976165771484375
1757088919805644000,4.14564404296875,0.140533447265625,0.089447021484375,0.9749603271484375
1757088919815691300,4.155691162109375,0.14080810546875,0.0907135009765625,0.9762725830078125
1757088919825737200,4.1657373046875,0.135772705078125,0.0895843505859375,0.978851318359375
1757088919835784200,4.1757841796875,0.13641357421875,0.087738037109375,0.979766845703125
1757088919845830100,4.185830078125,0.1352996826171875,0.0854034423828125,0.9839324951171875
1757088919855877000,4.195877197265625,0.1363067626953125,0.084503173828125,0.982940673828125
1757088919865924000,4.205924072265625,0.138702392578125,0.0845184326171875,0.978118896484375
1757088919875970000,4.215969970703125,0.141693115234375,0.0857696533203125,0.9771728515625
1757088919886017000,4.22601708984375,0.1420745849609375,0.0867767333984375,0.9761810302734375
1757088919896063000,4.23606298828125,0.140960693359375,0.0894927978515625,0.975830078125
1757088919906110000,4.24610986328125,0.138214111328125,0.090789794921875,0.9756622314453125
1757088919916156200,4.25615625,0.13677978515625,0.0903778076171875,0.9781951904296875
1757088919926203100,4.266203125,0.1346435546875,0.0890045166015625,0.9793548583984375
1757088919936249000,4.2762490234375,0.132598876953125,0.0868072509765625,0.979766845703125
1757088919946296300,4.28629638671875,0.1332550048828125,0.08453369140625,0.9810333251953125
1757088919956343300,4.29634326171875,0.133514404296875,0.082366943359375,0.9792633056640625
1757088919966389200,4.30638916015625,0.13543701171875,0.083160400390625,0.978240966796875
1757088919976436200,4.316436279296875,0.1374664306640625,0.0839080810546875,0.97503662109375
1757088919986482200,4.326482177734375,0.1383819580078125,0.088287353515625,0.9749755859375
1757088919996529200,4.336529052734375,0.13995361328125,0.0885772705078125,0.973907470703125
1757088920006575000,4.3465751953125,0.13873291015625,0.0884857177734375,0.9738006591796875
1757088920016622000,4.3566220703125,0.1400909423828125,0.09002685546875,0.9765167236328125
1757088920026668000,4.36666796875,0.1383819580078125,0.0904541015625,0.9817352294921875
1757088920036715000,4.376715087890625,0.13531494140625,0.088653564453125,0.9823150634765625
1757088920046762200,4.38676220703125,0.1362152099609375,0.088348388671875,0.9834136962890625
1757088920056808200,4.39680810546875,0.13671875,0.0883636474609375,0.98388671875
1757088920066855200,4.406855224609375,0.1370391845703125,0.0882110595703125,0.98236083984375
1757088920076901000,4.416901123046875,0.136383056640625,0.0889434814453125,0.980865478515625
1757088920086948000,4.426947998046875,0.1373748779296875,0.089630126953125,0.9772186279296875
1757088920096994000,4.436994140625,0.1378326416015625,0.0873565673828125,0.9734954833984375
1757088920107041000,4.447041015625,0.1390228271484375,0.0863037109375,0.9737396240234375
1757088920117087200,4.457087158203125,0.137420654296875,0.086273193359375,0.9746246337890625
1757088920127134200,4.46713427734375,0.1364593505859375,0.086517333984375,0.9758148193359375
1757088920137181000,4.477180908203125,0.1347503662109375,0.0862274169921875,0.977386474609375
1757088920147227100,4.48722705078125,0.136444091796875,0.085784912109375,0.9807891845703125
1757088920157274000,4.497274169921875,0.1371612548828125,0.0857086181640625,0.98150634765625
1757088920167320000,4.507320068359375,0.1388397216796875,0.0870819091796875,0.9816131591796875
1757088920177367300,4.5173671875,0.1396636962890625,0.0876007080078125,0.9808197021484375
1757088920187413200,4.527413330078125,0.140533447265625,0.087158203125,0.979461669921875
1757088920197460200,4.537460205078125,0.139801025390625,0.0876922607421875,0.9774932861328125
1757088920207506200,4.547506103515625,0.1385498046875,0.087921142578125,0.97564697265625
1757088920217553200,4.55755322265625,0.13861083984375,0.085845947265625,0.9787139892578125
1757088920227600100,4.56760009765625,0.1389007568359375,0.0848236083984375,0.981964111328125
1757088920237646000,4.57764599609375,0.1402130126953125,0.0848388671875,0.9837799072265625
1757088920247693000,4.587693115234375,0.13885498046875,0.0824432373046875,0.9843902587890625
1757088920257739000,4.597739013671875,0.1394195556640625,0.083648681640625,0.9838104248046875
1757088920267786000,4.607785888671875,0.1407318115234375,0.0858154296875,0.9812469482421875
1757088920277832000,4.61783203125,0.14105224609375,0.0874786376953125,0.9747314453125
1757088920287879200,4.627879150390625,0.1426544189453125,0.088165283203125,0.970306396484375
1757088920297925000,4.637925048828125,0.1440582275390625,0.08892822265625,0.969451904296875
1757088920307972000,4.64797216796875,0.144134521484375,0.089202880859375,0.9711151123046875
1757088920318019000,4.65801904296875,0.142242431640625,0.0878143310546875,0.97381591796875
1757088920328065300,4.668065185546875,0.1408538818359375,0.0856781005859375,0.97784423828125
1757088920338112000,4.678112060546875,0.1417083740234375,0.0852508544921875,0.98126220703125
1757088920348158200,4.688158203125,0.1429290771484375,0.08343505859375,0.98345947265625
1757088920358205200,4.698205078125,0.1428375244140625,0.0854034423828125,0.981658935546875
1757088920368251100,4.708251220703125,0.1447296142578125,0.087860107421875,0.9772491455078125
1757088920378298000,4.718298095703125,0.142913818359375,0.088043212890625,0.973297119140625
1757088920388344000,4.728343994140625,0.1450958251953125,0.0864715576171875,0.9723358154296875
1757088920398391000,4.73839111328125,0.1440582275390625,0.085723876953125,0.9739532470703125
1757088920408438300,4.748438232421875,0.1436309814453125,0.0832977294921875,0.973785400390625
1757088920418484200,4.758484130859375,0.145751953125,0.0813446044921875,0.9758148193359375
1757088920428531200,4.76853125,0.14569091796875,0.083343505859375,0.97705078125
1757088920438577200,4.7785771484375,0.1438446044921875,0.0889434814453125,0.977996826171875
1757088920448624000,4.7886240234375,0.1397247314453125,0.0919342041015625,0.9810943603515625
1757088920458670000,4.798670166015625,0.1331329345703125,0.0956268310546875,0.9855194091796875
1757088920468717000,4.808717041015625,0.1307373046875,0.0953369140625,0.987823486328125
1757088920478763000,4.818762939453125,0.1314697265625,0.0902862548828125,0.9883575439453125
1757088920488810000,4.82881005859375,0.1169281005859375,0.0799713134765625,0.985198974609375
1757088920498857000,4.83885693359375,0.15576171875,0.0861358642578125,0.9925384521484375
1757088920508903000,4.84890283203125,0.15570068359375,0.090423583984375,0.9783477783203125
1757088920518950100,4.8589501953125,0.136993408203125,0.0794219970703125,0.981536865234375
1757088920528996400,4.868996337890625,0.1331939697265625,0.075836181640625,0.984161376953125
1757088920539043000,4.87904296875,0.134429931640625,0.0838470458984375,0.97100830078125
1757088920549089300,4.88908935546875,0.1375732421875,0.0872955322265625,0.9656829833984375
1757088920559136300,4.89913623046875,0.139068603515625,0.08282470703125,0.971160888671875
1757088920569183200,4.909183349609375,0.143768310546875,0.0804901123046875,0.972869873046875
1757088920579229200,4.919229248046875,0.1495361328125,0.08392333984375,0.976165771484375
1757088920589276200,4.929276123046875,0.149993896484375,0.0869598388671875,0.9817047119140625
1757088920599322000,4.939322021484375,0.1478729248046875,0.087646484375,0.9838104248046875
1757088920609369000,4.949369140625,0.1437835693359375,0.0891265869140625,0.98138427734375
1757088920619415000,4.9594150390625,0.1456756591796875,0.0889129638671875,0.980133056640625
1757088920629462300,4.969462158203125,0.1474609375,0.088165283203125,0.9765472412109375
1757088920639508000,4.979508056640625,0.145751953125,0.0860748291015625,0.9765777587890625
1757088920649555200,4.98955517578125,0.1433258056640625,0.0838470458984375,0.9726715087890625
1757088920659602000,4.999601806640625,0.1416473388671875,0.0822601318359375,0.9750823974609375
1757088920669648000,5.00964794921875,0.1463775634765625,0.0838470458984375,0.9709930419921875
1757088920679694800,5.01969482421875,0.1485595703125,0.0801544189453125,0.9709625244140625
1757088920689740800,5.02974072265625,0.1474609375,0.080657958984375,0.973968505859375
1757088920699787800,5.039787841796875,0.1442108154296875,0.0813140869140625,0.97442626953125
1757088920709834000,5.049833984375,0.14068603515625,0.084075927734375,0.9780731201171875
1757088920719881000,5.059880859375,0.1405181884765625,0.0870208740234375,0.980621337890625
1757088920729927200,5.06992724609375,0.135223388671875,0.0844573974609375,0.9801788330078125
1757088920739974100,5.07997412109375,0.1339263916015625,0.0880584716796875,0.979827880859375
1757088920750020900,5.090020751953125,0.133209228515625,0.0873260498046875,0.979766845703125
1757088920760067000,5.100067138671875,0.132965087890625,0.0845184326171875,0.9796905517578125
1757088920770114000,5.110114013671875,0.1285400390625,0.085479736328125,0.980560302734375
1757088920780160000,5.120159912109375,0.12689208984375,0.0861053466796875,0.9840087890625
1757088920790207000,5.13020703125,0.125335693359375,0.0836029052734375,0.9867095947265625
1757088920800253000,5.1402529296875,0.1253662109375,0.08599853515625,0.9877166748046875
1757088920810300000,5.1502998046875,0.126007080078125,0.0843048095703125,0.9879608154296875
1757088920820345900,5.160345947265625,0.1256866455078125,0.084381103515625,0.9822540283203125
1757088920830393000,5.17039306640625,0.12945556640625,0.0861663818359375,0.97900390625
1757088920840438800,5.180438720703125,0.1324920654296875,0.088592529296875,0.9760284423828125
1757088920850486000,5.190486083984375,0.1339874267578125,0.0872344970703125,0.9736328125
1757088920860533000,5.200532958984375,0.1380615234375,0.087371826171875,0.9736175537109375
1757088920870579000,5.210578857421875,0.1383819580078125,0.088836669921875,0.9776763916015625
1757088920880626000,5.2206259765625,0.13787841796875,0.089691162109375,0.9773712158203125
1757088920890671900,5.230671875,0.134185791015625,0.08807373046875,0.9791412353515625
1757088920900718800,5.24071875,0.1357269287109375,0.0898895263671875,0.9838104248046875
1757088920910765000,5.25076513671875,0.1382293701171875,0.0878753662109375,0.9830474853515625
1757088920920811800,5.260811767578125,0.1387481689453125,0.087982177734375,0.982818603515625
1757088920930858000,5.27085791015625,0.1385040283203125,0.0903778076171875,0.9841156005859375
1757088920940905000,5.280905029296875,0.1362152099609375,0.0904083251953125,0.98150634765625
1757088920950952000,5.290951904296875,0.135986328125,0.0890350341796875,0.9820709228515625
1757088920960998100,5.300998046875,0.1367340087890625,0.0887603759765625,0.9794769287109375
1757088920971045000,5.311045166015625,0.1361083984375,0.0883941650390625,0.9799346923828125
1757088920981091000,5.321091064453125,0.1349639892578125,0.08673095703125,0.9796142578125
1757088920991138000,5.331137939453125,0.1362762451171875,0.0885009765625,0.981689453125
1757088921001184000,5.34118408203125,0.1324615478515625,0.0901031494140625,0.982177734375
1757088921011231000,5.35123095703125,0.131134033203125,0.09033203125,0.980712890625
1757088921021277000,5.36127685546875,0.1295318603515625,0.091400146484375,0.9794921875
1757088921031324000,5.371323974609375,0.1300811767578125,0.091339111328125,0.9805908203125
1757088921041369900,5.381369873046875,0.1315155029296875,0.0888519287109375,0.980316162109375
1757088921051416800,5.391416748046875,0.1305694580078125,0.085662841796875,0.979766845703125
1757088921061464000,5.401464111328125,0.1313934326171875,0.083953857421875,0.9801025390625
1757088921071510000,5.411510009765625,0.13323974609375,0.08160400390625,0.97705078125
1757088921081557000,5.421556884765625,0.1372528076171875,0.0813140869140625,0.973876953125
1757088921091603000,5.43160302734375,0.1379241943359375,0.0802154541015625,0.9730072021484375
1757088921101650000,5.44164990234375,0.1390228271484375,0.0806732177734375,0.9704132080078125
1757088921111696100,5.451696044921875,0.1346893310546875,0.081085205078125,0.970611572265625
1757088921121742800,5.461742919921875,0.1348724365234375,0.08087158203125,0.9749908447265625
1757088921131789000,5.4717890625,0.1319732666015625,0.082183837890625,0.9757232666015625
1757088921141836000,5.4818359375,0.129364013671875,0.0870361328125,0.9767303466796875
1757088921151882000,5.491882080078125,0.1284942626953125,0.0883331298828125,0.9764556884765625
1757088921161929000,5.501928955078125,0.1298980712890625,0.088165283203125,0.9760894775390625
1757088921171976000,5.511975830078125,0.1338043212890625,0.0885162353515625,0.9788055419921875
1757088921182022000,5.52202197265625,0.13348388671875,0.090087890625,0.98114013671875
1757088921192069000,5.532069091796875,0.131317138671875,0.09185791015625,0.98199462890625
1757088921202115000,5.542114990234375,0.129638671875,0.09405517578125,0.9842529296875
1757088921212162000,5.552162109375,0.1287841796875,0.09210205078125,0.985626220703125
1757088921222208000,5.5622080078125,0.1310577392578125,0.089996337890625,0.986968994140625
1757088921232255000,5.5722548828125,0.1322479248046875,0.08709716796875,0.988128662109375
1757088921242301000,5.582301025390625,0.13470458984375,0.0879974365234375,0.98504638671875
1757088921252348000,5.592347900390625,0.1377716064453125,0.0905303955078125,0.9804229736328125
1757088921262395000,5.602394775390625,0.140167236328125,0.0882415771484375,0.9776458740234375
1757088921272440800,5.61244091796875,0.1383056640625,0.0863800048828125,0.9741363525390625
1757088921282487800,5.62248779296875,0.1389617919921875,0.085205078125,0.97235107421875
1757088921292533800,5.63253369140625,0.138946533203125,0.08477783203125,0.97320556640625
1757088921302581000,5.6425810546875,0.1394195556640625,0.0861968994140625,0.976043701171875
1757088921312627000,5.652626953125,0.1354522705078125,0.083404541015625,0.9799957275390625
1757088921322674000,5.662673828125,0.13555908203125,0.085296630859375,0.9799041748046875
1757088921332720000,5.67272021484375,0.133453369140625,0.0849151611328125,0.983673095703125
1757088921342767000,5.68276708984375,0.1318359375,0.0849609375,0.982696533203125
1757088921352813000,5.69281298828125,0.128692626953125,0.08660888671875,0.9803009033203125
1757088921362860000,5.702860107421875,0.1312255859375,0.0871429443359375,0.980804443359375
1757088921372907000,5.712906982421875,0.1335601806640625,0.087646484375,0.978668212890625
1757088921382953000,5.722952880859375,0.1353302001953125,0.0873565673828125,0.9778289794921875
1757088921393000000,5.733,0.133758544921875,0.0868682861328125,0.973602294921875
1757088921403046000,5.7430458984375,0.1340179443359375,0.0855255126953125,0.9737396240234375
1757088921413092900,5.7530927734375,0.1327056884765625,0.0814361572265625,0.976531982421875
1757088921423138800,5.763138916015625,0.1312713623046875,0.081451416015625,0.9779815673828125
1757088921433186000,5.77318603515625,0.1316986083984375,0.083648681640625,0.977813720703125
1757088921443232000,5.78323193359375,0.128936767578125,0.0837860107421875,0.9799346923828125
1757088921453279000,5.793279052734375,0.127899169921875,0.0821533203125,0.98321533203125
1757088921463325000,5.803324951171875,0.126312255859375,0.0847015380859375,0.982330322265625
1757088921473372000,5.813371826171875,0.126983642578125,0.0852203369140625,0.9814453125
1757088921483418000,5.823418212890625,0.129425048828125,0.08599853515625,0.9796295166015625
1757088921493464800,5.83346484375,0.1312103271484375,0.08740234375,0.98065185546875
1757088921503511800,5.84351171875,0.1322174072265625,0.0878753662109375,0.98272705078125
1757088921513558000,5.85355810546875,0.1319580078125,0.0871429443359375,0.983642578125
1757088921523605000,5.86360498046875,0.13397216796875,0.087310791015625,0.9841156005859375
1757088921533651000,5.87365087890625,0.1329345703125,0.0853729248046875,0.982025146484375
1757088921543698200,5.8836982421875,0.1314849853515625,0.085357666015625,0.9799346923828125
1757088921553744000,5.893743896484375,0.1319122314453125,0.0860443115234375,0.97882080078125
1757088921563791000,5.903791015625,0.1307220458984375,0.08502197265625,0.976898193359375
1757088921573837000,5.913837158203125,0.1299591064453125,0.0846405029296875,0.9744110107421875
1757088921583884000,5.923884033203125,0.1273345947265625,0.084747314453125,0.973724365234375
1757088921593930000,5.933929931640625,0.131317138671875,0.0839996337890625,0.9739532470703125
1757088921603977000,5.94397705078125,0.1358795166015625,0.0857696533203125,0.9742279052734375
1757088921614024000,5.95402392578125,0.1369781494140625,0.08526611328125,0.979400634765625
1757088921624070000,5.96406982421875,0.1326141357421875,0.0833892822265625,0.9858856201171875
1757088921634116900,5.974116943359375,0.1266326904296875,0.083740234375,0.9904327392578125
1757088921644162800,5.984162841796875,0.1227264404296875,0.0845184326171875,0.9904632568359375
1757088921654209800,5.994209716796875,0.1214752197265625,0.0844573974609375,0.985565185546875
1757088921664255700,6.004255859375,0.1235504150390625,0.0849456787109375,0.9820556640625
1757088921674302700,6.014302734375,0.1263427734375,0.08270263671875,0.9797210693359375
1757088921684349000,6.024348876953125,0.1292724609375,0.0794219970703125,0.976715087890625
1757088921694396000,6.03439599609375,0.1309967041015625,0.078155517578125,0.9748382568359375
1757088921704441900,6.04444189453125,0.1303253173828125,0.081207275390625,0.9724884033203125
1757088921714489000,6.054489013671875,0.1260986328125,0.082244873046875,0.9734954833984375
1757088921724535000,6.06453515625,0.123199462890625,0.0809173583984375,0.9764251708984375
1757088921734582000,6.07458203125,0.1187591552734375,0.079620361328125,0.9788665771484375
1757088921744629000,6.08462890625,0.1177825927734375,0.08251953125,0.9824371337890625
1757088921754675000,6.094675048828125,0.1175384521484375,0.0821075439453125,0.9805755615234375
1757088921764722000,6.104721923828125,0.118804931640625,0.0815887451171875,0.982147216796875
1757088921774767900,6.114767822265625,0.124908447265625,0.08123779296875,0.981536865234375
1757088921784814800,6.12481494140625,0.1270751953125,0.081573486328125,0.981536865234375
1757088921794860800,6.13486083984375,0.1285247802734375,0.083465576171875,0.982940673828125
1757088921804907800,6.14490771484375,0.126861572265625,0.0839385986328125,0.9839935302734375
1757088921814953700,6.15495361328125,0.12322998046875,0.08428955078125,0.986175537109375
1757088921825000700,6.165000732421875,0.1219482421875,0.0820159912109375,0.98443603515625
1757088921835046700,6.175046630859375,0.120941162109375,0.08154296875,0.980621337890625
1757088921845094000,6.185093994140625,0.1216888427734375,0.080230712890625,0.9779815673828125
1757088921855140900,6.195140869140625,0.123443603515625,0.0802764892578125,0.9748992919921875
1757088921865186800,6.205186767578125,0.125823974609375,0.0796661376953125,0.976409912109375
1757088921875233800,6.21523388671875,0.1259002685546875,0.0782318115234375,0.980224609375
1757088921885280000,6.225280029296875,0.1287994384765625,0.0767822265625,0.9830780029296875
1757088921895327000,6.235326904296875,0.1305084228515625,0.0772552490234375,0.9851531982421875
1757088921905373000,6.245373046875,0.1291961669921875,0.0792083740234375,0.9842987060546875
1757088921915420000,6.255419921875,0.12701416015625,0.0815887451171875,0.9826812744140625
1757088921925465900,6.2654658203125,0.1259002685546875,0.0829620361328125,0.980560302734375
1757088921935512800,6.275512939453125,0.1263427734375,0.0839691162109375,0.98095703125
1757088921945558800,6.285558837890625,0.1232757568359375,0.0836029052734375,0.9812164306640625
1757088921955606000,6.29560595703125,0.1223297119140625,0.083770751953125,0.978912353515625
1757088921965653000,6.305653076171875,0.1245880126953125,0.080535888671875,0.9786376953125
1757088921975699000,6.315698974609375,0.1294708251953125,0.0779876708984375,0.9769287109375
1757088921985746000,6.325745849609375,0.1322479248046875,0.07598876953125,0.974273681640625
1757088921995792000,6.3357919921875,0.130401611328125,0.072113037109375,0.9705657958984375
1757088922005838800,6.3458388671875,0.1323699951171875,0.0738677978515625,0.9696502685546875
1757088922015884800,6.355884765625,0.1298828125,0.07635498046875,0.97320556640625
1757088922025931800,6.365931884765625,0.1239776611328125,0.078887939453125,0.982330322265625
1757088922035977700,6.375977783203125,0.1204681396484375,0.083038330078125,0.990020751953125
1757088922046024700,6.386024658203125,0.1178741455078125,0.0848236083984375,0.996124267578125
1757088922056071000,6.39607080078125,0.1143341064453125,0.0886077880859375,0.998321533203125
1757088922066118000,6.406117919921875,0.1144866943359375,0.092041015625,1.0002288818359375
1757088922076163800,6.416163818359375,0.12030029296875,0.0955047607421875,0.996795654296875
1757088922086211000,6.426211181640625,0.1266021728515625,0.0950164794921875,0.9889068603515625
1757088922096258000,6.436258056640625,0.12841796875,0.0915985107421875,0.981719970703125
1757088922106304000,6.446303955078125,0.1309814453125,0.0891876220703125,0.977294921875
1757088922116351000,6.45635107421875,0.1321868896484375,0.084686279296875,0.976898193359375
1757088922126397000,6.46639697265625,0.12713623046875,0.0792999267578125,0.9769744873046875
1757088922136444000,6.47644384765625,0.1226959228515625,0.078033447265625,0.976898193359375
1757088922146489900,6.48648974609375,0.1226654052734375,0.0755157470703125,0.97607421875
1757088922156536800,6.496536865234375,0.122772216796875,0.075592041015625,0.9748382568359375
1757088922166582800,6.506582763671875,0.1261138916015625,0.077239990234375,0.9747314453125
1757088922176629800,6.516629638671875,0.127166748046875,0.081207275390625,0.9763336181640625
1757088922186675700,6.52667578125,0.12677001953125,0.083160400390625,0.97845458984375
1757088922196723000,6.536722900390625,0.126251220703125,0.0864715576171875,0.9747467041015625
1757088922206770000,6.54677001953125,0.12750244140625,0.08697509765625,0.97686767578125
1757088922216815900,6.55681591796875,0.126007080078125,0.0855712890625,0.9810791015625
1757088922226862800,6.56686279296875,0.1243133544921875,0.0847320556640625,0.983612060546875
1757088922236908800,6.57690869140625,0.125213623046875,0.0811004638671875,0.98699951171875
1757088922246955800,6.586955810546875,0.12506103515625,0.0782470703125,0.9864654541015625
1757088922257002000,6.597001953125,0.1266632080078125,0.07635498046875,0.9840850830078125
1757088922267049000,6.607049072265625,0.1312103271484375,0.0747222900390625,0.983062744140625
1757088922277095000,6.617094970703125,0.134735107421875,0.073944091796875,0.980987548828125
1757088922287142000,6.627141845703125,0.137451171875,0.0757293701171875,0.9796600341796875
1757088922297187800,6.637187744140625,0.1392822265625,0.0770721435546875,0.9817352294921875
1757088922307234800,6.64723486328125,0.1382598876953125,0.0758819580078125,0.980499267578125
1757088922317280800,6.65728076171875,0.1342926025390625,0.0748138427734375,0.9814453125
1757088922327328000,6.667327880859375,0.1357269287109375,0.0762939453125,0.9802703857421875
1757088922337375000,6.677375,0.1401519775390625,0.078033447265625,0.974334716796875
1757088922347421000,6.6874208984375,0.143463134765625,0.078704833984375,0.971435546875
1757088922357468000,6.697468017578125,0.1418304443359375,0.0803070068359375,0.9720001220703125
1757088922367513900,6.707513916015625,0.136688232421875,0.0793914794921875,0.9775543212890625
1757088922377560800,6.717560791015625,0.1279449462890625,0.07958984375,0.9851226806640625
1757088922387606800,6.727606689453125,0.1218414306640625,0.07672119140625,0.9943695068359375
1757088922397653800,6.73765380859375,0.119476318359375,0.069183349609375,1.0037994384765625
1757088922407699700,6.74769970703125,0.1210479736328125,0.0663909912109375,1.0018768310546875
1757088922417746700,6.75774658203125,0.122894287109375,0.0682220458984375,0.9969635009765625
1757088922427793000,6.76779296875,0.124969482421875,0.0708770751953125,0.9875335693359375
1757088922437840000,6.77783984375,0.1207275390625,0.074127197265625,0.979034423828125
1757088922447886000,6.787885986328125,0.113067626953125,0.0767974853515625,0.9716796875
1757088922457933000,6.79793310546875,0.1085357666015625,0.0825042724609375,0.963226318359375
1757088922467980000,6.80797998046875,0.1078338623046875,0.0845489501953125,0.95953369140625
1757088922478026000,6.81802587890625,0.106109619140625,0.08367919921875,0.96282958984375
1757088922488073000,6.828072998046875,0.103546142578125,0.081207275390625,0.9715118408203125
1757088922498119000,6.838118896484375,0.1005859375,0.0796356201171875,0.982086181640625
1757088922508166000,6.848165771484375,0.1020965576171875,0.07659912109375,0.9907989501953125
1757088922518211800,6.8582119140625,0.10693359375,0.07647705078125,0.9967041015625
1757088922528258800,6.8682587890625,0.113739013671875,0.0810699462890625,1.0009002685546875
1757088922538304800,6.8783046875,0.112548828125,0.0954742431640625,1.0000762939453125
1757088922548351700,6.888351806640625,0.1090545654296875,0.078369140625,1.004486083984375
1757088922558397700,6.898397705078125,0.1117095947265625,0.0763702392578125,1.0168304443359375
1757088922568445000,6.90844482421875,0.12188720703125,0.076019287109375,1.02642822265625
1757088922578492000,6.918491943359375,0.130859375,0.07012939453125,1.0263824462890625
1757088922588537900,6.928537841796875,0.141357421875,0.072906494140625,1.011322021484375
1757088922598584800,6.938584716796875,0.156280517578125,0.0793609619140625,0.9975433349609375
1757088922608630800,6.948630859375,0.16180419921875,0.0762481689453125,0.9826202392578125
1757088922618677800,6.958677734375,0.1651611328125,0.0781707763671875,0.9699249267578125
1757088922628724000,6.968723876953125,0.16058349609375,0.0744171142578125,0.957305908203125
1757088922638771000,6.97877099609375,0.155303955078125,0.0775299072265625,0.945404052734375
1757088922648817000,6.98881689453125,0.1504974365234375,0.07568359375,0.9362335205078125
1757088922658863900,6.99886376953125,0.1499176025390625,0.0737762451171875,0.9354248046875
1757088922668910300,7.008910400390625,0.1548614501953125,0.0737152099609375,0.9378509521484375
1757088922678957600,7.01895751953125,0.1547088623046875,0.0762176513671875,0.9439697265625
1757088922689003500,7.02900341796875,0.161346435546875,0.0748443603515625,0.9512939453125
1757088922699050500,7.039050537109375,0.177459716796875,0.0787353515625,0.959381103515625
1757088922709097500,7.049097412109375,0.1854705810546875,0.0847625732421875,0.96820068359375
1757088922719143400,7.059143310546875,0.184600830078125,0.08892822265625,0.975830078125
1757088922729190400,7.0691904296875,0.1775665283203125,0.0986480712890625,0.9799652099609375
1757088922739236400,7.079236328125,0.1777801513671875,0.095794677734375,0.9799652099609375
1757088922749283300,7.089283447265625,0.1837921142578125,0.0908050537109375,0.99249267578125
1757088922759329300,7.099329345703125,0.1865081787109375,0.08203125,0.9999542236328125
1757088922769376300,7.109376220703125,0.1752471923828125,0.078704833984375,1.0108642578125
1757088922779422200,7.119422119140625,0.1488037109375,0.084747314453125,1.0223388671875
1757088922789469400,7.129469482421875,0.125457763671875,0.0955657958984375,1.0196685791015625
1757088922799515400,7.139515380859375,0.1251068115234375,0.10296630859375,1.0087890625
1757088922809562400,7.149562255859375,0.130767822265625,0.1027374267578125,0.98529052734375
1757088922819609300,7.159609375,0.1268768310546875,0.097808837890625,0.98492431640625
1757088922829655300,7.1696552734375,0.1108245849609375,0.09857177734375,1.0024566650390625
1757088922839702300,7.179702392578125,0.0789642333984375,0.086273193359375,1.0077362060546875
1757088922849748500,7.18974853515625,0.0621795654296875,0.063323974609375,1.0247802734375
1757088922859795500,7.19979541015625,0.069976806640625,0.0390625,1.021636962890625
1757088922869841400,7.20984130859375,0.1463470458984375,0.013641357421875,1.0177001953125
1757088922879888400,7.219888427734375,0.125274658203125,0.0149383544921875,1.0365753173828125
1757088922889934300,7.229934326171875,0.147369384765625,0.024688720703125,1.0009307861328125
1757088922899981300,7.239981201171875,0.1055145263671875,0.0075531005859375,1.0035858154296875
1757088922910027300,7.25002734375,0.0283355712890625,0.0120697021484375,1.009857177734375
1757088922920074500,7.260074462890625,0.0213165283203125,0.0045013427734375,0.9938812255859375
1757088922930120400,7.270120361328125,0.06732177734375,0.0095672607421875,1.0067138671875
1757088922940167400,7.28016748046875,0.085601806640625,0.0301513671875,1.0578155517578125
1757088922950214400,7.29021435546875,0.0970306396484375,0.008636474609375,1.11187744140625
1757088922960260400,7.30026025390625,0.1220855712890625,0.01507568359375,1.15185546875
1757088922970307300,7.310307373046875,0.161468505859375,0.0518035888671875,1.155303955078125
1757088922980353300,7.320353271484375,0.1416778564453125,0.0950927734375,1.1055908203125
1757088922990400300,7.330400146484375,0.1348419189453125,0.1622772216796875,1.1147308349609375
1757088923000446200,7.3404462890625,0.0626068115234375,0.1859283447265625,1.1189422607421875
1757088923010493200,7.3504931640625,0.0510711669921875,0.222015380859375,1.1982879638671875
1757088923020539400,7.360539306640625,0.0383758544921875,0.252532958984375,1.1638946533203125
1757088923030586400,7.37058642578125,0.0702972412109375,0.28704833984375,1.178680419921875
1757088923040632600,7.380632568359375,0.1024932861328125,0.3257598876953125,1.1654510498046875
1757088923050679600,7.390679443359375,0.092803955078125,0.3594207763671875,1.14544677734375
1757088923060725500,7.4007255859375,0.1118011474609375,0.388763427734375,1.1091156005859375
1757088923070772500,7.4107724609375,0.1331787109375,0.4224090576171875,1.084075927734375
1757088923080819500,7.4208193359375,0.1212158203125,0.4577484130859375,1.0633697509765625
1757088923090865400,7.430865478515625,0.1110382080078125,0.4871978759765625,1.0621185302734375
1757088923100912400,7.440912353515625,0.116790771484375,0.5118255615234375,1.0139617919921875
1757088923110958300,7.450958251953125,0.13116455078125,0.548309326171875,0.975372314453125
1757088923121005300,7.46100537109375,0.1343841552734375,0.55950927734375,0.9563751220703125
1757088923131051300,7.47105126953125,0.135223388671875,0.560302734375,0.9678192138671875
1757088923141098200,7.48109814453125,0.1312408447265625,0.569915771484375,1.0190277099609375
1757088923151144200,7.491144287109375,0.118194580078125,0.566009521484375,1.065643310546875
1757088923161191400,7.50119140625,0.125213623046875,0.570404052734375,1.0631561279296875
1757088923171237400,7.5112373046875,0.136016845703125,0.57275390625,1.049896240234375
1757088923181284400,7.521284423828125,0.1257781982421875,0.5761566162109375,1.0323028564453125
1757088923191331300,7.531331298828125,0.1184234619140625,0.580108642578125,0.967010498046875
1757088923201377300,7.541377197265625,0.1173095703125,0.6118621826171875,0.9199371337890625
1757088923211424300,7.55142431640625,0.087860107421875,0.6183624267578125,0.868133544921875
1757088923221470500,7.561470458984375,0.06121826171875,0.6059112548828125,0.8564300537109375
1757088923231517400,7.571517333984375,0.059539794921875,0.5956573486328125,0.8604888916015625
1757088923241563400,7.5815634765625,0.0609130859375,0.5975799560546875,0.8175048828125
1757088923251610400,7.5916103515625,0.0485687255859375,0.6001434326171875,0.7538909912109375
1757088923261656300,7.60165625,0.0353240966796875,0.581451416015625,0.7199554443359375
1757088923271703600,7.61170361328125,0.0398406982421875,0.5464324951171875,0.7480926513671875
1757088923281749500,7.62174951171875,0.0374908447265625,0.5227203369140625,0.77398681640625
1757088923291796500,7.63179638671875,0.0107574462890625,0.5148773193359375,0.793609619140625
1757088923301842400,7.641842529296875,0.0055999755859375,0.508392333984375,0.8176727294921875
1757088923311889400,7.651889404296875,-0.0206451416015625,0.5042877197265625,0.7933349609375
1757088923321936400,7.661936279296875,-0.0471038818359375,0.4847564697265625,0.7697296142578125
1757088923331982300,7.671982421875,0.0081024169921875,0.4707489013671875,0.720733642578125
1757088923342029300,7.682029296875,0.061248779296875,0.4858856201171875,0.6866912841796875
1757088923352075300,7.6920751953125,0.0849761962890625,0.49945068359375,0.6606903076171875
1757088923362122200,7.702122314453125,0.050323486328125,0.4912261962890625,0.6190185546875
1757088923372168200,7.712168212890625,0.06646728515625,0.5044708251953125,0.5793304443359375
1757088923382215200,7.722215087890625,0.068939208984375,0.520660400390625,0.5719757080078125
1757088923392261400,7.732261474609375,0.0308074951171875,0.53271484375,0.59027099609375
1757088923402308400,7.742308349609375,-0.0158538818359375,0.5577392578125,0.643463134765625
1757088923412354600,7.7523544921875,-0.039947509765625,0.582916259765625,0.6210479736328125
1757088923422401500,7.762401611328125,-0.0763092041015625,0.6361236572265625,0.636138916015625
1757088923432448500,7.772448486328125,-0.0834808349609375,0.680206298828125,0.651123046875
1757088923442494500,7.782494384765625,-0.1065216064453125,0.706146240234375,0.6034698486328125
1757088923452541400,7.79254150390625,-0.0924835205078125,0.7359771728515625,0.6084136962890625
1757088923462587400,7.80258740234375,-0.0438995361328125,0.7497406005859375,0.576141357421875
1757088923472634400,7.81263427734375,-0.0046844482421875,0.7967376708984375,0.560699462890625
1757088923482680300,7.822680419921875,-0.0151519775390625,0.7909088134765625,0.5367431640625
1757088923492727300,7.832727294921875,-0.003631591796875,0.792022705078125,0.4870147705078125
1757088923502773200,7.842773193359375,0.0081787109375,0.806243896484375,0.4459075927734375
1757088923512820500,7.852820556640625,0.0265960693359375,0.8083953857421875,0.40460205078125
1757088923522866400,7.862866455078125,0.0438079833984375,0.8093414306640625,0.4265899658203125
1757088923532913400,7.872913330078125,0.0306549072265625,0.8079376220703125,0.4850921630859375
1757088923542960400,7.88296044921875,0.036041259765625,0.7962646484375,0.4832916259765625
1757088923553006300,7.89300634765625,0.018280029296875,0.7752227783203125,0.5490264892578125
1757088923563053300,7.90305322265625,0.0307159423828125,0.7407989501953125,0.58453369140625
1757088923573099300,7.913099365234375,0.04559326171875,0.6991729736328125,0.578033447265625
1757088923583146200,7.923146240234375,0.0355682373046875,0.6625213623046875,0.5567779541015625
1757088923593192400,7.9331923828125,0.0391082763671875,0.6383056640625,0.53997802734375
1757088923603239400,7.943239501953125,0.0327606201171875,0.6351318359375,0.497528076171875
1757088923613285400,7.953285400390625,0.017425537109375,0.673614501953125,0.4823455810546875
1757088923623332400,7.963332275390625,-0.0163726806640625,0.7693328857421875,0.475830078125
1757088923633378300,7.97337841796875,-0.067962646484375,0.857147216796875,0.440032958984375
1757088923643425500,7.983425537109375,-0.099639892578125,0.9207763671875,0.4507293701171875
1757088923653471500,7.993471435546875,-0.077880859375,0.928863525390625,0.4738616943359375
1757088923663518200,8.003518310546875,-0.071990966796875,0.902984619140625,0.50689697265625
1757088923673565200,8.013565185546875,-0.0980377197265625,0.87030029296875,0.5225067138671875
1757088923683611100,8.023611083984376,-0.0953826904296875,0.83599853515625,0.500335693359375
1757088923693658400,8.033658447265625,-0.095458984375,0.8270263671875,0.4701385498046875
1757088923703704300,8.043704345703125,-0.0766754150390625,0.81622314453125,0.394744873046875
1757088923713751300,8.053751220703125,-0.0472564697265625,0.8050384521484375,0.29705810546875
1757088923723797200,8.06379736328125,-0.060028076171875,0.8533782958984375,0.207122802734375
1757088923733844200,8.07384423828125,-0.055816650390625,0.9665374755859375,0.1158599853515625
1757088923743890200,8.08389013671875,-0.034942626953125,0.856842041015625,0.10394287109375
1757088923753937200,8.093937255859375,0.04132080078125,0.8623046875,0.1614837646484375
1757088923763983400,8.1039833984375,0.0483551025390625,0.9191436767578125,0.270416259765625
1757088923774030300,8.1140302734375,0.0417327880859375,0.8868255615234375,0.3347320556640625
1757088923784076300,8.124076171875,0.0289306640625,0.886566162109375,0.308380126953125
1757088923794123300,8.134123291015625,0.047515869140625,0.917572021484375,0.2986297607421875
1757088923804170200,8.144170166015625,0.0820465087890625,0.9723052978515625,0.2713470458984375
1757088923814216200,8.15421630859375,0.067779541015625,1.0004730224609375,0.2262725830078125
1757088923824263400,8.164263427734374,-0.0033721923828125,0.99725341796875,0.1811676025390625
1757088923834309400,8.174309326171874,-0.0440826416015625,0.9609222412109375,0.20184326171875
1757088923844356400,8.1843564453125,-0.0555419921875,0.9511566162109375,0.2074432373046875
1757088923854402300,8.19440234375,-0.062896728515625,0.963348388671875,0.192840576171875
1757088923864449300,8.20444921875,-0.0876922607421875,0.99237060546875,0.1695556640625
1757088923874495200,8.2144951171875,-0.069580078125,1.016754150390625,0.172332763671875
1757088923884542200,8.224542236328125,-0.059478759765625,1.012847900390625,0.1584930419921875
1757088923894588200,8.234588134765625,-0.0467681884765625,0.9976959228515625,0.1623077392578125
1757088923904635100,8.24463525390625,-0.0236968994140625,0.9849700927734375,0.17535400390625
1757088923914682000,8.25468212890625,-0.0199127197265625,0.981170654296875,0.202545166015625
1757088923924728000,8.26472802734375,-0.01385498046875,0.96539306640625,0.21282958984375
1757088923934775300,8.274775390625,0.011444091796875,0.9600982666015625,0.2191314697265625
1757088923944821200,8.2848212890625,0.0052490234375,0.96502685546875,0.2527618408203125
1757088923954868200,8.2948681640625,-0.0193634033203125,0.972503662109375,0.2734527587890625
1757088923964914400,8.30491455078125,-0.0467681884765625,0.9509124755859375,0.31005859375
1757088923974961400,8.31496142578125,-0.0756072998046875,0.93505859375,0.2972412109375
1757088923985007400,8.32500732421875,-0.07415771484375,0.945770263671875,0.23541259765625
1757088923995054300,8.335054443359375,-0.055328369140625,0.9351043701171875,0.169677734375
1757088924005100300,8.345100341796876,-0.0203399658203125,0.9340057373046875,0.0840911865234375
1757088924015147300,8.355147216796874,0.000701904296875,0.9207000732421875,0.04254150390625
1757088924025194200,8.3651943359375,0.003875732421875,0.9105987548828125,0.029754638671875
1757088924035240200,8.375240234375,-0.01806640625,0.9065093994140625,0.06231689453125
1757088924045287200,8.385287109375,-0.0565032958984375,0.9229583740234375,0.102142333984375
1757088924055333000,8.3953330078125,-0.0683746337890625,0.9398651123046875,0.13995361328125
1757088924065380400,8.40538037109375,-0.0538787841796875,0.9788665771484375,0.134307861328125
1757088924075426300,8.41542626953125,-0.050201416015625,0.993988037109375,0.108154296875
1757088924085473300,8.425473388671875,-0.0263671875,0.9928131103515625,0.0697479248046875
1757088924095519200,8.435519287109376,-0.0267791748046875,1.03802490234375,0.046173095703125
1757088924105566200,8.445566162109374,-0.0194549560546875,1.1082305908203125,0.0130157470703125
1757088924115612200,8.455612060546875,-0.0211029052734375,1.0988311767578125,0.01153564453125
1757088924125659100,8.4656591796875,-0.0101470947265625,1.0644683837890625,0.068695068359375
1757088924135706000,8.4757060546875,-0.0188751220703125,1.0444183349609375,0.100799560546875
1757088924145752000,8.485751953125,-0.0260467529296875,1.0101165771484375,0.133880615234375
1757088924155799000,8.495799072265624,-0.0541534423828125,1.00152587890625,0.15838623046875
1757088924165845200,8.50584521484375,-0.05426025390625,0.9761810302734375,0.1787261962890625
1757088924175892500,8.515892578125,-0.015960693359375,0.98504638671875,0.1561737060546875
1757088924185938400,8.5259384765625,-0.0333404541015625,0.9795379638671875,0.1213531494140625
1757088924195985400,8.5359853515625,-0.07830810546875,0.9608917236328125,0.10247802734375
1757088924206031400,8.54603125,-0.0504302978515625,0.9888916015625,0.095458984375
1757088924216078300,8.556078369140625,-0.0257720947265625,0.991607666015625,0.0432586669921875
1757088924226124300,8.566124267578125,-0.0737152099609375,0.949066162109375,-0.0127105712890625
1757088924236171300,8.576171142578126,-0.0738372802734375,0.939849853515625,-0.0527801513671875
1757088924246217200,8.58621728515625,-0.0496063232421875,0.98834228515625,-0.007232666015625
1757088924256264200,8.59626416015625,-0.0334320068359375,1.008697509765625,0.0721282958984375
1757088924266311200,8.606311279296875,-0.064666748046875,1.00225830078125,0.098419189453125
1757088924276357000,8.616357177734375,-0.0779876708984375,1.0048828125,0.1249847412109375
1757088924286404000,8.626404052734374,-0.0798492431640625,0.9931793212890625,0.160675048828125
1757088924296450000,8.636449951171874,-0.078277587890625,0.9871063232421875,0.1475372314453125
1757088924306497300,8.646497314453125,-0.0537567138671875,0.9979095458984375,0.1089019775390625
1757088924316543200,8.656543212890625,-0.029449462890625,1.00543212890625,0.067718505859375
1757088924326590200,8.666590087890626,-0.013153076171875,1.0056915283203125,0.044830322265625
1757088924336636400,8.676636474609374,-0.0289764404296875,1.00714111328125,0.0205841064453125
1757088924346683100,8.68668310546875,-0.046966552734375,1.015869140625,-0.001617431640625
1757088924356729300,8.696729248046875,-0.057952880859375,1.024932861328125,0.0071258544921875
1757088924366776300,8.7067763671875,-0.058502197265625,1.0328216552734375,0.025421142578125
1757088924376823300,8.7168232421875,-0.04962158203125,1.0310516357421875,0.0456390380859375
1757088924386869200,8.726869140625,-0.04681396484375,1.0238494873046875,0.06500244140625
1757088924396916200,8.736916259765625,-0.0447845458984375,1.0154571533203125,0.086090087890625
1757088924406962200,8.746962158203125,-0.0465087890625,1.0110015869140625,0.0999755859375
1757088924417009400,8.757009521484376,-0.049774169921875,1.0030517578125,0.1106719970703125
1757088924427055400,8.767055419921874,-0.0545196533203125,0.992279052734375,0.1157379150390625
1757088924437102300,8.777102294921875,-0.0561676025390625,0.987091064453125,0.10986328125
1757088924447148300,8.787148193359375,-0.0560150146484375,0.98321533203125,0.1013031005859375
1757088924457195300,8.7971953125,-0.0492095947265625,0.9846038818359375,0.083648681640625
1757088924467241200,8.8072412109375,-0.0435943603515625,0.986968994140625,0.05609130859375
1757088924477288200,8.8172880859375,-0.0375823974609375,0.9931793212890625,0.0264129638671875
1757088924487335200,8.827335205078125,-0.0367279052734375,0.9950103759765625,0.0021514892578125
1757088924497381000,8.837381103515625,-0.0429229736328125,0.9986114501953125,-0.0095672607421875
1757088924507428000,8.847427978515626,-0.0455780029296875,1.0090484619140625,-0.002777099609375
1757088924517474000,8.85747412109375,-0.050048828125,1.008392333984375,0.0280914306640625
1757088924527521000,8.86752099609375,-0.05145263671875,0.990570068359375,0.0675201416015625
1757088924537567200,8.877567138671875,-0.052734375,0.9751434326171875,0.0965576171875
1757088924547614500,8.887614501953125,-0.0538482666015625,0.968414306640625,0.1053466796875
1757088924557660400,8.897660400390626,-0.046478271484375,0.9819488525390625,0.0967559814453125
1757088924567707400,8.907707275390624,-0.0360260009765625,1.0045318603515625,0.080810546875
1757088924577753300,8.91775341796875,-0.031036376953125,1.0142669677734375,0.0705413818359375
1757088924587800300,8.92780029296875,-0.0301513671875,1.0119476318359375,0.0716705322265625
1757088924597847300,8.937847412109376,-0.031341552734375,1.0056304931640625,0.0847320556640625
1757088924607893200,8.947893310546876,-0.03619384765625,0.9997100830078125,0.0941009521484375
1757088924617940200,8.957940185546875,-0.043121337890625,0.9963531494140625,0.1013946533203125
1757088924627986200,8.967986083984375,-0.0513458251953125,0.993988037109375,0.0980224609375
1757088924638033200,8.978033203125,-0.052764892578125,0.9947967529296875,0.0947723388671875
1757088924648079000,8.9880791015625,-0.05169677734375,1.00006103515625,0.09014892578125
1757088924658126300,8.998126220703124,-0.0538482666015625,1.004180908203125,0.08758544921875
1757088924668171800,9.008171875,-0.0505828857421875,1.0056915283203125,0.0855255126953125
1757088924678218800,9.01821875,-0.048187255859375,1.0046539306640625,0.0865325927734375
1757088924688265000,9.028264892578125,-0.0422821044921875,0.9992218017578125,0.0868988037109375
1757088924698311700,9.038311767578126,-0.0315093994140625,0.997406005859375,0.086151123046875
1757088924708358700,9.048358642578124,-0.0320587158203125,0.99407958984375,0.0822906494140625
1757088924718404900,9.05840478515625,-0.03521728515625,0.9879913330078125,0.079376220703125
1757088924728451800,9.068451904296875,-0.0362091064453125,0.98248291015625,0.0813446044921875
1757088924738497800,9.078497802734375,-0.0399322509765625,0.98529052734375,0.084381103515625
1757088924748545000,9.088544921875,-0.0409698486328125,0.99530029296875,0.0861053466796875
1757088924758591000,9.098591064453124,-0.039398193359375,0.994903564453125,0.0930938720703125
1757088924768638000,9.108637939453125,-0.03857421875,0.992706298828125,0.104248046875
1757088924778684000,9.118683837890625,-0.041168212890625,0.992523193359375,0.1138458251953125
1757088924788731000,9.12873095703125,-0.0424041748046875,0.9954071044921875,0.12237548828125
1757088924798776800,9.13877685546875,-0.0432586669921875,0.9963531494140625,0.1309814453125
1757088924808823800,9.14882373046875,-0.041900634765625,0.992767333984375,0.134124755859375
1757088924818869800,9.158869873046875,-0.041534423828125,0.99053955078125,0.13726806640625
1757088924828916700,9.168916748046875,-0.0451812744140625,0.9892730712890625,0.1331329345703125
1757088924838963700,9.178963623046876,-0.05010986328125,0.99591064453125,0.1131744384765625
1757088924849009700,9.189009765625,-0.0492095947265625,1.001983642578125,0.0953216552734375
1757088924859057000,9.199056884765625,-0.043914794921875,1.0017852783203125,0.0799560546875
1757088924869102600,9.2091025390625,-0.039154052734375,0.99530029296875,0.0740509033203125
1757088924879149800,9.21914990234375,-0.032470703125,0.98944091796875,0.0761566162109375
1757088924889196000,9.229196044921874,-0.03546142578125,0.98724365234375,0.076751708984375
1757088924899242800,9.23924267578125,-0.0402069091796875,0.991455078125,0.07708740234375
1757088924909289000,9.2492890625,-0.0391693115234375,0.9937896728515625,0.083831787109375
1757088924919336000,9.2593359375,-0.038238525390625,0.9873809814453125,0.0965576171875
1757088924929382000,9.2693818359375,-0.038238525390625,0.988800048828125,0.1033782958984375
1757088924939428900,9.279428955078124,-0.0394134521484375,0.9979705810546875,0.1023101806640625
1757088924949475800,9.289475830078125,-0.0422210693359375,0.999755859375,0.0999298095703125
1757088924959521800,9.299521728515625,-0.0392608642578125,0.992645263671875,0.0991973876953125
1757088924969568800,9.30956884765625,-0.03607177734375,0.9894866943359375,0.0994720458984375
1757088924979614700,9.31961474609375,-0.035552978515625,0.990631103515625,0.098297119140625
1757088924989662000,9.329661865234375,-0.03668212890625,0.9913482666015625,0.095947265625
1757088924999708000,9.3397080078125,-0.038818359375,0.990966796875,0.093658447265625
1757088925009755000,9.3497548828125,-0.040740966796875,0.98828125,0.0980072021484375
1757088925019800800,9.35980078125,-0.04302978515625,0.9892730712890625,0.1058349609375
1757088925029847800,9.369847900390624,-0.044586181640625,0.9912109375,0.1092071533203125
1757088925039893800,9.379893798828125,-0.048126220703125,0.99383544921875,0.1063079833984375
1757088925049940700,9.389940673828125,-0.0482330322265625,0.9952392578125,0.10064697265625
1757088925059987700,9.39998779296875,-0.0422515869140625,0.9954376220703125,0.1019287109375
1757088925070033700,9.41003369140625,-0.0344696044921875,0.9932708740234375,0.1044921875
1757088925080080600,9.42008056640625,-0.030029296875,0.9915924072265625,0.1039886474609375
1757088925090126800,9.430126953125,-0.02972412109375,0.99005126953125,0.1043853759765625
1757088925100173800,9.440173828125,-0.0335540771484375,0.9892425537109375,0.1032562255859375
1757088925110219800,9.4502197265625,-0.0377349853515625,0.9880828857421875,0.1020660400390625
1757088925120267000,9.46026708984375,-0.0453033447265625,0.9888153076171875,0.1010894775390625
1757088925130313000,9.47031298828125,-0.0457763671875,0.9922637939453125,0.1045684814453125
1757088925140360000,9.48035986328125,-0.0444183349609375,0.998748779296875,0.106414794921875
1757088925150406000,9.490406005859375,-0.0455322265625,0.9983367919921875,0.1049346923828125
1757088925160452900,9.500452880859376,-0.042510986328125,0.994903564453125,0.1005706787109375
1757088925170499800,9.510499755859374,-0.0391998291015625,0.9941558837890625,0.0962066650390625
1757088925180545800,9.5205458984375,-0.0370635986328125,0.9949188232421875,0.0927886962890625
1757088925190592800,9.5305927734375,-0.03814697265625,0.995330810546875,0.093597412109375
1757088925200638700,9.540638671875,-0.0399169921875,0.99310302734375,0.0977630615234375
1757088925210685700,9.550685791015624,-0.0405120849609375,0.9906158447265625,0.108551025390625
1757088925220731600,9.560731689453124,-0.0426025390625,0.9924468994140625,0.1194915771484375
1757088925230779000,9.57077880859375,-0.045623779296875,1.0010833740234375,0.1288299560546875
1757088925240824800,9.580824951171875,-0.04595947265625,1.0040435791015625,0.1339263916015625
1757088925250871800,9.590871826171876,-0.0440826416015625,1.003021240234375,0.133819580078125
1757088925260918000,9.60091796875,-0.0428314208984375,0.998291015625,0.1279144287109375
1757088925270964700,9.61096484375,-0.039398193359375,0.995452880859375,0.1176300048828125
1757088925281011700,9.62101171875,-0.0416717529296875,0.9968414306640625,0.1044464111328125
1757088925291058000,9.631057861328125,-0.0514984130859375,0.9923095703125,0.0968017578125
1757088925301105000,9.64110498046875,-0.050506591796875,0.98638916015625,0.0994415283203125
1757088925311150800,9.65115087890625,-0.041412353515625,0.9867095947265625,0.0987091064453125
1757088925321197800,9.66119775390625,-0.0249176025390625,0.99224853515625,0.0845184326171875
1757088925331243800,9.671243896484375,-0.0120697021484375,0.9991302490234375,0.06988525390625
1757088925341291000,9.681291015625,-0.014190673828125,0.9909820556640625,0.060211181640625
1757088925351336700,9.691336669921874,-0.02716064453125,0.97930908203125,0.0625152587890625
1757088925361384000,9.701384033203125,-0.0328826904296875,0.98370361328125,0.0758056640625
1757088925371430000,9.711429931640625,-0.0404815673828125,0.9905853271484375,0.0826263427734375
1757088925381476900,9.721476806640625,-0.0425262451171875,1.00079345703125,0.0970611572265625
1757088925391522800,9.731522705078126,-0.0531005859375,1.003387451171875,0.1136322021484375
1757088925401569800,9.74156982421875,-0.04644775390625,0.9992218017578125,0.129150390625
1757088925411616800,9.75161669921875,-0.036895751953125,0.9930572509765625,0.1390380859375
1757088925421662700,9.761662841796875,-0.0264434814453125,0.9869537353515625,0.13531494140625
1757088925431709700,9.771709716796876,-0.021514892578125,0.9895782470703125,0.1178741455078125
1757088925441755600,9.781755615234376,-0.0212249755859375,0.9985198974609375,0.0996856689453125
1757088925451802600,9.791802734375,-0.02642822265625,0.9969940185546875,0.09222412109375
1757088925461848800,9.801848876953125,-0.03485107421875,0.9918212890625,0.0957489013671875
1757088925471895800,9.811895751953125,-0.047637939453125,0.9920806884765625,0.1014556884765625
1757088925481942000,9.82194189453125,-0.056427001953125,0.99603271484375,0.1094970703125
1757088925491989000,9.831989013671874,-0.060516357421875,0.9930877685546875,0.1123504638671875
1757088925502036000,9.842035888671875,-0.0587005615234375,0.99090576171875,0.11505126953125
1757088925512082000,9.85208203125,-0.05291748046875,0.9888763427734375,0.1118316650390625
1757088925522129000,9.86212890625,-0.047119140625,0.9887237548828125,0.1094512939453125
1757088925532174800,9.8721748046875,-0.0433349609375,0.9917144775390625,0.1092529296875
1757088925542221800,9.882221923828125,-0.041778564453125,0.9910125732421875,0.109588623046875
1757088925552267800,9.892267822265625,-0.0395355224609375,0.98638916015625,0.1142578125
1757088925562314800,9.902314697265625,-0.03656005859375,0.983978271484375,0.1173858642578125
1757088925572360700,9.912360595703126,-0.0338897705078125,0.989471435546875,0.1230621337890625
1757088925582408000,9.922407958984374,-0.0326080322265625,0.9915618896484375,0.1232452392578125
1757088925592453600,9.93245361328125,-0.036529541015625,0.9918365478515625,0.1251983642578125
1757088925602500900,9.9425009765625,-0.044342041015625,0.9913177490234375,0.1237640380859375
1757088925612546800,9.952546875,-0.0456085205078125,0.988128662109375,0.117156982421875
1757088925622593800,9.96259375,-0.04180908203125,0.9903717041015625,0.1088714599609375
1757088925632640800,9.972640869140625,-0.0390625,0.9920501708984375,0.1009368896484375
1757088925642686700,9.982686767578125,-0.0348052978515625,0.9898223876953125,0.09686279296875
1757088925652733700,9.992733642578125,-0.0312347412109375,0.993133544921875,0.10009765625
1757088925662780000,10.00277978515625,-0.0281219482421875,0.9958953857421875,0.1060943603515625
1757088925672827400,10.012827392578124,-0.0311737060546875,0.99835205078125,0.105987548828125
1757088925682873600,10.02287353515625,-0.031341552734375,0.9939422607421875,0.10760498046875
1757088925692920300,10.03292041015625,-0.031768798828125,0.9911956787109375,0.1092529296875
1757088925702966500,10.042966552734375,-0.0314178466796875,0.9924774169921875,0.1141510009765625
1757088925713013500,10.053013427734374,-0.0260162353515625,0.997283935546875,0.1145477294921875
1757088925723059500,10.0630595703125,-0.02978515625,1.0012054443359375,0.1126556396484375
1757088925733106400,10.0731064453125,-0.029998779296875,0.9999237060546875,0.1184539794921875
1757088925743153400,10.0831533203125,-0.0265045166015625,0.999237060546875,0.1183319091796875
1757088925753199400,10.093199462890626,-0.02703857421875,0.99688720703125,0.1146392822265625
1757088925763246300,10.103246337890624,-0.0296478271484375,0.9961700439453125,0.1103668212890625
1757088925773292300,10.113292236328125,-0.0355682373046875,0.9932708740234375,0.1089019775390625
1757088925783339300,10.12333935546875,-0.0402679443359375,0.9932708740234375,0.105743408203125
1757088925793385200,10.13338525390625,-0.04583740234375,0.993438720703125,0.0999908447265625
1757088925803432400,10.143432373046876,-0.0440826416015625,0.9925994873046875,0.09661865234375
1757088925813478400,10.153478515625,-0.041168212890625,0.99139404296875,0.09820556640625
1757088925823525400,10.163525390625,-0.0385589599609375,0.9885711669921875,0.103912353515625
1757088925833571300,10.1735712890625,-0.036651611328125,0.987548828125,0.1109161376953125
1757088925843618300,10.183618408203126,-0.0385894775390625,0.989898681640625,0.116851806640625
1757088925853665300,10.193665283203124,-0.0417327880859375,0.98883056640625,0.1241912841796875
1757088925863711200,10.203711181640625,-0.041259765625,0.9869537353515625,0.1281280517578125
1757088925873758200,10.21375830078125,-0.0377349853515625,0.992401123046875,0.1269683837890625
1757088925883804400,10.223804443359375,-0.03277587890625,0.9953460693359375,0.117584228515625
1757088925893851400,10.233851318359376,-0.032867431640625,0.998260498046875,0.1131439208984375
1757088925903897300,10.2438974609375,-0.034423828125,0.998291015625,0.108856201171875
1757088925913944600,10.253944580078125,-0.0332183837890625,0.9974365234375,0.1107635498046875
1757088925923990500,10.263990478515625,-0.0306854248046875,0.9930877685546875,0.1153717041015625
1757088925934037500,10.27403759765625,-0.0348968505859375,0.9890899658203125,0.116729736328125
1757088925944083500,10.28408349609375,-0.03692626953125,0.9873199462890625,0.1176605224609375
1757088925954130400,10.29413037109375,-0.0416412353515625,0.985931396484375,0.1201324462890625
1757088925964177400,10.304177490234375,-0.0427398681640625,0.985992431640625,0.1246795654296875
1757088925974223400,10.314223388671875,-0.0428466796875,0.984039306640625,0.13134765625
1757088925984270300,10.324270263671876,-0.044952392578125,0.9850006103515625,0.1352691650390625
1757088925994316300,10.33431640625,-0.0413970947265625,0.992279052734375,0.1364898681640625
1757088926004363300,10.34436328125,-0.039794921875,0.993499755859375,0.134521484375
1757088926014409200,10.3544091796875,-0.0398101806640625,0.9882659912109375,0.1365966796875
1757088926024456200,10.364456298828125,-0.04144287109375,0.9834747314453125,0.1415863037109375
1757088926034502100,10.374502197265626,-0.042266845703125,0.9832305908203125,0.1446075439453125
1757088926044549400,10.38454931640625,-0.0404510498046875,0.9850616455078125,0.141326904296875
1757088926054595600,10.394595703125,-0.03955078125,0.9903717041015625,0.13519287109375
1757088926064642300,10.404642333984375,-0.0412139892578125,0.9893646240234375,0.130859375
1757088926074689300,10.414689208984376,-0.0390472412109375,0.9879913330078125,0.1297760009765625
1757088926084735500,10.424735595703124,-0.038238525390625,0.9884185791015625,0.1312255859375
1757088926094782500,10.434782470703125,-0.0391387939453125,0.9899139404296875,0.133056640625
1757088926104828400,10.444828369140625,-0.0390625,0.9895782470703125,0.1312408447265625
1757088926114875400,10.45487548828125,-0.04083251953125,0.98895263671875,0.1323089599609375
1757088926124921300,10.46492138671875,-0.0390472412109375,0.987213134765625,0.1316680908203125
1757088926134968300,10.47496826171875,-0.0391998291015625,0.98541259765625,0.1307525634765625
1757088926145014300,10.48501416015625,-0.0385894775390625,0.984344482421875,0.13067626953125
1757088926155061500,10.4950615234375,-0.037384033203125,0.9840545654296875,0.1286773681640625
1757088926165107500,10.505107421875,-0.0389862060546875,0.9827117919921875,0.123748779296875
1757088926175154400,10.515154541015624,-0.0397796630859375,0.9816741943359375,0.1144256591796875
1757088926185201400,10.525201416015625,-0.0395355224609375,0.984710693359375,0.1118316650390625
1757088926195247400,10.535247314453125,-0.037261962890625,0.98779296875,0.1122589111328125
1757088926205294300,10.54529443359375,-0.03173828125,0.988189697265625,0.1179351806640625
1757088926215340300,10.55534033203125,-0.032257080078125,0.9841156005859375,0.12774658203125
1757088926225387300,10.56538720703125,-0.0407257080078125,0.9918975830078125,0.133636474609375
1757088926235433200,10.57543310546875,-0.0520172119140625,1.00830078125,0.139068603515625
1757088926245480200,10.585480224609375,-0.04376220703125,1.023284912109375,0.1496734619140625
1757088926255526400,10.5955263671875,-0.036224365234375,1.0083770751953125,0.162261962890625
1757088926265573400,10.605573486328124,-0.0260467529296875,0.9842681884765625,0.1696319580078125
1757088926275619300,10.615619384765624,-0.0244598388671875,0.9736175537109375,0.16064453125
1757088926285666600,10.62566650390625,-0.0285797119140625,0.9782867431640625,0.143768310546875
1757088926295713500,10.635713623046875,-0.0315704345703125,0.9847869873046875,0.1201019287109375
1757088926305759500,10.645759521484376,-0.03216552734375,0.991058349609375,0.097442626953125
1757088926315806500,10.655806396484374,-0.0305328369140625,0.99066162109375,0.08648681640625
1757088926325852400,10.665852294921875,-0.0307159423828125,0.990997314453125,0.089019775390625
1757088926335899400,10.6758994140625,-0.035125732421875,0.9898529052734375,0.099273681640625
1757088926345945300,10.6859453125,-0.040008544921875,0.9851531982421875,0.1215667724609375
1757088926355992300,10.695992431640626,-0.038055419921875,0.987884521484375,0.137725830078125
1757088926366038300,10.706038330078124,-0.0333709716796875,0.9877471923828125,0.1482696533203125
1757088926376085200,10.716085205078125,-0.0306396484375,0.985321044921875,0.1584320068359375
1757088926386131200,10.726131103515625,-0.0278778076171875,0.985198974609375,0.16839599609375
1757088926396178400,10.736178466796876,-0.032257080078125,0.991455078125,0.1653900146484375
1757088926406225400,10.746225341796874,-0.034637451171875,0.9970703125,0.15447998046875
1757088926416271400,10.756271240234375,-0.039520263671875,1.0008544921875,0.1423492431640625
1757088926426318300,10.766318359375,-0.03985595703125,1.0015411376953125,0.136505126953125
1757088926436364300,10.7763642578125,-0.042236328125,1.000946044921875,0.140167236328125
1757088926446411300,10.786411376953126,-0.0424346923828125,0.9954376220703125,0.150848388671875
1757088926456457500,10.79645751953125,-0.0429840087890625,0.98895263671875,0.156890869140625
1757088926466504400,10.80650439453125,-0.04583740234375,0.9847412109375,0.1528167724609375
1757088926476550400,10.81655029296875,-0.042572021484375,0.981170654296875,0.148468017578125
1757088926486597400,10.826597412109376,-0.0399169921875,0.9766082763671875,0.1407623291015625
1757088926496643300,10.836643310546876,-0.037078857421875,0.9757080078125,0.1338043212890625
1757088926506690300,10.846690185546874,-0.0374908447265625,0.9727783203125,0.1331634521484375
1757088926516737500,10.856737548828125,-0.0354461669921875,0.9736328125,0.136383056640625
1757088926526783500,10.866783447265625,-0.0396575927734375,0.9793243408203125,0.1337127685546875
1757088926536830500,10.87683056640625,-0.0457763671875,0.9796295166015625,0.1310577392578125
1757088926546876400,10.88687646484375,-0.0475311279296875,0.983612060546875,0.133697509765625
1757088926556923400,10.89692333984375,-0.053253173828125,0.990142822265625,0.131866455078125
1757088926566969300,10.90696923828125,-0.054168701171875,0.9918670654296875,0.1307525634765625
1757088926577016300,10.917016357421875,-0.0531005859375,0.9915618896484375,0.12713623046875
1757088926587062300,10.927062255859376,-0.049224853515625,0.995635986328125,0.12237548828125
1757088926597109200,10.937109130859374,-0.0448150634765625,0.999786376953125,0.114959716796875
1757088926607155200,10.9471552734375,-0.035888671875,0.9974212646484375,0.100311279296875
1757088926617202200,10.9572021484375,-0.0285186767578125,0.991302490234375,0.096038818359375
1757088926627249400,10.96724951171875,-0.026947021484375,0.99761962890625,0.107330322265625
1757088926637295400,10.97729541015625,-0.03778076171875,0.997955322265625,0.088775634765625
1757088926647342300,10.98734228515625,-0.039154052734375,1.0053558349609375,0.0913543701171875
1757088926657388500,10.997388427734375,-0.0247344970703125,0.9943084716796875,0.1025390625
1757088926667435000,11.00743505859375,-0.0301055908203125,0.9854278564453125,0.1107635498046875
1757088926677481000,11.01748095703125,-0.03619384765625,0.9955291748046875,0.1175994873046875
1757088926687528000,11.02752783203125,-0.03424072265625,0.9956512451171875,0.1044464111328125
1757088926697574000,11.037573974609375,-0.0255126953125,0.9983062744140625,0.1105804443359375
1757088926707621000,11.04762109375,-0.02691650390625,1.000030517578125,0.11602783203125
1757088926717667000,11.0576669921875,-0.0308380126953125,0.9962158203125,0.1227874755859375
1757088926727714000,11.067714111328126,-0.030914306640625,0.9909210205078125,0.1257171630859375
1757088926737761000,11.077760986328125,-0.031097412109375,0.9882354736328125,0.1243896484375
1757088926747807000,11.087806884765625,-0.032073974609375,0.9886016845703125,0.1195068359375
1757088926757854000,11.09785400390625,-0.0356597900390625,0.988372802734375,0.1124725341796875
1757088926767900000,11.10789990234375,-0.0371551513671875,0.992462158203125,0.1186981201171875
1757088926777947000,11.11794677734375,-0.04095458984375,0.99688720703125,0.117919921875
1757088926787992800,11.127992919921875,-0.0393218994140625,0.993743896484375,0.1246185302734375
1757088926798039800,11.138039794921875,-0.0469207763671875,0.9936981201171875,0.121856689453125
1757088926808086000,11.1480859375,-0.051361083984375,0.99664306640625,0.1216583251953125
1757088926818133000,11.158133056640626,-0.050384521484375,0.996734619140625,0.1256866455078125
1757088926828179000,11.168178955078124,-0.0496673583984375,0.9925994873046875,0.133941650390625
1757088926838226200,11.17822607421875,-0.050384521484375,0.9839324951171875,0.1349639892578125
1757088926848273200,11.188273193359375,-0.046966552734375,0.986907958984375,0.1290740966796875
1757088926858319000,11.198319091796876,-0.0445709228515625,0.994720458984375,0.1264495849609375
1757088926868366000,11.208365966796874,-0.043365478515625,0.99884033203125,0.1221923828125
1757088926878412000,11.218412109375,-0.0456085205078125,0.993560791015625,0.12127685546875
1757088926888459000,11.228458984375,-0.046478271484375,0.9886016845703125,0.1224822998046875
1757088926898505000,11.2385048828125,-0.050262451171875,0.987640380859375,0.124725341796875
1757088926908552000,11.248552001953126,-0.0554962158203125,0.9847412109375,0.127777099609375
1757088926918598000,11.258597900390624,-0.0550384521484375,0.985748291015625,0.132781982421875
1757088926928644900,11.268644775390625,-0.0529937744140625,0.99066162109375,0.1357574462890625
1757088926938690800,11.27869091796875,-0.052337646484375,0.994720458984375,0.140838623046875
1757088926948738000,11.288738037109376,-0.0555877685546875,0.988616943359375,0.147247314453125
1757088926958785000,11.298784912109374,-0.059783935546875,0.985382080078125,0.1510162353515625
1757088926968831000,11.3088310546875,-0.0564422607421875,0.9893798828125,0.1488494873046875
1757088926978878000,11.3188779296875,-0.050323486328125,0.99237060546875,0.1409149169921875
1757088926988924000,11.328923828125,-0.043304443359375,0.9927825927734375,0.1299896240234375
1757088926998971000,11.338970947265626,-0.0377197265625,0.99542236328125,0.1170654296875
1757088927009017000,11.34901708984375,-0.0336761474609375,0.992919921875,0.113616943359375
1757088927019064000,11.35906396484375,-0.0341796875,0.98883056640625,0.1165924072265625
1757088927029110000,11.369110107421875,-0.0371246337890625,0.9836883544921875,0.1316680908203125
1757088927039157000,11.379156982421875,-0.0415191650390625,0.9794769287109375,0.145111083984375
1757088927049204200,11.389204345703124,-0.0445098876953125,0.9788970947265625,0.147674560546875
1757088927059250200,11.399250244140624,-0.0431060791015625,0.9769287109375,0.139617919921875
1757088927069297200,11.409297119140625,-0.040374755859375,0.9791717529296875,0.125823974609375
1757088927079343000,11.419343017578125,-0.0353851318359375,0.9901580810546875,0.112579345703125
1757088927089390000,11.42939013671875,-0.0352783203125,0.9934844970703125,0.11077880859375
1757088927099436000,11.43943603515625,-0.033599853515625,0.9903564453125,0.1187744140625
1757088927109483000,11.44948291015625,-0.0316162109375,0.9867095947265625,0.1281890869140625
1757088927119529000,11.459529052734375,-0.0294189453125,0.9910125732421875,0.1343231201171875
1757088927129576000,11.469575927734375,-0.0265045166015625,0.994293212890625,0.1375732421875
1757088927139622000,11.479621826171876,-0.0280914306640625,0.99578857421875,0.13946533203125
1757088927149668900,11.4896689453125,-0.0304412841796875,0.9973297119140625,0.1342315673828125
1757088927159714800,11.49971484375,-0.03228759765625,0.9963836669921875,0.124114990234375
1757088927169761800,11.50976171875,-0.031005859375,0.9951171875,0.1198577880859375
1757088927179809000,11.51980908203125,-0.03021240234375,0.994140625,0.1163482666015625
1757088927189855000,11.52985498046875,-0.027587890625,0.99346923828125,0.1142730712890625
1757088927199902000,11.53990185546875,-0.0299072265625,0.9896392822265625,0.1182403564453125
1757088927209948200,11.5499482421875,-0.0318756103515625,0.9899139404296875,0.12225341796875
1757088927219995100,11.5599951171875,-0.0366973876953125,0.99090576171875,0.127899169921875
1757088927230041000,11.570041015625,-0.0436859130859375,0.990478515625,0.1367645263671875
1757088927240088000,11.580088134765624,-0.0419464111328125,0.99322509765625,0.1429290771484375
1757088927250134000,11.590134033203125,-0.039306640625,0.99468994140625,0.144805908203125
1757088927260181000,11.600180908203125,-0.03692626953125,0.988067626953125,0.14154052734375
1757088927270228000,11.61022802734375,-0.0364990234375,0.9860992431640625,0.1331939697265625
1757088927280274000,11.62027392578125,-0.033905029296875,0.990478515625,0.128509521484375
1757088927290321200,11.630321044921875,-0.0340423583984375,0.9892120361328125,0.1260833740234375
1757088927300367000,11.6403671875,-0.034149169921875,0.987152099609375,0.126495361328125
1757088927310414000,11.6504140625,-0.03607177734375,0.990386962890625,0.129669189453125
1757088927320460000,11.6604599609375,-0.0358428955078125,0.98907470703125,0.13134765625
1757088927330507000,11.670507080078124,-0.035247802734375,0.984710693359375,0.13348388671875
1757088927340553000,11.680552978515625,-0.0340728759765625,0.98297119140625,0.136962890625
1757088927350600000,11.690599853515625,-0.0374603271484375,0.9862823486328125,0.134124755859375
1757088927360646000,11.70064599609375,-0.0410614013671875,0.9869842529296875,0.1319122314453125
1757088927370692900,11.71069287109375,-0.0443572998046875,0.984832763671875,0.12847900390625
1757088927380739800,11.72073974609375,-0.0457763671875,0.985748291015625,0.1272125244140625
1757088927390786000,11.7307861328125,-0.0426025390625,0.9886016845703125,0.1253814697265625
1757088927400832800,11.740832763671875,-0.03875732421875,0.989776611328125,0.1202392578125
1757088927410879000,11.75087890625,-0.0401153564453125,0.9897308349609375,0.11529541015625
1757088927420926200,11.76092626953125,-0.040496826171875,0.9901123046875,0.11163330078125
1757088927430972200,11.77097216796875,-0.041046142578125,0.9904327392578125,0.11090087890625
1757088927441019100,11.78101904296875,-0.040740966796875,0.9887847900390625,0.1147003173828125
1757088927451065000,11.791065185546875,-0.043487548828125,0.98779296875,0.119842529296875
1757088927461112000,11.801112060546876,-0.045166015625,0.988677978515625,0.1255340576171875
1757088927471158000,11.811157958984374,-0.0444183349609375,0.9879150390625,0.1308135986328125
1757088927481205000,11.821205078125,-0.039306640625,0.990570068359375,0.1368560791015625
1757088927491252000,11.831251953125,-0.0374755859375,0.99383544921875,0.13970947265625
1757088927501298000,11.8412978515625,-0.0369110107421875,0.9937744140625,0.1419525146484375
1757088927511345000,11.851344970703124,-0.035980224609375,0.99188232421875,0.1395111083984375
1757088927521390800,11.861390869140624,-0.0342559814453125,0.9906768798828125,0.139129638671875
1757088927531438000,11.87143798828125,-0.0294189453125,0.989898681640625,0.1345672607421875
1757088927541484000,11.881484130859375,-0.0309600830078125,0.991851806640625,0.1326141357421875
1757088927551531000,11.891531005859376,-0.0364837646484375,0.9929656982421875,0.131500244140625
1757088927561577000,11.901576904296874,-0.03692626953125,0.9888153076171875,0.13250732421875
1757088927571624000,11.9116240234375,-0.03759765625,0.9848480224609375,0.130889892578125
1757088927581670100,11.921670166015625,-0.037841796875,0.9861602783203125,0.1297149658203125
1757088927591717000,11.931717041015625,-0.0375213623046875,0.9864959716796875,0.1280517578125
1757088927601763800,11.941763916015624,-0.036590576171875,0.9867706298828125,0.1278228759765625
1757088927611810000,11.95181005859375,-0.0386505126953125,0.988372802734375,0.1262969970703125
1757088927621857000,11.96185693359375,-0.0377197265625,0.99627685546875,0.1250457763671875
1757088927631903000,11.971903076171875,-0.038238525390625,0.9987335205078125,0.1280364990234375
1757088927641950000,11.981949951171876,-0.03546142578125,0.9995574951171875,0.130706787109375
1757088927651996000,11.991995849609374,-0.0333404541015625,0.9975738525390625,0.1354522705078125
1757088927662043100,12.002043212890625,-0.03350830078125,0.9948577880859375,0.13983154296875
1757088927672088600,12.012088623046875,-0.0320587158203125,0.9944915771484375,0.1423187255859375
1757088927682135800,12.0221357421875,-0.0309295654296875,0.991851806640625,0.1440887451171875
1757088927692181800,12.032181640625,-0.0335693359375,0.990203857421875,0.1401824951171875
1757088927702228700,12.042228759765624,-0.0358734130859375,0.989837646484375,0.13458251953125
1757088927712275700,12.052275634765625,-0.0366058349609375,0.988128662109375,0.13043212890625
1757088927722321700,12.06232177734375,-0.0365753173828125,0.9839630126953125,0.1272430419921875
1757088927732368600,12.07236865234375,-0.0405120849609375,0.9808197021484375,0.1269378662109375
1757088927742414600,12.08241455078125,-0.0418853759765625,0.98297119140625,0.127349853515625
1757088927752461600,12.092461669921875,-0.0404205322265625,0.9888763427734375,0.12677001953125
1757088927762507800,12.1025078125,-0.03814697265625,0.9935455322265625,0.125335693359375
1757088927772554800,12.1125546875,-0.033203125,0.9939422607421875,0.1263427734375
1757088927782600700,12.1226005859375,-0.0295257568359375,0.9917755126953125,0.1273651123046875
1757088927792647700,12.132647705078124,-0.0279693603515625,0.9904022216796875,0.1272125244140625
1757088927802693600,12.142693603515625,-0.02947998046875,0.9905853271484375,0.1318359375
1757088927812740900,12.152740966796875,-0.0321044921875,0.9901123046875,0.1350860595703125
1757088927822787800,12.162787841796876,-0.0334014892578125,0.99090576171875,0.1388397216796875
1757088927832833800,12.172833740234376,-0.0319976806640625,0.9921112060546875,0.1369476318359375
1757088927842880800,12.182880859375,-0.0324249267578125,0.9903717041015625,0.132965087890625
1757088927852926700,12.1929267578125,-0.0353851318359375,0.986175537109375,0.131744384765625
1757088927862973700,12.2029736328125,-0.0402069091796875,0.982879638671875,0.12847900390625
1757088927873019600,12.21301953125,-0.04345703125,0.9828643798828125,0.1275482177734375
1757088927883066600,12.223066650390624,-0.04437255859375,0.9823760986328125,0.129150390625
1757088927893112600,12.233112548828124,-0.0430755615234375,0.9808349609375,0.1338348388671875
1757088927903159600,12.24315966796875,-0.045013427734375,0.982025146484375,0.14013671875
1757088927913205500,12.25320556640625,-0.0441436767578125,0.983062744140625,0.1479034423828125
1757088927923252700,12.263252685546876,-0.041717529296875,0.98468017578125,0.1535797119140625
1757088927933299700,12.2732998046875,-0.039520263671875,0.9878997802734375,0.1550445556640625
1757088927943345700,12.283345703125,-0.0344696044921875,0.989166259765625,0.1523895263671875
1757088927953392600,12.293392578125,-0.0286865234375,0.987457275390625,0.148101806640625
1757088927963438800,12.30343896484375,-0.028106689453125,0.9875030517578125,0.143280029296875
1757088927973485800,12.31348583984375,-0.0314483642578125,0.9897003173828125,0.139617919921875
1757088927983531800,12.32353173828125,-0.032562255859375,0.99200439453125,0.13720703125
1757088927993578800,12.333578857421875,-0.0337066650390625,0.9911041259765625,0.136627197265625
1757088928003624700,12.343624755859375,-0.0391693115234375,0.990325927734375,0.1343231201171875
1757088928013671700,12.353671630859376,-0.03924560546875,0.9894866943359375,0.1317291259765625
1757088928023717600,12.363717529296874,-0.0416717529296875,0.991180419921875,0.1279754638671875
1757088928033764600,12.3737646484375,-0.0379486083984375,0.99261474609375,0.125213623046875
1757088928043810600,12.383810546875,-0.0380401611328125,0.9915771484375,0.1254425048828125
1757088928053857800,12.39385791015625,-0.0389404296875,0.988372802734375,0.1281585693359375
1757088928063904800,12.40390478515625,-0.0378875732421875,0.988555908203125,0.1331939697265625
1757088928073950700,12.41395068359375,-0.0339508056640625,0.987335205078125,0.1385650634765625
1757088928083997700,12.423997802734375,-0.0298919677734375,0.9861602783203125,0.1373748779296875
1757088928094043600,12.434043701171875,-0.0317535400390625,0.9867706298828125,0.1376190185546875
1757088928104090600,12.444090576171876,-0.03045654296875,0.9881744384765625,0.1381072998046875
1757088928114136600,12.454136474609374,-0.0296783447265625,0.98919677734375,0.138336181640625
1757088928124183600,12.46418359375,-0.0307159423828125,0.990692138671875,0.1361846923828125
1757088928134229800,12.474229736328125,-0.0312652587890625,0.9893035888671875,0.1342010498046875
1757088928144276700,12.48427685546875,-0.03326416015625,0.988433837890625,0.1371612548828125
1757088928154322700,12.49432275390625,-0.03521728515625,0.98785400390625,0.141815185546875
1757088928164370000,12.504369873046874,-0.039215087890625,0.9886474609375,0.1473388671875
1757088928174417000,12.5144169921875,-0.0402984619140625,0.986663818359375,0.14971923828125
1757088928184462800,12.524462890625,-0.0410614013671875,0.9852294921875,0.1510772705078125
1757088928194509800,12.534509765625,-0.0386810302734375,0.9864654541015625,0.1509552001953125
1757088928204555800,12.5445556640625,-0.03631591796875,0.9878387451171875,0.148284912109375
1757088928214602800,12.554602783203125,-0.038238525390625,0.9868011474609375,0.143402099609375
1757088928224648700,12.564648681640625,-0.0372772216796875,0.986175537109375,0.134429931640625
1757088928234695700,12.57469580078125,-0.033416748046875,0.9860382080078125,0.130462646484375
1757088928244741600,12.58474169921875,-0.0305023193359375,0.98638916015625,0.1361541748046875
1757088928254788600,12.59478857421875,-0.030670166015625,0.984649658203125,0.1438446044921875
1757088928264834600,12.60483447265625,-0.0318450927734375,0.98577880859375,0.152679443359375
1757088928274881500,12.614881591796875,-0.0340118408203125,0.989410400390625,0.1581878662109375
1757088928284927500,12.624927490234375,-0.034088134765625,0.990997314453125,0.1606903076171875
1757088928294974700,12.634974609375,-0.0355377197265625,0.991455078125,0.1569061279296875
1757088928305021700,12.645021728515625,-0.036865234375,0.9913482666015625,0.1525421142578125
1757088928315067600,12.655067626953125,-0.0374908447265625,0.9909515380859375,0.14508056640625
1757088928325114600,12.665114501953125,-0.035003662109375,0.988677978515625,0.141754150390625
1757088928335160800,12.675160888671876,-0.033233642578125,0.986297607421875,0.140106201171875
1757088928345207800,12.685207763671874,-0.03228759765625,0.984771728515625,0.1359710693359375
1757088928355253800,12.695253662109375,-0.031707763671875,0.9866485595703125,0.13409423828125
1757088928365300700,12.70530078125,-0.0331878662109375,0.9878082275390625,0.1339874267578125
1757088928375346700,12.7153466796875,-0.0340728759765625,0.982177734375,0.139404296875
1757088928385393700,12.7253935546875,-0.0333251953125,0.9814910888671875,0.1461029052734375
1757088928395439600,12.735439697265624,-0.03656005859375,0.9842071533203125,0.1474456787109375
1757088928405486800,12.74548681640625,-0.037078857421875,0.98419189453125,0.1506195068359375
1757088928415533800,12.755533935546875,-0.035003662109375,0.984161376953125,0.1537933349609375
1757088928425579800,12.765579833984376,-0.0347900390625,0.9896087646484375,0.150604248046875
1757088928435626800,12.775626708984374,-0.0342559814453125,0.9938812255859375,0.1453399658203125
1757088928445672700,12.785672607421875,-0.0325164794921875,0.989227294921875,0.1470947265625
1757088928455719700,12.7957197265625,-0.03082275390625,0.986907958984375,0.148468017578125
1757088928465765600,12.805765625,-0.033477783203125,0.9886474609375,0.152984619140625
1757088928475812600,12.8158125,-0.033660888671875,0.990692138671875,0.1561431884765625
1757088928485858600,12.825858642578124,-0.0371856689453125,0.989410400390625,0.156829833984375
1757088928495905500,12.835905517578125,-0.0378265380859375,0.9891357421875,0.153717041015625
1757088928505951700,12.84595166015625,-0.0373077392578125,0.9882354736328125,0.1487884521484375
1757088928515998700,12.855998779296876,-0.037933349609375,0.9854583740234375,0.142425537109375
1757088928526044700,12.866044677734376,-0.035552978515625,0.9854583740234375,0.1361846923828125
1757088928536092000,12.876091796875,-0.0354156494140625,0.989654541015625,0.1321563720703125
1757088928546139000,12.886138916015625,-0.038482666015625,0.9890289306640625,0.1300506591796875
1757088928556184800,12.896184814453125,-0.03857421875,0.9879150390625,0.13385009765625
1757088928566231800,12.906231689453126,-0.037261962890625,0.9893646240234375,0.138885498046875
1757088928576277800,12.91627783203125,-0.0370635986328125,0.9870147705078125,0.144744873046875
1757088928586324700,12.92632470703125,-0.0382232666015625,0.9872589111328125,0.1464385986328125
1757088928596370700,12.93637060546875,-0.040863037109375,0.9886322021484375,0.1469573974609375
1757088928606417700,12.946417724609375,-0.0411529541015625,0.9887542724609375,0.1480712890625
1757088928616463600,12.956463623046876,-0.0399017333984375,0.9887847900390625,0.1442718505859375
1757088928626510600,12.966510498046874,-0.0404205322265625,0.9886016845703125,0.1439971923828125
1757088928636556500,12.976556640625,-0.0379486083984375,0.9863433837890625,0.1475677490234375
1757088928646603800,12.986603759765625,-0.03692626953125,0.9851226806640625,0.1520843505859375
1757088928656649500,12.9966494140625,-0.036956787109375,0.98492431640625,0.1553497314453125
1757088928666696700,13.00669677734375,-0.0374298095703125,0.985382080078125,0.155975341796875
1757088928676743400,13.016743408203125,-0.04205322265625,0.9886474609375,0.15423583984375
1757088928686789600,13.02678955078125,-0.043487548828125,0.98822021484375,0.153076171875
1757088928696836600,13.036836669921875,-0.0394439697265625,0.9873046875,0.1510162353515625
1757088928706882800,13.0468828125,-0.0358123779296875,0.9850921630859375,0.1486358642578125
1757088928716929800,13.0569296875,-0.0341033935546875,0.98553466796875,0.14453125
1757088928726975700,13.066975830078125,-0.0341796875,0.9889678955078125,0.1392059326171875
1757088928737022700,13.077022705078125,-0.0361785888671875,0.986663818359375,0.1352691650390625
1757088928747068700,13.087068603515625,-0.035186767578125,0.9862213134765625,0.13507080078125
1757088928757115600,13.09711572265625,-0.03271484375,0.9881134033203125,0.138824462890625
1757088928767161600,13.10716162109375,-0.0352935791015625,0.98834228515625,0.14251708984375
1757088928777208600,13.11720849609375,-0.0375213623046875,0.9861602783203125,0.14642333984375
1757088928787255600,13.127255615234375,-0.03643798828125,0.989410400390625,0.147216796875
