time,seconds_elapsed,gyro_x,gyro_y,gyro_z,acc_x,acc_y,acc_z,grav_x,grav_y,grav_z
1757088915680285700,0.02028564453125,0.0506774745881557,-0.0756600201129913,0.2005545645952224,-1.1677414646029471,0.4503983736619353,-0.1086585276395082,-8.968709814083576,-1.30931821924299,3.744104110983014
1757088915690331600,0.03033154296875,0.060862198472023,-0.022569365799427,0.2929763793945312,-0.9887620310246944,0.4062190401956438,-0.1429132639408111,-8.967226297527551,-1.3338225459024309,3.7390041574954975
1757088915700378600,0.040378662109375,0.0641320124268531,0.0160787031054496,0.3681334257125854,-0.7625842084199189,0.221311824003607,-0.2937467994868755,-8.962812572738528,-1.366039492765814,3.737955525225401
1757088915710424600,0.050424560546875,0.0780041515827179,0.0161348953843116,0.4160021543502807,-0.4708569320619106,0.1080605617463588,-0.2051288970962166,-8.956611380010843,-1.4042214855134487,3.738671272279322
1757088915720471600,0.060471435546875,0.086056038737297,-0.0076874764636158,0.4084938168525696,-0.0679933397740125,0.0726158850081264,-0.0427186132639646,-8.950515401223301,-1.444643073881417,3.737869600507617
1757088915730517500,0.070517578125,0.0987180396914482,-0.020026434212923,0.3599372208118438,0.2994096475541591,0.0163698277816176,0.057419631050527,-8.945470392793416,-1.4828183446273209,3.7349957986369726
1757088915740564500,0.080564453125,0.1293227672576904,-0.0235332157462835,0.3292063474655151,0.2739455359518528,-0.0273792975738644,0.2006853616908192,-8.941105183321238,-1.5179282364532352,3.731341952304542
1757088915750610700,0.090610595703125,0.1557535827159881,-0.0235428027808666,0.3349638283252716,0.1545844125121832,-0.1490060278579592,0.1232753742739558,-8.936965014776588,-1.5528225858323277,3.7269001704648135
1757088915760657700,0.10065771484375,0.1708464324474334,0.0319264866411685,0.3826043605804443,0.1654150186061859,-0.1888655984289944,-0.118806412166357,-8.931335484457016,-1.5909240606896575,3.7243244747579096
1757088915770703600,0.11070361328125,0.1731567233800888,0.0861801430583,0.4499450325965881,0.0929144305408,-0.1133706508532166,-0.1368155315876007,-8.92228124038577,-1.6346958362683652,3.727070558595657
1757088915780750600,0.12075048828125,0.173614352941513,0.1191258803009986,0.5162631273269653,0.1918973673403263,-0.0623690701514482,-0.100393095858395,-8.91053235040307,-1.6845003161400556,3.732995272469521
1757088915790796500,0.130796630859375,0.1974528431892395,0.2966758906841278,0.5655022859573364,0.3228039671450853,-0.0531913458310067,-0.1319414958104491,-8.89359699769318,-1.7399160600222645,3.747934190665185
1757088915800843800,0.14084375,0.2127626240253448,0.4649345576763153,0.5985222458839417,0.5569640206754207,-0.1045019924819469,-0.0842006704702973,-8.868733774593473,-1.7997858607038857,3.778453539830446
1757088915810889700,0.1508896484375,0.2194365113973617,0.6097854971885681,0.6133797764778137,0.7399415839791298,-0.0719670657105743,-0.0865457722917199,-8.836981376501917,-1.862098816753924,3.822397895497084
1757088915820936700,0.160936767578125,0.2378671020269394,0.7838109731674194,0.6110793948173523,0.7811486236363648,0.0343665261127054,-0.1223465689912438,-8.798881070688367,-1.925037649617344,3.87869933617264
1757088915830982700,0.170982666015625,0.2623040080070495,0.9638486504554749,0.6208025813102722,0.6475690052300691,0.1589567823775112,0.1442591255918145,-8.751941624858976,-1.9893239515669645,3.9517710021242496
1757088915841029600,0.181029541015625,0.2637562751770019,0.97850900888443,0.6017522811889648,0.8524538644373416,0.0399283980235457,0.372654331985116,-8.700347631222009,-2.0537512694224715,4.031928534683585
1757088915851075600,0.19107568359375,0.2438139766454696,1.0075230598449707,0.546530544757843,0.7585311336368322,-0.0815694451838731,0.154970781481266,-8.647724879059195,-2.11436253612116,4.112992952954769
1757088915861122600,0.20112255859375,0.247502326965332,0.9945164918899536,0.4720337986946106,0.8099100232183932,0.0044295068800449,0.2927177487000822,-8.594806358820199,-2.1687878076612948,4.194764350451528
1757088915871168500,0.21116845703125,0.2868569195270538,0.9878103733062744,0.3771767914295196,0.8418518064022064,0.0663517100468277,0.6789186677396297,-8.543399996709823,-2.2167937136784195,4.273936379104852
1757088915881215500,0.221215576171875,0.3220950663089752,0.9913459420204164,0.2953576147556305,0.5985854863524437,0.0414693438552319,0.7782306903630495,-8.49286632578075,-2.258799356367439,4.351944916936755
1757088915891261700,0.23126171875,0.3154755234718323,0.9478538632392884,0.224654421210289,0.4581038334727287,0.013716975185275,0.595259556800127,-8.44411310852766,-2.2950918821066617,4.427176975792646
1757088915901308400,0.241308349609375,0.3024221658706665,0.9707975387573242,0.137795016169548,0.5367524227738381,-0.0286170226752758,0.3052218409642577,-8.397215748274325,-2.3242846588432786,4.500539441384375
1757088915911354600,0.251354736328125,0.2938065826892853,1.049340844154358,0.07525335252285,0.6052139645814896,-0.0411105935454368,0.2187690076529979,-8.348810321545601,-2.3466566496491432,4.578313585938513
1757088915921401900,0.26140185546875,0.3006264865398407,1.1463406085968018,0.0914046317338943,0.3181903358697891,0.2258170264683663,0.1650128675460815,-8.295969542717932,-2.3668318610630927,4.663194055366516
1757088915931447600,0.271447509765625,0.3043605089187622,1.1686863899230957,0.1876065284013748,-0.3747656250506639,0.349330447281897,0.353368324495852,-8.237776296946405,-2.3924822890177366,4.75241635339111
1757088915941494800,0.281494873046875,0.2525006234645843,1.2511494159698486,0.2936600744724273,-0.7858043404877185,0.3135391490630805,0.360035673430562,-8.174047044357657,-2.426122985073924,4.844509822937846
1757088915951540700,0.291540771484375,0.172327235341072,1.355777621269226,0.3740377426147461,-0.7611006918638944,0.1584016327127814,-0.2368096912562847,-8.101485666015744,-2.46401783144325,4.946204356783628
1757088915961587700,0.301587646484375,0.1145650669932365,1.4267631769180298,0.3920551538467407,-0.3525193064510822,0.1577633348092436,-0.4242132543087005,-8.0219491879642,-2.502434948121011,5.055347453069687
1757088915971633700,0.311633544921875,0.0972281545400619,1.5324491262435913,0.3811852037906647,-0.0321849442899227,0.1307505324602127,-0.4378337833821773,-7.936166508999467,-2.538718852162361,5.171320103114844
1757088915981680600,0.3216806640625,0.0504683554172515,1.6024926900863647,0.3895152807235718,-0.0354027372926473,0.2024514945805072,-0.334611893838644,-7.843765288677811,-2.573309688550234,5.293751720041036
1757088915991726600,0.3317265625,0.0035226859617978,1.6967419385910034,0.3891719877719879,-0.078356328356266,0.1597287896633148,-0.3489829490184783,-7.7449968714118,-2.6052558556482195,5.421996991682052
1757088916001773600,0.341773681640625,-0.0067642121575772,1.7537916898727417,0.373887300491333,-0.0729401485264301,-0.1403159409239888,-0.368008552005887,-7.63938136473,-2.6347134208008645,5.555944274356961
1757088916011819500,0.351819580078125,-0.0068843206390738,1.7084766626358032,0.3167926073074341,0.2659235575377941,-0.236603939551115,-0.1451461375594139,-7.531876683300733,-2.6609786196529863,5.688620806443691
1757088916021866500,0.361866455078125,-0.0521833114326,1.5257840156555176,0.2184712290763855,0.4209820173025131,-0.0930325039625167,-0.2107230638414621,-7.430905203032493,-2.6799019313097,5.81120965975821
1757088916031912400,0.371912353515625,-0.1142855659127235,1.4171028137207031,0.055515069514513,0.6739356186300516,-0.1535240898042917,-0.6703057376950979,-7.341039054146409,-2.6854005287259817,5.921837441644072
1757088916041959400,0.38195947265625,-0.1099980622529983,1.46446430683136,-0.1335435658693313,1.1218740319192408,-0.4196738573133945,-0.7712146741211414,-7.256267598050832,-2.675579976457357,6.0297793454468245
1757088916052005600,0.392005615234375,-0.0799424275755882,1.6289547681808472,-0.3267910480499267,1.409219147670269,-0.4350204795271158,-0.5903437277078628,-7.165628126704693,-2.6540982124894854,6.14653759291172
1757088916062052600,0.402052490234375,-0.0271717179566621,1.712157964706421,-0.4982903897762298,1.453238322138786,-0.5498015817001461,-0.6655167498528957,-7.072429034003615,-2.6202710539504883,6.2677989970147605
1757088916072098800,0.412098876953125,0.0105479629710316,1.6107240915298462,-0.5794294476509094,0.872545050829649,-0.4548758113369345,-0.3173141375571489,-6.980003263762593,-2.5820193569675087,6.386166433241963
1757088916082145800,0.422145751953125,-0.0450642444193363,1.3617841005325315,-0.645074188709259,0.4280664226055145,-0.0798009742066264,-0.4370429252654313,-6.899593510007858,-2.5384081787779924,6.49018327255547
1757088916092191700,0.432191650390625,-0.1421971768140792,1.1075174808502195,-0.645229697227478,-0.2615361362338066,0.2171528046280145,-0.5603799665987491,-6.834428671658039,-2.4876041664749384,6.578205839401483
1757088916102238700,0.44223876953125,-0.282910019159317,0.814942479133606,-0.5596855878829956,-0.8436585635632277,0.4903596510417759,-0.5045546190023422,-6.785913354814052,-2.432057051298022,6.648823682460188
1757088916112284700,0.45228466796875,-0.3966245949268341,0.6861757040023804,-0.411937952041626,-1.5293722982704638,0.6121941788576543,-1.088460422617197,-6.74813161343038,-2.375822976770252,6.707352443796396
1757088916122331600,0.46233154296875,-0.4344129860401153,0.7620867490768433,-0.1894084513187408,-1.917924456611276,0.4474227188520133,-1.1993652678787707,-6.707336661705375,-2.32657174686715,6.765285577327012
1757088916132377600,0.472377685546875,-0.3653196692466736,0.8909488320350647,0.0720377936959266,-2.0787083082854747,0.2859028079882263,-0.5703811361312866,-6.65219695828557,-2.295086913670599,6.830171014213562
1757088916142424600,0.482424560546875,-0.2773647904396057,0.998216450214386,0.2638479471206665,-1.9332079504609108,0.0085635379448533,-0.3542068211466074,-6.58266749498546,-2.2845514911308884,6.900702348032594
1757088916152470500,0.492470458984375,-0.2368562519550323,0.9236212968826294,0.3212260007858276,-1.183096270123124,0.1446954711824655,-0.1215209318220615,-6.508276563128828,-2.286907114346325,6.970134196177124
1757088916162517500,0.502517578125,-0.1971438080072403,0.8847850561141968,0.2178876847028732,-0.1873264061629772,0.0227862706951797,-0.1521229908347129,-6.438327413111924,-2.2894966924481093,7.033956387746334
1757088916172563500,0.5125634765625,-0.1483637541532516,0.72704017162323,0.0725110471248626,0.1195405716598033,-0.3470547574348747,0.1076817915618419,-6.377235523289442,-2.286567068737,7.090335862094164
1757088916182610400,0.5226103515625,-0.1012682020664215,0.4969038367271423,-0.0677730366587638,0.1031418100446462,-0.4335634125865996,0.3765758893430233,-6.333302858060598,-2.277869821409881,7.132388120403886
1757088916192656600,0.53265673828125,-0.0831296816468238,0.2421085387468338,-0.1503041386604309,0.0364554612159729,-0.3366518752336502,0.3334381738841533,-6.309413448429107,-2.264199315714836,7.157869183140993
1757088916202703600,0.54270361328125,-0.0934019982814788,0.00978918466717,-0.166225716471672,-0.207355048713088,-0.2085015883997082,0.241016495296359,-6.304124694371224,-2.247799531186372,7.1676903199315065
1757088916212749800,0.552749755859375,-0.0979823693633079,-0.1628843247890472,-0.1538297683000564,-0.3327385011821985,-0.1757967118889093,0.1688578525364399,-6.313564138367772,-2.230675085645169,7.164730885604024
1757088916222796800,0.562796875,-0.0588874742388725,-0.2674265801906585,-0.1398845463991165,-0.1509948635876178,-0.3302463921055197,0.1575245576173067,-6.332652869719267,-2.2155381606593725,7.152571661254763
1757088916232842800,0.5728427734375,0.0164506863802671,-0.2656545341014862,-0.1439615786075592,0.2558300335466861,-0.6014021512083709,0.0454378090947866,-6.355507091084123,-2.205051107306033,7.135521157732605
1757088916242889700,0.5828896484375,0.1138880774378776,-0.0301480703055858,-0.1933793425559997,1.039791376516223,-0.7310755559563636,-0.1597095004409551,-6.371079923269153,-2.1988285795293745,7.123543719691038
1757088916252935700,0.592935791015625,0.2332309782505035,0.3281594812870025,-0.233930766582489,1.418866681459546,-0.5792918800786138,0.0207616329997777,-6.364838398531079,-2.1975329867608844,7.129521040534973
1757088916262982700,0.602982666015625,0.2721720039844513,0.6067264080047607,-0.2689864635467529,1.3750585193932057,-0.6417971438303589,0.229932791224122,-6.335993996840715,-2.200569139586389,7.154234041509032
1757088916273028600,0.613028564453125,0.0675331130623817,0.6789870262145996,-0.3659271001815796,1.5214426743149756,-0.2730608620718121,0.2981991027206182,-6.295929112955927,-2.193714889777452,7.191611293745041
1757088916283075600,0.62307568359375,-0.1489216536283493,0.6200240254402161,-0.5444413423538208,1.558576180922985,-0.0909625658206641,0.0192652569621801,-6.258094180080295,-2.161981196386367,7.234118310084939
1757088916293121500,0.63312158203125,-0.3635423481464386,0.5073994994163513,-0.8527200818061829,1.6758780337452888,-0.2678803906939924,0.2659720728546381,-6.230697054588794,-2.0989375879742203,7.276212069448828
1757088916303168500,0.64316845703125,-0.3717180490493774,0.3294039964675903,-1.0958287715911863,1.924926444327831,-0.2239687682531773,0.4704834225744009,-6.221171101352572,-2.010270293483883,7.309324649977683
1757088916313214500,0.65321435546875,-0.3880783915519714,0.3563258945941925,-1.2183094024658203,1.447913912245631,-0.2885105062685906,0.0641816725313663,-6.219707458540797,-1.9096663313537836,7.33749334436357
1757088916323261700,0.66326171875,-0.4355045557022095,0.5122218728065491,-1.1749495267868042,0.7935311353474855,-0.0398484646551311,-0.2771113065063953,-6.210412391451001,-1.8039860888727008,7.372028651171922
1757088916333307600,0.6733076171875,-0.4643955826759338,0.6406493186950684,-1.0040785074234009,0.2812643345326185,0.0906586144380271,-0.3112631669551134,-6.186264038622379,-1.702405390664935,7.416357037720084
1757088916343354600,0.683354736328125,-0.4913846850395202,0.7431934475898743,-0.8424171209335327,0.1518839213818311,-0.1967092976666986,-0.5756219593942165,-6.150555596381426,-1.6097157087907197,7.466582665613293
1757088916353400800,0.69340087890625,-0.4807783663272857,1.1319856643676758,-0.7939510941505432,0.568485531643033,-0.2439886429749429,-0.9655915833175182,-6.094153325679898,-1.5227823984861373,7.530791226151585
1757088916363447600,0.703447509765625,-0.3955399394035339,1.574794054031372,-0.7837494015693665,0.6586620616525412,0.0757584208175539,-1.0683838492721318,-6.002071254310011,-1.4412015551254151,7.620266329893469
1757088916373493800,0.71349365234375,-0.3494169116020202,1.908339023590088,-0.6761119365692139,0.2824012296080589,0.381332143959403,-1.0637877536535263,-5.878398112890124,-1.3687906911700962,7.729245175528526
1757088916383540700,0.723540771484375,-0.3359808623790741,2.3131346702575684,-0.4028900265693664,-0.5239274279922247,0.5686017053686082,-1.4058891264647244,-5.7203001392990345,-1.3096071191869676,7.857066084277629
1757088916393586700,0.733586669921875,-0.2805876433849334,2.5379631519317627,0.0638696774840354,-1.8389234006106847,0.853344675797224,-1.3506529769331217,-5.528782711187005,-1.2748738055884838,7.998602799168228
1757088916403633700,0.743633544921875,-0.2305167019367218,2.772510051727295,0.5649725794792175,-2.2812258538395165,0.8920851792104542,-1.244244274047017,-5.3100394224971526,-1.2715661423452198,8.145979472258686
1757088916413679600,0.7536796875,-0.2270977348089218,3.0295467376708984,1.0041977167129517,-2.1353619233995675,1.050328260360658,-1.4739572850406168,-5.059513340577483,-1.294087770754844,8.300424184039235
1757088916423726600,0.7637265625,-0.2631718218326568,3.1037075519561768,1.3085227012634275,-1.8222312090069053,1.2134006613634527,-1.3821926090568304,-4.78501747726649,-1.331315093126148,8.45586141398847
1757088916433772500,0.7737724609375,-0.3303564488887787,3.0265464782714844,1.4665958881378174,-1.4960715016931294,1.2946603099457918,-1.163527646300197,-4.502750687693059,-1.3712747630707918,8.603210030028224
1757088916443819500,0.783819580078125,-0.4096356332302093,2.6900510787963867,1.448377251625061,-1.2893357539221644,1.166450109618157,-0.6821288619577884,-4.231094431722164,-1.4036255654469132,8.734875923767685
1757088916453865500,0.793865478515625,-0.5110054016113281,2.0176258087158203,1.1721134185791016,-0.5111056480810046,0.7104073003284632,-0.1026981579303741,-4.003310927486419,-1.41804323624745,8.8392890689224
1757088916463912700,0.80391259765625,-0.6396797299385071,1.31749427318573,0.6516088843345642,0.4300707481652498,0.2263077325947582,-0.0786462512135505,-3.842257026699185,-1.4033571237690745,8.912801464378834
1757088916473958700,0.813958740234375,-0.7651220560073853,0.7949315309524536,-0.032512180507183,1.299692605024576,0.1856761547379195,-0.2358925764113664,-3.7441725000441073,-1.3522509136490524,8.962308714869618
1757088916484005600,0.824005615234375,-0.8780982494354248,0.3796228766441345,-0.7501041293144226,2.242896999967098,0.4440850988619029,-0.5743132148832082,-3.696477267411351,-1.2633512717075646,8.995020897904038
1757088916494051600,0.834051513671875,-1.00886070728302,0.0379473157227039,-1.4369555711746216,2.7475638471722603,0.764754465131089,-1.449019827660918,-3.693423725059629,-1.1375018822271377,9.01305222915709
1757088916504098600,0.8440986328125,-1.1742026805877686,0.4127366840839386,-1.9169360399246216,2.6072908686071634,0.8518607208497821,-2.535630238497257,-3.696053489041328,-0.97546116235964,9.030948535853623
1757088916514144800,0.854144775390625,-1.1582157611846924,1.5422661304473877,-2.072746515274048,1.429791980099678,1.2498356643132864,-2.094180018183589,-3.62796808706969,-0.7934408997807652,9.076270609614252
1757088916524191700,0.864191650390625,-0.890884518623352,2.838230609893799,-1.7896136045455933,-0.8619678349748253,1.7412883712887763,-0.6075637425780296,-3.4405621859297155,-0.6287329334653914,9.16174816815257
1757088916534237700,0.87423779296875,-0.5004770755767822,3.7812037467956543,-1.0607270002365112,-3.361037982837856,1.3538612714551388,0.5727583866566419,-3.1393688698291777,-0.5158905077373609,9.276237886163592
1757088916544284700,0.88428466796875,-0.1421170979738235,4.054473400115967,0.105893537402153,-6.073807287743687,0.3951232438268139,1.509636501187086,-2.7709724875494834,-0.4714385313421487,9.395203872805832
1757088916554330600,0.89433056640625,0.0411563143134117,3.986149072647095,1.3225653171539309,-7.161218493568897,-0.263985173353739,1.7827677981466057,-2.384463379343599,-0.48629788149558,9.499907525339722
1757088916564377600,0.904377685546875,0.0619585290551185,3.779394388198853,2.2569172382354736,-5.396192103818058,-0.0421245563609525,1.558330097207427,-2.002938489291072,-0.5318852551288903,9.58518225478232
1757088916574423600,0.914423583984375,-0.062126662582159,3.590848207473755,2.717767238616944,-3.8269390460580586,0.3208552807627245,0.6759831988096237,-1.6327384185902774,-0.5785311979044229,9.65245254097879
1757088916584470500,0.924470458984375,-0.2822566330432892,3.351306915283203,2.7632498741149902,-1.8430355121046305,0.4659403357846662,-0.7980056504130363,-1.278404756193608,-0.6024097573483362,9.704286188590526
1757088916594516500,0.9345166015625,-0.5077843070030212,3.1127429008483887,2.536904573440552,0.0709873339582234,0.4122046904765069,-1.8236019128382208,-0.9474147061139344,-0.5934158286295831,9.742722594490647
1757088916604563700,0.944563720703125,-0.6886776685714722,3.0204546451568604,2.161710262298584,1.4560370129466056,0.3979339173333719,-2.346656065127253,-0.6342272930979729,-0.5531081124322489,9.770476278334856
1757088916614609700,0.954609619140625,-0.804946780204773,3.0228936672210693,1.7298160791397097,2.3920909516125914,0.3863502643823623,-2.29453541726768,-0.3273912218701094,-0.4888519498925656,9.788983994928
1757088916624656600,0.96465673828125,-0.8594157695770264,3.019043207168579,1.2955857515335083,2.7306290789842604,0.2261619309158995,-1.8295681277662517,-0.0232358662097598,-0.4094681051194667,9.79807097222507
1757088916634702600,0.97470263671875,-0.8654171824455261,3.006153106689453,0.9185450673103333,2.534806062632799,0.1052348002685233,-1.5410019457876682,0.2773336805528029,-0.322957404141128,9.797405201792715
1757088916644749600,0.98474951171875,-0.810886800289154,2.90714955329895,0.6126494407653809,1.9889760149121285,0.0445958418453112,-1.0725158345103265,0.571622331831418,-0.2368801992092281,9.787110602271555
1757088916654795500,0.99479541015625,-0.6901886463165283,2.4786877632141118,0.3358654975891113,1.446709212630987,-0.166484218740277,0.0637684155553579,0.8393042408112436,-0.1594265005148016,9.76936744031012
1757088916664843000,1.004843017578125,-0.5275775194168091,1.80762243270874,0.0701877325773239,0.9334487246036528,-0.4926167457861825,0.9092319827139376,1.0502970615047962,-0.0978532112503889,9.749753808301689
1757088916674889000,1.014888916015625,-0.4064918458461761,1.1194688081741333,-0.1635898798704147,0.2493652214467525,-0.6317726664874702,0.771039902076125,1.192991348932683,-0.0532682606918504,9.73366951946318
1757088916684936000,1.02493603515625,-0.3534994423389435,0.5007680058479309,-0.3075243234634399,-0.2297814000546932,-0.3702587420854717,0.1576250953823328,1.2715585435606538,-0.0196969925930839,9.723843706497547
1757088916694982100,1.034982177734375,-0.3997417688369751,0.0659147650003433,-0.3854577243328094,-0.2176375194050371,0.1880779551826417,-0.5925654954105615,1.297273122792691,0.0119875849762465,9.720458155712484
1757088916705029000,1.045029052734375,-0.4946916103363037,-0.020789423957467,-0.3981516361236572,0.1639757795833051,0.7936931209761648,-1.3023276297032833,1.2972351288698614,0.0504126018326729,9.720339497768878
1757088916715075000,1.055074951171875,-0.5530025959014893,0.2171211391687393,-0.3176048696041107,-0.0431435606777668,1.2318708224251866,-0.9809230079621076,1.3056357313379643,0.097210173239652,9.71886124190986
1757088916725122300,1.065122314453125,-0.5144550204277039,0.5914022922515869,-0.1176936328411102,-0.6137048756815493,1.216994375006482,-0.3530366083234548,1.3449838452555238,0.1469524837284814,9.712868138974905
1757088916735168300,1.075168212890625,-0.3847692310810089,0.9162259101867676,0.21315698325634,-1.4252856085911392,0.8309623827930539,0.1865045683860778,1.419000829233229,0.1918106754375621,9.701546534493565
1757088916745215200,1.08521533203125,-0.1916310042142868,1.1246520280838013,0.6207401752471924,-2.060421248705685,0.3207569349547848,0.5224953493624925,1.5181336958974598,0.2264677089294418,9.685780225563049
1757088916755261200,1.09526123046875,0.0472699925303459,1.2027320861816406,0.9995598793029784,-2.205123003498465,0.0033871764865703,0.8730646907895803,1.6299163469068705,0.2465075304606929,9.66710767379701
1757088916765308200,1.10530810546875,0.2603315412998199,1.2115074396133425,1.2789372205734253,-1.8750072520352896,-0.2158572849247604,0.8541103994727134,1.7443740623444317,0.2505733551274985,9.64700713505447
1757088916775354000,1.11535400390625,0.3434498608112335,1.1237200498580933,1.3870937824249268,-1.1921956685103476,-0.3230212631575763,0.1510825418710708,1.8547905395671724,0.2447606867933645,9.626537178477644
1757088916785401000,1.125401123046875,0.2973539233207702,1.0166537761688232,1.3176404237747192,-0.179931911997497,-0.0168067944267764,-0.6297475173354149,1.954335055772215,0.2394674757560715,9.606957448738813
1757088916795447000,1.135447021484375,0.2012162208557129,0.9303987622261048,1.116834044456482,0.5232230791151523,0.4924953113636001,-0.5200713370859623,2.045455880894512,0.2398310483714565,9.587960487324
1757088916805494000,1.145493896484375,0.0845798105001449,0.8024688363075256,0.8610612154006958,0.8866124468877911,0.6574409954249858,-0.0779413178145885,2.1261909210808576,0.2468189710300415,9.5702038813591
1757088916815540000,1.1555400390625,-0.008510448038578,0.7205697298049927,0.6138176321983337,1.0196804625101388,0.629589184968546,0.0959551134109497,2.196929467909783,0.2595574383056722,9.553872924283146
1757088916825587000,1.1655869140625,-0.0021014565136283,0.6813628077507019,0.435080349445343,0.6553218113139271,0.4678855150356888,0.4860480714529752,2.2626114620015025,0.2723715828997083,9.538176173457504
1757088916835633200,1.175633056640625,0.0922852382063865,0.6077167987823486,0.3513500392436981,0.0296308758929371,0.1411105984330177,0.9217857593387364,2.3235699347026646,0.2772760138151235,9.523369064947962
1757088916845680000,1.18568017578125,0.2140230387449264,0.4389516115188598,0.35610032081604,-0.4525973450109362,-0.2028746701623313,1.1544067667335272,2.37319671991989,0.2706603402687236,9.511313885495069
1757088916855726300,1.195726318359375,0.2729372382164001,0.2473073601722717,0.4249350428581238,-0.6408221613183617,-0.1820093027934431,1.049561659902334,2.404750234438479,0.2563791187968104,9.503778813815115
1757088916865773300,1.205773193359375,0.2739323079586029,0.0506838038563728,0.5161830186843872,-0.5322688476189971,-0.10948051154688,0.3195294755190611,2.417703385644406,0.2413112039266154,9.500888353070616
1757088916875819300,1.2158193359375,0.2226883023977279,-0.0507378913462162,0.5979439616203308,-0.3379894074477255,-0.0192317382850684,-0.2727630481690168,2.4151085468456146,0.2306695262671448,9.50181131313443
1757088916885866200,1.2258662109375,0.1161064207553863,0.0109513653442263,0.6367053389549255,0.0552286968775093,0.2910866586332209,-0.624226708087325,2.4112470491118727,0.2293531099063344,9.502822536003588
1757088916895912200,1.235912109375,-0.0162010136991739,0.1009502336382865,0.6106950640678406,0.6004761224046349,0.840731204874441,-0.3185398799598217,2.414871230958402,0.2396521846732124,9.501651154136658
1757088916905959200,1.245959228515625,-0.164481833577156,0.2355210930109024,0.5329506993293762,0.9770119719982148,1.237714141625911,0.251188345220685,2.42918880238533,0.2622532532609067,9.497402264520526
1757088916916005000,1.256005126953125,-0.2751345932483673,0.4340280592441559,0.4373786449432373,1.016228714621067,1.1781006537929175,0.7047796697050333,2.459254270303249,0.2955303949680179,9.48868353601396
1757088916926052000,1.266052001953125,-0.2896105051040649,0.6384209990501404,0.3604011833667755,0.5844473631456494,0.8024339882493019,1.4069114552497863,2.5094597321912646,0.3330161490797996,9.474287346392869
1757088916936098000,1.27609814453125,-0.2043763101100921,0.7357893586158752,0.3302755057811737,-0.0852726836159825,0.3046436757501214,2.095063815280795,2.574493929898739,0.3657328621588647,9.455611287495492
1757088916946145000,1.28614501953125,-0.1300149410963058,0.6441030502319336,0.351508766412735,-0.8565610074952245,-0.4775692526495084,2.160589303636551,2.6397920392394063,0.38988172644414,9.436623093909024
1757088916956191000,1.29619091796875,-0.1311505138874054,0.3862405717372894,0.4107542335987091,-1.294469025157392,-1.7510680070251226,1.2488310173153876,2.68774533828646,0.4122604392517358,9.422126951044795
1757088916966238000,1.306238037109375,-0.1573811620473861,0.064888596534729,0.4377053678035736,-1.2682292530074717,-2.476651395305991,0.7237941667765379,2.7074431414470075,0.4373903504636138,9.41534941973388
1757088916976284000,1.316283935546875,-0.2008260935544967,-0.2785233557224273,0.3717372715473175,-0.8819117218509316,-2.668981893366575,0.5220575424671173,2.6953692572936414,0.465418686530739,9.417470065149663
1757088916986331100,1.3263310546875,-0.2998875379562378,-0.5739359259605408,0.2010055035352707,-0.2276867658630013,-2.5072838494569063,0.2577355749070644,2.653162685205042,0.4966034408021718,9.427857019129394
1757088916996377300,1.33637744140625,-0.4236374199390411,-0.8193899393081665,-0.0542608760297298,0.3282338832393288,-2.505098322111368,-0.2065267811954021,2.5864079473152755,0.5330241960309445,9.444405418348312
1757088917006424000,1.346424072265625,-0.5373459458351135,-1.0580203533172607,-0.3500840365886688,0.6504153345718979,-2.314777994829416,-0.304728796750307,2.49840934586674,0.5735948009481653,9.465693705570695
1757088917016470300,1.35647021484375,-0.6208578944206238,-1.3151568174362185,-0.5900659561157227,0.7266618311673403,-1.7607612796522676,-0.088891750895977,2.3881954054787755,0.617081074116379,9.491372921228407
1757088917026517200,1.366517333984375,-0.6505997180938721,-1.8056272268295288,-0.3693385422229767,-0.0804448250681161,-1.1156009429991245,0.3311176219820976,2.2449515944093466,0.6660893621090799,9.522965160322189
1757088917036563200,1.376563232421875,-0.5928192138671875,-2.217546939849853,0.2790309190750122,-1.7725544471681116,-0.826446220542863,0.8354670738011598,2.0493841602541507,0.7246927230514586,9.562700373861194
1757088917046610200,1.386610107421875,-0.5007237792015076,-1.999555706977844,0.8603348731994629,-3.2976655808627604,-0.6193015266448259,1.1178963604599237,1.838100247659534,0.7888407855741679,9.600495559248328
1757088917056656100,1.39665625,-0.3723756968975067,-1.3322715759277344,1.153890609741211,-3.912581439769268,0.0385892583742737,1.3248679628133773,1.6672690492235125,0.8490609340634196,9.626510874992608
1757088917066703000,1.406703125,-0.225015327334404,-0.648055374622345,1.2158282995224,-2.7684230953276154,0.6176655960060655,1.222140578788519,1.5621946636810895,0.8972654313925653,9.639753802925348
1757088917076749000,1.4167490234375,-0.0946847423911094,-0.290505975484848,1.3437622785568235,-1.3396375157915057,0.6583784224055707,0.9692220487743616,1.5073812696062028,0.9321197410222144,9.645172905364632
1757088917086796000,1.426796142578125,-0.0036745697725564,-0.1969088912010193,1.5633269548416138,-0.6526711506746709,0.4980718328543007,1.092338140833378,1.469841812545806,0.958800096546486,9.648350950878855
1757088917096842000,1.436842041015625,0.0954698547720909,-0.6478928923606873,1.3914196491241455,0.3636581017114222,0.5585421567123383,1.609884343355894,1.4257088024392723,0.9750935711562632,9.653339260685444
1757088917106889000,1.446888916015625,0.0364893153309822,-1.7166900634765625,0.1189640387892723,8.857560638672114,0.0215104055404663,1.704067186397314,1.290263390161097,0.9789666862625628,9.671982001835108
1757088917116935000,1.456934814453125,0.0981502830982208,-1.248440504074097,-0.5619183778762817,8.231037344080208,-0.0485177279967814,1.1049614755630492,1.1470505587518214,0.9696867436766624,9.690942138370872
1757088917126982100,1.466982177734375,0.0796481966972351,-1.0389370918273926,-0.3704119026660919,1.7349976005814969,0.0648771805148571,1.3596616282969711,1.041228861973435,0.95445410323143,9.70439198705256
1757088917137028000,1.477028076171875,0.0264432914555072,-0.7219018936157227,-0.1060084849596023,1.052615202254057,-0.556512550580874,-0.4611971233129501,0.9570178893048316,0.9475156092051416,9.713739076590535
1757088917147075000,1.487074951171875,0.024228373542428,-0.5226719379425049,-0.0756656602025032,1.4615806185483933,-0.284030511310324,-0.6945663187265396,0.8983545418035238,0.9442317652288824,9.719659114289284
1757088917157121300,1.497121337890625,0.0197033956646919,-0.3949483036994934,-0.0790497437119484,1.5409306341171265,-0.1595291754379868,-0.4021341089695692,0.8538695764541625,0.941236236674711,9.723959441831708
1757088917167168300,1.507168212890625,-0.0177513789385557,-0.2720027863979339,-0.0427676104009151,0.6711795979201793,-0.6416238330900669,-0.4799100070893764,0.822352886814624,0.9403002709988504,9.726765731424091
1757088917177214200,1.517214111328125,-0.0673626065254211,-0.227321058511734,0.0262535326182842,0.1124410418529063,-0.8892943794481456,-0.7206055998682975,0.798553128227964,0.9445107283007352,9.728341602438688
1757088917187261200,1.52726123046875,-0.0880281776189804,-0.2452351301908493,0.0951541364192962,-0.3122387339890003,-0.5609915226258337,-0.4216811054825782,0.7752172608260065,0.9525932047303766,9.72943933454752
1757088917197307100,1.53730712890625,-0.0713938027620315,-0.2489340007305145,0.1589349806308746,-0.7158756487369536,-0.3880504924289882,-0.0680301646530628,0.7495435981262475,0.9614617169711738,9.730579152232409
1757088917207354000,1.54735400390625,-0.0282022152096033,-0.1932196617126464,0.1788335442543029,-0.7903589350521564,-0.0642431934602558,0.3023334260463714,0.7258654200926422,0.9676054073579607,9.731765731668473
1757088917217400000,1.557400146484375,0.0040049888193607,-0.1617877036333084,0.1928119510412216,-0.6583434241574257,0.2222103072132915,0.4303466424971818,0.7074249235168099,0.9699526280712336,9.732890936306118
1757088917227447000,1.567447021484375,0.028009982779622,-0.1592471897602081,0.2255743592977523,-0.6288403393626213,0.3015585692163556,0.1985959881961345,0.6894434958200901,0.9697624392613768,9.734198511773346
1757088917237494300,1.577494384765625,0.0349587015807628,-0.0842914655804634,0.2677671015262604,-0.5567150874156505,0.201536133301258,-0.0624947423577308,0.6747789375863968,0.9683305798273532,9.73536755555272
1757088917247540200,1.587540283203125,0.0418655648827552,-0.0207581855356693,0.319616287946701,-0.1817418840289116,0.0620586890280246,-0.1817097353249788,0.6671659783646464,0.966550199216604,9.736070735386011
1757088917257587200,1.597587158203125,0.0171793960034847,-0.0555726252496242,0.3550616204738617,0.0039771600026637,-0.1025621835257857,-0.2330664130747318,0.6616105361945926,0.9655223905388264,9.736551796901226
1757088917267633200,1.607633056640625,-0.0110107604414224,-0.1227813735604286,0.347534567117691,0.4948094700574874,-0.3685915395256132,-0.6319388898998498,0.6485715333361178,0.967441156706959,9.737237441077829
1757088917277680000,1.61768017578125,-0.0533757954835891,-0.0937419980764389,0.3051666021347046,0.6081144352633505,-0.4629051693398505,-0.765519677349925,0.6344767378143966,0.972720558414608,9.737641930225491
1757088917287726000,1.62772607421875,-0.0865303948521614,-0.0511426776647567,0.2190503031015396,0.6963888579785823,-0.5498395025577396,-0.7299871761977672,0.6246113965559751,0.981244714197144,9.737422734516858
1757088917297773000,1.63777294921875,-0.0966975465416908,0.0524345822632312,0.0890171974897384,0.7302782680988311,-0.3618411884825676,-0.4377332456171512,0.6230445856306701,0.9912170960266142,9.736513218456508
1757088917307819000,1.647819091796875,-0.0904386341571807,0.1738777607679367,-0.0162270814180374,0.3051367199640721,-0.0777037827316671,-0.1155652382880449,0.6335403337471187,1.0006683035261927,9.734867789337038
1757088917317866000,1.657865966796875,-0.0615039207041263,0.3338652849197387,-0.067361906170845,-0.2051391992945224,0.1394458800911903,0.1195446633130312,0.6586909954860806,1.00797511940822,9.732444946104287
1757088917327912200,1.667912109375,-0.0147565137594938,0.4150802493095398,-0.0366869233548641,-0.5197265422362833,0.2282308096118271,0.3926432270467281,0.6967476813536136,1.011367026868835,9.729442257156968
1757088917337959200,1.677959228515625,0.0273640416562557,0.388094961643219,0.0156039800494909,-0.5606664553899318,0.1524172245409339,0.4867664488554,0.736490859003365,1.010566158814728,9.726597973641752
1757088917348005000,1.688005126953125,0.0382352694869041,0.3306224942207336,0.0453036092221736,-0.2577343327980488,0.1240753655452281,0.1929839935332536,0.771141389689222,1.0073345564823597,9.724249364688992
1757088917358052000,1.698052001953125,0.0310585834085941,0.2725333571434021,0.0479888767004013,0.0984194576978683,0.1681624176181852,-0.0607347469478845,0.8000044960800557,1.004248061709106,9.722236271300911
1757088917368098000,1.70809814453125,0.0190757717937231,0.2394653111696243,0.0166687257587909,0.3307797683298588,0.1144308274306356,-0.0403571448296308,0.8245720241688191,1.0020153342209757,9.720413732048868
1757088917378145300,1.718145263671875,-0.0177781172096729,0.2223252058029174,-0.0193324200809001,0.5388005874752998,0.2005403271969407,-0.0706102442741394,0.8471430446781217,1.0017977459475398,9.718494746685028
1757088917388191200,1.728191162109375,-0.0297921821475029,0.2107900232076645,-0.0620889998972415,0.6199485193114728,0.2969553132046014,0.1752747338414192,0.8686462898254395,1.003994013882801,9.716368840572237
1757088917398238200,1.73823828125,-0.0012417645193636,0.2035118788480758,-0.0996488854289054,0.5680640182953327,0.2164627765372395,0.5806950248748064,0.8897057367280126,1.0048792722847313,9.714370944753288
1757088917408285200,1.74828515625,0.0315780900418758,0.1838747859001159,-0.1122540310025215,0.2048047066431492,0.1713029806662351,0.6569651946067809,0.9096963122900577,1.0024544562906026,9.712770523819326
1757088917418331100,1.7583310546875,0.0524239838123321,0.1414133459329605,-0.1234310492873191,-0.0890320361495018,0.154928842035681,0.4541115489661693,0.927151889481768,0.9971310693107543,9.711668700057269
1757088917428378000,1.768378173828125,0.0570463053882122,0.0583639666438102,-0.1174321249127388,-0.3399346232313662,0.2350384438000619,0.2541284903258085,0.9380357601329684,0.9906430224657058,9.711286422741413
1757088917438424000,1.778424072265625,0.0639071390032768,-0.0086550135165452,-0.1113627776503562,-0.4093266508221626,0.1320456868372857,0.0081762921929359,0.9412886244490742,0.9836522867955266,9.7116838976264
1757088917448471000,1.788470947265625,0.0651410669088363,-0.0351368188858032,-0.1103947609663009,-0.1920830991707742,-0.1122356554739177,-0.1130067859768867,0.9399723542187364,0.9762432526480406,9.71255951141715
1757088917458517000,1.79851708984375,0.05245216563344,-0.022886810824275,-0.1078130975365638,-0.025965485253185,-0.3027539164807647,-0.3223281663268804,0.938006534038484,0.9693895142957568,9.71343570972979
1757088917468564000,1.80856396484375,0.0350756086409091,0.0365530177950859,-0.108908899128437,0.0334778336446732,-0.3788963681798428,-0.3897486746490001,0.9394655006751418,0.9641288903538136,9.713816818001863
1757088917478610000,1.81860986328125,0.0129471337422728,0.1035914421081543,-0.0989678502082824,-0.0597206014692783,-0.4485842369120568,-0.327062209111452,0.9473704285807908,0.9607936815164982,9.71338018015027
1757088917488657200,1.8286572265625,-0.0128726689144968,0.1583724915981292,-0.0760684162378311,-0.1672645189303904,-0.4496855492174625,-0.2873550526231527,0.9610914954192936,0.9598001404345036,9.71212930330634
1757088917498703400,1.838703369140625,-0.0327917821705341,0.1709442138671875,-0.0559072196483612,-0.0875625481188297,-0.3575738133616745,-0.2342120759785175,0.9776069422166794,0.9615112552013249,9.710312609273196
1757088917508750000,1.84875,-0.037673182785511,0.1891095787286758,-0.041072379797697,0.0523193853020668,-0.2894759902998804,-0.1068120229899883,0.9958923212960362,0.9644910747297109,9.708159230631589
1757088917518797000,1.858797119140625,-0.0439076423645019,0.1637597531080246,-0.0250920839607715,0.015561068682,-0.254778843993321,-0.107606972759962,1.0136461507819592,0.9681011549856512,9.705960843804478
1757088917528843300,1.86884326171875,-0.0448829755187034,0.1025484204292297,-0.0105455629527568,-0.0844225695926696,-0.1611026352997869,-0.114794838437438,1.0268401980716737,0.9721384476777164,9.704170453256369
1757088917538890200,1.87889013671875,-0.0371246561408042,0.0651203542947769,-0.0100552756339311,-0.0644190614838153,-0.0979581968616694,-0.0782417620658874,1.034818848800659,0.9760315826587378,9.702931851372124
1757088917548936200,1.888936279296875,-0.0313697159290313,0.0574177727103233,-0.0141221424564719,-0.0229847158767282,-0.0806785607587546,-0.0962953051507472,1.0406697667859497,0.9792522982709108,9.701980834257602
1757088917558983200,1.898983154296875,-0.0235040690749883,0.0707823112607002,-0.0219164155423641,-0.0324316855926066,-0.0658781011857092,-0.0377630366832017,1.0469747121490538,0.981660309260711,9.701059627759456
1757088917569029000,1.909029052734375,-0.0230820178985595,0.0890006199479103,-0.0247606113553047,-0.0512369238276034,-0.0668918082728981,0.0243523509681224,1.0550064813047646,0.9835715497095138,9.699996382442116
1757088917579076000,1.919076171875,-0.0295348577201366,0.0876061916351318,-0.0225613750517368,-0.1488414849460125,-0.0926161051813513,0.0593827478170394,1.064024704214558,0.9858030350886284,9.698784668564796
1757088917589122000,1.9291220703125,-0.0400812290608882,0.0842558816075325,-0.0196898970752954,-0.2221861226201057,-0.1007725966952741,0.068134209549427,1.072577063178271,0.9890212664827704,9.697515087020395
1757088917599169000,1.9391689453125,-0.051229752600193,0.0857642963528633,-0.0167399141937494,-0.2460708560764789,-0.0990310137249529,0.0756599288791418,1.0811984687902032,0.9932651876628398,9.696124509444832
1757088917609215000,1.949215087890625,-0.0612632893025875,0.0647918134927749,-0.0225104261189699,-0.2237666698098182,-0.1440014245036989,0.0460690927356481,1.0888220955364405,0.9984320689067244,9.694740361610055
1757088917619262200,1.95926220703125,-0.0851712822914123,-0.0092656379565596,-0.0449691303074359,-0.1899976711988449,-0.1170114915736019,0.010076572856307,1.0927615538772195,1.0049610322840512,9.693622755756971
1757088917629309200,1.96930908203125,-0.0772178471088409,-0.0476492941379547,-0.0362230762839317,-0.2118904271204024,0.0071773442834615,0.0351958165436983,1.089365116371959,1.012752562943101,9.693193132168052
1757088917639355100,1.979355224609375,-0.0524166226387023,0.0307712126523256,-0.0093416608870029,-0.165095869654417,-0.491840244988352,0.1823532939255237,1.0885098147168757,1.0185646832879631,9.69268109099269
1757088917649402000,1.989402099609375,-0.0513799861073493,0.0823456570506095,-0.0045413966290652,-0.0393301398694515,-0.2997110416535288,0.0503641595810651,1.094574667713791,1.0233586395662275,9.691492757990956
1757088917659447600,1.999447509765625,-0.0581209808588027,0.0548671670258045,-0.0057507376186549,-0.0600993716537952,-0.0508480706404894,-0.2384375847190618,1.1015773860827087,1.028580173606798,9.690147188600898
1757088917669494300,2.009494384765625,-0.0622030720114707,0.0006726367864757,0.0027476751711219,-0.1533715295910835,-0.0037329759832471,-0.2204600294798612,1.1041693753372877,1.0344367906805128,9.68922832019031
1757088917679540500,2.01954052734375,-0.063802570104599,-0.0043319752439856,0.009427148848772,-0.1400021987996995,0.0415230468038469,-0.070247256180644,1.1033693110007792,1.040656103586778,9.688654319694638
1757088917689587500,2.02958740234375,-0.06630489975214,0.0505929291248321,-0.0016615893691778,-0.0249696060836315,0.0417198845501989,-0.1006073231309652,1.1053532513596116,1.047043393471092,9.68773895841539
1757088917699633400,2.03963330078125,-0.0614877715706825,0.1103473380208015,-0.0239197574555873,0.0651427726484835,0.1075759200345724,-0.03228314396739,1.1135531436238435,1.0530135539218783,9.686154319572449
1757088917709680400,2.049680419921875,-0.054489616304636,0.1101466789841651,-0.0300996117293834,0.0251088684238493,0.100420787582919,-0.0908808788865804,1.1245572796538472,1.058372815932706,9.684298462572691
1757088917719726300,2.059726318359375,-0.0512703880667686,0.1414334923028946,-0.0425312481820583,-0.0382944401461631,0.101181177496165,-0.1419002875059843,1.1369342384070158,1.062999306689575,9.68234440589547
1757088917729773300,2.069773193359375,-0.0425634421408176,0.1906836330890655,-0.0524209178984165,-0.0412988095939159,0.1410646403994411,-0.0263555074840784,1.1535551183402537,1.067109226226434,9.679926238837838
1757088917739820300,2.0798203125,-0.0357910245656967,0.2150353193283081,-0.0550795532763004,-0.0743418320178985,0.1689817711770534,0.11190028603971,1.1741777812607586,1.0703169362265617,9.677092476716638
1757088917749866200,2.0898662109375,-0.0215905178338289,0.1751116067171096,-0.049805961549282,-0.1076573147077113,0.1833312721122056,0.2272217786997556,1.1938760958779602,1.0724274255745112,9.674447515165806
1757088917759913500,2.09991357421875,-0.0080632576718926,0.1320978254079818,-0.0460730083286762,-0.0517266801059246,0.1912956020548939,0.295806654626131,1.2091737643834202,1.073291714253649,9.672451957434417
1757088917769959400,2.10995947265625,0.0007802698528394,0.1196521297097206,-0.0474302507936954,-0.0181227358635514,0.1692272703707218,0.2092132438004016,1.221657836772874,1.0730639699123798,9.670907066079971
1757088917780006400,2.12000634765625,0.0123831303790211,0.1099558249115943,-0.050546146929264,0.003779372408241,0.1599007121641188,0.1987584852814674,1.233423604825139,1.071916188116744,9.669541622945664
1757088917790052400,2.13005224609375,0.0215235874056816,0.1001909226179122,-0.0429602824151515,-0.0509459049917757,0.1280770754672587,0.1593272231251001,1.2441563035026193,1.0696221588954329,9.668421094483136
1757088917800099300,2.140099365234375,0.0242890138179063,0.0797221362590789,-0.0275906454771757,-0.1202281155325472,0.0387074048612266,-0.0409165322780609,1.25328390507102,1.0668151386506854,9.667551910433172
1757088917810145300,2.150145263671875,0.0233081839978694,0.0453191064298152,-0.0128342807292938,-0.1125705865167081,-0.0448833170171827,-0.2004822403341531,1.259692018547654,1.0642147468939422,9.667007136031986
1757088917820192300,2.160192138671875,0.0164236463606357,-0.0110560180619359,0.005197983700782,-0.0259900351725518,-0.1161517329391092,-0.2968523642867803,1.2613976534217597,1.062160883104056,9.667010643163325
1757088917830239200,2.1702392578125,0.0056326179765164,-0.0624152235686779,0.0131051670759916,0.0530488686203956,-0.1611510775513946,-0.3960585884481668,1.257626902711391,1.0612211180359123,9.667604517403245
1757088917840285200,2.18028515625,-0.0081934491172432,-0.0940479859709739,0.0168154835700988,0.1575298183143138,-0.1708729186858981,-0.4207020313173532,1.2496617690511047,1.0615157901335508,9.668605218878389
1757088917850332200,2.190332275390625,-0.0163953322917222,-0.1081233322620391,0.0191991366446018,0.1971370215594768,-0.1875700787257403,-0.3618435996353626,1.2395334660075603,1.062949987655133,9.669751466304064
1757088917860378400,2.20037841796875,-0.0203389395028352,-0.0911542028188705,0.0172254685312509,0.1439477215550839,-0.1857557227801531,-0.2618991243273019,1.2294259134911,1.0650262824725358,9.670811789011957
1757088917870425300,2.21042529296875,-0.0232789497822523,-0.0627449452877044,0.0133557543158531,0.1137234098136425,-0.1457582781083881,-0.1572819810330867,1.2216422008123249,1.0673762796647843,9.671540103286503
1757088917880471300,2.22047119140625,-0.0198975335806608,-0.016759080812335,0.0135786607861518,0.0198797355987131,-0.1091172311924397,-0.0671574734717607,1.2176231744293122,1.0696410827916114,9.671797877439856
1757088917890518500,2.2305185546875,-0.0120070949196815,0.0344250351190567,0.0178317464888095,-0.0679155983626842,-0.075604545430094,0.0022439795345067,1.2181797853987664,1.0714427984513342,9.671527828326822
1757088917900564500,2.240564453125,8.12585931271e-05,0.0759855285286903,0.0248270705342292,-0.1468564486086368,-0.0479527145251631,0.0220060801029205,1.2234987153992056,1.0722222583912313,9.670769703435898
1757088917910611500,2.250611572265625,0.0056188330054283,0.0884921476244926,0.0251345857977867,-0.139493957016617,0.0328694924879819,-0.0592769493550062,1.231399259390682,1.0723538488816469,9.669751466304064
1757088917920657400,2.260657470703125,0.0065682497806847,0.0754860639572143,0.0225558467209339,-0.1057679207645356,0.0581553249139338,-0.1636655445903539,1.239272623114288,1.0719077856145798,9.668796942058204
1757088917930704400,2.270704345703125,0.0094097666442394,0.04319753870368,0.0119780609384179,-0.0405212493501603,0.0284054257512092,-0.209841020309925,1.244954322012514,1.0712813242793082,9.66813584780097
1757088917940751400,2.28075146484375,0.0072259739972651,-0.000966460967902,-1.20224431157e-05,-0.0096434421360492,-0.0044506227333098,-0.2202759050846099,1.2469963492341338,1.0706184764564035,9.667945293664932
1757088917950797300,2.29079736328125,0.0055969506502151,-0.0463529117405414,-0.007062648423016,0.0042551732264459,-0.0254850813250988,-0.1615484063059091,1.2446199754916132,1.0699554094377903,9.668324063849449
1757088917960844300,2.30084423828125,0.003943127579987,-0.0709328204393386,-0.0122792478650808,0.0068296998895704,-0.0545143380630761,-0.0514677369087934,1.2389036436714231,1.0693565667618066,9.669126612403987
1757088917970890200,2.31089013671875,0.0063267773948609,-0.0640645399689674,-0.0138107081875205,-0.0435759607456624,-0.0729788731016218,0.0332049349874258,1.232297231143713,1.0686675615843384,9.670046649858357
1757088917980937200,2.320937255859375,0.0107220578938722,-0.0328344516456127,-0.0158144701272249,-0.0957386941812932,-0.0565606761336326,0.1444254220694303,1.2275978212811052,1.0676620378036052,9.670755090388656
1757088917990983200,2.330983154296875,0.0199642162770032,0.0050055077299475,-0.0123973432928323,-0.1461770880423486,-0.0160876498393714,0.1831400603890419,1.2264115341059862,1.065945077817887,9.671095866650342
1757088918001030400,2.341030517578125,0.0307508185505867,0.0183415524661541,-0.0097277909517288,-0.1642740318775176,0.0194539844673126,0.2144645884573459,1.2278981194019316,1.063323643273115,9.671194066327809
1757088918011076400,2.351076416015625,0.0403263084590435,0.0054010725580155,-0.004840612411499,-0.1577205185808241,0.0471203553542494,0.1908849754273891,1.2291253231093286,1.0597489996567369,9.671429628649353
1757088918021123300,2.361123291015625,0.0421140864491462,-0.0080646695569157,-0.0066307885572314,-0.1317592711113393,0.0398499259598553,0.1028694228440523,1.2289021818779409,1.055647190361097,9.671908936598896
1757088918031169500,2.37116943359375,0.0443651750683784,-0.0089511033147573,-0.00531567633152,-0.1140250231087207,0.0307829685375094,0.0563631077349185,1.2280775676220654,1.051396035722643,9.672475338310004
1757088918041216300,2.38121630859375,0.0406138487160205,-0.0061052488163113,-0.0051114112138748,-0.0761889211893081,0.0209115628644824,0.0338192674934864,1.2273511530436574,1.0472015797074885,9.673022450798747
1757088918051263200,2.39126318359375,0.0365514792501926,-0.0043731406331062,-0.0028511502314358,-0.0586661239802837,0.0077371701233088,-0.0522527498066425,1.2268866042718292,1.0433172856200486,9.673501758748293
1757088918061309400,2.401309326171875,0.024717990309,-0.0121213411912322,0.0013135008048266,-0.0327506153486669,-9.82727427035e-05,-0.1267722764790058,1.2259610138595105,1.0402293295420706,9.673951840603351
1757088918071356400,2.4113564453125,0.01659482344985,-0.0192090403288602,0.0053953090682625,0.0293044204175472,-0.0563802780654281,-0.1372621063113212,1.2240602217394858,1.038152450202778,9.674414781939983
1757088918081402400,2.42140234375,0.0069275479763746,-0.0250000841915607,0.0129467025399208,0.0608615881979465,-0.116563747806102,-0.1579115111082792,1.221382673093304,1.0371343592014164,9.674863110229373
1757088918091449300,2.431449462890625,-0.0011497433297336,-0.0266149286180734,0.0197734236717224,0.0945103214301168,-0.1492888633873313,-0.1816337474793195,1.2184098678275943,1.0370889856897294,9.675243049457668
1757088918101495300,2.441495361328125,-0.0125201093032956,-0.0296021960675716,0.0241213031113147,0.0864051947772502,-0.1591051778722554,-0.2067605899512767,1.215292758720368,1.0380763892918825,9.675528880661725
1757088918111542300,2.451542236328125,-0.0201552212238311,-0.0427082292735576,0.0341307781636714,0.0234099555514752,-0.1714034453660249,-0.2176607541501521,1.2113988930869848,1.0400495159957557,9.67580360594988
1757088918121588200,2.461588134765625,-0.0325743407011032,-0.0535432994365692,0.0487294271588325,-0.0513911645412445,-0.1835376814045012,-0.2203723511964082,1.2061446988858282,1.0432057880695909,9.676122170379758
1757088918131635500,2.471635498046875,-0.0418204441666603,-0.0428645312786102,0.057313434779644,-0.0691511315070092,-0.1571872154217213,-0.1638677891641855,1.200710764203593,1.0475309577923269,9.676331429216264
1757088918141682400,2.481682373046875,-0.0382097288966178,-0.0307479500770568,0.057695597410202,-0.1083059148095548,-0.0954230523608624,-0.0515074843972921,1.1964705693505704,1.0522060369312762,9.676348964872956
1757088918151728400,2.491728271484375,-0.0232430920004844,-0.0326658375561237,0.0473048239946365,-0.134291566067934,-0.0128151309747248,0.069659811681509,1.193127615598217,1.0556396646417676,9.676386958795783
1757088918161775400,2.501775390625,-0.0083451028913259,-0.0431879870593547,0.0250892676413059,-0.0992471406936645,0.0882365018576383,0.0955547159165143,1.1892079579364507,1.057388919461891,9.67667863521874
1757088918171821300,2.5118212890625,0.006131091620773,-0.0473130270838737,0.0022277575917541,-0.1299566056035458,0.1609707525484263,0.0188595987707376,1.1849014198489487,1.0573786172635853,9.677209381094574
1757088918181868300,2.521868408203125,0.0212764889001846,-0.0360843427479267,-0.0159520432353019,-0.1455132903713732,0.1807663169950246,0.0274772049903869,1.1810054353237152,1.0556892759371548,9.677868137264252
1757088918191914200,2.531914306640625,0.0301299635320901,-0.008500506170094,-0.0369420945644378,-0.129341834706068,0.1708844629932195,0.0278133050769567,1.17919875122793,1.052552512281388,9.67842986280024
1757088918201961200,2.541961181640625,0.03360565751791,0.0151526248082518,-0.0499979741871356,-0.1435856102444231,0.1163978166546672,-0.027128245422244,1.1801251453578472,1.0485307824846355,9.678752518883346
1757088918212007200,2.552007080078125,0.0343283861875534,0.0171924121677875,-0.059327695518732,-0.1240028117656707,0.0267007407251745,-0.074268182259798,1.1823895100932569,1.044554718460515,9.678907417184114
1757088918222054100,2.56205419921875,0.0262749884277582,0.0199336037039756,-0.0670165047049522,-0.0669780252516269,-0.0590034661758691,-0.1354360599279403,1.184771217598021,1.0407758575089274,9.67902373704016
1757088918232101400,2.572101318359375,0.0172386299818754,0.0382246747612953,-0.0746583864092826,-0.0205539815984666,-0.1077559527765959,-0.1989391025453805,1.1881760576054454,1.0377538793392478,9.678931382581592
1757088918242147300,2.582147216796875,0.0074573713354766,0.0579765439033508,-0.0725741982460022,-0.0202301564715802,-0.1653227372128516,-0.2251256832033395,1.1936882451556623,1.0356152598753572,9.678482469770312
1757088918252194300,2.5921943359375,0.0027421317063272,0.0608727820217609,-0.0643590167164802,-0.0468869119245558,-0.2168115169096738,-0.1710492251008749,1.200143851035833,1.0342816001188009,9.677824882644414
1757088918262240500,2.602240478515625,0.0014915110077708,0.0572985522449016,-0.0575075075030326,-0.061599254822731,-0.2109166136521846,-0.0826765296429395,1.2064769265148787,1.0333248839158564,9.677140407511592
1757088918272287500,2.61228759765625,0.002766708144918,0.0551193840801715,-0.0485963299870491,-0.0953086322009563,-0.1804571049153804,0.0183949038684368,1.2125025434799492,1.0324934745930134,9.676475806123015
1757088918282333400,2.62233349609375,0.007457866333425,0.0445959046483039,-0.0393927134573459,-0.1288882457196712,-0.1728431958455592,0.0948164647698402,1.2178007229533043,1.0314637662190944,9.675920510327815
1757088918292380400,2.63238037109375,0.012344398535788,0.0384774394333362,-0.038098145276308,-0.1139922898828983,-0.1205103665400296,0.0985088895469903,1.2222083833277224,1.0300078683223577,9.67552011283338
1757088918302427400,2.642427490234375,0.0150144845247268,0.0371109694242477,-0.037727165967226,-0.1237665187917649,-0.0685789576422423,0.0723497814178466,1.2262962371632455,1.0282051297493278,9.675194534140823
1757088918312473300,2.652473388671875,0.0182787030935287,0.0348029434680938,-0.038322776556015,-0.125802993055433,-0.0266293559893965,0.028614684587717,1.2301285088025034,1.0260589845661072,9.674936175465584
1757088918322520300,2.662520263671875,0.018169779330492,0.0316942334175109,-0.0383185185492038,-0.1141243918299674,0.0057060296218842,-0.0129179337620735,1.2337125047691166,1.0238005381148307,9.67471873332262
1757088918332566300,2.672566162109375,0.0166786164045333,0.0361044630408287,-0.0365907698869705,-0.0927821824632585,0.0212769621107727,-0.0473901122063398,1.237360359752178,1.0216973552905022,9.6744761567384
1757088918342613200,2.68261328125,0.0144524816423654,0.042270477861166,-0.0364975593984127,-0.0615326193273067,0.0014320055644959,-0.0482616343438625,1.2414257094949483,1.0198447131611406,9.674149409002066
1757088918352659200,2.6926591796875,0.0118439979851245,0.0556852184236049,-0.0315728858113288,-0.0701940646886825,-0.0131326724912971,-0.0361029945164918,1.2466454899698496,1.0180988924071193,9.673662502267955
1757088918362706400,2.70270654296875,0.0145337907597422,0.0674406811594963,-0.0191630870103836,-0.1009983682751655,-0.032121304469183,-0.007336918759346,1.252908203626424,1.016437462000921,9.673028296017646
1757088918372752400,2.71275244140625,0.0174773316830396,0.0800987556576728,-0.0052758967503905,-0.1037690020322799,-0.0679839874237775,-0.0224491476953029,1.260167819365859,1.0145913226775825,9.672278938955069
1757088918382799400,2.72279931640625,0.0183449890464544,0.0755948200821876,0.0004744005855172,-0.0517171816252172,-0.0753168875951319,-0.0684726477235555,1.2678222796417773,1.0127964751500635,9.671467038050292
1757088918392846300,2.732846435546875,0.0159687213599681,0.0576756559312343,0.0042578550055623,-0.0010157529138028,-0.0875642286192625,-0.13002806340456,1.274432053170353,1.0111275920897722,9.670773210567235
1757088918402892300,2.742892333984375,0.0105808796361088,0.0284330826252698,0.0058576157316565,0.0410695308826863,-0.1105523785620927,-0.1969476364672183,1.2785842044137417,1.009874377158284,9.67035410837233
1757088918412939300,2.752939208984375,0.0050036245957016,0.0062844920903444,0.0092950379475951,0.0829760971114039,-0.0585517768856138,-0.2355775191128253,1.2800728355363011,1.0091993274409323,9.670226682600378
1757088918422985200,2.762985107421875,0.0044728564098477,-0.0007654279470443,0.0160248465836048,0.0699801296770572,-0.0362287397880107,-0.2121212402015924,1.280050915965438,1.008873091161251,9.670265261045095
1757088918433032200,2.7730322265625,0.0045874477364122,-0.0043278415687382,0.0147190736606717,0.072144029712677,-0.0390041227854788,-0.1478682559996843,1.2795322989188134,1.0086558682139963,9.67035644645989
1757088918443078400,2.783078369140625,0.0090748742222785,0.0037684342823922,0.0124101126566529,0.0871161195255816,-0.0096340897858142,-0.1172843171656131,1.279225424926728,1.008165746609494,9.67044938544035
1757088918453125000,2.793125,0.0137803936377167,0.0190544575452804,0.0104523859918117,0.0234730839155614,-0.0032125323057174,-0.0503992308944463,1.2800194979138673,1.0071310697995126,9.670450554484129
1757088918463172400,2.80317236328125,0.0199107248336076,0.0196201130747795,0.0118705192580819,-0.0488661761082708,0.004964636670053,-0.006624386575818,1.2818795926973223,1.0055378823239356,9.67036930594146
1757088918473218600,2.813218505859375,0.0286807250231504,0.0139261661097407,0.0124559439718723,-0.0619324322998523,0.0168648447569459,-7.71568894386e-05,1.2834241917908191,1.00321462700814,9.67040729986429
1757088918483265300,2.823265380859375,0.0365551598370075,0.0090576419606804,0.0071378778666257,-0.0073250821910798,0.0582318972814828,-0.0327396555632352,1.2844823225416242,1.000005309572816,9.670599023044108
1757088918493311500,2.8333115234375,0.038298025727272,0.0001446589594706,0.0032243749592453,0.0330770708240568,0.0730587334048002,-0.0571247397571802,1.285080434565246,0.9964012937314808,9.67089303755462
1757088918503358500,2.8433583984375,0.042268268764019,-0.0107420776039361,-0.005598145071417,0.0499848048746585,0.0601089431997388,-0.0860223329395055,1.284633567580581,0.99244181551598,9.67135831697881
1757088918513404400,2.853404296875,0.0431518107652664,-0.0068422290496528,-0.0204628556966781,0.1017933180451393,0.0615923866905272,-0.0433037196755409,1.2840003842435777,0.9881152575537562,9.67188497120142
1757088918523451400,2.863451416015625,0.0459457300603389,0.0042026988230645,-0.0317408144474029,0.1090413894772529,0.0663971566237509,-0.0229471603453159,1.2842346313908697,0.9834603444200009,9.672328038793802
1757088918533497300,2.873497314453125,0.0510440357029438,0.0125392647460103,-0.0397719703614711,0.0609001666426658,0.0308469006191939,0.0116986211001873,1.2853893543839454,0.9783090260714292,9.672697456628084
1757088918543544300,2.88354443359375,0.0544787161052227,0.0203732177615165,-0.0481806360185146,0.0406102428078651,0.0270593449044972,-0.026757074022293,1.2874231982991098,0.9726694858144967,9.672995562791824
1757088918553591300,2.89359130859375,0.0591667294502258,0.021537747234106,-0.0510119795799255,0.0419254170596599,-0.0192647455055266,-0.0719470458358526,1.2898496947936713,0.9664705581091344,9.673294253477454
1757088918563637200,2.90363720703125,0.0609614327549934,0.0122755393385887,-0.0545736886560916,0.0549123244047164,-0.0388275971747934,-0.090693247359991,1.2921249462492763,0.9599965397894382,9.67363502973914
1757088918573684200,2.913684326171875,0.0657118931412696,-0.0024095305707305,-0.0566826052963733,0.1185037759579718,-0.0397461002591997,-0.1377531046986579,1.2931772317811845,0.953283744277805,9.67415934587419
1757088918583730200,2.923730224609375,0.0647616758942604,-0.0114530930295586,-0.0597809255123138,0.138641724101454,-0.0372291490022093,-0.1525187121540308,1.293090722541511,0.946277811038494,9.674858434054254
1757088918593777400,2.93377734375,0.0686662942171096,-0.0169221479445695,-0.0610127635300159,0.1119989241085946,-0.0216793323665857,-0.1443728150993585,1.2922002034425737,0.9389577703487128,9.6756890396595
1757088918603823400,2.9438232421875,0.0692686885595321,-0.0237784553319215,-0.0641073510050773,0.0835936444878578,0.0184564978625625,-0.1623556310355663,1.2908281844370066,0.931293446265906,9.676613753288985
1757088918613870300,2.953870361328125,0.0639645531773567,-0.0350358076393604,-0.0687205046415329,0.0674630322895944,0.0295346489768475,-0.1228098025888204,1.2885526407204568,0.9239562352456152,9.677619130939243
1757088918623917300,2.963917236328125,0.0597967058420181,-0.0479915514588356,-0.0764796286821365,0.0367675959050655,0.0107750765144824,-0.0932534532368183,1.2851309957087038,0.916977993730828,9.678739074879884
1757088918633963300,2.97396337890625,0.0528445094823837,-0.0529513768851757,-0.0881834775209426,0.0300409179985523,-0.0373513140771538,-0.0975841759175062,1.2807844909369943,0.9104868050806224,9.679927407881618
1757088918644010200,2.98401025390625,0.0418070405721664,-0.0419333465397357,-0.100139208137989,0.061368807067722,-0.0665869801074266,-0.0920627821475267,1.2768404294863342,0.9047070526354014,9.680988899633288
1757088918654056200,2.99405615234375,0.0345132760703563,-0.0212829299271106,-0.1078843921422958,0.0335794673882424,-0.0981841145720332,-0.0280231484353542,1.274701663891971,0.8996430472441017,9.681742348349092
1757088918664104000,3.00410400390625,0.029114780947566,-0.0057641575112938,-0.108864702284336,-0.0660591568410396,-0.1224606238249689,0.0496323381751775,1.274383099462092,0.8951890635099261,9.68219885994494
1757088918674150000,3.01414990234375,0.0225159861147403,-0.0003885181504301,-0.1056479215621948,-0.1628983596101403,-0.1628176955893635,-0.0087082071125507,1.2750045923613011,0.8912535506919026,9.682478261408209
1757088918684196900,3.02419677734375,0.014678836800158,-0.0025153185706585,-0.0979143679141998,-0.2469688278295099,-0.1852162821412086,-0.0801332749009132,1.2757272075474262,0.8880640339355915,9.682676998850702
1757088918694243000,3.0342431640625,0.0088089574128389,-0.0033720943611115,-0.0844209119677543,-0.312563728159666,-0.1809949381191283,-0.1160527295440435,1.2762294579811393,0.8856382680933922,9.68283365071714
1757088918704289800,3.044289794921875,0.0031654522754251,-0.0069122342392802,-0.0652765110135078,-0.3613398878969251,-0.1562847136240452,-0.1827747342079878,1.2763741271488367,0.883972234577313,9.682966337186098
1757088918714336800,3.054336669921875,-0.0082532372325658,-0.00839773286134,-0.0431694686412811,-0.3799661163032055,-0.1440687906514853,-0.276397605279088,1.2759965260080992,0.8834281908284872,9.683066290429236
1757088918724383000,3.064383056640625,-0.0221916902810335,-0.0089399525895714,-0.0242053661495447,-0.3648984571613371,-0.1244043052386492,-0.3775356742858886,1.2754435683004557,0.884413767799735,9.683048754772544
1757088918734430000,3.074429931640625,-0.0369850471615791,-0.0097034201025962,-0.0152287427335977,-0.2979728927493095,-0.1137213639870285,-0.4187117342829704,1.2746581170111897,0.8868990087442099,9.68292542065382
1757088918744476000,3.084475830078125,-0.0488158762454986,-0.0137572837993502,-0.0170524753630161,-0.2276012795366346,-0.0903111892398446,-0.3831891700029373,1.2735679836869238,0.8907226586855947,9.6827167463392
1757088918754523100,3.094523193359375,-0.0547341406345367,-0.0193266551941633,-0.0285797268152236,-0.1192855739854276,-0.059366308138892,-0.3066372607201337,1.2720935272201894,0.8953916734099387,9.682481768539548
1757088918764569000,3.104569091796875,-0.0540454499423503,-0.0099675096571445,-0.0478399731218814,0.0241898538827896,-0.0427069958914071,-0.1966676504820585,1.2709231682665645,0.9001303923696279,9.682194768291712
1757088918774616000,3.114615966796875,-0.0406249612569808,0.0156643390655517,-0.0691505521535873,0.1264179100833833,-0.0318042744092643,-0.0552636220604181,1.2716460757136343,0.9038922291211784,9.68174936261177
1757088918784662000,3.124662109375,-0.0275432486087083,0.0404559709131717,-0.0888659358024597,0.1926617758415639,-0.0162665135376155,0.0404272874563932,1.2751333333075046,0.9061614161621778,9.68107774696052
1757088918794709000,3.134708984375,-0.0144324544817209,0.0526055060327053,-0.1023382022976875,0.1687500082477927,0.0053917029757052,0.0855202286362648,1.280639091116935,0.9069486940823496,9.68027695197165
1757088918804756000,3.144755859375,-0.0054131271317601,0.0398612134158611,-0.1101404651999473,0.1051705393932759,0.0560121023401617,0.0936877530008554,1.2861601926259696,0.9064568919774144,9.679592476838826
1757088918814802000,3.154802001953125,-0.0022512516006827,0.0146897314116358,-0.111074186861515,0.0064917001068592,0.0911286431025713,0.098556235820055,1.2898188612639905,0.9053080872684716,9.67921370665431
1757088918824849000,3.164848876953125,-0.00219292845577,-0.0066230143420398,-0.1081811934709549,-0.0850983499623835,0.0931767347387969,0.0920318024873733,1.2911778746575115,0.904008183651045,9.679153500899671
1757088918834894800,3.174894775390625,0.0016074976883828,-0.0245851520448923,-0.1050162762403488,-0.1248249418035149,0.0836217746037989,0.0894201586842536,1.2905009983092546,0.90263959871158,9.679369773998856
1757088918844941800,3.18494189453125,0.004570797085762,-0.0276200901716947,-0.1013237982988357,-0.1194905950382351,0.0354183001879602,0.0897708718180656,1.2887583924256265,0.900864113471657,9.679767248883843
1757088918854987800,3.19498779296875,0.0069730952382087,-0.0109358951449394,-0.095204547047615,-0.1337551211036741,0.0049047962415963,0.1108481466382741,1.2876109759561716,0.8990559680711477,9.68008873592317
1757088918865035000,3.205034912109375,0.0082735167816281,0.0100301066413521,-0.0847809389233589,-0.1566460212171077,-0.0440632328059524,0.1194488017231225,1.288354780060798,0.89714713877514,9.680168230900168
1757088918875082000,3.21508203125,0.0066538266837596,0.0258680824190378,-0.0689046308398246,-0.1912370037354528,-0.0706771720305085,0.1058364559561014,1.290773531640321,0.8953300063505768,9.6800133325994
1757088918885128000,3.2251279296875,0.0050548645667731,0.0280958171933889,-0.0509322807192802,-0.2458968146838247,-0.0986197295103222,0.0783007987767458,1.2939580068953334,0.8939435204282402,9.67971581095755
1757088918895175000,3.2351748046875,0.0032884655520319,0.0229243226349353,-0.0337722301483154,-0.2401813596464693,-0.120554863268882,0.0019739304214715,1.2967721875332294,0.8929840277463197,9.679428810709714
1757088918905220900,3.245220947265625,0.0035619721747934,0.016770290210843,-0.0219757556915283,-0.2151100467540323,-0.1283147566806524,-0.0772644414663314,1.298934626264125,0.8922145046785473,9.67920961500108
1757088918915267800,3.255267822265625,0.0047710724174976,0.0101045658811926,-0.0167625062167644,-0.1453134569503366,-0.0976639631554484,-0.1040735379368066,1.3003665587633848,0.8914913049705326,9.6790839427948
1757088918925314000,3.26531396484375,0.0045100823044776,0.0037076529115438,-0.0132553894072771,-0.1159108368553221,-0.071162544394657,-0.1233428865522146,1.3010399279803038,0.890877337790653,9.679049456003307
1757088918935361000,3.275361083984375,0.001641065813601,0.0064076026901602,-0.0116886710748076,-0.109943891274929,-0.090685283249244,-0.1390408064216375,1.3015081300139426,0.8903485646761953,9.679036596521737
1757088918945407000,3.285406982421875,0.0010405231732875,0.0170426685363054,-0.0056406315416097,-0.1188262859106063,-0.0972368237845599,-0.1167564938992261,1.3027584223359825,0.8900168485037981,9.67889864935577
1757088918955454000,3.295453857421875,-0.0023628063499927,0.0218226797878742,0.0039664800278842,-0.1749029779195785,-0.1032971467368304,-0.0970534300416707,1.3046671785667538,0.8899421027671546,9.678648473986982
1757088918965501200,3.305501220703125,-0.0050781653262674,0.0185017175972461,0.012168750166893,-0.233806417787075,-0.0814025641843676,-0.0961626186817884,1.3065586914017795,0.8903434501096605,9.67835621304214
1757088918975547100,3.315547119140625,-0.0074142897501587,0.0085894335061311,0.0191289205104112,-0.1869653177656233,-0.0673041154008358,-0.1156739593595266,1.3077512621872127,0.8912086155716329,9.678114805501698
1757088918985594000,3.325593994140625,-0.0098004825413227,-0.0031993151642382,0.0236443113535642,-0.1116403199292719,-0.0935159035652875,-0.1294990710943937,1.3076939790420234,0.8922815055001526,9.678023620086908
1757088918995640000,3.33564013671875,-0.0134180756285786,-0.0029637343250215,0.0209876894950866,-0.0102316172875463,-0.1215939239930361,-0.1537368557721376,1.3068410154744985,0.893574321789667,9.67802011295557
1757088919005687000,3.34568701171875,-0.017042638733983,0.0036960325669497,0.0152041027322411,0.0599124707795679,-0.1195741086032241,-0.142723294326663,1.306428196889907,0.895146028085798,9.677931850150228
1757088919015733000,3.35573291015625,-0.0194211825728416,-0.0004154522612225,0.0156510062515735,0.0251985925339162,-0.14563348268494,-0.1263946753382683,1.306426151063293,0.8969638911627232,9.677761754280327
1757088919025780000,3.365780029296875,-0.0239762533456087,-0.0146596357226371,0.0162704568356275,-0.0071232760086655,-0.1613715884342789,-0.1466898598700761,1.3053782494455577,0.8990850480351597,9.677705640178916
1757088919035826000,3.375825927734375,-0.0315139517188072,-0.0249601379036903,0.0148252099752426,-0.0075042381502687,-0.1782175823602825,-0.1878933923959732,1.3030660269804295,0.9018648880120368,9.67776000071466
1757088919045873000,3.385872802734375,-0.0348911024630069,-0.0187752116471529,0.0097657367587089,0.0006229542039334,-0.149941335946694,-0.1288268709212541,1.3004757182262836,0.905162322122231,9.677799748203158
1757088919055919900,3.395919921875,-0.0291835851967334,0.0023508456069976,0.0095996418967843,-0.0193618492044508,-0.1348950118537992,-0.0156996734350919,1.299361911765486,0.9083717856880276,9.67764894155562
1757088919065965800,3.4059658203125,-0.0236524660140275,0.0240896977484226,0.0143073117360472,-0.0527063387930393,-0.0962959627378731,0.0693926851779222,1.3005338781543074,0.9109232237365096,9.677252635714412
1757088919076012800,3.4160126953125,-0.0166455619037151,0.0356403812766075,0.0176877677440643,-0.0901436506532132,-0.0549083788819611,0.0609901830136775,1.3034051958069204,0.9129303988404572,9.676678050696848
1757088919086058800,3.426058837890625,-0.0116473399102687,0.0380500108003616,0.0169127881526947,-0.056787470626831,-0.0029728783309459,0.0617512305140495,1.3070096500396728,0.9142658852279184,9.676065471756456
1757088919096106000,3.43610595703125,-0.0077010877430438,0.0368478745222091,0.0136975161731243,-0.0862369986034929,0.0074606182042509,0.0410737686663866,1.31057216482684,0.915204846578464,9.675493224826454
1757088919106152000,3.44615185546875,-0.0054959906265139,0.0414365008473396,0.0090295271947979,-0.0683843849182128,0.0320291692063212,0.018733926564455,1.3142673660829662,0.9157754130080342,9.67493968259692
1757088919116199000,3.456198974609375,-0.0058663850650191,0.0373359583318233,0.0086307153105735,-0.0476046317398548,0.0528217818662524,-0.0259013339757919,1.31802759539932,0.9162312670167536,9.67438438680172
1757088919126245000,3.4662451171875,-0.0069699995219707,0.0353303290903568,0.0047627403400838,-0.0134932494319975,0.0450203874003142,-0.0813508339971303,1.3214753977656364,0.9167004919636994,9.673868253973126
1757088919136292000,3.4762919921875,-0.0095493020489811,0.0289358757436275,0.0004307497292757,0.0216856159768998,0.0539990820173174,-0.1151332766115665,1.3246033205278216,0.9172986039873212,9.673384269848466
1757088919146338800,3.4863388671875,-0.0107924658805131,0.0223927553743124,-0.0076727168634533,0.0459504347920417,0.0342250718154013,-0.1017167456775903,1.3269741413123906,0.9180687115769832,9.672986794963478
1757088919156385000,3.496385009765625,-0.0091112628579139,0.0242804754525423,-0.0142180984839797,0.0403672278322279,0.0196054487019777,-0.0741214672654867,1.3291165601685642,0.9187720375407488,9.67262672947943
1757088919166432000,3.506431884765625,-0.0071330671198666,0.0269351154565811,-0.0168825909495353,0.0242133808888494,0.032675796546787,-0.0071329206198453,1.3316532390393316,0.9193186385728418,9.672226916506888
1757088919176478000,3.51647802734375,-0.0058358223177492,0.0261188428848981,-0.0131522631272673,-0.0507879379510879,0.0167368344631046,0.0127110130131244,1.3342292270071805,0.919695435995981,9.671834702318906
1757088919186525000,3.52652490234375,-0.0047468557022511,0.0221893489360809,-0.0092430096119642,-0.0816997935652732,0.0014266718022525,-0.0001028758525848,1.3365604464337228,0.9200417652156204,9.671480482053756
1757088919196571000,3.53657080078125,-0.0029219184070825,0.0187037792056798,-0.0110644502565264,-0.0643326253093779,-0.0034032325722277,-0.047835517886281,1.3384969674542546,0.9203825414773076,9.67117886875868
1757088919206618000,3.5466181640625,-0.0030018133111298,0.0128956930711865,-0.0101773515343666,-0.0819992149032652,-0.0060701136939227,-0.0775076025724411,1.340152333445847,0.9206551478736102,9.670923432692884
1757088919216665000,3.5566650390625,-0.0001517807831987,0.009982593357563,-0.0084284106269478,-0.0803730750061571,0.0006268997266888,-0.0650508565813303,1.341369454150647,0.920841537291184,9.670736970210076
1757088919226711000,3.5667109375,0.0027119163423776,0.0118627846240997,-0.0036560257431119,-0.087453827047348,0.0037089375205338,-0.0566775805115699,1.342464555910975,0.9207522515725344,9.670594346868992
1757088919236758000,3.576758056640625,0.0075744935311377,0.0150651885196566,-0.0040696458891034,-0.0557388383567333,0.0114353670541197,-0.0291577054232358,1.343819769912213,0.9202084270194172,9.670458153268694
1757088919246804000,3.586803955078125,0.0111828111112117,0.020469008013606,-0.0047218538820743,-0.0431752709902822,0.0207381790589541,-0.0230091196656227,1.3456209741152825,0.9192853208251296,9.670294487139582
1757088919256851000,3.596850830078125,0.0117872841656208,0.0249203369021415,-0.0080946665257215,-0.0499301520779728,0.0136839496985077,-0.0511287142127752,1.347587305752188,0.9181092627830802,9.67013140553236
1757088919266897000,3.60689697265625,0.0101142860949039,0.0217679534107446,-0.0124409459531307,-0.0456089278779923,-0.0029617724150419,-0.0554331334084272,1.349701083035767,0.9169483292449264,9.669949619224669
1757088919276944000,3.61694384765625,0.0060684122145175,0.0096542984247207,-0.0107216089963912,-0.0448889430403709,-0.0464106727149337,-0.060123921573162,1.3510760246507822,0.9159545689672232,9.66985083502531
1757088919286989800,3.62698974609375,0.0067986510694026,0.0034067889209836,-0.0076981224119663,-0.051445086685568,-0.0746373808983713,-0.0692541534900665,1.3514970265418291,0.915301219625026,9.66985258859098
1757088919297036800,3.637036865234375,0.0039364695549011,0.0019443136407062,-0.0096994442865252,-0.02472995210886,-0.0909513137742877,-0.0754576843053102,1.3514165086515246,0.9147063955370336,9.66992156217396
1757088919307083800,3.647083740234375,0.0029204736929386,0.0031880098395049,-0.0096179516986012,-0.0130757546722888,-0.0740570237271487,-0.096444942754507,1.3514344826996323,0.9142722419034688,9.669959556096792
1757088919317129700,3.657129638671875,0.0002938361139968,0.00465405639261,-0.0118621233850717,-0.0376280121266841,-0.070469739824906,-0.1238134266734123,1.3517454483449458,0.913976985283941,9.66994435852766
1757088919327177000,3.667177001953125,0.0019782856106758,0.0056652585044503,-0.0125843733549118,-0.0494704256117343,-0.0880078076682984,-0.1240583413451909,1.3522155500747262,0.9138577428184448,9.66988999799192
1757088919337223200,3.67722314453125,-6.9216126576e-05,0.0041018379852175,-0.0147494422271847,-0.0708031364977359,-0.0895556216321885,-0.0809118580579757,1.3527486340381203,0.9136099055372178,9.669839144587517
1757088919347270000,3.687269775390625,0.0011230811942368,-0.000761893345043,-0.008796477690339,-0.0850265999004244,-0.0702661070115864,-0.0403495460450649,1.3529063088178634,0.9134742233935744,9.66983096128106
1757088919357316000,3.697316162109375,0.0029229600913822,0.0014472715556621,-0.0050411047413945,-0.0886288621760904,-0.0860004864338785,-0.0094137250334024,1.3529166840814053,0.9130474493488668,9.66986720163822
1757088919367363000,3.707363037109375,0.0061760116368532,0.0090489983558654,-0.0025222867261618,-0.0701226068876683,-0.0617381518367677,-0.0035667525708675,1.3534148428618906,0.9124280753415076,9.669857849287986
1757088919377409000,3.717408935546875,0.0050334641709923,0.012844075448811,-0.0039365561679005,-0.0538474716521799,-0.0248160229571163,-0.0178612353831529,1.3544973774015905,0.9115684628374874,9.669784784051776
1757088919387456000,3.7274560546875,0.0050635579973459,0.0145386448130011,-0.0063563045114278,-0.0354594359159469,-0.0123953711926937,-0.0582931990146636,1.3558622360140085,0.9108194711010904,9.669666126108169
1757088919397503000,3.7375029296875,0.0059944335371255,0.0162566490471363,-0.0117158284410834,-0.0321929814659059,0.0101969843655824,-0.0623392595350742,1.3573833081014453,0.9100744248874484,9.669523502767085
1757088919407549000,3.747548828125,0.0057451617904007,0.0190252717584371,-0.0155057730153203,-0.047122985702753,0.0087451781220734,-0.0512917958199977,1.358995419473201,0.9089822457365692,9.669398415082693
1757088919417596000,3.757595947265625,0.0041563832201063,0.0211263839155435,-0.0128008816391229,-0.0716762660704553,-0.0112453243747353,-0.08196692006886,1.3608046608522533,0.9078739191684873,9.669249362000825
1757088919427641900,3.767641845703125,0.0030738082714378,0.0214347783476114,-0.0114927366375923,-0.0771323395192623,-0.0245811912879347,-0.0657967065125703,1.3625192096851766,0.9069939945288,9.669089203003049
1757088919437689000,3.777689208984375,0.004428437910974,0.0214829947799444,-0.0100603457540273,-0.0529589983798563,-0.0313598185773938,-0.0553244123369455,1.36423317399621,0.9059915394879876,9.668941318964958
1757088919447735000,3.787735107421875,0.0047607999294996,0.0180315375328063,-0.0078182304278016,-0.0588952565610408,-0.0501439409591257,-0.0846545517176389,1.3658299416683612,0.9051732819076628,9.668793434926869
1757088919457782000,3.797781982421875,0.0033556974958628,0.0161098130047321,-0.0076614082790911,-0.0495334078453481,-0.0465576799701899,-0.0993237130612134,1.3672418542928992,0.9045799191243946,9.668649642542004
1757088919467828000,3.807827880859375,0.003361822804436,0.015597952529788,-0.0085253380239009,-0.0462799590073525,-0.0419474096957594,-0.1015612628549337,1.3686277556933462,0.9041594286900012,9.668492990675569
1757088919477875000,3.817875,0.002807872602716,0.0184558387845754,-0.0083363084122538,-0.0687573098838329,-0.0364092839866876,-0.1049649338185787,1.3701552575215696,0.9038584729820488,9.6683041901052
1757088919487922000,3.827921875,0.0016933397855609,0.0192028563469648,-0.0080100717023015,-0.0996421313606202,-0.0245439280174672,-0.1174602582544088,1.3718607462652026,0.903664777040854,9.668081487265228
1757088919497967900,3.8379677734375,0.0013265716843307,0.0140899261459708,-0.0034543317742645,-0.122124158412218,-0.0366311100438237,-0.1005219829350709,1.3732441634476185,0.9034816024936736,9.667901454523204
1757088919508014800,3.848014892578125,0.0019156627822667,0.0095769334584474,-0.0021938574500381,-0.1023496367536485,-0.0244799959357827,-0.1004132618635892,1.374119484977424,0.9033014966864138,9.667793902495504
1757088919518060800,3.858060791015625,0.0010227999882772,0.0080816531553864,0.0004341623280197,-0.0537746986769139,-0.0516532495435327,-0.0735907213896513,1.3746259731948376,0.9029414312023668,9.667756493094563
1757088919528107800,3.868107666015625,0.0017983125289902,0.0067450124770402,0.0009414944797754,-0.0181410752378404,-0.0437353890910744,-0.052962359380722,1.3747561754457651,0.9025055240031332,9.66777812040448
1757088919538154000,3.878154052734375,-0.0006238830974325,0.0041636824607849,-0.0008855636697262,-0.0311504866756498,-0.0500255752764642,-0.0369733476102352,1.37489646069929,0.902061871888861,9.66779857867062
1757088919548201000,3.888200927734375,-0.0024332348257303,0.0017860125517472,0.0018598889000713,-0.0314509309269487,-0.0707164811275899,-0.0443149425446987,1.3748970452211795,0.9019535161435605,9.667807346498966
1757088919558247000,3.898246826171875,-0.0036596334539353,0.001841455232352,0.0002848396543413,-0.0288064077675342,-0.0796700413033366,-0.0621457827895879,1.3746468698523937,0.9020783846322448,9.667832480940222
1757088919568294100,3.908294189453125,-0.0033584297634661,0.0093979081138968,-0.0006392775103449,-0.042726358179003,-0.0758039404597133,-0.0357791693896055,1.374650815375149,0.9024019905634224,9.667801501280069
1757088919578340000,3.918340087890625,-0.0049355216324329,0.0120306489989161,0.003412814810872,-0.0576782819867134,-0.0775276224471628,-0.047238721036911,1.3749379617534576,0.9026292965132744,9.667739541959762
1757088919588387000,3.928386962890625,-0.0020558459218591,0.0125334532931447,0.0032229314092546,-0.0442225880861282,-0.0824674169369041,-0.0631570056587457,1.3753985650025309,0.9029303252864628,9.667646602979302
1757088919598434000,3.93843408203125,-0.002145689446479,0.0074432692490518,0.0067321667447686,-0.0004828150808811,-0.072222355645895,-0.0819178202301263,1.3761010141834615,0.9028608402468264,9.667553079476953
1757088919608480000,3.94847998046875,-0.0027073500677943,0.0057188724167644,0.0038828505203127,0.0073952248178422,-0.0665861763898283,-0.1154956801831722,1.3766032646171749,0.9030602352764456,9.66746189406216
1757088919618527000,3.95852685546875,-0.003991272766143,0.0079157631844282,0.0014436054043471,0.0076288874432444,-0.0514219250056892,-0.1001361984878778,1.3771174977496266,0.9033088032100348,9.667364278906582
1757088919628573000,3.968572998046875,-0.0053044771775603,0.0088526625186204,0.0019248386379331,0.0052056058190762,-0.0457611958302557,-0.0931119989395141,1.37789432734102,0.9036334320545196,9.667223993653058
1757088919638620000,3.978619873046875,-0.0079644108191132,0.0069806664250791,0.0029430580325424,-0.0191549284555017,-0.0650302521847188,-0.0934334859788417,1.3786124124825,0.9038985857967288,9.667095983359218
1757088919648665900,3.988665771484375,-0.0090312734246253,0.0017957580275833,0.0012913653627038,-0.0206397601857781,-0.0311518018499016,-0.0827180306971073,1.3789002895131706,0.9044368573918938,9.667004797944426
1757088919658712800,3.998712890625,-0.0068772644735872,-0.0019554134923964,0.0012124185450375,-0.0096153850853443,-0.038369989600405,-0.0441582906782627,1.3783502544149755,0.9047716423042118,9.66705331326127
1757088919668759000,4.008759033203125,-0.0046258280053734,0.0020105659496039,0.001608963124454,-0.0356209100879728,-0.0363499550148844,-0.0346715004086494,1.3778705080740152,0.9045474050942808,9.667142160588504
1757088919678806000,4.018805908203125,-0.0013354608090594,0.0092457812279462,0.0008529843762516,-0.0602304506875574,-0.0315009075485169,-0.0314671514093875,1.37853817820251,0.904187339610234,9.667080785790086
1757088919688853000,4.02885302734375,0.0006794868968427,0.008815680630505,0.0022684545256197,-0.0812882901549339,-0.0022630495611578,-0.0537953030735254,1.3796934857174754,0.9036801207404584,9.666963881412148
1757088919698899000,4.03889892578125,0.0006049439543858,0.004965451080352,0.0049216076731681,-0.09414543364048,0.0190630123883485,-0.0921691651314497,1.380430275559425,0.9034527417253704,9.666880879303813
1757088919708946200,4.0489462890625,-0.0006376869278028,0.0001059811620507,0.0081320479512214,-0.0467068061172962,-0.0072698448725044,-0.1150491054594516,1.3807260436356066,0.9031501785822212,9.66686626625657
1757088919718992100,4.0589921875,-0.0003789673792198,-0.0091186519712209,0.0097510889172554,-0.0198190914526581,-0.0103993750698864,-0.1123000990122556,1.3801736704498528,0.9029876814968884,9.66695862071514
1757088919729039000,4.0690390625,-0.0031582422088831,-0.0119786206632852,0.0092930253595113,0.0375099387049674,0.0048623453393578,-0.0895505070656537,1.3789602030068635,0.9032882718786596,9.667105335709453
1757088919739085300,4.079085205078125,-0.0019736681133508,-0.002302024513483,0.003970964346081,0.0410017263434827,0.0277292800553143,-0.0455050291121005,1.3781607231922446,0.9034654550764708,9.66720178182125
1757088919749132000,4.089132080078125,0.0016032234998419,0.0077905566431581,0.0021405736915767,-0.0127777946390211,0.0071548401907086,-0.0297919116735458,1.378221075077355,0.9033896864265204,9.66720119729936
1757088919759178200,4.09917822265625,0.0038183839060366,0.0110123408958315,0.0011352919973433,-0.0622903058268129,-1.1471242085e-05,-0.007698737809062,1.3791016573041677,0.9030743368670344,9.667104166665672
1757088919769225200,4.10922509765625,0.0060775433667004,0.0061693824827671,0.0030708773992955,-0.1038332994401454,-0.0004201981734484,-0.0384714772135019,1.3797934389606117,0.9025853112410752,9.66705272873938
1757088919779272200,4.119272216796875,0.0050728591158986,0.0013304431922733,0.002046997193247,-0.0646316082559526,-0.0264141788687556,-0.0807002611339092,1.3797972383528947,0.9022430006094276,9.667084877443314
1757088919789318100,4.129318115234375,0.0048622032627463,0.0001445375964976,0.0018453958909958,-0.0536542871676385,-0.0325949133303016,-0.0802963565081358,1.3797427316866815,0.901839680505544,9.66712988562882
1757088919799365000,4.139365234375,0.004247304983437,0.0074415011331439,-0.0019862481858581,-0.0129378075063228,-0.0335534561641514,-0.1024386302113533,1.3800273938469587,0.9014514849055558,9.667124624931812
1757088919809411000,4.1494111328125,0.003723993897438,0.0136000616475939,-0.006267013028264,-1.65127433836e-05,-0.0186928639017045,-0.1075374146550893,1.3813206485278904,0.9009562487345188,9.666985508722066
1757088919819458000,4.1594580078125,0.0045690331608057,0.0119515527039766,-0.0090169571340084,-0.024503303746134,-7.65723675489e-05,-0.0774374599456787,1.3827642714649435,0.9005956717938184,9.666813074764608
1757088919829504000,4.16950390625,0.0054369578137993,0.0080377710983157,-0.0086435824632644,-0.0550911881029605,-0.0302029766924679,-0.0668757339209318,1.3837231796249747,0.9000465865436941,9.666725981003044
1757088919839551200,4.17955126953125,0.0038336394354701,0.0069894664920866,-0.0076465066522359,-0.0474655155301094,-0.0471123912435024,-0.0412573085397481,1.3843278675198554,0.8994481091938913,9.666696170386672
1757088919849597200,4.18959716796875,0.0064432709477841,0.0079010659828782,-0.0024786421563476,-0.0550993714094162,-0.0629163287706673,-0.008483750706911,1.3847794106796385,0.8987918372422457,9.666693247777223
1757088919859644200,4.19964404296875,0.0055643012747168,-0.0015856703976169,-0.0008355772588402,-0.0419324313223361,-0.0719691846024245,-0.0447369673490524,1.38493036345765,0.8981183949600905,9.6667341643095
1757088919869691100,4.209691162109375,0.0036593424156308,-0.0097653027623891,0.0012808369938284,-0.014802432334423,-0.0699242347713559,-0.0733323627144098,1.384135705948621,0.8975696750361472,9.666898414960505
1757088919879737000,4.219737060546875,0.0019122008234262,-0.0091378986835479,-0.0011408436112105,0.006774462570995,-0.0499785212643444,-0.0881616830557584,1.3832093848839402,0.8972266337521374,9.667062081089616
1757088919889784000,4.2297841796875,0.002004079753533,-0.0044861552305519,-0.0060043083503842,0.0105016664005815,-0.0374087433528155,-0.0956044002771377,1.382624716863781,0.8969271393489092,9.667174893814323
1757088919899830000,4.239830078125,0.0030686976388096,-0.0002310296113137,-0.0094065461307764,-0.0097150460675358,-0.0103263828989118,-0.1015092404067516,1.382340054703504,0.8966299830332398,9.66724094478786
1757088919909877000,4.249876953125,0.0032993275672197,0.0044558676891028,-0.0120356185361742,-0.0285842894494533,-0.0097062782391905,-0.0886953515410423,1.3823559829249976,0.8960098053082823,9.66729764341116
1757088919919923000,4.2599228515625,0.004411076195538,0.0068982653319835,-0.0128786321729421,-0.0501660066604614,-0.0133787562068551,-0.067304188466072,1.3828379212230444,0.8951930820979177,9.667304657673837
1757088919929970000,4.269969970703125,0.0044494257308542,0.0115318987518548,-0.013425912708044,-0.0737597943462431,-0.030708661192283,-0.06958323931396,1.3833879563212397,0.8939679972823709,9.667338559943436
1757088919940016000,4.28001611328125,0.0081462683156132,0.010823268443346,-0.0085224322974681,-0.0741185446560382,-0.0494646534580737,-0.0444482135355472,1.384195327181369,0.892672550644353,9.667343236118557
1757088919950063000,4.29006298828125,0.0054647307842969,0.0108877168968319,-0.0059074740856885,-0.0820901080571114,-0.0759606653913855,-0.054577393361926,1.3852844375923274,0.8914856789473443,9.667298227933047
1757088919960110000,4.300110107421875,0.0043667093850672,0.0102637382224202,-0.0048581892624497,-0.0680441931784153,-0.0826053641028702,-0.0601665916711091,1.3865008276447652,0.8906484244056045,9.667200028255582
1757088919970156300,4.31015625,0.0025677443481981,0.006907622795552,-0.002681587357074,-0.0505227111436426,-0.0726182961609214,-0.0855079536765813,1.3875344084762036,0.8900886716309935,9.667102413100004
1757088919980203300,4.320203369140625,0.0026402901858091,0.0045582177117466,-0.0021219889167696,-0.0296985343016684,-0.0484725006155669,-0.1041489412605762,1.388109139624238,0.889884746556729,9.667038700214029
1757088919990249200,4.330249267578125,0.0001140155363827,0.0001895684399642,-0.0017267756629735,-0.0263503929175436,-0.0209320211306214,-0.1141758297562599,1.388202078604698,0.8897278024293481,9.667039284735916
1757088920000296200,4.340296142578125,-0.0010305289179086,-0.0018489476060494,-0.0036626714281737,-0.0163046535909175,-0.0185256906412541,-0.1145434940248727,1.3877338765710592,0.8897158197306096,9.66710884284079
1757088920010342100,4.350342041015625,-0.0006915084086358,0.0013529709540307,-0.0072102681733667,-0.0213631060242652,-0.0229623579144477,-0.1144675061792135,1.3872554454043506,0.8896633588910102,9.66718249259889
1757088920020389000,4.36038916015625,-0.0004773903638124,0.0097445910796523,-0.0088318679481744,-0.0214881937086582,-0.0028683219779282,-0.0700379973441362,1.3873808253496884,0.8893214866507798,9.667195352080464
1757088920030435000,4.37043505859375,0.0021141318138688,0.0111392885446548,-0.0080880466848611,-0.0438017323255538,-0.0066318392299115,-0.0373959569364786,1.3879960346385836,0.8885958757899701,9.667174309292434
1757088920040482000,4.38048193359375,0.0026154336519539,0.0055480673909187,-0.0050978362560272,-0.0638718759298324,-0.0234776870254427,-0.0339753348380327,1.3884642366722226,0.8876349218033254,9.667195352080464
1757088920050529300,4.390529296875,0.0003610679414123,0.0024364297278225,-0.0040605352260172,-0.0514836651302874,-0.0113861210849136,-0.0206838915884494,1.3886451461970806,0.8870651590913534,9.6672216555655
1757088920060575000,4.400574951171875,0.0037472080439329,0.0010972097516059,-0.001558928284794,-0.0442610204003751,-0.0205098501957952,-0.0153220722943544,1.3887548901818692,0.8866125199530274,9.667247959050536
1757088920070622200,4.410622314453125,0.0056207417510449,0.0038751526735723,-0.0001096362248063,-0.0526009787224233,-0.0142890759848058,-0.0321148016631603,1.3888652186885475,0.8860778285544365,9.667281276798247
1757088920080668200,4.420668212890625,0.0045782784000039,0.0001089117722585,0.0003965434152632,-0.0430512062191963,-0.0101259649559855,-0.0599608399659395,1.3890418904297053,0.8856557306848466,9.66729355175793
1757088920090715100,4.430715087890625,0.0063492804765701,-0.0046938331797719,-0.0024077652487903,-0.043901247177273,-0.0167292356785386,-0.1031377183914184,1.3888437375091016,0.8850762502964585,9.66737363125682
1757088920100761000,4.440760986328125,0.0036407951265573,-0.0043920245952904,-0.0034467941150069,-0.0252535375915467,-0.0284929579041898,-0.1227145255208015,1.388302762500197,0.8845696159485728,9.66749988798499
1757088920110808000,4.45080810546875,0.0039593093097209,0.0010211166227236,-0.0050918287597596,-0.0172993637166917,-0.036071868725866,-0.118903442800045,1.387980252547562,0.8842177337709813,9.667579382961987
1757088920120854000,4.46085400390625,0.0019821911118924,0.0060099675320088,-0.0047956290654838,-0.0416064142383635,-0.0368609002117067,-0.1094686749786138,1.3881955027334392,0.8839592289652675,9.667570030611753
1757088920130901000,4.47090087890625,0.0010809776140376,0.0063215573318302,-0.0014674770645797,-0.055122898415476,-0.0320723507609218,-0.0898082812190055,1.3886926386006175,0.8838096644267439,9.667511578422785
1757088920140948000,4.480947998046875,0.0009347762679681,0.006987384520471,-0.0011447207070887,-0.0670446607470512,-0.0351864641934633,-0.0770475838452577,1.3890925977036357,0.8836316775113343,9.667471246412395
1757088920150994200,4.490994140625,0.0006599380867555,0.0058515463024377,0.0019538672640919,-0.0448550407707691,-0.0415397787429392,-0.0410842900604009,1.389498548156023,0.8835505750991404,9.667420977529884
1757088920161041000,4.501041015625,0.001282439334318,0.0049966592341661,0.0023273662663996,-0.0398398429572582,-0.041126594832167,-0.0347556715607643,1.3898703040778635,0.8834367394611239,9.667377138388156
1757088920171087000,4.511087158203125,0.0046942150220274,0.0066022789105772,0.0009771436452865,-0.0265292566157877,-0.0255837193939834,-0.0445920059204101,1.3903257927604018,0.8831568996064364,9.667336221855878
1757088920181134300,4.52113427734375,0.0068830857053399,0.0081990985199809,1.79102644324e-05,-0.0170538645230233,-0.0274870687972754,-0.0589151303052902,1.3910261961147188,0.8825161905501038,9.66729647436738
1757088920191180300,4.53118017578125,0.0078319702297449,0.0117272539064288,-0.003468966577202,-0.0175846103988587,-0.0317842545345425,-0.0769528912991285,1.3920065854541956,0.8817256977595388,9.667228085306286
1757088920201227300,4.541227294921875,0.004113994538784,0.0167016517370939,-0.0044307149946689,-0.0312520473539829,-0.0216032714556902,-0.0886632028371095,1.3932541012972592,0.8809720298480243,9.667115857103466
1757088920211273200,4.551273193359375,0.0031813555397093,0.0266027525067329,-0.004644033499062,-0.0424114470109343,-0.0276426977504044,-0.0962216553926467,1.395135238868743,0.8804275477077811,9.666895492351054
1757088920221320200,4.5613203125,0.0008928823517635,0.0348947830498218,-0.0024352450855076,-0.0402082378782331,-0.043947351341322,-0.0607253945976495,1.3977207253172992,0.8799726435471326,9.666561145830151
1757088920231367200,4.5713671875,0.0027898517437279,0.0480430759489536,-0.0008890135213732,-0.0343909299015998,-0.0442164506062865,-0.0271545489072799,1.4014806623727083,0.8794935547932982,9.666060795092582
1757088920241413000,4.5814130859375,0.0039825420826673,0.0575362034142017,0.005233165808022,-0.0300634220913052,-0.0608081775102764,-0.0098684830635786,1.4064292246907948,0.8790265948686748,9.665382749700546
1757088920251460000,4.591460205078125,0.004655523225665,0.058893084526062,0.0080513227730989,-0.0532734711565077,-0.0596759586099535,-0.0132832599431276,1.4119827671647072,0.8786424909219145,9.6646088427186
1757088920261506000,4.601506103515625,0.005392343737185,0.0423177406191825,0.0102505860850214,-0.0379937766991555,-0.0537278638605028,-0.012473112604022,1.4167545116111635,0.8782311336420476,9.663950086548924
1757088920271553000,4.611552978515625,0.0038578300736844,0.0191290620714426,0.0083701284602284,-0.0441384169340133,-0.0193071233425289,-0.0625455957621335,1.419457633090019,0.8777779099818318,9.663593528196214
1757088920281599000,4.621598876953125,0.0035910517908632,0.0031608082354068,0.0043388959020376,-0.0255414146222174,-0.0179878574375063,-0.1199269406288862,1.420163881663233,0.8775063264988362,9.663513448697328
1757088920291646200,4.631646240234375,0.0016149862203747,-0.0032619372941553,0.0032501956447958,-0.0222622468210756,-0.0139187813676893,-0.1552998673051595,1.4198773198068142,0.8773278281267732,9.663571900886296
1757088920301692000,4.64169189453125,-0.0005485410802066,0.0013749180361628,0.0016888019163161,-0.0032968495883047,-0.0071815090019255,-0.1592290234476328,1.4196167691744863,0.8773241748649626,9.663609894809126
1757088920311739100,4.6517392578125,0.0013452327111735,0.0041789603419601,0.0015316754579544,-0.01669642938748,-0.0019593173742294,-0.1346528005957603,1.4198480937123297,0.877339226303622,9.663574823495743
1757088920321786000,4.6617861328125,0.0011631613597273,0.0036160156596451,0.0019221262773498,-0.038794863948971,-0.0279358354780823,-0.0936345615088939,1.4200995842553674,0.8771290176190435,9.663557287839057
1757088920331832000,4.67183203125,0.0014387986157089,0.0036426472943276,0.002449165796861,-0.0422165089607238,-0.0326019275929778,-0.0596370148390531,1.4203792779795823,0.8770069986745714,9.66352806174457
1757088920341879000,4.681879150390625,0.0037794322706758,0.0035624979063868,0.0036725851241499,-0.0248375041365623,-0.0496500199623405,-0.0282002585679292,1.4206567797467111,0.8766970559425652,9.663515202262998
1757088920351925200,4.69192529296875,0.0059757409617304,-0.0002335718745598,0.0028086558450013,-0.0261374808192253,-0.0546618567749857,-0.0235807820737361,1.4207600939907132,0.8763218659546226,9.663534491485358
1757088920361972000,4.701971923828125,0.00249406369403,-0.0034877129364758,-0.001042912248522,-0.0117301852822303,-0.0280797009281814,-0.0546188944160938,1.4205685169413684,0.875926583026722,9.663597619849442
1757088920372018200,4.71201806640625,0.0023414646275341,-0.0048126354813575,-0.0052933171391487,-0.0080550039008259,-0.0056632864587008,-0.0977957728415727,1.4201852167122064,0.875656241652742,9.66367711482644
1757088920382065200,4.722065185546875,0.0013822445180267,-0.0066457614302635,-0.0080751264467835,-0.0111785427488386,-0.0194151137616485,-0.1309627139061689,1.4197165762871502,0.8753422803327441,9.663774729982018
1757088920392111000,4.732111083984375,-0.0006992821581661,-0.0097307665273547,-0.0105313602834939,0.0050901627458631,-0.0357674058865755,-0.1264373454362154,1.419011496757716,0.8752342899136245,9.663890465316175
1757088920402158000,4.742157958984375,-1.38032482936e-05,-0.0138509320095181,-0.0081017948687076,-0.0035806349657475,-0.0412714101303368,-0.1170318037092685,1.417955850224942,0.8750520652145147,9.664061730229854
1757088920412205300,4.752205322265625,-0.000693708192557,-0.020201239734888,-0.0080099161714315,-0.0005529577076435,-0.0660964201115071,-0.1132177983790636,1.4164241106130182,0.8750373060368001,9.664286771157384
1757088920422251300,4.762251220703125,0.0044267387129366,-0.0238308124244213,-0.0087276939302682,0.0181796536825597,-0.0745891578424721,-0.0822848999768495,1.4143006887182592,0.874701425145939,9.664627547419071
1757088920432298200,4.77229833984375,0.0073519549332559,-0.0217711236327886,-0.011142648756504,0.0051579672850668,-0.0345680400341749,-0.080441317936778,1.4120599240541458,0.873885286457464,9.665030283001064
1757088920442344200,4.78234423828125,0.0082587171345949,-0.0131106814369559,-0.0176784619688987,-0.0043545419476926,0.0141499597750604,-0.0663935033619403,1.410499396739155,0.8729019014433026,9.665347678387164
1757088920452391200,4.79239111328125,0.0120566505938768,-0.00268334033899,-0.0263715516775846,-0.0723566495500504,0.0438612074278295,-0.0290273570418357,1.4099676279500126,0.871621798504889,9.66554057061076
1757088920462437000,4.80243701171875,0.0163396224379539,0.0042441706173121,-0.0287830680608749,-0.1167149928450584,0.0752948949590325,0.0069254153490066,1.4103317850872874,0.8698161373224109,9.665649291682245
1757088920472484000,4.812484130859375,0.0155681055039167,0.0174324102699756,-0.028630468994379,-0.1292880586922168,0.0521284658398479,0.031186580902338,1.411682907435298,0.8678433759447187,9.665629417937993
1757088920482530000,4.822530029296875,0.0090547353029251,0.0684725940227508,-0.0084745753556489,-0.1398573835015296,-0.0013447656724601,0.0130061965674161,1.4152191187374292,0.8662502615343779,9.665254739406704
1757088920492577000,4.832576904296875,0.0139056835323572,0.0583073124289512,-0.0086705852299928,-0.2075473564147949,-0.1007936394833028,0.0293377381652593,1.42215564000234,0.8651425925534219,9.664335870996116
1757088920502624000,4.8426240234375,0.0078053777106106,0.0136997113004326,-0.0162972453981637,0.1916859165467321,0.02811250721924,0.0396516269087791,1.425897164618224,0.863877321857959,9.66389923314452
1757088920512670000,4.852669921875,0.0058836401440203,0.0057371258735656,-0.0258739721029996,0.0045673079155385,-0.0123689946424216,-0.0919815336048603,1.4267157875247298,0.8630586258862167,9.663849548783896
1757088920522717200,4.86271728515625,0.0095588974654674,0.0418531373143196,-0.0196432285010814,-0.1085188269078731,-0.113540965918824,-0.0058463879406452,1.4290705339573322,0.8618785492561757,9.66360697219968
1757088920532763100,4.87276318359375,0.0056214141659438,0.0540030114352703,-0.0126273976638913,-0.1328209089934826,-0.0890370045855641,-0.0545639493584632,1.4340695112884043,0.8610173293169587,9.662944124376772
1757088920542810000,4.88281005859375,0.0009313658811151,0.02495021186769,-0.0119651863351464,-0.104818803346157,-0.0148857997689396,-0.1720861669331788,1.4379397768504916,0.8606376823496072,9.662402272585034
1757088920552856300,4.892856201171875,-0.0032090507447719,-0.0027131089009344,-0.011840283870697,-0.0923160262562334,-0.0163046535909175,-0.1703127275198697,1.4387547464951873,0.8607095785420388,9.662274262291191
1757088920562903000,4.902903076171875,-0.0058407550677657,-0.0038300990127027,-0.0068222624249756,-0.0601568009294569,-0.0603898790329694,-0.130574591371417,1.438169640083611,0.8609509860824793,9.662339728742838
1757088920572950000,4.912949951171875,-0.0064104050397872,0.0044960081577301,-0.0054416800849139,-0.0050688276968896,-0.0628760698255151,-0.1076706856459379,1.4379982290394604,0.8613423965528607,9.662332129958273
1757088920582996200,4.922996337890625,-0.0051461206749081,0.0089255105704069,-0.007201274856925,0.0438647145591676,-0.0229282364491373,-0.0720329705536365,1.438894008835405,0.8617966431263834,9.662156188869476
1757088920593043200,4.933043212890625,-0.0043130838312208,0.0051044076681137,-0.0079426988959312,0.0218552734553813,-0.0095074677314609,-0.0198147075384855,1.4396556408576666,0.862142387824133,9.662012981006503
1757088920603089200,4.943089111328125,-0.0040274402126669,-0.0008289223769679,-0.007108112797141,-0.009932049819082,0.0025619594424962,-0.0284434196740388,1.439868552955985,0.8623433172237127,9.661963881167768
1757088920613136100,4.95313623046875,-0.002271617995575,-0.0074684494175016,-0.0058795968070626,-0.0290390474796295,0.009972601025179,-0.030755788269639,1.4393734629154205,0.8624144827637821,9.662030516663194
1757088920623182000,4.96318212890625,-0.0010352705139666,-0.0114778019487857,-0.0059642163105309,0.0024631752431392,0.0033298020098358,-0.0654617754697799,1.438397019098699,0.8624732272136956,9.662170217394827
1757088920633229000,4.97322900390625,-0.0023655192926526,-0.0135774379596114,-0.0052110743708908,0.0030558804392814,-0.0015557050094008,-0.084784900099039,1.437205617357045,0.8625705501083284,9.662339728742838
1757088920643275000,4.98327490234375,-0.0014049118617549,-0.0224561132490634,-0.0010698789265006,-0.0169487967133522,-0.0343895416621118,-0.100592710083723,1.4355132803559305,0.8626336054071784,9.662585227936503
1757088920653322200,4.993322265625,-0.0039743296802043,-0.0400577448308467,0.005387753713876,-0.0267842542901635,-0.0429691539589315,-0.1213759703934192,1.4324790272265673,0.8628333657629788,9.663016020569204
1757088920663369000,5.003368896484375,-0.0040759863331913,-0.059702455997467,0.0068234396167099,-0.0290882934488356,-0.0512548978757113,-0.1048223104774951,1.4277511219218373,0.8633382465451955,9.663671269607544
1757088920673415000,5.013414794921875,-0.0045359139330685,-0.0665513053536415,0.0073933564126491,0.0324805662356317,-0.0524087440859526,-0.1523871947288513,1.4215474449761212,0.863743904736638,9.664549221485853
1757088920683462000,5.0234619140625,-0.0049485773779451,-0.0587090700864791,0.0059385765343904,0.037223522979021,-0.0818231276839971,-0.1227069267362356,1.4154586265817284,0.8642782308090478,9.665396193704009
1757088920693507800,5.0335078125,-0.0029938172083348,-0.0515094809234142,0.0055012851953506,0.0228559749305248,-0.0670826546698808,-0.1158159981787204,1.4100732802815734,0.8648006472479551,9.666136782938242
1757088920703554800,5.043554931640625,-0.0026857261545956,-0.0541025772690773,0.0078205596655607,0.0006580255173146,-0.0594026215612888,-0.1012502972096204,1.4050380625933407,0.8652011908728628,9.666833533030749
1757088920713600800,5.053600830078125,-0.0024830596521496,-0.0517542026937007,0.0059725921601057,-0.0251344412565231,-0.0192401225209236,-0.0658621729642152,1.4001546744659543,0.8655903363209217,9.667508655813336
1757088920723648000,5.06364794921875,-0.0009594020084477,-0.0643574669957161,0.0054116500541567,-0.0316004224002361,-0.0228848356988281,-0.0593067599713802,1.394649647308886,0.8657933115471154,9.668285485404729
1757088920733694000,5.07369384765625,-0.002266215160489,-0.0724995508790016,0.0025253160856664,-0.0602864186584949,-0.0352272345952689,-0.0623491964071989,1.3880205845579503,0.8658655730657279,9.669232995387912
1757088920743741000,5.083740966796875,-0.0010298308916389,-0.0788764804601669,0.0047579850070178,-0.0809295398451387,0.0057300680845975,-0.0613087474435567,1.3805319823682307,0.8660586114197969,9.670286888355015
1757088920753788000,5.093787841796875,-0.0023582156281918,-0.073185034096241,0.0068586864508688,-0.0664075318872928,-0.0169365217536687,-0.0617354484230279,1.3731921409994363,0.8662796337593346,9.671312724271417
1757088920763834000,5.103834228515625,-0.0039797509089112,-0.066542699933052,0.0089579746127128,-0.0685400138713419,-0.0409397670231759,-0.0672901599407196,1.3664967350140214,0.8666400645695627,9.672228085550666
1757088920773880800,5.113880859375,-0.0070426524616777,-0.0644851401448249,0.0175802260637283,-0.1154629469573497,-0.0180350575800985,-0.0449468107074499,1.3599990435577929,0.8673781695857643,9.67307914942205
1757088920783927000,5.123927001953125,-0.0074195712804794,-0.0608362145721912,0.0227031279355287,-0.1075717553161084,-0.0364580184992402,-0.0107248076319694,1.3537537194274365,0.8682934577997773,9.673873514670133
1757088920793974000,5.13397412109375,-0.0096486369147896,-0.0473076216876506,0.025895457714796,-0.1176936286188662,-0.0453354446988552,0.0034071780949831,1.3481639365963638,0.8693897286038845,9.674553898149728
1757088920804020000,5.14402001953125,-0.0066376938484609,-0.0258051604032516,0.0288170985877513,-0.1131985091567039,-0.037431466641277,0.0171773447722196,1.344267221418768,0.8704640067718923,9.67499988835156
1757088920814067000,5.15406689453125,-0.0040352530777454,-0.007926826365292,0.03092578984797,-0.1105352812968194,-0.0488458639726042,-0.0077075056374073,1.3423526199690996,0.8712541342362761,9.675195703184604
1757088920824113000,5.16411279296875,-0.0054776524193584,-0.0001253021182492,0.0303853414952754,-0.096690295817703,-0.0445472169306129,-0.0547030655682086,1.3416757436208426,0.8721928033258766,9.67520505553484
1757088920834159900,5.174159912109375,-0.0046779052354395,-0.0012595424195751,0.0276846289634704,-0.0663001259900629,-0.0211117616117,-0.0822071585655212,1.3413624398879709,0.872998712881282,9.675174075874686
1757088920844205800,5.184205810546875,-0.0052194339223206,-0.0091180335730314,0.0258794706314802,-0.0370798767246305,-0.0060009209152311,-0.1213040742009878,1.3405730430759488,0.8737494581833481,9.675215576928853
1757088920854253000,5.194253173828125,-0.0057424786500632,-0.0132014583796262,0.0216226745396852,-0.0066625266291201,-0.0155441906124353,-0.1314443599432706,1.339185095848888,0.8746135276667774,9.675329558697342
1757088920864300000,5.204300048828125,-0.0059260209091007,-0.0078207366168499,0.015605398453772,0.0228159351810812,-0.0096347473729401,-0.1182177986234426,1.3379885795406996,0.8754377035312354,9.675420159590244
1757088920874346000,5.214345947265625,-0.008228856138885,0.0013115092879161,0.0125981569290161,0.0186123460114002,-0.0029295506458729,-0.0906950009256601,1.337403473129123,0.8762147523183375,9.675432434549927
1757088920884393000,5.22439306640625,-0.0075959623791277,-0.0037812292575836,0.0101678613573312,0.0079226096928119,-0.0088391400158405,-0.0809264711052179,1.3371699566341937,0.8770363708995282,9.67539034897387
1757088920894439000,5.23443896484375,-0.0059767602942883,-0.0099983792752027,0.0089484006166458,-0.0255227099217474,-0.00544810933806,-0.0506248563438653,1.3361984812535346,0.8776855555232613,9.67546458325386
1757088920904486000,5.24448583984375,-0.0070125400088727,-0.0106908967718482,0.0087577421218156,0.0096317516982555,-0.003876403041929,-0.0260375275760889,1.335011317295581,0.8783586324792355,9.675568043628337
1757088920914531800,5.25453173828125,-0.0032532219775021,-0.0055973352864384,0.0082685193046927,0.0241280406929552,-0.0213398712791502,-0.0388280355662107,1.3341326347649096,0.878912978426367,9.675640524342656
1757088920924578800,5.264578857421875,-0.0020188388880342,-0.0003880124713759,0.0027739624492824,0.0309375745773315,-0.0084558397866785,-0.0256722013950347,1.3337578101031482,0.8793466206032782,9.67565163025856
1757088920934625000,5.274625,-0.0022132496815174,0.0004892327706329,0.0011004318948835,0.019549772991985,0.011448299600929,-0.0340226811110973,1.3337721308894457,0.879643557723239,9.675621819642185
1757088920944671700,5.284671630859375,-0.0022928284015506,-0.0003635831235442,-0.0002962672151625,0.0001741875231266,-0.0059100277613848,-0.0492617512971162,1.3338444654732942,0.8797937067836522,9.6755984387666
1757088920954719000,5.294718994140625,0.0002624747576192,0.001413278048858,-0.0018406342715024,-0.0017899521566927,-0.0084126582320779,-0.0520721325427293,1.334012807777524,0.8799020625289529,9.675565121018886
1757088920964765200,5.30476513671875,-0.0028427394572645,-0.0007593892514705,-0.0011297438759356,0.009355711235851,-0.0114335404232144,-0.0749532419145107,1.334090110797435,0.8799299734491854,9.675551677015424
1757088920974812000,5.31481201171875,-0.0011646816274151,-0.0035407948307693,-0.0018698361236602,-0.0011795651733875,-0.0230867880117148,-0.0630032764017582,1.3338522103883326,0.8800614178091287,9.675573304325342
1757088920984858000,5.324858154296875,-0.0008599710999988,-0.0042016343213617,-0.0035663868766278,-0.0009561316810548,-0.026459698510915,-0.062598787254095,1.3334795776836574,0.8801421548951417,9.675618897032738
1757088920994905000,5.334905029296875,0.002405596897006,0.0018940747249871,-0.0059789447113871,-0.0123429103530943,-0.0021250293299555,-0.0428530532985925,1.3334936062090097,0.8800489236537367,9.675623573207854
1757088921004951000,5.344950927734375,0.0033834385685622,0.0131352189928293,-0.0055805314332246,-0.0415478159189224,0.0045118514012545,-0.046035774987936,1.33441627401188,0.879846313753724,9.675514852136374
1757088921014998000,5.354998046875,0.0040585501119494,0.0217161886394023,-0.0059424545615911,-0.0582980213202536,0.0074465896788984,-0.0647948359936475,1.336353087293357,0.8796051254089922,9.675269352942705
1757088921025044000,5.3650439453125,0.0055713914334774,0.0245352908968925,-0.004590893164277,-0.0699799835465848,0.0130424369245767,-0.0643798254519701,1.338608026613295,0.8790969566911458,9.675005733570456
1757088921035091000,5.375091064453125,0.005528780631721,0.0239893421530723,-0.0028377340640872,-0.0646095425546169,0.0073600073739886,-0.0599105710834264,1.3410187410168348,0.8784945338185877,9.674725163063409
1757088921045137000,5.385136962890625,0.006902317982167,0.0185943245887756,0.0025254811625927,-0.0562101091302931,-0.0192409262385219,-0.0574351208806037,1.34309364759475,0.8778614235468208,9.67449369239509
1757088921055184000,5.395183837890625,0.0056074890308082,0.0137737356126308,0.0087996218353509,-0.0671311699867248,-0.0449545556224882,-0.0698544574707746,1.344587393283844,0.8772389807995409,9.67434405479133
1757088921065230800,5.40523095703125,0.0100179640576243,0.0115443551912903,0.0137912407517433,-0.0545626341842114,-0.0637033874951303,-0.0615419716775417,1.3456355871625243,0.8765349972486496,9.674262806248665
1757088921075276800,5.41527685546875,0.0075420220382511,0.0111363586038351,0.0139028280973434,-0.0199953248023986,-0.0732469494532793,-0.1096580600708723,1.3465322437413036,0.8759029098901897,9.674194417187572
1757088921085324000,5.425323974609375,0.0063851769082248,0.0061521916650235,0.0091776736080646,0.0042972588025033,-0.0788321291744709,-0.1287847853451967,1.34707994075194,0.8753531670529395,9.674166944658756
1757088921095370000,5.435369873046875,0.0043680989183485,-0.0004876015009358,0.0067688450217247,0.0177342480026185,-0.0929439488962292,-0.1440805541545152,1.3471098974987863,0.8749500661447643,9.674199677884578
1757088921105417000,5.4454169921875,0.0010173860937356,-0.0067952023819088,0.0053272517397999,0.0098749128043651,-0.083545567562431,-0.1696019489020109,1.3465893807560203,0.8748291431788354,9.674283264514804
1757088921115463000,5.455462890625,-0.0040519414469599,-0.0091236038133502,0.0062503032386302,-0.0289139597952365,-0.0780881789393723,-0.1403805305927991,1.3455756736688316,0.8752076941676438,9.674390816542504
1757088921125510000,5.465510009765625,-0.0064641241915524,-0.0081951897591352,0.0066612977534532,-0.0258158476494252,-0.0813115979652851,-0.1174275250285863,1.344571903453767,0.8757374901954084,9.674483171001077
1757088921135556000,5.47555615234375,-0.0046302718110382,-0.0096021378412842,0.0075433366000652,-0.0614298896051943,-0.0580737110450863,-0.1045043305695056,1.3435242940969765,0.8762920553382486,9.674576694503426
1757088921145602800,5.485602783203125,-0.0043829404748976,-0.0162095371633768,0.0098653715103864,-0.0779929018713533,-0.0118918786499649,-0.09793138191998,1.3421310861729083,0.876647444647178,9.67473743802309
1757088921155649000,5.49564892578125,-0.002489965641871,-0.0139032397419214,0.0120925717055797,-0.0831552530705928,-0.005732990694046,-0.1035112278789281,1.3405597452029585,0.876922973652929,9.674930914768575
1757088921165696000,5.505696044921875,0.0012621043715626,-0.0083186980336904,0.0136878667399287,-0.0478663514159619,-0.0143123107299208,-0.0899023892432451,1.339388509466499,0.8769731694702059,9.67508990472257
1757088921175743000,5.515742919921875,0.000464487588033,-0.0013838270679116,0.0106974029913544,-0.0229999134458601,-0.0011584493201225,-0.0693307258576154,1.338913293170184,0.8768376334570348,9.67516647709012
1757088921185789000,5.525788818359375,0.0015062973834574,0.0086395237594842,0.0065287207253277,-0.0303647431254386,0.0125867290463298,-0.0403957232743501,1.3393945008158683,0.8767094039674848,9.67511211655438
1757088921195836200,5.535836181640625,0.0013275993987917,0.0052874032407999,0.0053135203197598,-0.0563816663049161,0.0371766150973737,-0.0452507620900869,1.3401223766990005,0.8765105203945189,9.675030283489823
1757088921205882000,5.545882080078125,-0.0003273886395618,-0.0072841718792915,0.0053292410448193,-0.0767113376282155,0.0484148521441966,-0.020300445228815,1.3399519885681568,0.8763454660259187,9.675069446456432
1757088921215929000,5.55592919921875,0.0002481203991919,-0.0126286027953028,0.0099231945350766,-0.0716753892876207,0.0227349058341234,-0.0093769001543521,1.338806910186261,0.8764373090278357,9.675216745972632
1757088921225975000,5.56597509765625,-0.0001895718742161,-0.0065618599765002,0.0125195933505892,-0.0465842026509344,0.0007081482693552,0.0108311906158924,1.337657447890192,0.8766170495089143,9.675359953835606
1757088921236022000,5.57602197265625,-0.0008452421170659,-0.0064209788106381,0.0133976377546787,-0.0296224003255367,-0.021178981629014,0.0062479544788599,1.3368569451622665,0.8768067268621176,9.675454646381736
1757088921246068000,5.58606787109375,0.0012946077622473,-0.0068305730819702,0.0111733665689826,0.0005167173504829,0.0013159779693931,-0.0266255565971136,1.3360467978231607,0.8769072646271436,9.67555752223432
1757088921256115000,5.596114990234375,0.0038504432886838,-0.0115390419960021,0.0032182377763092,0.0248572317503392,0.0060213791813701,-0.0704629447579383,1.3350494573488831,0.8768404099360108,9.675699561053516
1757088921266162000,5.606161865234375,0.006041033193469,-0.0134187247604131,-0.0022783649619668,0.0340704657755792,-0.0181783385083079,-0.0958095674604177,1.333766724061966,0.8764994875438511,9.675907650846243
1757088921276207900,5.616207763671875,0.0057345032691955,-0.0149148888885974,-0.0084137553349137,0.0218377377986907,-0.0374631038885563,-0.1360100604236125,1.332382868488133,0.8758826708197593,9.676155488127469
1757088921286254800,5.6262548828125,0.0058478014543652,-0.0129363527521491,-0.0098968213424086,0.0276079917632043,-0.0362318085279315,-0.1326724404335021,1.330951228249818,0.8752497066784649,9.676408586105705
1757088921296300800,5.63630078125,0.0027433545328676,-0.0046419384889304,-0.0114710163325071,0.0287663680180907,-0.0354315980609506,-0.13582827411592,1.330092419463396,0.8747489175494759,9.676571083191035
1757088921306347800,5.64634765625,0.0037151363212615,0.0012164458166807,-0.0117852492257952,0.0303786255203187,-0.0433113184601068,-0.0830471165210008,1.330126175602525,0.8742489321380853,9.676612584245204
1757088921316393700,5.656393798828125,0.0046626888215541,0.0026604116428643,-0.0144156524911522,-0.0082543258652091,-0.0557312395721673,-0.0709352384448051,1.3304530694693326,0.8736505278535187,9.676624274682998
1757088921326441000,5.66644091796875,0.0084576234221458,0.0007884168880991,-0.015217793174088,-0.003368015128374,-0.0377175901062786,-0.0533235939085483,1.3306537066079676,0.8728451297547668,9.676667529302836
1757088921336487200,5.676487060546875,0.012060347944498,0.0094311730936169,-0.0196687337011098,-0.0270832372367382,-0.0375333926457911,-0.0301484700262546,1.331324153215438,0.8716134690679609,9.676686818525194
1757088921346534000,5.686533935546875,0.0128576150164008,0.0151946526020765,-0.0190449766814708,-0.0553108222030103,-0.0327071415331214,-0.0478735118091106,1.3329163908429442,0.8700793183032423,9.676605569982527
1757088921356580000,5.696580078125,0.0157532710582017,0.0089591275900602,-0.0188662782311439,-0.0748024352669715,-0.0177303024798631,-0.0584364068776369,1.334451345325261,0.8684200798541307,9.676543026140331
1757088921366627000,5.706626953125,0.0151934567838907,0.0036280232015997,-0.0201523564755916,-0.0423613242588937,-0.0081751231491565,-0.0580178892046213,1.3353800044775008,0.866646055918932,9.676574590322376
1757088921376674000,5.716674072265625,0.0167668517678976,-0.0019307930488139,-0.0216533150523901,-0.0150995155848562,-0.0011523118402808,-0.0832587134450674,1.3358010063685477,0.8648604876764118,9.6766751280874
1757088921386720000,5.726719970703125,0.0138302920386195,-0.0091822780668735,-0.021319018676877,-0.0170576639153063,-0.0145742496017366,-0.100072485601902,1.3355142983816564,0.8630193167891352,9.676878541705012
1757088921396767000,5.73676708984375,0.0109852366149425,-0.0150225907564163,-0.020467871800065,-0.0240285258412361,-0.0148527012169361,-0.1301180797755718,1.3345546595692634,0.8615022632896899,9.677146837252378
1757088921406813000,5.74681298828125,0.0083293616771698,-0.0148150455206632,-0.0199634581804275,-0.0150724814474582,-0.0279254602145403,-0.1202408288836479,1.3332304252281784,0.8602098123263567,9.677444943416118
1757088921416860000,5.75685986328125,0.0070875296369194,-0.0170715413987636,-0.0194896813482046,-0.0391441157780587,-0.0646702597659081,-0.0912187325388193,1.3317134447939694,0.85909637119174,9.677752986451983
1757088921426905900,5.76690576171875,0.0063241268508136,-0.0155218234285712,-0.0167947225272655,-0.0406686949968338,-0.0469793394483625,-0.0966115314930677,1.3300960727252065,0.858164789430052,9.67805693783462
