time,seconds_elapsed,z,y,x
1757088915680285700,0.02028564453125,-8.968709814083576,-1.30931821924299,3.744104110983014
1757088915690331600,0.03033154296875,-8.967226297527551,-1.3338225459024309,3.7390041574954984
1757088915700378600,0.040378662109375,-8.962812572738528,-1.366039492765814,3.737955525225401
1757088915710424600,0.050424560546875,-8.956611380010843,-1.4042214855134487,3.738671272279322
1757088915720471600,0.060471435546875,-8.950515401223301,-1.4446430738814173,3.737869600507617
1757088915730517500,0.070517578125,-8.945470392793416,-1.4828183446273207,3.7349957986369726
1757088915740564500,0.080564453125,-8.941105183321238,-1.5179282364532352,3.731341952304542
1757088915750610700,0.090610595703125,-8.936965014776588,-1.5528225858323275,3.7269001704648135
1757088915760657700,0.10065771484375,-8.931335484457016,-1.5909240606896577,3.7243244747579096
1757088915770703600,0.11070361328125,-8.92228124038577,-1.6346958362683652,3.727070558595657
1757088915780750600,0.12075048828125,-8.91053235040307,-1.6845003161400556,3.7329952724695206
1757088915790796500,0.130796630859375,-8.89359699769318,-1.7399160600222645,3.7479341906651853
1757088915800843800,0.14084375,-8.868733774593473,-1.7997858607038855,3.778453539830446
1757088915810889700,0.1508896484375,-8.836981376501917,-1.8620988167539239,3.8223978954970836
1757088915820936700,0.160936767578125,-8.798881070688367,-1.925037649617344,3.87869933617264
1757088915830982700,0.170982666015625,-8.751941624858976,-1.9893239515669643,3.9517710021242496
1757088915841029600,0.181029541015625,-8.700347631222009,-2.0537512694224715,4.031928534683585
1757088915851075600,0.19107568359375,-8.647724879059195,-2.1143625361211598,4.112992952954769
1757088915861122600,0.20112255859375,-8.594806358820199,-2.1687878076612948,4.194764350451528
1757088915871168500,0.21116845703125,-8.543399996709823,-2.2167937136784195,4.273936379104852
1757088915881215500,0.221215576171875,-8.49286632578075,-2.258799356367439,4.351944916936755
1757088915891261700,0.23126171875,-8.44411310852766,-2.2950918821066617,4.427176975792646
1757088915901308400,0.241308349609375,-8.397215748274325,-2.3242846588432786,4.500539441384375
1757088915911354600,0.251354736328125,-8.348810321545601,-2.3466566496491432,4.578313585938513
1757088915921401900,0.26140185546875,-8.295969542717932,-2.3668318610630927,4.663194055366516
1757088915931447600,0.271447509765625,-8.237776296946405,-2.3924822890177366,4.75241635339111
1757088915941494800,0.281494873046875,-8.174047044357657,-2.426122985073924,4.844509822937846
1757088915951540700,0.291540771484375,-8.101485666015744,-2.46401783144325,4.946204356783628
1757088915961587700,0.301587646484375,-8.0219491879642,-2.502434948121011,5.055347453069687
1757088915971633700,0.311633544921875,-7.936166508999467,-2.538718852162361,5.1713201031148435
1757088915981680600,0.3216806640625,-7.843765288677811,-2.573309688550234,5.293751720041036
1757088915991726600,0.3317265625,-7.7449968714118,-2.6052558556482195,5.421996991682052
1757088916001773600,0.341773681640625,-7.63938136473,-2.6347134208008645,5.555944274356961
1757088916011819500,0.351819580078125,-7.531876683300733,-2.6609786196529863,5.688620806443691
1757088916021866500,0.361866455078125,-7.430905203032493,-2.6799019313096997,5.81120965975821
1757088916031912400,0.371912353515625,-7.341039054146409,-2.6854005287259817,5.921837441644072
1757088916041959400,0.38195947265625,-7.256267598050832,-2.675579976457357,6.0297793454468245
1757088916052005600,0.392005615234375,-7.165628126704693,-2.6540982124894854,6.14653759291172
1757088916062052600,0.402052490234375,-7.072429034003615,-2.6202710539504883,6.2677989970147605
1757088916072098800,0.412098876953125,-6.980003263762593,-2.5820193569675087,6.386166433241963
1757088916082145800,0.422145751953125,-6.899593510007858,-2.5384081787779924,6.49018327255547
1757088916092191700,0.432191650390625,-6.8344286716580385,-2.4876041664749384,6.578205839401483
1757088916102238700,0.44223876953125,-6.785913354814052,-2.432057051298022,6.648823682460188
1757088916112284700,0.45228466796875,-6.74813161343038,-2.3758229767702517,6.707352443796396
1757088916122331600,0.46233154296875,-6.707336661705375,-2.32657174686715,6.765285577327012
1757088916132377600,0.472377685546875,-6.65219695828557,-2.295086913670599,6.830171014213562
1757088916142424600,0.482424560546875,-6.58266749498546,-2.2845514911308884,6.900702348032594
1757088916152470500,0.492470458984375,-6.508276563128828,-2.286907114346325,6.970134196177124
1757088916162517500,0.502517578125,-6.438327413111924,-2.2894966924481093,7.033956387746334
1757088916172563500,0.5125634765625,-6.377235523289442,-2.286567068737,7.090335862094164
1757088916182610400,0.5226103515625,-6.333302858060598,-2.277869821409881,7.132388120403886
1757088916192656600,0.53265673828125,-6.309413448429107,-2.264199315714836,7.157869183140993
1757088916202703600,0.54270361328125,-6.3041246943712235,-2.247799531186372,7.1676903199315065
1757088916212749800,0.552749755859375,-6.313564138367772,-2.230675085645169,7.1647308856040235
1757088916222796800,0.562796875,-6.332652869719267,-2.2155381606593725,7.152571661254763
1757088916232842800,0.5728427734375,-6.355507091084123,-2.205051107306033,7.135521157732605
1757088916242889700,0.5828896484375,-6.371079923269153,-2.1988285795293745,7.123543719691038
1757088916252935700,0.592935791015625,-6.364838398531079,-2.1975329867608844,7.129521040534973
1757088916262982700,0.602982666015625,-6.335993996840715,-2.200569139586389,7.1542340415090315
1757088916273028600,0.613028564453125,-6.295929112955927,-2.1937148897774517,7.191611293745041
1757088916283075600,0.62307568359375,-6.2580941800802945,-2.161981196386367,7.234118310084939
1757088916293121500,0.63312158203125,-6.230697054588794,-2.0989375879742203,7.276212069448828
1757088916303168500,0.64316845703125,-6.221171101352572,-2.010270293483883,7.309324649977683
1757088916313214500,0.65321435546875,-6.219707458540797,-1.9096663313537834,7.33749334436357
1757088916323261700,0.66326171875,-6.210412391451001,-1.8039860888727008,7.372028651171922
1757088916333307600,0.6733076171875,-6.186264038622379,-1.702405390664935,7.416357037720084
1757088916343354600,0.683354736328125,-6.150555596381426,-1.6097157087907195,7.466582665613293
1757088916353400800,0.69340087890625,-6.094153325679898,-1.5227823984861373,7.530791226151585
1757088916363447600,0.703447509765625,-6.002071254310011,-1.4412015551254151,7.620266329893469
1757088916373493800,0.71349365234375,-5.878398112890124,-1.3687906911700962,7.729245175528526
1757088916383540700,0.723540771484375,-5.7203001392990345,-1.3096071191869676,7.857066084277629
1757088916393586700,0.733586669921875,-5.528782711187005,-1.2748738055884838,7.9986027991682285
1757088916403633700,0.743633544921875,-5.3100394224971526,-1.2715661423452198,8.145979472258686
1757088916413679600,0.7536796875,-5.059513340577483,-1.294087770754844,8.300424184039235
1757088916423726600,0.7637265625,-4.78501747726649,-1.331315093126148,8.45586141398847
1757088916433772500,0.7737724609375,-4.502750687693059,-1.3712747630707918,8.603210030028224
1757088916443819500,0.783819580078125,-4.2310944317221635,-1.4036255654469132,8.734875923767685
1757088916453865500,0.793865478515625,-4.003310927486419,-1.41804323624745,8.8392890689224
1757088916463912700,0.80391259765625,-3.842257026699185,-1.4033571237690745,8.912801464378834
1757088916473958700,0.813958740234375,-3.7441725000441073,-1.3522509136490524,8.962308714869618
1757088916484005600,0.824005615234375,-3.696477267411351,-1.2633512717075646,8.995020897904038
1757088916494051600,0.834051513671875,-3.6934237250596285,-1.1375018822271377,9.01305222915709
1757088916504098600,0.8440986328125,-3.6960534890413284,-0.97546116235964,9.030948535853623
1757088916514144800,0.854144775390625,-3.62796808706969,-0.7934408997807652,9.076270609614253
1757088916524191700,0.864191650390625,-3.4405621859297155,-0.6287329334653914,9.16174816815257
1757088916534237700,0.87423779296875,-3.1393688698291777,-0.5158905077373609,9.276237886163592
1757088916544284700,0.88428466796875,-2.7709724875494834,-0.47143853134214875,9.395203872805833
1757088916554330600,0.89433056640625,-2.384463379343599,-0.48629788149558006,9.499907525339722
1757088916564377600,0.904377685546875,-2.002938489291072,-0.5318852551288903,9.58518225478232
1757088916574423600,0.914423583984375,-1.6327384185902774,-0.5785311979044229,9.65245254097879
1757088916584470500,0.924470458984375,-1.278404756193608,-0.6024097573483362,9.704286188590526
1757088916594516500,0.9345166015625,-0.9474147061139344,-0.5934158286295831,9.742722594490647
1757088916604563700,0.944563720703125,-0.6342272930979729,-0.5531081124322489,9.770476278334856
1757088916614609700,0.954609619140625,-0.32739122187010944,-0.4888519498925656,9.788983994928001
1757088916624656600,0.96465673828125,-0.023235866209759842,-0.40946810511946674,9.79807097222507
1757088916634702600,0.97470263671875,0.27733368055280294,-0.32295740414112806,9.797405201792717
1757088916644749600,0.98474951171875,0.571622331831418,-0.23688019920922815,9.787110602271555
1757088916654795500,0.99479541015625,0.8393042408112436,-0.1594265005148016,9.76936744031012
1757088916664843000,1.004843017578125,1.0502970615047962,-0.09785321125038898,9.749753808301687
1757088916674889000,1.014888916015625,1.1929913489326833,-0.05326826069185044,9.73366951946318
1757088916684936000,1.02493603515625,1.2715585435606538,-0.019696992593083995,9.723843706497549
1757088916694982100,1.034982177734375,1.297273122792691,0.01198758497624658,9.720458155712485
1757088916705029000,1.045029052734375,1.2972351288698614,0.05041260183267295,9.720339497768878
1757088916715075000,1.055074951171875,1.3056357313379645,0.09721017323965206,9.718861241909861
1757088916725122300,1.065122314453125,1.3449838452555238,0.14695248372848144,9.712868138974905
1757088916735168300,1.075168212890625,1.419000829233229,0.19181067543756217,9.701546534493565
1757088916745215200,1.08521533203125,1.5181336958974598,0.22646770892944185,9.685780225563049
1757088916755261200,1.09526123046875,1.6299163469068705,0.24650753046069293,9.66710767379701
1757088916765308200,1.10530810546875,1.7443740623444317,0.2505733551274985,9.64700713505447
1757088916775354000,1.11535400390625,1.8547905395671724,0.24476068679336457,9.626537178477644
1757088916785401000,1.125401123046875,1.954335055772215,0.2394674757560715,9.606957448738813
1757088916795447000,1.135447021484375,2.045455880894512,0.23983104837145655,9.587960487323999
1757088916805494000,1.145493896484375,2.1261909210808576,0.24681897103004155,9.5702038813591
1757088916815540000,1.1555400390625,2.196929467909783,0.25955743830567224,9.553872924283146
1757088916825587000,1.1655869140625,2.2626114620015025,0.2723715828997083,9.538176173457503
1757088916835633200,1.175633056640625,2.3235699347026646,0.27727601381512357,9.523369064947962
1757088916845680000,1.18568017578125,2.37319671991989,0.27066034026872365,9.511313885495067
1757088916855726300,1.195726318359375,2.404750234438479,0.25637911879681047,9.503778813815117
1757088916865773300,1.205773193359375,2.417703385644406,0.2413112039266154,9.500888353070616
1757088916875819300,1.2158193359375,2.4151085468456146,0.23066952626714482,9.50181131313443
1757088916885866200,1.2258662109375,2.4112470491118727,0.22935310990633442,9.502822536003588
1757088916895912200,1.235912109375,2.414871230958402,0.23965218467321245,9.501651154136658
1757088916905959200,1.245959228515625,2.42918880238533,0.26225325326090676,9.497402264520526
1757088916916005000,1.256005126953125,2.459254270303249,0.2955303949680179,9.48868353601396
1757088916926052000,1.266052001953125,2.5094597321912646,0.33301614907979965,9.474287346392869
1757088916936098000,1.27609814453125,2.574493929898739,0.3657328621588647,9.455611287495493
1757088916946145000,1.28614501953125,2.6397920392394063,0.38988172644414004,9.436623093909025
1757088916956191000,1.29619091796875,2.6877453382864593,0.4122604392517358,9.422126951044797
1757088916966238000,1.306238037109375,2.7074431414470075,0.43739035046361385,9.41534941973388
1757088916976284000,1.316283935546875,2.6953692572936414,0.46541868653073903,9.417470065149665
1757088916986331100,1.3263310546875,2.653162685205042,0.4966034408021718,9.427857019129394
1757088916996377300,1.33637744140625,2.5864079473152755,0.5330241960309445,9.444405418348312
1757088917006424000,1.346424072265625,2.49840934586674,0.5735948009481653,9.465693705570697
1757088917016470300,1.35647021484375,2.3881954054787755,0.617081074116379,9.491372921228407
1757088917026517200,1.366517333984375,2.2449515944093466,0.6660893621090799,9.522965160322189
1757088917036563200,1.376563232421875,2.0493841602541507,0.7246927230514586,9.562700373861194
1757088917046610200,1.386610107421875,1.838100247659534,0.7888407855741679,9.600495559248328
1757088917056656100,1.39665625,1.6672690492235123,0.8490609340634196,9.626510874992608
1757088917066703000,1.406703125,1.5621946636810897,0.8972654313925653,9.639753802925348
1757088917076749000,1.4167490234375,1.5073812696062028,0.9321197410222143,9.645172905364632
1757088917086796000,1.426796142578125,1.4698418125458061,0.958800096546486,9.648350950878857
1757088917096842000,1.436842041015625,1.4257088024392723,0.9750935711562633,9.653339260685444
1757088917106889000,1.446888916015625,1.290263390161097,0.9789666862625628,9.671982001835108
1757088917116935000,1.456934814453125,1.1470505587518214,0.9696867436766624,9.690942138370872
1757088917126982100,1.466982177734375,1.0412288619734347,0.95445410323143,9.70439198705256
1757088917137028000,1.477028076171875,0.9570178893048316,0.9475156092051417,9.713739076590537
1757088917147075000,1.487074951171875,0.8983545418035238,0.9442317652288824,9.719659114289284
1757088917157121300,1.497121337890625,0.8538695764541625,0.941236236674711,9.723959441831708
1757088917167168300,1.507168212890625,0.822352886814624,0.9403002709988504,9.726765731424093
1757088917177214200,1.517214111328125,0.798553128227964,0.9445107283007353,9.728341602438688
1757088917187261200,1.52726123046875,0.7752172608260065,0.9525932047303766,9.72943933454752
1757088917197307100,1.53730712890625,0.7495435981262475,0.9614617169711738,9.730579152232409
1757088917207354000,1.54735400390625,0.7258654200926422,0.9676054073579609,9.731765731668471
1757088917217400000,1.557400146484375,0.7074249235168099,0.9699526280712336,9.732890936306118
1757088917227447000,1.567447021484375,0.6894434958200901,0.9697624392613768,9.734198511773346
1757088917237494300,1.577494384765625,0.6747789375863968,0.9683305798273533,9.73536755555272
1757088917247540200,1.587540283203125,0.6671659783646464,0.9665501992166041,9.736070735386013
1757088917257587200,1.597587158203125,0.6616105361945926,0.9655223905388265,9.736551796901226
1757088917267633200,1.607633056640625,0.6485715333361178,0.967441156706959,9.737237441077827
1757088917277680000,1.61768017578125,0.6344767378143966,0.9727205584146081,9.737641930225491
1757088917287726000,1.62772607421875,0.6246113965559751,0.9812447141971439,9.737422734516858
1757088917297773000,1.63777294921875,0.6230445856306701,0.9912170960266142,9.736513218456507
1757088917307819000,1.647819091796875,0.6335403337471187,1.0006683035261927,9.734867789337038
1757088917317866000,1.657865966796875,0.6586909954860806,1.00797511940822,9.732444946104287
1757088917327912200,1.667912109375,0.6967476813536136,1.011367026868835,9.729442257156968
1757088917337959200,1.677959228515625,0.736490859003365,1.010566158814728,9.726597973641752
1757088917348005000,1.688005126953125,0.771141389689222,1.0073345564823597,9.724249364688992
1757088917358052000,1.698052001953125,0.8000044960800557,1.0042480617091059,9.722236271300911
1757088917368098000,1.70809814453125,0.8245720241688191,1.0020153342209757,9.720413732048868
1757088917378145300,1.718145263671875,0.8471430446781217,1.0017977459475398,9.718494746685028
1757088917388191200,1.728191162109375,0.8686462898254395,1.003994013882801,9.716368840572237
1757088917398238200,1.73823828125,0.8897057367280126,1.0048792722847313,9.714370944753288
1757088917408285200,1.74828515625,0.9096963122900575,1.0024544562906026,9.712770523819326
1757088917418331100,1.7583310546875,0.927151889481768,0.9971310693107545,9.711668700057267
1757088917428378000,1.768378173828125,0.9380357601329684,0.9906430224657058,9.711286422741413
1757088917438424000,1.778424072265625,0.9412886244490742,0.9836522867955266,9.711683897626399
1757088917448471000,1.788470947265625,0.9399723542187363,0.9762432526480406,9.71255951141715
1757088917458517000,1.79851708984375,0.938006534038484,0.9693895142957567,9.71343570972979
1757088917468564000,1.80856396484375,0.9394655006751418,0.9641288903538137,9.713816818001865
1757088917478610000,1.81860986328125,0.9473704285807907,0.9607936815164982,9.71338018015027
1757088917488657200,1.8286572265625,0.9610914954192936,0.9598001404345035,9.712129303306341
1757088917498703400,1.838703369140625,0.9776069422166794,0.9615112552013247,9.710312609273196
1757088917508750000,1.84875,0.9958923212960362,0.9644910747297107,9.708159230631589
1757088917518797000,1.858797119140625,1.0136461507819592,0.9681011549856513,9.705960843804478
1757088917528843300,1.86884326171875,1.0268401980716735,0.9721384476777165,9.704170453256369
1757088917538890200,1.87889013671875,1.034818848800659,0.9760315826587378,9.702931851372123
1757088917548936200,1.888936279296875,1.0406697667859495,0.9792522982709109,9.701980834257602
1757088917558983200,1.898983154296875,1.0469747121490538,0.981660309260711,9.701059627759456
1757088917569029000,1.909029052734375,1.0550064813047646,0.9835715497095138,9.699996382442116
1757088917579076000,1.919076171875,1.0640247042145579,0.9858030350886284,9.698784668564796
1757088917589122000,1.9291220703125,1.072577063178271,0.9890212664827703,9.697515087020397
1757088917599169000,1.9391689453125,1.0811984687902032,0.9932651876628398,9.696124509444832
1757088917609215000,1.949215087890625,1.0888220955364405,0.9984320689067244,9.694740361610055
1757088917619262200,1.95926220703125,1.0927615538772195,1.0049610322840512,9.693622755756973
1757088917629309200,1.96930908203125,1.0893651163719593,1.012752562943101,9.693193132168053
1757088917639355100,1.979355224609375,1.0885098147168755,1.0185646832879631,9.69268109099269
1757088917649402000,1.989402099609375,1.094574667713791,1.0233586395662277,9.691492757990956
1757088917659447600,1.999447509765625,1.1015773860827087,1.028580173606798,9.690147188600898
1757088917669494300,2.009494384765625,1.1041693753372877,1.0344367906805128,9.68922832019031
1757088917679540500,2.01954052734375,1.1033693110007792,1.040656103586778,9.688654319694638
1757088917689587500,2.02958740234375,1.1053532513596116,1.0470433934710919,9.68773895841539
1757088917699633400,2.03963330078125,1.1135531436238437,1.0530135539218783,9.686154319572449
1757088917709680400,2.049680419921875,1.1245572796538472,1.058372815932706,9.684298462572693
1757088917719726300,2.059726318359375,1.1369342384070158,1.0629993066895753,9.68234440589547
1757088917729773300,2.069773193359375,1.1535551183402537,1.0671092262264341,9.679926238837838
1757088917739820300,2.0798203125,1.1741777812607586,1.0703169362265617,9.677092476716638
1757088917749866200,2.0898662109375,1.1938760958779602,1.0724274255745112,9.674447515165806
1757088917759913500,2.09991357421875,1.2091737643834202,1.073291714253649,9.672451957434415
1757088917769959400,2.10995947265625,1.2216578367728739,1.0730639699123798,9.670907066079973
1757088917780006400,2.12000634765625,1.233423604825139,1.071916188116744,9.669541622945665
1757088917790052400,2.13005224609375,1.2441563035026193,1.0696221588954329,9.668421094483136
1757088917800099300,2.140099365234375,1.25328390507102,1.0668151386506854,9.667551910433172
1757088917810145300,2.150145263671875,1.2596920185476541,1.0642147468939422,9.667007136031986
1757088917820192300,2.160192138671875,1.2613976534217595,1.062160883104056,9.667010643163323
1757088917830239200,2.1702392578125,1.2576269027113913,1.0612211180359123,9.667604517403245
1757088917840285200,2.18028515625,1.2496617690511047,1.0615157901335508,9.668605218878389
1757088917850332200,2.190332275390625,1.2395334660075603,1.062949987655133,9.669751466304064
1757088917860378400,2.20037841796875,1.2294259134911,1.0650262824725358,9.670811789011955
1757088917870425300,2.21042529296875,1.2216422008123249,1.0673762796647845,9.671540103286505
1757088917880471300,2.22047119140625,1.2176231744293122,1.0696410827916114,9.671797877439856
1757088917890518500,2.2305185546875,1.2181797853987664,1.0714427984513342,9.671527828326822
1757088917900564500,2.240564453125,1.2234987153992056,1.0722222583912313,9.670769703435898
1757088917910611500,2.250611572265625,1.231399259390682,1.0723538488816469,9.669751466304064
1757088917920657400,2.260657470703125,1.2392726231142879,1.0719077856145798,9.668796942058204
1757088917930704400,2.270704345703125,1.2449543220125139,1.0712813242793082,9.66813584780097
1757088917940751400,2.28075146484375,1.2469963492341338,1.0706184764564037,9.667945293664932
1757088917950797300,2.29079736328125,1.2446199754916132,1.0699554094377905,9.668324063849449
1757088917960844300,2.30084423828125,1.2389036436714231,1.0693565667618066,9.669126612403987
1757088917970890200,2.31089013671875,1.232297231143713,1.0686675615843384,9.670046649858355
1757088917980937200,2.320937255859375,1.2275978212811052,1.0676620378036052,9.670755090388655
1757088917990983200,2.330983154296875,1.2264115341059862,1.065945077817887,9.671095866650342
1757088918001030400,2.341030517578125,1.2278981194019316,1.063323643273115,9.671194066327809
1757088918011076400,2.351076416015625,1.2291253231093286,1.0597489996567369,9.671429628649353
1757088918021123300,2.361123291015625,1.2289021818779409,1.0556471903610973,9.671908936598896
1757088918031169500,2.37116943359375,1.2280775676220654,1.051396035722643,9.672475338310003
1757088918041216300,2.38121630859375,1.2273511530436574,1.0472015797074883,9.673022450798749
1757088918051263200,2.39126318359375,1.2268866042718292,1.0433172856200486,9.673501758748293
1757088918061309400,2.401309326171875,1.2259610138595103,1.0402293295420706,9.673951840603351
1757088918071356400,2.4113564453125,1.2240602217394858,1.038152450202778,9.674414781939983
1757088918081402400,2.42140234375,1.221382673093304,1.0371343592014164,9.674863110229373
1757088918091449300,2.431449462890625,1.2184098678275943,1.0370889856897294,9.675243049457668
1757088918101495300,2.441495361328125,1.2152927587203681,1.0380763892918825,9.675528880661725
1757088918111542300,2.451542236328125,1.2113988930869848,1.0400495159957557,9.675803605949879
1757088918121588200,2.461588134765625,1.2061446988858282,1.0432057880695909,9.676122170379758
1757088918131635500,2.471635498046875,1.200710764203593,1.0475309577923269,9.676331429216265
1757088918141682400,2.481682373046875,1.1964705693505704,1.0522060369312762,9.676348964872956
1757088918151728400,2.491728271484375,1.1931276155982167,1.0556396646417676,9.676386958795785
1757088918161775400,2.501775390625,1.1892079579364507,1.057388919461891,9.676678635218739
1757088918171821300,2.5118212890625,1.1849014198489487,1.0573786172635853,9.677209381094574
1757088918181868300,2.521868408203125,1.1810054353237152,1.0556892759371548,9.677868137264252
1757088918191914200,2.531914306640625,1.17919875122793,1.052552512281388,9.67842986280024
1757088918201961200,2.541961181640625,1.1801251453578472,1.0485307824846357,9.678752518883346
1757088918212007200,2.552007080078125,1.1823895100932567,1.044554718460515,9.678907417184114
1757088918222054100,2.56205419921875,1.184771217598021,1.0407758575089274,9.679023737040161
1757088918232101400,2.572101318359375,1.1881760576054454,1.0377538793392478,9.678931382581592
1757088918242147300,2.582147216796875,1.1936882451556623,1.0356152598753572,9.678482469770312
1757088918252194300,2.5921943359375,1.2001438510358333,1.0342816001188009,9.677824882644414
1757088918262240500,2.602240478515625,1.2064769265148787,1.0333248839158564,9.677140407511592
1757088918272287500,2.61228759765625,1.2125025434799492,1.0324934745930134,9.676475806123017
1757088918282333400,2.62233349609375,1.2178007229533045,1.0314637662190944,9.675920510327815
1757088918292380400,2.63238037109375,1.2222083833277224,1.0300078683223575,9.67552011283338
1757088918302427400,2.642427490234375,1.2262962371632455,1.0282051297493278,9.675194534140825
1757088918312473300,2.652473388671875,1.2301285088025034,1.0260589845661072,9.674936175465584
1757088918322520300,2.662520263671875,1.2337125047691166,1.0238005381148307,9.674718733322619
1757088918332566300,2.672566162109375,1.237360359752178,1.0216973552905022,9.6744761567384
1757088918342613200,2.68261328125,1.2414257094949483,1.0198447131611406,9.674149409002066
1757088918352659200,2.6926591796875,1.2466454899698496,1.0180988924071193,9.673662502267955
1757088918362706400,2.70270654296875,1.252908203626424,1.0164374620009213,9.673028296017646
1757088918372752400,2.71275244140625,1.260167819365859,1.0145913226775825,9.672278938955069
1757088918382799400,2.72279931640625,1.2678222796417773,1.0127964751500635,9.671467038050293
1757088918392846300,2.732846435546875,1.274432053170353,1.0111275920897722,9.670773210567235
1757088918402892300,2.742892333984375,1.2785842044137417,1.009874377158284,9.67035410837233
1757088918412939300,2.752939208984375,1.2800728355363011,1.0091993274409323,9.670226682600378
1757088918422985200,2.762985107421875,1.2800509159654379,1.008873091161251,9.670265261045097
1757088918433032200,2.7730322265625,1.2795322989188134,1.0086558682139963,9.67035644645989
1757088918443078400,2.783078369140625,1.2792254249267279,1.008165746609494,9.67044938544035
1757088918453125000,2.793125,1.2800194979138673,1.0071310697995126,9.670450554484129
1757088918463172400,2.80317236328125,1.2818795926973223,1.0055378823239356,9.670369305941461
1757088918473218600,2.813218505859375,1.2834241917908191,1.0032146270081401,9.67040729986429
1757088918483265300,2.823265380859375,1.2844823225416242,1.0000053095728159,9.670599023044108
1757088918493311500,2.8333115234375,1.285080434565246,0.9964012937314808,9.67089303755462
1757088918503358500,2.8433583984375,1.2846335675805807,0.9924418155159801,9.67135831697881
1757088918513404400,2.853404296875,1.2840003842435777,0.9881152575537562,9.67188497120142
1757088918523451400,2.863451416015625,1.2842346313908695,0.9834603444200009,9.672328038793802
1757088918533497300,2.873497314453125,1.2853893543839454,0.9783090260714292,9.672697456628084
1757088918543544300,2.88354443359375,1.2874231982991098,0.9726694858144969,9.672995562791824
1757088918553591300,2.89359130859375,1.2898496947936713,0.9664705581091344,9.673294253477454
1757088918563637200,2.90363720703125,1.2921249462492763,0.9599965397894382,9.67363502973914
1757088918573684200,2.913684326171875,1.2931772317811845,0.953283744277805,9.67415934587419
1757088918583730200,2.923730224609375,1.293090722541511,0.9462778110384941,9.674858434054254
1757088918593777400,2.93377734375,1.2922002034425735,0.9389577703487128,9.675689039659499
1757088918603823400,2.9438232421875,1.2908281844370066,0.931293446265906,9.676613753288983
1757088918613870300,2.953870361328125,1.2885526407204568,0.9239562352456152,9.677619130939245
1757088918623917300,2.963917236328125,1.2851309957087038,0.9169779937308281,9.678739074879884
1757088918633963300,2.97396337890625,1.2807844909369945,0.9104868050806224,9.679927407881618
1757088918644010200,2.98401025390625,1.2768404294863342,0.9047070526354014,9.680988899633288
1757088918654056200,2.99405615234375,1.274701663891971,0.8996430472441017,9.681742348349093
1757088918664104000,3.00410400390625,1.274383099462092,0.8951890635099261,9.68219885994494
1757088918674150000,3.01414990234375,1.2750045923613011,0.8912535506919026,9.682478261408209
1757088918684196900,3.02419677734375,1.2757272075474262,0.8880640339355915,9.682676998850702
1757088918694243000,3.0342431640625,1.2762294579811393,0.8856382680933922,9.68283365071714
1757088918704289800,3.044289794921875,1.2763741271488367,0.883972234577313,9.682966337186098
1757088918714336800,3.054336669921875,1.2759965260080992,0.8834281908284872,9.683066290429235
1757088918724383000,3.064383056640625,1.2754435683004557,0.884413767799735,9.683048754772543
1757088918734430000,3.074429931640625,1.2746581170111895,0.8868990087442099,9.68292542065382
1757088918744476000,3.084475830078125,1.2735679836869238,0.8907226586855947,9.682716746339201
1757088918754523100,3.094523193359375,1.2720935272201894,0.8953916734099387,9.682481768539548
1757088918764569000,3.104569091796875,1.2709231682665645,0.9001303923696279,9.682194768291712
1757088918774616000,3.114615966796875,1.2716460757136343,0.9038922291211783,9.68174936261177
1757088918784662000,3.124662109375,1.2751333333075046,0.9061614161621778,9.68107774696052
1757088918794709000,3.134708984375,1.280639091116935,0.9069486940823495,9.68027695197165
1757088918804756000,3.144755859375,1.2861601926259696,0.9064568919774144,9.679592476838826
1757088918814802000,3.154802001953125,1.2898188612639903,0.9053080872684717,9.67921370665431
1757088918824849000,3.164848876953125,1.2911778746575115,0.904008183651045,9.679153500899671
1757088918834894800,3.174894775390625,1.2905009983092546,0.90263959871158,9.679369773998856
1757088918844941800,3.18494189453125,1.2887583924256265,0.900864113471657,9.679767248883843
1757088918854987800,3.19498779296875,1.2876109759561716,0.8990559680711477,9.68008873592317
1757088918865035000,3.205034912109375,1.288354780060798,0.89714713877514,9.680168230900168
1757088918875082000,3.21508203125,1.290773531640321,0.8953300063505768,9.680013332599401
1757088918885128000,3.2251279296875,1.2939580068953334,0.8939435204282402,9.67971581095755
1757088918895175000,3.2351748046875,1.2967721875332294,0.8929840277463197,9.679428810709714
1757088918905220900,3.245220947265625,1.298934626264125,0.8922145046785473,9.679209615001081
1757088918915267800,3.255267822265625,1.3003665587633848,0.8914913049705326,9.679083942794799
1757088918925314000,3.26531396484375,1.3010399279803038,0.890877337790653,9.679049456003307
1757088918935361000,3.275361083984375,1.3015081300139426,0.8903485646761953,9.679036596521735
1757088918945407000,3.285406982421875,1.3027584223359823,0.8900168485037981,9.67889864935577
1757088918955454000,3.295453857421875,1.3046671785667538,0.8899421027671546,9.678648473986982
1757088918965501200,3.305501220703125,1.3065586914017795,0.8903434501096605,9.67835621304214
1757088918975547100,3.315547119140625,1.3077512621872127,0.8912086155716329,9.678114805501698
1757088918985594000,3.325593994140625,1.3076939790420234,0.8922815055001526,9.678023620086908
1757088918995640000,3.33564013671875,1.3068410154744983,0.893574321789667,9.67802011295557
1757088919005687000,3.34568701171875,1.306428196889907,0.895146028085798,9.677931850150227
1757088919015733000,3.35573291015625,1.306426151063293,0.8969638911627232,9.677761754280327
1757088919025780000,3.365780029296875,1.3053782494455575,0.8990850480351597,9.677705640178917
1757088919035826000,3.375825927734375,1.3030660269804297,0.9018648880120367,9.67776000071466
1757088919045873000,3.385872802734375,1.3004757182262836,0.905162322122231,9.677799748203158
1757088919055919900,3.395919921875,1.299361911765486,0.9083717856880277,9.677648941555619
1757088919065965800,3.4059658203125,1.3005338781543074,0.9109232237365096,9.677252635714412
1757088919076012800,3.4160126953125,1.3034051958069204,0.9129303988404571,9.676678050696848
1757088919086058800,3.426058837890625,1.3070096500396728,0.9142658852279185,9.676065471756457
1757088919096106000,3.43610595703125,1.31057216482684,0.9152048465784639,9.675493224826454
1757088919106152000,3.44615185546875,1.3142673660829662,0.9157754130080342,9.674939682596921
1757088919116199000,3.456198974609375,1.3180275953993201,0.9162312670167535,9.67438438680172
1757088919126245000,3.4662451171875,1.3214753977656364,0.9167004919636994,9.673868253973126
1757088919136292000,3.4762919921875,1.3246033205278216,0.9172986039873212,9.673384269848466
1757088919146338800,3.4863388671875,1.3269741413123906,0.9180687115769833,9.672986794963478
1757088919156385000,3.496385009765625,1.3291165601685642,0.9187720375407487,9.67262672947943
1757088919166432000,3.506431884765625,1.3316532390393316,0.9193186385728418,9.672226916506887
1757088919176478000,3.51647802734375,1.3342292270071803,0.919695435995981,9.671834702318906
1757088919186525000,3.52652490234375,1.3365604464337228,0.9200417652156203,9.671480482053756
1757088919196571000,3.53657080078125,1.3384969674542546,0.9203825414773076,9.671178868758679
1757088919206618000,3.5466181640625,1.340152333445847,0.9206551478736102,9.670923432692884
1757088919216665000,3.5566650390625,1.341369454150647,0.920841537291184,9.670736970210076
1757088919226711000,3.5667109375,1.3424645559109747,0.9207522515725344,9.670594346868992
1757088919236758000,3.576758056640625,1.343819769912213,0.9202084270194172,9.670458153268694
1757088919246804000,3.586803955078125,1.3456209741152823,0.9192853208251297,9.670294487139582
1757088919256851000,3.596850830078125,1.3475873057521879,0.9181092627830802,9.67013140553236
1757088919266897000,3.60689697265625,1.349701083035767,0.9169483292449265,9.669949619224667
1757088919276944000,3.61694384765625,1.3510760246507822,0.9159545689672232,9.66985083502531
1757088919286989800,3.62698974609375,1.3514970265418291,0.915301219625026,9.66985258859098
1757088919297036800,3.637036865234375,1.3514165086515246,0.9147063955370336,9.669921562173961
1757088919307083800,3.647083740234375,1.3514344826996325,0.9142722419034689,9.669959556096792
1757088919317129700,3.657129638671875,1.3517454483449458,0.913976985283941,9.66994435852766
1757088919327177000,3.667177001953125,1.3522155500747262,0.9138577428184449,9.66988999799192
1757088919337223200,3.67722314453125,1.3527486340381205,0.9136099055372178,9.669839144587517
1757088919347270000,3.687269775390625,1.3529063088178634,0.9134742233935743,9.669830961281061
1757088919357316000,3.697316162109375,1.3529166840814053,0.9130474493488668,9.66986720163822
1757088919367363000,3.707363037109375,1.3534148428618906,0.9124280753415077,9.669857849287986
1757088919377409000,3.717408935546875,1.3544973774015903,0.9115684628374874,9.669784784051775
1757088919387456000,3.7274560546875,1.3558622360140085,0.9108194711010903,9.669666126108169
1757088919397503000,3.7375029296875,1.3573833081014453,0.9100744248874485,9.669523502767085
1757088919407549000,3.747548828125,1.358995419473201,0.9089822457365692,9.669398415082693
1757088919417596000,3.757595947265625,1.3608046608522533,0.9078739191684871,9.669249362000823
1757088919427641900,3.767641845703125,1.3625192096851766,0.9069939945288001,9.669089203003049
1757088919437689000,3.777689208984375,1.36423317399621,0.9059915394879877,9.668941318964958
1757088919447735000,3.787735107421875,1.3658299416683612,0.9051732819076627,9.668793434926867
1757088919457782000,3.797781982421875,1.3672418542928992,0.9045799191243946,9.668649642542004
1757088919467828000,3.807827880859375,1.3686277556933462,0.9041594286900013,9.668492990675569
1757088919477875000,3.817875,1.3701552575215696,0.9038584729820489,9.6683041901052
1757088919487922000,3.827921875,1.3718607462652026,0.903664777040854,9.668081487265228
1757088919497967900,3.8379677734375,1.3732441634476185,0.9034816024936735,9.667901454523205
1757088919508014800,3.848014892578125,1.374119484977424,0.9033014966864138,9.667793902495504
1757088919518060800,3.858060791015625,1.3746259731948376,0.9029414312023669,9.667756493094563
1757088919528107800,3.868107666015625,1.3747561754457651,0.9025055240031331,9.667778120404481
1757088919538154000,3.878154052734375,1.37489646069929,0.902061871888861,9.66779857867062
1757088919548201000,3.888200927734375,1.3748970452211797,0.9019535161435603,9.667807346498966
1757088919558247000,3.898246826171875,1.3746468698523937,0.9020783846322447,9.667832480940222
1757088919568294100,3.908294189453125,1.374650815375149,0.9024019905634224,9.667801501280069
1757088919578340000,3.918340087890625,1.3749379617534576,0.9026292965132743,9.667739541959762
1757088919588387000,3.928386962890625,1.3753985650025307,0.9029303252864629,9.667646602979302
1757088919598434000,3.93843408203125,1.3761010141834615,0.9028608402468263,9.667553079476953
1757088919608480000,3.94847998046875,1.3766032646171749,0.9030602352764457,9.66746189406216
1757088919618527000,3.95852685546875,1.3771174977496266,0.9033088032100349,9.667364278906582
1757088919628573000,3.968572998046875,1.37789432734102,0.9036334320545196,9.667223993653058
1757088919638620000,3.978619873046875,1.3786124124825,0.9038985857967287,9.667095983359218
1757088919648665900,3.988665771484375,1.3789002895131706,0.9044368573918938,9.667004797944426
1757088919658712800,3.998712890625,1.3783502544149755,0.9047716423042118,9.66705331326127
1757088919668759000,4.008759033203125,1.3778705080740152,0.9045474050942808,9.667142160588503
1757088919678806000,4.018805908203125,1.37853817820251,0.9041873396102339,9.667080785790086
1757088919688853000,4.02885302734375,1.3796934857174754,0.9036801207404583,9.666963881412148
1757088919698899000,4.03889892578125,1.3804302755594253,0.9034527417253703,9.666880879303813
1757088919708946200,4.0489462890625,1.3807260436356066,0.9031501785822212,9.66686626625657
1757088919718992100,4.0589921875,1.3801736704498528,0.9029876814968884,9.66695862071514
1757088919729039000,4.0690390625,1.3789602030068635,0.9032882718786597,9.667105335709453
1757088919739085300,4.079085205078125,1.3781607231922446,0.9034654550764709,9.66720178182125
1757088919749132000,4.089132080078125,1.378221075077355,0.9033896864265203,9.667201197299361
1757088919759178200,4.09917822265625,1.3791016573041677,0.9030743368670344,9.667104166665673
1757088919769225200,4.10922509765625,1.3797934389606117,0.9025853112410753,9.66705272873938
1757088919779272200,4.119272216796875,1.3797972383528947,0.9022430006094276,9.667084877443314
1757088919789318100,4.129318115234375,1.3797427316866815,0.9018396805055439,9.66712988562882
1757088919799365000,4.139365234375,1.3800273938469587,0.9014514849055558,9.667124624931812
1757088919809411000,4.1494111328125,1.3813206485278904,0.9009562487345188,9.666985508722066
1757088919819458000,4.1594580078125,1.3827642714649437,0.9005956717938184,9.666813074764608
1757088919829504000,4.16950390625,1.3837231796249747,0.9000465865436941,9.666725981003045
1757088919839551200,4.17955126953125,1.3843278675198554,0.8994481091938913,9.666696170386672
1757088919849597200,4.18959716796875,1.3847794106796383,0.8987918372422457,9.666693247777223
1757088919859644200,4.19964404296875,1.38493036345765,0.8981183949600905,9.666734164309501
1757088919869691100,4.209691162109375,1.384135705948621,0.8975696750361472,9.666898414960503
1757088919879737000,4.219737060546875,1.3832093848839402,0.8972266337521374,9.667062081089615
1757088919889784000,4.2297841796875,1.382624716863781,0.8969271393489092,9.667174893814325
1757088919899830000,4.239830078125,1.3823400547035039,0.8966299830332398,9.66724094478786
1757088919909877000,4.249876953125,1.3823559829249976,0.8960098053082823,9.667297643411159
1757088919919923000,4.2599228515625,1.3828379212230444,0.8951930820979177,9.667304657673835
1757088919929970000,4.269969970703125,1.3833879563212395,0.8939679972823709,9.667338559943436
1757088919940016000,4.28001611328125,1.384195327181369,0.892672550644353,9.667343236118555
1757088919950063000,4.29006298828125,1.3852844375923274,0.8914856789473443,9.667298227933049
1757088919960110000,4.300110107421875,1.3865008276447652,0.8906484244056045,9.667200028255582
1757088919970156300,4.31015625,1.3875344084762036,0.8900886716309935,9.667102413100004
1757088919980203300,4.320203369140625,1.388109139624238,0.889884746556729,9.667038700214027
1757088919990249200,4.330249267578125,1.388202078604698,0.8897278024293481,9.667039284735917
1757088920000296200,4.340296142578125,1.3877338765710592,0.8897158197306096,9.66710884284079
1757088920010342100,4.350342041015625,1.3872554454043506,0.8896633588910102,9.66718249259889
1757088920020389000,4.36038916015625,1.3873808253496884,0.8893214866507798,9.667195352080464
1757088920030435000,4.37043505859375,1.3879960346385836,0.8885958757899701,9.667174309292434
1757088920040482000,4.38048193359375,1.3884642366722226,0.8876349218033254,9.667195352080464
1757088920050529300,4.390529296875,1.3886451461970806,0.8870651590913534,9.6672216555655
1757088920060575000,4.400574951171875,1.3887548901818692,0.8866125199530274,9.667247959050536
1757088920070622200,4.410622314453125,1.3888652186885475,0.8860778285544365,9.667281276798247
1757088920080668200,4.420668212890625,1.3890418904297053,0.8856557306848466,9.66729355175793
1757088920090715100,4.430715087890625,1.3888437375091016,0.8850762502964585,9.667373631256819
1757088920100761000,4.440760986328125,1.3883027625001967,0.8845696159485728,9.66749988798499
1757088920110808000,4.45080810546875,1.387980252547562,0.8842177337709813,9.667579382961987
1757088920120854000,4.46085400390625,1.3881955027334392,0.8839592289652675,9.667570030611753
1757088920130901000,4.47090087890625,1.3886926386006175,0.8838096644267439,9.667511578422785
1757088920140948000,4.480947998046875,1.3890925977036357,0.8836316775113343,9.667471246412395
1757088920150994200,4.490994140625,1.389498548156023,0.8835505750991404,9.667420977529883
1757088920161041000,4.501041015625,1.3898703040778637,0.8834367394611239,9.667377138388156
1757088920171087000,4.511087158203125,1.3903257927604018,0.8831568996064364,9.667336221855878
1757088920181134300,4.52113427734375,1.3910261961147188,0.8825161905501038,9.66729647436738
1757088920191180300,4.53118017578125,1.3920065854541956,0.8817256977595388,9.667228085306286
1757088920201227300,4.541227294921875,1.3932541012972592,0.8809720298480243,9.667115857103466
1757088920211273200,4.551273193359375,1.395135238868743,0.8804275477077811,9.666895492351054
1757088920221320200,4.5613203125,1.3977207253172992,0.8799726435471326,9.666561145830153
1757088920231367200,4.5713671875,1.4014806623727083,0.8794935547932982,9.666060795092582
1757088920241413000,4.5814130859375,1.4064292246907948,0.8790265948686748,9.665382749700546
1757088920251460000,4.591460205078125,1.4119827671647072,0.8786424909219145,9.6646088427186
1757088920261506000,4.601506103515625,1.4167545116111635,0.8782311336420476,9.663950086548924
1757088920271553000,4.611552978515625,1.419457633090019,0.8777779099818318,9.663593528196214
1757088920281599000,4.621598876953125,1.420163881663233,0.8775063264988362,9.663513448697328
1757088920291646200,4.631646240234375,1.4198773198068142,0.8773278281267732,9.663571900886296
1757088920301692000,4.64169189453125,1.4196167691744863,0.8773241748649626,9.663609894809126
1757088920311739100,4.6517392578125,1.4198480937123297,0.877339226303622,9.663574823495745
1757088920321786000,4.6617861328125,1.4200995842553674,0.8771290176190435,9.663557287839055
1757088920331832000,4.67183203125,1.4203792779795825,0.8770069986745714,9.66352806174457
1757088920341879000,4.681879150390625,1.4206567797467111,0.8766970559425652,9.663515202262998
1757088920351925200,4.69192529296875,1.4207600939907132,0.8763218659546226,9.663534491485358
1757088920361972000,4.701971923828125,1.4205685169413684,0.875926583026722,9.663597619849442
1757088920372018200,4.71201806640625,1.4201852167122064,0.875656241652742,9.66367711482644
1757088920382065200,4.722065185546875,1.4197165762871502,0.8753422803327441,9.663774729982018
1757088920392111000,4.732111083984375,1.4190114967577159,0.8752342899136245,9.663890465316175
1757088920402158000,4.742157958984375,1.4179558502249419,0.8750520652145147,9.664061730229854
1757088920412205300,4.752205322265625,1.4164241106130182,0.8750373060368001,9.664286771157384
1757088920422251300,4.762251220703125,1.4143006887182592,0.874701425145939,9.664627547419071
1757088920432298200,4.77229833984375,1.4120599240541458,0.873885286457464,9.665030283001064
1757088920442344200,4.78234423828125,1.410499396739155,0.8729019014433026,9.665347678387164
1757088920452391200,4.79239111328125,1.4099676279500126,0.871621798504889,9.66554057061076
1757088920462437000,4.80243701171875,1.4103317850872874,0.8698161373224109,9.665649291682243
1757088920472484000,4.812484130859375,1.411682907435298,0.8678433759447187,9.665629417937993
1757088920482530000,4.822530029296875,1.4152191187374292,0.8662502615343779,9.665254739406704
1757088920492577000,4.832576904296875,1.42215564000234,0.8651425925534219,9.664335870996117
1757088920502624000,4.8426240234375,1.425897164618224,0.863877321857959,9.663899233144521
1757088920512670000,4.852669921875,1.4267157875247298,0.8630586258862167,9.663849548783897
1757088920522717200,4.86271728515625,1.4290705339573322,0.8618785492561757,9.663606972199679
1757088920532763100,4.87276318359375,1.4340695112884043,0.8610173293169587,9.662944124376773
1757088920542810000,4.88281005859375,1.4379397768504916,0.8606376823496072,9.662402272585034
1757088920552856300,4.892856201171875,1.4387547464951873,0.8607095785420388,9.662274262291193
1757088920562903000,4.902903076171875,1.438169640083611,0.8609509860824793,9.662339728742838
1757088920572950000,4.912949951171875,1.4379982290394604,0.8613423965528607,9.662332129958271
1757088920582996200,4.922996337890625,1.438894008835405,0.8617966431263834,9.662156188869476
1757088920593043200,4.933043212890625,1.4396556408576666,0.862142387824133,9.662012981006503
1757088920603089200,4.943089111328125,1.439868552955985,0.8623433172237127,9.661963881167768
1757088920613136100,4.95313623046875,1.4393734629154205,0.8624144827637821,9.662030516663194
1757088920623182000,4.96318212890625,1.438397019098699,0.8624732272136956,9.662170217394829
1757088920633229000,4.97322900390625,1.4372056173570453,0.8625705501083284,9.662339728742838
1757088920643275000,4.98327490234375,1.4355132803559303,0.8626336054071784,9.662585227936505
1757088920653322200,4.993322265625,1.4324790272265673,0.8628333657629788,9.663016020569204
1757088920663369000,5.003368896484375,1.4277511219218373,0.8633382465451955,9.663671269607544
1757088920673415000,5.013414794921875,1.4215474449761212,0.863743904736638,9.664549221485853
1757088920683462000,5.0234619140625,1.4154586265817284,0.8642782308090478,9.665396193704009
1757088920693507800,5.0335078125,1.4100732802815734,0.8648006472479551,9.666136782938242
1757088920703554800,5.043554931640625,1.4050380625933407,0.8652011908728628,9.666833533030747
1757088920713600800,5.053600830078125,1.4001546744659543,0.8655903363209217,9.667508655813336
1757088920723648000,5.06364794921875,1.394649647308886,0.8657933115471154,9.668285485404729
1757088920733694000,5.07369384765625,1.3880205845579505,0.8658655730657279,9.669232995387912
1757088920743741000,5.083740966796875,1.3805319823682307,0.8660586114197969,9.670286888355015
1757088920753788000,5.093787841796875,1.3731921409994363,0.8662796337593346,9.671312724271417
1757088920763834000,5.103834228515625,1.3664967350140214,0.8666400645695627,9.672228085550666
1757088920773880800,5.113880859375,1.3599990435577929,0.8673781695857643,9.67307914942205
1757088920783927000,5.123927001953125,1.3537537194274365,0.8682934577997773,9.673873514670133
1757088920793974000,5.13397412109375,1.3481639365963638,0.8693897286038845,9.674553898149728
1757088920804020000,5.14402001953125,1.344267221418768,0.8704640067718923,9.674999888351559
1757088920814067000,5.15406689453125,1.3423526199690996,0.8712541342362761,9.675195703184604
1757088920824113000,5.16411279296875,1.3416757436208426,0.8721928033258766,9.675205055534839
1757088920834159900,5.174159912109375,1.3413624398879707,0.872998712881282,9.675174075874686
1757088920844205800,5.184205810546875,1.3405730430759488,0.8737494581833481,9.675215576928853
1757088920854253000,5.194253173828125,1.339185095848888,0.8746135276667774,9.675329558697342
1757088920864300000,5.204300048828125,1.3379885795406996,0.8754377035312354,9.675420159590244
1757088920874346000,5.214345947265625,1.3374034731291233,0.8762147523183375,9.675432434549927
1757088920884393000,5.22439306640625,1.3371699566341937,0.8770363708995282,9.67539034897387
1757088920894439000,5.23443896484375,1.3361984812535346,0.8776855555232613,9.67546458325386
1757088920904486000,5.24448583984375,1.335011317295581,0.8783586324792355,9.675568043628335
1757088920914531800,5.25453173828125,1.3341326347649096,0.878912978426367,9.675640524342656
1757088920924578800,5.264578857421875,1.3337578101031482,0.8793466206032782,9.67565163025856
1757088920934625000,5.274625,1.3337721308894455,0.879643557723239,9.675621819642185
1757088920944671700,5.284671630859375,1.3338444654732942,0.8797937067836522,9.675598438766599
1757088920954719000,5.294718994140625,1.334012807777524,0.8799020625289529,9.675565121018886
1757088920964765200,5.30476513671875,1.334090110797435,0.8799299734491854,9.675551677015424
1757088920974812000,5.31481201171875,1.3338522103883326,0.8800614178091287,9.675573304325342
1757088920984858000,5.324858154296875,1.3334795776836574,0.8801421548951417,9.675618897032738
1757088920994905000,5.334905029296875,1.3334936062090097,0.8800489236537367,9.675623573207854
1757088921004951000,5.344950927734375,1.3344162740118801,0.879846313753724,9.675514852136374
1757088921014998000,5.354998046875,1.3363530872933567,0.8796051254089922,9.675269352942705
1757088921025044000,5.3650439453125,1.338608026613295,0.8790969566911458,9.675005733570456
1757088921035091000,5.375091064453125,1.3410187410168348,0.8784945338185877,9.674725163063407
1757088921045137000,5.385136962890625,1.34309364759475,0.8778614235468208,9.67449369239509
1757088921055184000,5.395183837890625,1.344587393283844,0.8772389807995409,9.67434405479133
1757088921065230800,5.40523095703125,1.3456355871625243,0.8765349972486496,9.674262806248665
1757088921075276800,5.41527685546875,1.3465322437413036,0.8759029098901897,9.674194417187572
1757088921085324000,5.425323974609375,1.34707994075194,0.8753531670529395,9.674166944658756
1757088921095370000,5.435369873046875,1.3471098974987863,0.8749500661447643,9.674199677884578
1757088921105417000,5.4454169921875,1.3465893807560205,0.8748291431788354,9.674283264514804
1757088921115463000,5.455462890625,1.3455756736688316,0.8752076941676438,9.674390816542505
1757088921125510000,5.465510009765625,1.3445719034537673,0.8757374901954084,9.674483171001077
1757088921135556000,5.47555615234375,1.3435242940969765,0.8762920553382486,9.674576694503426
1757088921145602800,5.485602783203125,1.3421310861729085,0.876647444647178,9.67473743802309
1757088921155649000,5.49564892578125,1.3405597452029585,0.876922973652929,9.674930914768575
1757088921165696000,5.505696044921875,1.339388509466499,0.8769731694702059,9.67508990472257
1757088921175743000,5.515742919921875,1.338913293170184,0.8768376334570348,9.67516647709012
1757088921185789000,5.525788818359375,1.3393945008158683,0.8767094039674848,9.675112116554379
1757088921195836200,5.535836181640625,1.3401223766990005,0.8765105203945189,9.675030283489823
1757088921205882000,5.545882080078125,1.3399519885681568,0.8763454660259187,9.675069446456432
1757088921215929000,5.55592919921875,1.338806910186261,0.8764373090278357,9.675216745972632
1757088921225975000,5.56597509765625,1.3376574478901921,0.8766170495089143,9.675359953835606
1757088921236022000,5.57602197265625,1.3368569451622665,0.8768067268621176,9.675454646381736
1757088921246068000,5.58606787109375,1.3360467978231607,0.8769072646271436,9.67555752223432
1757088921256115000,5.596114990234375,1.3350494573488831,0.8768404099360108,9.675699561053515
1757088921266162000,5.606161865234375,1.333766724061966,0.8764994875438511,9.675907650846243
1757088921276207900,5.616207763671875,1.332382868488133,0.8758826708197593,9.676155488127469
1757088921286254800,5.6262548828125,1.330951228249818,0.8752497066784649,9.676408586105703
1757088921296300800,5.63630078125,1.330092419463396,0.8747489175494759,9.676571083191037
1757088921306347800,5.64634765625,1.3301261756025253,0.8742489321380853,9.676612584245204
1757088921316393700,5.656393798828125,1.3304530694693326,0.8736505278535187,9.676624274682998
1757088921326441000,5.66644091796875,1.3306537066079676,0.8728451297547668,9.676667529302835
1757088921336487200,5.676487060546875,1.331324153215438,0.8716134690679609,9.676686818525194
1757088921346534000,5.686533935546875,1.3329163908429442,0.8700793183032423,9.676605569982527
1757088921356580000,5.696580078125,1.3344513453252613,0.8684200798541307,9.676543026140331
1757088921366627000,5.706626953125,1.3353800044775008,0.866646055918932,9.676574590322375
1757088921376674000,5.716674072265625,1.3358010063685477,0.8648604876764118,9.676675128087401
1757088921386720000,5.726719970703125,1.3355142983816564,0.8630193167891352,9.676878541705012
1757088921396767000,5.73676708984375,1.3345546595692634,0.8615022632896899,9.677146837252378
1757088921406813000,5.74681298828125,1.3332304252281784,0.8602098123263567,9.677444943416118
1757088921416860000,5.75685986328125,1.3317134447939694,0.85909637119174,9.677752986451983
1757088921426905900,5.76690576171875,1.3300960727252065,0.858164789430052,9.67805693783462
1757088921436953000,5.776953125,1.3285731009416282,0.8573346952814608,9.678340430951119
1757088921446999000,5.7869990234375,1.3274699620053172,0.856629469621554,9.678553196918964
1757088921457046000,5.7970458984375,1.3260237087197602,0.8562012342721224,9.678788759240508
1757088921467092000,5.807092041015625,1.3240601535618304,0.8557892924703657,9.679093879666924
1757088921477139000,5.817138916015625,1.322092506750673,0.855711770254746,9.679369189476967
1757088921487185000,5.827184814453125,1.32089993596524,0.855696499620378,9.679534609171748
1757088921497232000,5.83723193359375,1.3206931613467634,0.8555323950998485,9.679578448313475
1757088921507278800,5.84727880859375,1.3210903439708053,0.855661501372233,9.67951122829616
1757088921517324800,5.85732470703125,1.3217689738847314,0.8556151049472391,9.679423550012707
1757088921527371800,5.867371826171875,1.3223269000284372,0.8554860717400908,9.679358668082951
1757088921537418000,5.87741796875,1.3222099956505,0.8551763482037931,9.679402507224678
1757088921547465000,5.88746484375,1.3215579614825546,0.854876196213439,9.679517658036946
1757088921557511000,5.897510986328125,1.31980410355255,0.8543189276568591,9.679806996372342
1757088921567558100,5.90755810546875,1.316479050783068,0.8537257110040635,9.68031085424125
1757088921577604000,5.91760400390625,1.3116582064978777,0.8529797880075871,9.681030400687456
1757088921587651000,5.927651123046875,1.3049343050703406,0.8520971599541604,9.682017658159136
1757088921597697000,5.937697021484375,1.2969067736983297,0.8512000649839639,9.683176765066385
1757088921607744000,5.947743896484375,1.2881897987574338,0.850385314534977,9.684411275297403
1757088921617791000,5.957791015625,1.2804559896349905,0.8492515612646937,9.68553706445694
1757088921627837000,5.9678369140625,1.275352529016137,0.8477565734665841,9.6863384439677
1757088921637884000,5.9778837890625,1.2731519502319395,0.8458465020615606,9.686796709129213
1757088921647929900,5.987929931640625,1.272338441891968,0.8435808952171355,9.687101245033741
1757088921657976800,5.997976806640625,1.2706154174916446,0.8410521804571152,9.68754781975746
1757088921668022800,6.008022705078125,1.2674075613610445,0.8385049071270972,9.688187871226667
1757088921678069800,6.01806982421875,1.264224109019339,0.8360532761912792,9.68881623225808
1757088921688115700,6.02811572265625,1.26165776566267,0.833832385271415,9.689341717436909
1757088921698162700,6.03816259765625,1.2593036037519574,0.8319607461806386,9.68980758138299
1757088921708209000,6.048208984375,1.2569929887220264,0.8304474920734762,9.690237789493798
1757088921718255900,6.058255859375,1.255358080996573,0.8290582296721637,9.69056921340525
1757088921728301800,6.0683017578125,1.254694502521306,0.827670647771284,9.690773796066642
1757088921738349000,6.07834912109375,1.2548258738160132,0.8263973398998379,9.690864981481432
1757088921748396000,6.08839599609375,1.2554995352938771,0.8255226759571581,9.69085095295608
1757088921758442000,6.09844189453125,1.255620823585987,0.8248539098501205,9.690893623054027
1757088921768489000,6.108489013671875,1.2550218347795308,0.8244850765377283,9.691002928647398
1757088921778535000,6.118534912109375,1.2542587414525448,0.8243381423477083,9.691115156850218
1757088921788582000,6.128581787109375,1.2532676845885813,0.8243097930360584,9.691244920709728
1757088921798627800,6.1386279296875,1.252733869972825,0.8243207528214901,9.691313309770822
1757088921808674800,6.1486748046875,1.2531537028200923,0.8241943499628454,9.691268886107206
1757088921818720800,6.158720703125,1.254079585493356,0.8238903255149722,9.691173024517298
1757088921828767700,6.168767822265625,1.2552055207833648,0.8235811134353279,9.69105670466125
1757088921838813700,6.178813720703125,1.256348991730064,0.823159015565738,9.690945060980319
1757088921848861000,6.18886083984375,1.2572830577097833,0.8227609561588615,9.690855044609307
1757088921858908000,6.198907958984375,1.258279375270754,0.822523055749759,9.690745739015936
1757088921868953900,6.208953857421875,1.2588032530143856,0.8225335040785372,9.690677349954843
1757088921879000800,6.219000732421875,1.258676557894796,0.8228083754971623,9.690671504735946
1757088921889046800,6.229046875,1.2583571166820824,0.8230485409285873,9.690692547523975
1757088921899093800,6.23909375,1.2587712504409252,0.8231181720986962,9.690632926291228
1757088921909140000,6.249139892578125,1.259684712024033,0.8228894048441201,9.6905323885262
1757088921919187000,6.25918701171875,1.260614540220052,0.8222019340366125,9.690471013727784
1757088921929233000,6.26923291015625,1.261935998082161,0.8213921520236879,9.690368137875199
1757088921939280000,6.27927978515625,1.263557315673679,0.8206007824502884,9.690223760968447
1757088921949325800,6.289325927734375,1.2652440997168422,0.819696746282652,9.690081137627363
1757088921959372800,6.299372802734375,1.2667425215810537,0.8186988212864845,9.689968909424543
1757088921969420000,6.309419921875,1.2678906687028706,0.8177658512853085,9.689897597754001
1757088921979466000,6.319466064453125,1.2686562462478876,0.8173624581161886,9.689829793214797
1757088921989513000,6.329512939453125,1.268403732791543,0.8177286610800772,9.689830962258577
1757088921999559000,6.339558837890625,1.2666481212958693,0.8186796051293611,9.689984106993675
1757088922009606000,6.34960595703125,1.2643585490539668,0.8202963926762342,9.69014426599145
1757088922019651800,6.35965185546875,1.262457976129651,0.8224035940885543,9.690213239574431
1757088922029698800,6.36969873046875,1.2612034460239112,0.8246751922823489,9.690182844436167
1757088922039744800,6.379744873046875,1.2608224838823079,0.8268868769824504,9.690045481792092
1757088922049791700,6.389791748046875,1.2612705199107528,0.8289137797001749,9.689813426601885
1757088922059837700,6.399837646484375,1.2623393181860447,0.8303582794200629,9.689550391751528
1757088922069884700,6.409884765625,1.2630500968039036,0.8310045414343475,9.689402507713437
1757088922079931000,6.419930908203125,1.2632279375888407,0.8308737546615302,9.689390232753754
1757088922089977900,6.429977783203125,1.2629988050080836,0.8302486085005104,9.689473819383979
1757088922100024800,6.44002490234375,1.2625563219375908,0.8293119121722876,9.689612935593724
1757088922110071000,6.450071044921875,1.2623340574890374,0.8282493975073099,9.68973217805922
1757088922120118000,6.460117919921875,1.2622758975610135,0.8270715858995914,9.689839730086922
1757088922130164000,6.4701640625,1.2619633244805037,0.8259638438533992,9.68997475464344
1757088922140211000,6.4802109375,1.2616453445725142,0.8249906879723071,9.690099257805944
1757088922150257000,6.4902568359375,1.2617289312027393,0.8241761567190289,9.690157125473021
1757088922160303900,6.500303955078125,1.2621781362749636,0.8235151355270296,9.690154202863573
1757088922170349800,6.510349853515625,1.2630005585737525,0.8229445690974593,9.690095750674605
1757088922180396800,6.520396728515625,1.2640693568490444,0.8223061250634491,9.6900109950006
1757088922190442800,6.53044287109375,1.265065236018598,0.8214894749183207,9.689950789245962
1757088922200489700,6.54048974609375,1.2660768972791732,0.8207627680789679,9.6898806466192
1757088922210537000,6.550536865234375,1.2671724374309181,0.8199511594351381,9.6898069968611
1757088922220583000,6.5605830078125,1.2685013479471205,0.819158547752723,9.689700029355286
1757088922230630000,6.5706298828125,1.27037196412459,0.8184364440232514,9.689515904960036
1757088922240675800,6.58067578125,1.2721819361560045,0.8177087873358279,9.689338210305571
1757088922250722800,6.590722900390625,1.2732175628140567,0.8169582612294704,9.689266314113139
1757088922260768800,6.600768798828125,1.2734743140541016,0.8164276614841073,9.689277420029043
1757088922270815700,6.610815673828125,1.2736997933730483,0.8163243472401053,9.689257546284795
1757088922280862000,6.620862060546875,1.2743025815717874,0.8163825802333653,9.689173375132679
1757088922290909000,6.630908935546875,1.2750361565433441,0.8165664123676717,9.68906173145175
1757088922300955000,6.640954833984375,1.275271134342998,0.8168816157966852,9.68900386378467
1757088922311001900,6.651001953125,1.2744473968699574,0.8175180870693176,9.6890588088423
1757088922321047800,6.6610478515625,1.271918024522811,0.818065126492828,9.6893423019588
1757088922331095000,6.671094970703125,1.2677835550665855,0.8186972869165241,9.689832715824245
1757088922341142000,6.68114208984375,1.2626590516597032,0.8191472957063466,9.690463999465107
1757088922351188000,6.69118798828125,1.258422875394672,0.8191429848574101,9.691014034563302
1757088922361235000,6.70123486328125,1.25689727326259,0.8188010395519435,9.69124199810028
1757088922371281000,6.711281005859375,1.257783408447355,0.8183988884918392,9.691161334079503
1757088922381328000,6.721327880859375,1.2596174920067191,0.8182933092255145,9.690932201498747
1757088922391373800,6.731373779296875,1.2620144701458513,0.8185558326192199,9.690597854977845
1757088922401420800,6.7414208984375,1.2649620679050684,0.8193385074295103,9.690148357644677
1757088922411466800,6.751466796875,1.2683657388687133,0.8205771823789924,9.689598322546482
1757088922421513700,6.761513671875,1.2727132665537297,0.822151884349808,9.68889222010374
1757088922431559700,6.7715595703125,1.2784333977662026,0.8238638028342277,9.687993809959291
1757088922441606700,6.781606689453125,1.285030165682733,0.8257464017104357,9.686961544302106
1757088922451652900,6.79165283203125,1.2911802127450704,0.827947565016523,9.685956166651845
1757088922461699800,6.801699951171875,1.2962581005312501,0.830629351446405,9.685046650591492
1757088922471746800,6.811746826171875,1.3007095269821582,0.8338872572638094,9.684169867756962
1757088922481793000,6.82179296875,1.3051044009402393,0.8379636398572474,9.683228202992677
1757088922491840000,6.831840087890625,1.309525139991939,0.8428419864833354,9.682207043251395
1757088922501886000,6.841885986328125,1.3139710134848952,0.8481507604159414,9.681141459846495
1757088922511933000,6.851932861328125,1.3191663901709019,0.8533893186565488,9.679974754154681
1757088922521979000,6.861978759765625,1.3262692079134284,0.8582233146842568,9.678575993272661
1757088922532025900,6.87202587890625,1.336186206293851,0.862123317797482,9.676865682223438
1757088922542071800,6.88207177734375,1.3484883462451398,0.8650836289077997,9.674895843455195
1757088922552118800,6.892118896484375,1.3618706826485694,0.8671785553604364,9.67283423475027
1757088922562164700,6.902164794921875,1.3733961391389369,0.8688651202078909,9.671052612030506
1757088922572212000,6.9122119140625,1.3810570291556417,0.8700471695993095,9.669854342156649
1757088922582259000,6.922259033203125,1.383823425129056,0.8709407574381679,9.669377372294663
1757088922592305000,6.932304931640625,1.3849191114112733,0.8715880423657596,9.669162852761149
1757088922602351900,6.942351806640625,1.3873907622218131,0.8721700069721787,9.668755441004038
1757088922612397800,6.952397705078125,1.3940890908166765,0.8726321445912122,9.667750647875666
1757088922622444800,6.96244482421875,1.4053107420548796,0.872644857942313,9.666125677022338
1757088922632490800,6.97249072265625,1.4189121280364692,0.8725636093996465,9.664145316860079
1757088922642537700,6.982537841796875,1.4314626897908747,0.8733316711626946,9.662225162452458
1757088922652584000,6.992583984375,1.4405208793848752,0.8754141034599393,9.660690792492032
1757088922662631000,7.002630859375,1.4455604809872806,0.8787121220920234,9.659638068568706
1757088922672677400,7.012677490234375,1.4473643155388534,0.8837203787080943,9.658911507859825
1757088922682724400,7.022724365234375,1.4475439098894596,0.8907591913037002,9.658237554121017
1757088922692770600,7.0327705078125,1.446171306362003,0.8988801000475883,9.657689272588492
1757088922702817500,7.042817626953125,1.442786632359773,0.9074477296456694,9.65739467355609
1757088922712864500,7.052864501953125,1.4362312193669378,0.9175465873990207,9.657417469909786
1757088922722910500,7.062910400390625,1.4251913544364272,0.9289245251774787,9.657964582398533
1757088922732957400,7.07295751953125,1.4098780499704182,0.9412255691502243,9.659023151540756
1757088922743003400,7.08300341796875,1.3912998984895646,0.9541635227870195,9.660447046864032
1757088922753050400,7.09305029296875,1.371988025906682,0.967209320712462,9.661913027763367
1757088922763096300,7.103096435546875,1.3545857863374053,0.9801097918830811,9.663068627539277
1757088922773143300,7.113143310546875,1.340148534053564,0.9930660118289292,9.663758363369107
1757088922783189200,7.123189208984375,1.3271034667804837,1.0055693734407425,9.664265143847466
1757088922793236200,7.133236328125,1.3168619126208125,1.0174353869970887,9.664425302845238
1757088922803282200,7.1432822265625,1.3144324935168028,1.0294751496851444,9.663478961905836
1757088922813329400,7.153329345703125,1.32333841515854,1.0427676158480346,9.660839261052011
1757088922823376400,7.16337646484375,1.3436501124337314,1.0582676750577986,9.65634954841733
1757088922833422300,7.17342236328125,1.3715426202267407,1.0778386369682849,9.650259999370574
1757088922843469300,7.18346923828125,1.4022193519107997,1.1034865076396614,9.642950553140043
1757088922853515300,7.193515380859375,1.4278716795615851,1.1350192716311662,9.635524787053466
1757088922863562200,7.203562255859375,1.4417887073636053,1.1725730494778603,9.628951838403939
1757088922873608400,7.2136083984375,1.4440591365136206,1.2149421186517924,9.62335679487586
1757088922883655400,7.223655517578125,1.4284906882427633,1.2613532297581433,9.619707040196657
1757088922893701400,7.233701416015625,1.3927793233923613,1.3158344692692159,9.6176471850574
1757088922903748400,7.243748291015625,1.3400785375572741,1.3771718582853674,9.61654711486101
1757088922913794300,7.253794189453125,1.2767059894517063,1.4437506550863384,9.615403205522894
1757088922923841500,7.263841552734375,1.2173490336630493,1.5107786569595336,9.612804421201348
1757088922933887500,7.273887451171875,1.170932954120636,1.5835561622701584,9.60685281932056
1757088922943934500,7.2839345703125,1.1287447944715618,1.6652920500621198,9.598078561234473
1757088922953981400,7.2939814453125,1.0825976680636404,1.7540556445337832,9.587578210008143
1757088922964027400,7.30402734375,1.033490084414929,1.8458517385691404,9.575755670267343
1757088922974074400,7.314074462890625,0.9877979352328926,1.9420786546587943,9.561536006256937
1757088922984120300,7.324120361328125,0.9451658312086015,2.044512900955975,9.544475565862655
1757088922994167300,7.334167236328125,0.9032184215128422,2.1509074291862547,9.525133736532926
1757088923004213200,7.344213134765625,0.8629460323572158,2.259928214266896,9.50360111916065
1757088923014260200,7.35426025390625,0.8266962497811764,2.36920560445711,9.480180496084689
1757088923024306200,7.36430615234375,0.7958396314855665,2.4803861979201436,9.45434872021377
1757088923034353200,7.374353271484375,0.7677453175101429,2.5916765353679656,9.426779160764813
1757088923044399400,7.3843994140625,0.7401193516988307,2.702199687835574,9.397910209155082
1757088923054446300,7.3944462890625,0.7101232957553119,2.8135730273917314,9.367491690015793
1757088923064492500,7.404492431640625,0.6777076845146716,2.9269413401573896,9.3351009940207
1757088923074539500,7.41453955078125,0.6435483714118599,3.0416897091045976,9.300771438917517
1757088923084586500,7.42458642578125,0.6086401761705056,3.156259798875451,9.264877703237532
1757088923094632400,7.434632568359375,0.5728888081032782,3.2697423856705425,9.227726660972833
1757088923104679400,7.444679443359375,0.5393631532615051,3.38480873452574,9.188173818263412
1757088923114725400,7.454725341796875,0.5083400923578069,3.5031574660524725,9.145482677528262
1757088923124772400,7.4647724609375,0.48180601343642915,3.6266590502977367,9.098660720598698
1757088923134818300,7.474818359375,0.4619766197854653,3.755473061737418,9.047285922670364
1757088923144865300,7.484865234375,0.4527116921056062,3.888028597792983,8.991589754411578
1757088923154911200,7.4949111328125,0.45601471570637075,4.022087524148821,8.9322601980865
1757088923164958500,7.50495849609375,0.4670739429244771,4.1568440773800015,8.869774223557114
1757088923175004400,7.51500439453125,0.4750243174070492,4.291157270757854,8.805152990564704
1757088923185051400,7.525051513671875,0.482570495002903,4.42583520579487,8.737820745047927
1757088923195098400,7.535098388671875,0.4910366004552692,4.562348247304558,8.66684868172407
1757088923205144300,7.545144287109375,0.49968522286769,4.701279455871879,8.591779119953513
1757088923215191300,7.55519140625,0.5024715656505897,4.842744274570047,8.512681033319234
1757088923225237200,7.5652373046875,0.4974346309293061,4.9841801594346755,8.430949091050028
1757088923235284200,7.5752841796875,0.4867093849059194,5.123191739761829,8.34783943068683
1757088923245330400,7.585330322265625,0.4712454564554617,5.26002480700612,8.263200076538324
1757088923255377400,7.59537744140625,0.44800022647902366,5.396728694912791,8.175881274047493
1757088923265423400,7.60542333984375,0.4180805602399632,5.534470109173655,8.084875307476521
1757088923275470300,7.61547021484375,0.38775845067985354,5.671649797898531,7.990769036802649
1757088923285516300,7.625516357421875,0.3610573446284979,5.8082543170839545,7.893300596219301
1757088923295563500,7.6355634765625,0.3408572910342365,5.941546935242414,7.794372604477405
1757088923305609500,7.645609375,0.3296281506093219,6.070742054954171,7.694663691490888
1757088923315656400,7.655656494140625,0.3276746053887531,6.196849730044603,7.5935554331004615
1757088923325703400,7.665703369140625,0.32873021538890895,6.320885859557986,7.490576704663038
1757088923335749400,7.675749267578125,0.33203784209955484,6.445573730978369,7.38340870784223
1757088923345796400,7.68579638671875,0.3305281681889668,6.572339577716589,7.270866616767645
1757088923355842300,7.69584228515625,0.31777751728519793,6.702013420855999,7.152091768783331
1757088923365889300,7.70588916015625,0.2918218227736652,6.835700591289997,7.025555054625868
1757088923375935200,7.715935302734375,0.2559823197652586,6.972498587220906,6.8912348469853395
1757088923385982200,7.725982177734375,0.2168785725302063,7.108204696261883,6.752540077522396
1757088923396028200,7.736028076171875,0.1823947949796915,7.237558805927634,6.614745471769571
1757088923406075400,7.746075439453125,0.1562777724266052,7.356736974015831,6.482621312868595
1757088923416121600,7.75612158203125,0.137105883703148,7.46761493127048,6.355023691481351
1757088923426168300,7.766168212890625,0.11960801087282598,7.570664971378445,6.232263573253155
1757088923436215300,7.77621533203125,0.09841701914560981,7.669522235971689,6.1105731300830834
1757088923446261500,7.786261474609375,0.07006199014107696,7.767478167811036,5.985964169117808
1757088923456308500,7.79630859375,0.040356605973513794,7.864646164143085,5.857993038243055
1757088923466354400,7.8063544921875,0.009511347038845997,7.959586547553539,5.728461233922839
1757088923476401400,7.8164013671875,-0.023485390841285696,8.048314632320404,5.60307602788806
1757088923486447400,7.826447265625,-0.057458460656995884,8.130365139019489,5.483088296982646
1757088923496494300,7.836494384765625,-0.08969664667122997,8.207372975376249,5.366691284045577
1757088923506540300,7.846540283203125,-0.11759713684129527,8.281282261195779,5.25137212947309
1757088923516587300,7.856587158203125,-0.13856331596984528,8.353522152498364,5.135160409975051
1757088923526633200,7.86663330078125,-0.15148615423589945,8.42391553915143,5.018474058702588
1757088923536680400,7.876680419921875,-0.1597519696095027,8.493669458857179,4.899227793814242
1757088923546727400,7.8867275390625,-0.16551033220682293,8.564003224277496,4.775019814865291
1757088923556773400,7.8967734375,-0.1698707559060305,8.631406196942924,4.651919504897296
1757088923566820400,7.9068203125,-0.17181467478172852,8.692561799651385,4.536546282050013
1757088923576866300,7.9168662109375,-0.17211913762101902,8.74560833018422,4.43340827139765
1757088923586913300,7.926913330078125,-0.17353707812754438,8.789160471662878,4.3463717929795385
1757088923596959200,7.936959228515625,-0.17627960003502666,8.823637326282263,4.275832860375941
1757088923607006200,7.947006103515625,-0.17903176655368877,8.851142588323354,4.218482787430286
1757088923617052400,7.957052490234375,-0.1794666508396156,8.874995757597684,4.168047900700569
1757088923627099400,7.967099365234375,-0.17668182416036723,8.900373359960318,4.113699347658455
1757088923637145300,7.977145263671875,-0.17163469683863222,8.930227815476059,4.0487010980471965
1757088923647192600,7.987192626953125,-0.1630593405918218,8.964970627555251,3.971533979475498
1757088923657238500,7.997238525390625,-0.14456849293508567,9.002250849157571,3.887028188578784
1757088923667285200,8.00728515625,-0.11812538936594501,9.037221624773741,3.805925191862881
1757088923677332200,8.017332275390626,-0.08990074527543038,9.06711875038743,3.734924779227376
1757088923687378200,8.027378173828126,-0.06628633949330542,9.091285223394632,3.6762098476693033
1757088923697425400,8.03742529296875,-0.05532939903931692,9.110208535051346,3.629247313225269
1757088923707471000,8.04747119140625,-0.057121392456046305,9.125694273474812,3.590103343577683
1757088923717518300,8.057518310546875,-0.06633522926948499,9.14069310516417,3.5515818897426126
1757088923727564300,8.067564208984376,-0.07349007859334815,9.162019970831274,3.496052602483332
1757088923737611300,8.077611328125,-0.0828212353432551,9.193778798663615,3.4114459815606475
1757088923747657200,8.0876572265625,-0.09763701121644117,9.229519974130392,3.3131223854526874
1757088923757704200,8.0977041015625,-0.1079723354736343,9.266755187547206,3.207178669729829
1757088923767750100,8.107750244140625,-0.11395008557583204,9.301590938606857,3.1044846034526823
1757088923777797000,8.117797119140626,-0.11203673536833375,9.33217020126581,3.0113878020823
1757088923787843300,8.12784326171875,-0.10740407059900461,9.35774186489582,2.931134115672111
1757088923797890300,8.137890380859375,-0.10745529846274293,9.377975090107322,2.8657319614350794
1757088923807937000,8.14793701171875,-0.1099461654304061,9.393244555431604,2.8151842619806526
1757088923817983200,8.157983154296875,-0.11355500357733107,9.405795409446954,2.7728178231552243
1757088923828030500,8.168030517578124,-0.11851352103385142,9.416408573397993,2.7363489179357883
1757088923838076400,8.178076416015625,-0.1246333373547066,9.425866137573122,2.7033091103821993
1757088923848123400,8.188123291015625,-0.13284893864472397,9.43497240409255,2.670960499963164
1757088923858169300,8.19816943359375,-0.14166614082339218,9.444049444517493,2.6382266896188256
1757088923868216300,8.20821630859375,-0.15109553834996187,9.45399508447051,2.601827050243318
1757088923878262300,8.21826220703125,-0.1621343347013928,9.465311428254843,2.5596836065188047
1757088923888309200,8.228309326171875,-0.17378389249546453,9.478059850668906,2.511286363096535
1757088923898355200,8.238355224609375,-0.18398869484132155,9.49176396637261,2.4582398325636983
1757088923908402200,8.248402099609375,-0.19135648366296662,9.506136775118112,2.4014861180759963
1757088923918449200,8.25844921875,-0.196814073215425,9.520647531029582,2.342842936579883
1757088923928495000,8.2684951171875,-0.20274267781311645,9.535000466030835,2.2832095750026404
1757088923938542300,8.278542236328125,-0.20739841293077915,9.548896304914354,2.22394928452149
1757088923948588000,8.288588134765625,-0.20914916558824478,9.562480009108782,2.164622796936333
1757088923958635300,8.29863525390625,-0.20770928724454715,9.57577963566482,2.1051506172701715
1757088923968681200,8.30868115234375,-0.2055010548768565,9.588223522174358,2.047952666146308
1757088923978728200,8.318728271484375,-0.20659770927345378,9.599798809155821,1.9928807672657072
1757088923988774400,8.3287744140625,-0.21349128644578158,9.610780221897363,1.938483552776277
1757088923998821400,8.3388212890625,-0.2233643178203143,9.621189387708903,1.8849960004776716
1757088924008867300,8.348867431640626,-0.23284559166459365,9.631583940473199,1.8299629723027346
1757088924018914300,8.358914306640624,-0.2409008695600554,9.642021163335443,1.773072625823319
1757088924028961300,8.368961181640625,-0.24714436705950646,9.652314593812823,1.7152622418895362
1757088924039007200,8.37900732421875,-0.25026284613991157,9.662136315125226,1.6585764780715107
1757088924049054200,8.38905419921875,-0.25267379800546913,9.671315062358975,1.6038152525752782
1757088924059100200,8.39910009765625,-0.2567208449065685,9.679662619465589,1.5519707913085818
1757088924069147400,8.4091474609375,-0.2638068759110756,9.68702817979753,1.5040855890616773
1757088924079193300,8.419193359375,-0.27462615689346564,9.693433955186604,1.4602398714639246
1757088924089240300,8.429240234375,-0.2882373518830165,9.699127198392151,1.4192387296423314
1757088924099286300,8.439286376953126,-0.30296421649688854,9.704679571822284,1.3776030893094837
1757088924109333200,8.449333251953124,-0.3157330058455467,9.710741648340225,1.3312391052804886
1757088924119379200,8.459379150390625,-0.32519053348805754,9.717085464408994,1.2817521669253706
1757088924129426200,8.46942626953125,-0.3305389453113079,9.723120652920008,1.233715427378565
1757088924139473200,8.47947314453125,-0.33092414523661134,9.728452077075838,1.1908351207468657
1757088924149519000,8.48951904296875,-0.32774113128632304,9.732938282579182,1.1545035051062702
1757088924159566000,8.499566162109375,-0.32699045904949303,9.736205175420642,1.126836330501735
1757088924169612300,8.5096123046875,-0.3285124809850007,9.738414083641766,1.1071348010141402
1757088924179659300,8.5196591796875,-0.331518056009151,9.739888832369447,1.0931770758755504
1757088924189705200,8.529705322265626,-0.335850532255508,9.740864399403334,1.0831178194802253
1757088924199752400,8.53975244140625,-0.3403912078924477,9.741526662704349,1.0757275630984455
1757088924209798400,8.54979833984375,-0.3449448526088148,9.74195219464004,1.0704032262705265
1757088924219845400,8.559845458984375,-0.3504157217679545,9.742296478033065,1.0654857897430658
1757088924229891300,8.569891357421875,-0.35789453321602194,9.742812026339768,1.058248020509258
1757088924239938300,8.579938232421876,-0.3631925300262868,9.743920864364505,1.0461690217893571
1757088924249984300,8.589984375,-0.3646816360728815,9.745386260741949,1.0319049341153352
1757088924260031200,8.60003125,-0.3641828927705064,9.746851657119393,1.0181438275273889
1757088924270078200,8.610078125,-0.36413715393263846,9.748148711192608,1.0056886889714747
1757088924280124200,8.620124267578126,-0.3654930255210027,9.749054135599732,0.9963735289417207
1757088924290171100,8.630171142578124,-0.36889315282069146,9.74939198925197,0.9917891237609088
1757088924300217000,8.640217041015624,-0.3749004304114729,9.749250534954667,0.9909218394070863
1757088924310264300,8.650264404296875,-0.38247203470952806,9.748808051884174,0.9923824865441768
1757088924320310300,8.660310302734375,-0.3890345350302756,9.748323483237623,0.9946068845953792
1757088924330357200,8.670357177734376,-0.39291681982371957,9.747959910622239,0.996643285793811
1757088924340403200,8.6804033203125,-0.39480862491969015,9.747790983796119,0.9975542631588875
1757088924350450200,8.6904501953125,-0.3955340165847912,9.747856450247763,0.9966180052220821
1757088924360496400,8.700496337890625,-0.3962352967219427,9.748159232586621,0.9933793886270373
1757088924370543400,8.71054345703125,-0.3972144074197858,9.748651984539627,0.9881271671872586
1757088924380590000,8.720590087890624,-0.39797245924547314,9.749220139816403,0.9821990923125297
1757088924390636300,8.73063623046875,-0.3981787224072963,9.749735103601216,0.9769844264041632
1757088924400683300,8.740683349609375,-0.3974727660950273,9.750117380917072,0.9734503339938819
1757088924410729200,8.750729248046875,-0.39616197575740514,9.750331315928698,0.9718517396908253
1757088924420776400,8.7607763671875,-0.39406708583738653,9.750322548100351,0.9727887282799929
1757088924430822100,8.770822265625,-0.39126850462742147,9.750115042829513,0.9759878165822475
1757088924440869400,8.780869384765625,-0.3885736760528758,9.749694771590828,0.9812463216323405
1757088924450915300,8.790915283203125,-0.3865914161944762,9.749089791435003,0.9880249489217996
1757088924460962300,8.80096240234375,-0.38528891876116395,9.748398302039503,0.9953338836956769
1757088924471008300,8.81100830078125,-0.3842362679030746,9.747767602920531,1.0018987951692193
1757088924481055200,8.82105517578125,-0.38319216567762193,9.747347331681848,1.0063778402794152
1757088924491102200,8.831102294921875,-0.3820889902086928,9.747221659475564,1.008008071829751
1757088924501148200,8.841148193359375,-0.3804922590691596,9.747417474308609,1.0067201509110628
1757088924511195100,8.851195068359376,-0.37775161859150974,9.747927761918305,1.0028040734458714
1757088924521241000,8.861240966796874,-0.3742767090225592,9.748633864361047,0.9972222547255456
1757088924531288000,8.8712880859375,-0.37092864070367065,9.749307233577966,0.9918883463516831
1757088924541334300,8.881334228515625,-0.36862799907848237,9.749771928480268,0.9881578545864671
1757088924551381200,8.89138134765625,-0.36821119843851774,9.750015674108266,0.9859090527463704
1757088924561427500,8.901427490234376,-0.36904056193474677,9.750163558146356,0.9841276492223143
1757088924571474400,8.911474365234374,-0.37007801522370426,9.750377493157982,0.9816151549447327
1757088924581520400,8.921520263671875,-0.3706480701966211,9.750713008722663,0.9780665225524455
1757088924591567400,8.9315673828125,-0.3705841015823185,9.751078919425606,0.9744405871402472
1757088924601614300,8.9416142578125,-0.3700162750991061,9.751379363676905,0.9716316671993583
1757088924611660300,8.951660400390624,-0.36897560693975534,9.75155647380948,0.9702454735379665
1757088924621707300,8.961707275390625,-0.36768140241075303,9.751610249823331,0.9701913321979343
1757088924631753200,8.971753173828125,-0.366573039310053,9.751559980940819,0.971111369652301
1757088924641800200,8.98180029296875,-0.36540070759505033,9.751459443175792,0.9725789579868316
1757088924651846100,8.99184619140625,-0.36411201949138194,9.751356567323207,0.97410192977041
1757088924661893400,9.001893310546874,-0.3630525370337069,9.751265966430307,0.9753932116899638
1757088924671938800,9.011938720703125,-0.362048547622934,9.751249599817395,0.9759294374585151
1757088924681985800,9.02198583984375,-0.36133426187373696,9.751268889039753,0.9760126587625593
1757088924692031700,9.03203173828125,-0.360950267524831,9.751299868699908,0.9758381059132516
1757088924702078700,9.04207861328125,-0.36069815592728555,9.751344292363523,0.975474021841213
1757088924712125700,9.052125732421874,-0.3603957389146089,9.75142554090619,0.9747826785761863
1757088924722172000,9.062171875,-0.36023539725374426,9.751508543014525,0.9740079678766429
1757088924732218600,9.072218505859375,-0.3601990838313475,9.751599728429317,0.9731143800377845
1757088924742264800,9.082264892578126,-0.36050570209510624,9.751715463763475,0.971844725428149
1757088924752312000,9.09231201171875,-0.3608456381065771,9.751875622761249,0.9701000006526708
1757088924762358000,9.10235791015625,-0.3612887422315776,9.752055070981383,0.9681323538415133
1757088924772405000,9.112405029296875,-0.36146650995127855,9.752224582329392,0.9663486122298985
1757088924782451000,9.122450927734375,-0.36115748053472485,9.752370712801813,0.964994055815786
1757088924792498000,9.132497802734376,-0.3603382731063291,9.752463651782273,0.9643613108702004
1757088924802543900,9.1425439453125,-0.3590444339035079,9.752418059074879,0.9653165657684206
1757088924812590800,9.1525908203125,-0.3576633548086509,9.752139242133497,0.9686272246863692
1757088924822636800,9.16263671875,-0.35619463396295903,9.751627785480022,0.9743171799562871
1757088924832683800,9.172683837890625,-0.3548199846088886,9.75093980321586,0.9816775526564567
1757088924842730800,9.182730712890624,-0.35373383333999664,9.750193368762732,0.9894554201163351
1757088924852776700,9.192776611328124,-0.3529924403881654,9.749494280582665,0.99657292397134
1757088924862823700,9.20282373046875,-0.3524594294900074,9.748882870686053,1.002715518379584
1757088924872869600,9.21286962890625,-0.3522187891345471,9.748364399769901,1.007833080589026
1757088924882916900,9.222916748046876,-0.3521223064901307,9.74793769879043,1.0119785098306835
1757088924892962800,9.232962890625,-0.35225839049257335,9.747596922528743,1.0152168341647834
1757088924903009800,9.243009765625,-0.35253790155369785,9.747329211503267,1.0176880465839058
1757088924913056000,9.253055908203125,-0.3528323179230094,9.747115276491641,1.0196350889984518
1757088924923103000,9.26310302734375,-0.35327187838405366,9.746880298691988,1.0217182519480585
1757088924933149000,9.27314892578125,-0.3537539262799546,9.74665175063312,1.0237228697687386
1757088924943196000,9.28319580078125,-0.3538639625256881,9.746453013190626,1.0255794574208557
1757088924953243000,9.293242919921875,-0.3534505959518254,9.746346630206704,1.026728115999326
1757088924963288800,9.303288818359375,-0.35293946809191257,9.74627765662372,1.0275690238028765
1757088924973335800,9.313335693359376,-0.35230358134116974,9.746218619912863,1.0283453419376165
1757088924983381800,9.3233818359375,-0.35172172633260484,9.746163674855232,1.0290652537100016
1757088924993429000,9.333428955078125,-0.35141247772034256,9.74609236318469,1.0298486591726541
1757088925003475000,9.343474853515625,-0.3517002086205408,9.745989487332105,1.0307307757694273
1757088925013522000,9.35352197265625,-0.35239600886497646,9.745861477038265,1.0317018858239053
1757088925023568000,9.36356787109375,-0.3533751926280558,9.745686704993247,1.0330199826851487
1757088925033614800,9.37361474609375,-0.354653761196509,9.745450558149814,1.0347948103379458
1757088925043660800,9.383660888671875,-0.35598932064920663,9.745151282942295,1.0371458304435015
1757088925053707800,9.393707763671875,-0.35711828814651814,9.744852592256665,1.0395675046324728
1757088925063754800,9.403754638671876,-0.3579593420805409,9.744601832365989,1.0416311591640115
1757088925073800700,9.41380078125,-0.3583864083861932,9.74439432709515,1.0434327286932616
1757088925083847700,9.42384765625,-0.3583224763045087,9.7442271538347,1.0450042888589204
1757088925093894000,9.433893798828125,-0.35821433975491673,9.744076931709051,1.0464495922964065
1757088925103940600,9.443940673828125,-0.35794757857751097,9.743950674980878,1.0477032456193118
1757088925113986800,9.45398681640625,-0.35773327823970463,9.743829678949712,1.048906191668287
1757088925124034000,9.464033935546874,-0.35778519109003243,9.74370283769965,1.0500606224004179
1757088925134080000,9.474080078125,-0.35804497453738005,9.743543263223767,1.0514539764549582
1757088925144127000,9.484126953125,-0.35841914161201566,9.74333108177781,1.053286525644362
1757088925154173000,9.4941728515625,-0.3588255304558202,9.743083829018474,1.05544428820014
1757088925164220000,9.504219970703126,-0.3590040653605014,9.742832484605907,1.0576896559741347
1757088925174267000,9.514266845703125,-0.35908604455552995,9.74260276750326,1.059774718619883
1757088925184312800,9.524312744140625,-0.3592145297734067,9.742417474064231,1.0614389985702932
1757088925194359800,9.53435986328125,-0.35966336951944977,9.742275435245036,1.0625818119298667
1757088925204405800,9.54440576171875,-0.36023459353614595,9.742162037998437,1.0634262999299913
1757088925214452700,9.55445263671875,-0.3607404606990516,9.742024090832471,1.0645211824946106
1757088925224498700,9.564498779296875,-0.36106918119676407,9.741810155820845,1.0663660066436975
1757088925234546000,9.5745458984375,-0.36094606627374887,9.741489253303408,1.0693380812570452
1757088925244591900,9.584591796875,-0.3601325579337776,9.741049108320475,1.073624088013172
1757088925254638800,9.594638916015626,-0.3587093201976269,9.740468678084016,1.0793377164196223
1757088925264684800,9.604684814453124,-0.35682946126777676,9.739781280341743,1.086150903565809
1757088925274731800,9.614731689453125,-0.3551173235876485,9.739034261366724,1.0933759594485164
1757088925284778800,9.62477880859375,-0.3537424915704876,9.738293087610602,1.1004165986750274
1757088925294825000,9.634824951171876,-0.3533914861757308,9.737547237679362,1.1070989990483968
1757088925304871700,9.64487158203125,-0.3544289759973064,9.7368025567919,1.1133056716687977
1757088925314918000,9.65491796875,-0.3566109596788883,9.736096454349159,1.11877533525154
1757088925324964900,9.66496484375,-0.35917792409006505,9.735551095426082,1.1226873941287399
1757088925335010800,9.6750107421875,-0.3613548297377303,9.73529332127273,1.1242189876101911
1757088925345057800,9.685057861328126,-0.36280868180785325,9.735319624757766,1.123535535390675
1757088925355103700,9.695103759765624,-0.36346119089983403,9.735504333674907,1.1217102927248925
1757088925365151000,9.70515087890625,-0.36320352634433656,9.735754509043693,1.119630052384734
1757088925375197000,9.715197021484375,-0.3624908845629543,9.735987148755788,1.1178346934005619
1757088925385244000,9.725243896484375,-0.36128636761140076,9.736215696814655,1.1162390217069535
1757088925395289900,9.735289794921876,-0.360243617092818,9.736364749896525,1.1152792367640882
1757088925405336800,9.7453369140625,-0.359360221854411,9.736347214239835,1.1156984120242297
1757088925415383800,9.7553837890625,-0.3587934913497418,9.736124511399865,1.1178237336151302
1757088925425429800,9.7654296875,-0.35817320402693004,9.735774967309831,1.1210678301028907
1757088925435476700,9.775476806640626,-0.3572098388874903,9.735411394694447,1.1245195779919623
1757088925445522700,9.785522705078124,-0.35527448691073804,9.73516238836944,1.1272856817044317
1757088925455569700,9.795569580078125,-0.35234815113525836,9.73503087094426,1.1293462674960493
1757088925465616000,9.805615966796875,-0.34874866533856835,9.734953129532933,1.1311327855866402
1757088925475662800,9.815662841796875,-0.34542627945020793,9.734831548979878,1.133196513183415
1757088925485708800,9.825708740234376,-0.34273963418211784,9.73462229014337,1.1357983662448823
1757088925495756000,9.835756103515624,-0.34066575051750986,9.734329444676638,1.138928115637973
1757088925505802800,9.845802734375,-0.33908114820718765,9.733959442320465,1.1425536126587539
1757088925515849000,9.855848876953125,-0.33764793706629426,9.73359703874886,1.1460644703239202
1757088925525896000,9.86589599609375,-0.3363415671754628,9.733293087366222,1.1490209089767187
1757088925535942000,9.87594189453125,-0.33526451252847905,9.733071553570031,1.1512219261523335
1757088925545988900,9.88598876953125,-0.33476799771580845,9.732914317181706,1.1526863726817071
1757088925556034800,9.896034912109375,-0.3351396805724129,9.732787475931644,1.1536441848631949
1757088925566081800,9.906081787109375,-0.3358824617637321,9.73268460007906,1.1543102475564926
1757088925576127700,9.916127685546876,-0.3368841496195644,9.732577632573246,1.1549018567740916
1757088925586174700,9.9261748046875,-0.33786399096976966,9.732432671144604,1.1558424255598336
1757088925596220700,9.936220703125,-0.3386537531079724,9.732246208661794,1.157193109516427
1757088925606268000,9.946267822265625,-0.33939711882118134,9.732004216599464,1.1590071001358329
1757088925616313900,9.95631396484375,-0.3403329383665696,9.731709617567061,1.1612138163998722
1757088925626360800,9.96636083984375,-0.34136933220960197,9.73137760913372,1.1636759687297045
1757088925636407800,9.97640771484375,-0.3424342580273747,9.731068397054075,1.1659588189698755
1757088925646453800,9.986453857421875,-0.3434142820406705,9.730807115769386,1.1678424407593906
1757088925656500700,9.996500732421875,-0.34438539209514857,9.730573307013511,1.1694969299681484
1757088925666547000,10.006546875,-0.3450566058875993,9.730371646961569,1.1709723362829536
1757088925676594200,10.01659423828125,-0.34567941396106033,9.730164726212621,1.1725186889421193
1757088925686640400,10.026640380859375,-0.3465731844630092,9.729920396062731,1.1742756156120449
1757088925696687400,10.036687255859375,-0.3474136173425242,9.729635149380565,1.1763878585256635
1757088925706733600,10.046733642578126,-0.34794432668574155,9.72934288843572,1.178642870910838
1757088925716780500,10.056780517578124,-0.34821919810436663,9.729052965578436,1.1809566277459262
1757088925726826500,10.066826416015624,-0.34827381436843424,9.728774733158945,1.1832388203989714
1757088925736873500,10.07687353515625,-0.3482000915450975,9.728479549604653,1.1856762766789644
1757088925746920400,10.08692041015625,-0.3477828159810975,9.728161569696665,1.1884044595338403
1757088925756966400,10.09696630859375,-0.3469075309839099,9.727828976741433,1.1913808449961245
1757088925767013400,10.107013427734374,-0.3457562785895541,9.727451375600696,1.1948064355306327
1757088925777059300,10.117059326171875,-0.344287484678626,9.727036949580906,1.1985830314598978
1757088925787106300,10.127106201171875,-0.34267723647039383,9.72664005921781,1.2022677843872458
1757088925797152300,10.13715234375,-0.34141298868823794,9.726263627120852,1.2056670714367181
1757088925807199500,10.147199462890624,-0.34060021100062876,9.725922266337275,1.208640680420026
1757088925817245400,10.157245361328124,-0.33997648961171506,9.725630005392432,1.2111770670298487
1757088925827292400,10.16729248046875,-0.3397459687914699,9.725365216976403,1.2133642018105835
1757088925837338400,10.17733837890625,-0.33970340829137713,9.72509399881959,1.2155389155011624
1757088925847385300,10.18738525390625,-0.3397701899172738,9.724822780662775,1.2176965319264679
1757088925857432300,10.197432373046874,-0.34016620349753646,9.724536949458718,1.2198597743749617
1757088925867478300,10.207478271484375,-0.3407193804008886,9.724221307638286,1.2222274533543735
1757088925877525200,10.217525146484375,-0.340817251284793,9.723856565979123,1.2250992093984037
1757088925887571500,10.227571533203125,-0.34016138119194655,9.723449154222012,1.2285052915148436
1757088925897618200,10.2376181640625,-0.33880496161431073,9.723057524555921,1.2319748673215507
1757088925907664400,10.247664306640624,-0.33720125274471935,9.722709734031557,1.2351546664014459
1757088925917711400,10.25771142578125,-0.3354268269507214,9.722414550477266,1.2379521881654858
1757088925927757300,10.26775732421875,-0.33373054442685096,9.722147423973679,1.2405210157401858
1757088925937804500,10.277804443359376,-0.3323635669225827,9.721909523564577,1.2427451215304433
1757088925947850500,10.2878505859375,-0.33158980607111005,9.721687989768386,1.244684126769006
1757088925957897500,10.2978974609375,-0.331026619230397,9.721486329716443,1.246403059516102
1757088925967944400,10.3079443359375,-0.3308725611798465,9.721266549485922,1.2481519490100443
1757088925977990400,10.317990478515625,-0.3311655162444338,9.721012866985797,1.2500387856699526
1757088925988037400,10.328037353515626,-0.3317037878395989,9.720736972653865,1.2520447186648844
1757088925998083300,10.338083251953124,-0.3322761443674564,9.720444711709021,1.25416068790555
1757088926008130300,10.34813037109375,-0.3325682591818273,9.720146021023393,1.2563944383069872
1757088926018176300,10.35817626953125,-0.33259178618788715,9.719861358863115,1.2586005700491367
1757088926028223200,10.36822314453125,-0.3326661665983498,9.719538702780008,1.2610735360339282
1757088926038269200,10.378269287109376,-0.33287575422842053,9.71916343972683,1.2638977996744214
1757088926048316400,10.38831640625,-0.3332219373175874,9.718747844663262,1.2669957656897604
1757088926058362400,10.3983623046875,-0.3336201063223183,9.718356214997172,1.269898501393944
1757088926068409300,10.408409423828125,-0.33414387446809557,9.717992057859897,1.2725444858580828
1757088926078456300,10.418456298828126,-0.33469935292638836,9.717647774466872,1.2750313342377542
1757088926088502500,10.42850244140625,-0.33507311814222485,9.717301737508178,1.27755705332309
1757088926098549200,10.43854931640625,-0.3353656348153949,9.716963299334049,1.2800544230967759
1757088926108595500,10.448595458984375,-0.3354813701495528,9.716633044466375,1.2825265122987328
1757088926118642400,10.458642333984375,-0.3354691317224875,9.716301620554923,1.2850472629480063
1757088926128688400,10.4686884765625,-0.3353281523492187,9.715984225168823,1.2874753668777643
1757088926138735400,10.4787353515625,-0.33534123102650043,9.715638188210129,1.2900846725933253
1757088926148781300,10.48878125,-0.33548169894311575,9.715286890554427,1.2926876946985721
1757088926158828300,10.498828369140625,-0.33574491645656523,9.714916303676366,1.2954042601808904
1757088926168874200,10.508874267578125,-0.3363604910716414,9.714540456101298,1.298059158603847
1757088926178921500,10.51892138671875,-0.3370129636310041,9.714176298964023,1.3006138115227222
1757088926188968400,10.528968505859375,-0.3377416066991165,9.71382675487399,1.3030362163640559
1757088926199014400,10.539014404296875,-0.3380434757225215,9.713487732177972,1.3054773259058594
1757088926209061400,10.549061279296875,-0.337737624643743,9.713166245138645,1.3079445928022264
1757088926219107300,10.559107421875,-0.3364111252803355,9.712879244890809,1.3104073296539485
1757088926229154300,10.569154296875,-0.33373540326505896,9.712602766036987,1.313144061141461
1757088926239200300,10.5792001953125,-0.3299048851914704,9.712304659873247,1.3163143617406488
1757088926249247200,10.589247314453125,-0.3258714284243062,9.711977327615022,1.319736591274291
1757088926259293400,10.59929345703125,-0.3227032832495868,9.711533090978861,1.3237725687921047
1757088926269340200,10.609340087890626,-0.32112375897318124,9.710932202476263,1.3285475281089543
1757088926279386400,10.619386474609374,-0.32093649277277286,9.710243051168321,1.3336283385045826
1757088926289433600,10.62943359375,-0.32199396593645213,9.709504800021648,1.3387512344762682
1757088926299480300,10.639480224609375,-0.3239643892265856,9.70886591759622,1.3428990018054843
1757088926309526500,10.649526611328126,-0.3262725200384855,9.708411159566044,1.345616736331582
1757088926319573500,10.659573486328124,-0.3282067760366946,9.708234633955358,1.346423230408877
1757088926329619500,10.669619384765625,-0.32947018356863406,9.708322896760702,1.3454754281647503
1757088926339666400,10.67966650390625,-0.33062030345182863,9.708564888823032,1.3434480139903724
1757088926349712400,10.68971240234375,-0.33211963863149285,9.708837860545515,1.3411023276470602
1757088926359759400,10.69975927734375,-0.3339955885712057,9.709119600096344,1.338601450742036
1757088926369805300,10.709805419921874,-0.3362745663538575,9.709406600344181,1.335947721362859
1757088926379852300,10.719852294921875,-0.3387219960385933,9.709608260396122,1.333860685955733
1757088926389898200,10.729898193359375,-0.34113738661725074,9.709699445810914,1.3325715229280293
1757088926399945200,10.7399453125,-0.34344117004759606,9.709681910154222,1.3321104812875388
1757088926409992400,10.749992431640624,-0.34534320427663623,9.70965093049407,1.331844669958204
1757088926420038400,10.760038330078125,-0.34640381924547253,9.709708213639258,1.3311533266931772
1757088926430085400,10.77008544921875,-0.34666447947565465,9.709901690384745,1.3296790163569152
1757088926440131300,10.78013134765625,-0.3459749993741512,9.710123224180936,1.3282269178524613
1757088926450178300,10.79017822265625,-0.3448129333248362,9.710255326128005,1.3275564712449908
1757088926460224500,10.800224609375,-0.34412948110532016,9.710215578639506,1.328029933975637
1757088926470271200,10.810271240234375,-0.3441712013551965,9.710059511294961,1.3291547002218662
1757088926480317400,10.8203173828125,-0.34491464013364165,9.709871295246481,1.3303482939206064
1757088926490364400,10.830364501953126,-0.3462558621421456,9.709718735033274,1.3311148943789302
1757088926500410400,10.840410400390626,-0.34806334995552896,9.709615859180689,1.3313970723211765
1757088926510457300,10.850457275390625,-0.35010749606899916,9.70957494264841,1.3311615099996328
1757088926520504600,10.860504638671875,-0.3519804868666455,9.70955682246983,1.330786246946454
1757088926530550500,10.870550537109375,-0.3537330296223983,9.709542209422588,1.3304292502023278
1757088926540597500,10.880597412109376,-0.3553864959178492,9.709491356018185,1.3303542852699757
1757088926550643500,10.8906435546875,-0.3565916704565286,9.709377374249696,1.3308788936659692
1757088926560690400,10.9006904296875,-0.35785544331464914,9.70916519280374,1.3320843239329754
1757088926570736400,10.910736328125,-0.3593963160810992,9.708874100902676,1.333794781112671
1757088926580783400,10.920783447265626,-0.36149000042472035,9.708473703408242,1.3361433900654316
1757088926590829300,10.930829345703126,-0.36410281327161936,9.707967507451771,1.3390981482177973
1757088926600876300,10.940876220703124,-0.36711741185244173,9.707481769761442,1.341789579258859
1757088926610922200,10.950922119140625,-0.3698206063965335,9.707186001685262,1.3431925779245792
1757088926620969200,10.96096923828125,-0.3715765832183882,9.707071435394882,1.3435302854463458
1757088926631016400,10.971016357421876,-0.3724560329340398,9.706948685798048,1.3441834886580706
1757088926641062100,10.981062255859374,-0.37426421486716716,9.706961545279622,1.3435853766344488
1757088926651109400,10.991109375,-0.37595658840090035,9.707123457843064,1.3419392168626187
1757088926661155600,11.001155517578125,-0.3762969993364066,9.707419225919246,1.3397102887667716
1757088926671202000,11.0112021484375,-0.3763410942064598,9.707575293263792,1.3385571732088923
1757088926681248000,11.021248046875,-0.37654056230131533,9.707630238321423,1.3380983235254882
1757088926691295000,11.031294921875,-0.3765526180652901,9.707785721144079,1.3369678581908344
1757088926701341000,11.0413408203125,-0.37581009260229764,9.708025959640741,1.335435534057021
1757088926711388200,11.05138818359375,-0.37486243648864326,9.708284318315982,1.3338245917290448
1757088926721434000,11.06143408203125,-0.37444311509802936,9.708433955919743,1.332857061871141
1757088926731481000,11.071481201171874,-0.374136971758306,9.708497668805718,1.3324717158153652
1757088926741528000,11.081528076171875,-0.373790058016777,9.708555536472797,1.332136784772575
1757088926751574000,11.091573974609375,-0.3735226027196273,9.70866075041294,1.331449240899831
1757088926761621000,11.10162109375,-0.37343525322973725,9.708808634451032,1.3303975398898125
1757088926771667000,11.1116669921875,-0.3735846351051703,9.708943659007549,1.3293696581467986
1757088926781714000,11.1217138671875,-0.37362211757134645,9.709110247746109,1.3281412853956223
1757088926791760000,11.131759765625,-0.3727434715732932,9.70935107076466,1.32662532787472
1757088926801806800,11.141806884765625,-0.37152540102042253,9.709712305292486,1.3243252342388032
1757088926811853000,11.15185302734375,-0.37056685818657276,9.710049574422836,1.3221248015850782
1757088926821899800,11.161899658203126,-0.36956772761400786,9.710383336421847,1.3199560792438685
1757088926831946000,11.171946044921874,-0.36898908747583625,9.710660984319448,1.3180730419762432
1757088926841993200,11.1819931640625,-0.3691753307629376,9.710836925408243,1.316715489887446
1757088926852040000,11.1920400390625,-0.36970381161645055,9.710978964227438,1.3155319791913032
1757088926862086100,11.202086181640626,-0.36959936486128714,9.711154905316233,1.3142549449928105
1757088926872133000,11.212133056640624,-0.3685303473902866,9.711411510425805,1.3126556931026279
1757088926882179000,11.222178955078125,-0.3670149013260379,9.711735920074581,1.3106794245935975
1757088926892226000,11.23222607421875,-0.3654264630908146,9.71209540103674,1.3084556110642849
1757088926902272000,11.24227197265625,-0.3638352118439972,9.712457220086455,1.3062095857031644
1757088926912319000,11.252319091796876,-0.36258451766315847,9.71280267252326,1.303981680520624
1757088926922365000,11.262364990234374,-0.3618765155242756,9.713160984441638,1.3015167517118156
1757088926932412000,11.272411865234375,-0.36157526755537833,9.71354735341072,1.298714553772658
1757088926942457900,11.282457763671875,-0.3617077713612467,9.713971131780744,1.2954976375527678
1757088926952505000,11.292505126953126,-0.36217677711248397,9.714396663716435,1.292166447303444
1757088926962552000,11.302552001953124,-0.3627346301909536,9.714776602944731,1.2891579131372273
1757088926972598000,11.312597900390625,-0.3627999870447442,9.715081723371148,1.2868367767132818
1757088926982645000,11.32264501953125,-0.3624355376465246,9.715316701170801,1.2851787803731858
1757088926992691000,11.33269091796875,-0.3615148060724139,9.715553432536124,1.2836346196711064
1757088927002738000,11.342738037109376,-0.36021910370606924,9.715836341130734,1.2818677561290561
1757088927012784000,11.3527841796875,-0.35878508884757754,9.716169518607854,1.2797417038857937
1757088927022830800,11.362830810546875,-0.3571819644998759,9.71649685086608,1.2776888630092142
1757088927032877000,11.372876953125,-0.3557743627242744,9.716744103625416,1.2762009625390172
1757088927042924000,11.382924072265626,-0.35472061588764187,9.716822429558635,1.275895549851656
1757088927052971000,11.392970947265624,-0.3542272428801283,9.71668155978322,1.277106533076614
1757088927063017000,11.403016845703124,-0.35434049399625506,9.716396313101052,1.2792391611911356
1757088927073064200,11.413064208984375,-0.3546193840028718,9.716070149886608,1.2816473913766444
1757088927083110100,11.423110107421875,-0.35481483350973575,9.715817051908374,1.2835109932914375
1757088927093157000,11.4331572265625,-0.35492983819153157,9.715664491695165,1.2846340059719978
1757088927103203000,11.443203125,-0.3550047665912658,9.71556395393014,1.2853713803358375
1757088927113250000,11.45325,-0.35496823397316035,9.715473353037238,1.2860659384712576
1757088927123296000,11.4632958984375,-0.35474385063275693,9.715357617703079,1.2870017580166457
1757088927133343000,11.473343017578125,-0.35446872348580505,9.715196289661526,1.2882922362186013
1757088927143389000,11.483388916015626,-0.3541267051151022,9.714988199868797,1.2899502325586973
1757088927153436000,11.493435791015624,-0.3537976558238268,9.714790046948194,1.2915319487921892
1757088927163481900,11.50348193359375,-0.3535104729129001,9.714623458209633,1.2928639280483125
1757088927173528800,11.51352880859375,-0.35298392828814684,9.714521751400827,1.29377315184772
1757088927183576000,11.523576171875,-0.35204343256764115,9.714466221821308,1.2944411142371595
1757088927193622000,11.5336220703125,-0.35057204484082755,9.714455700427294,1.294930651319772
1757088927203669000,11.5436689453125,-0.3488418600473553,9.71449953956902,1.2950650913543997
1757088927213715200,11.553715087890625,-0.3471230734307319,9.714521166878939,1.2953719653464852
1757088927223762000,11.563761962890625,-0.3455106332654133,9.714507138353586,1.2959005192652344
1757088927233808100,11.57380810546875,-0.3441173888087272,9.714446348077058,1.296733901349455
1757088927243855000,11.583855224609374,-0.3428562828317284,9.714288527166843,1.29825365826264
1757088927253901000,11.593901123046875,-0.34172976301983,9.714000942397117,1.3007019281975924
1757088927263948000,11.603947998046875,-0.340845673661679,9.713613404384255,1.3038200602181256
1757088927273995000,11.6139951171875,-0.34006603105869143,9.713218267586827,1.3069557278953492
1757088927284041000,11.624041015625,-0.33947504289560015,9.712880998456477,1.3096077037088572
1757088927294088000,11.634087890625,-0.3388777345895767,9.712585230380297,1.3119595275320113
1757088927304134000,11.6441337890625,-0.33831641091238707,9.712287708738446,1.3143028757877646
1757088927314181000,11.65418115234375,-0.33754100609309967,9.71200070849061,1.3166275193430483
1757088927324227000,11.66422705078125,-0.3365216364501044,9.7117008487612,1.319091279108077
1757088927334274000,11.674274169921874,-0.3354183879159391,9.711392805725335,1.3216437400698662
1757088927344320000,11.684320068359375,-0.33447939003277566,9.711072487729787,1.324225280995667
1757088927354367000,11.694366943359375,-0.3337800826570019,9.710760937562585,1.3266913788482546
1757088927364413000,11.704412841796875,-0.33336536437626924,9.710464584964512,1.3289543553441763
1757088927374460000,11.7144599609375,-0.333372561302036,9.710186937066911,1.3309798698224127
1757088927384507000,11.7245068359375,-0.333896219849959,9.709880647596716,1.3330848792776464
1757088927394552800,11.734552734375,-0.3345945408450439,9.709589555695652,1.3350325062140822
1757088927404599800,11.744599853515625,-0.33544370502028614,9.709320675626397,1.3367751120977103
1757088927414646000,11.75464599609375,-0.33630145436078307,9.709105571570992,1.338118635661155
1757088927424693000,11.76469287109375,-0.33731980109047144,9.708976392233371,1.3388064717948436
1757088927434739200,11.7747392578125,-0.33838111017905176,9.708955933967232,1.3386826992847025
1757088927444786200,11.7847861328125,-0.339298919143714,9.709031921812892,1.3378987093001604
1757088927454832000,11.79483203125,-0.3402414606908336,9.709186820113658,1.3365391113847493
1757088927464879000,11.804879150390626,-0.3412959747124463,9.709342887458204,1.3351321671962737
1757088927474925000,11.814925048828124,-0.34215686585810035,9.709486679843067,1.3338640469565988
1757088927484972000,11.824971923828125,-0.34304223385788496,9.709570850995183,1.3330216047830878
1757088927495019000,11.83501904296875,-0.34371107303015885,9.709609429439901,1.3325674312748015
1757088927505065000,11.84506494140625,-0.3442059804076329,9.70961235204935,1.3324129713654518
1757088927515112000,11.85511181640625,-0.34461225965358316,9.709569097429513,1.332629682856053
1757088927525158000,11.865157958984375,-0.34474121979549527,9.709509476196766,1.33302715774104
1757088927535204900,11.875204833984375,-0.3446732691258192,9.70944400974512,1.333514795127511
1757088927545250800,11.885250732421875,-0.3444045717196539,9.709394325384498,1.3339476335868239
1757088927555298000,11.895298095703126,-0.34417269919253884,9.709359254071115,1.3342647367119789
1757088927565344000,11.905343994140624,-0.3439344699898734,9.709296125707029,1.3347908064126968
1757088927575391000,11.915390869140625,-0.34373196968771513,9.709189742723106,1.3356127903200685
1757088927585437200,11.925437255859375,-0.34336214999463405,9.709055887210368,1.3366871415533124
1757088927595484000,11.93548388671875,-0.34283176944497973,9.708897481778264,1.337971336144954
1757088927605531000,11.94553076171875,-0.3422149161882698,9.70871627999246,1.3394433083936572
1757088927615577000,11.9555771484375,-0.34130222179014236,9.708523972290754,1.3410719325087963
1757088927625624000,11.9656240234375,-0.3404068073203787,9.70830945275724,1.342851509401947
1757088927635670000,11.975669921875,-0.33943430902641264,9.7080849963516,1.3447180339261888
1757088927645717000,11.985717041015626,-0.33852230874802913,9.707833651939033,1.3467585998430847
1757088927655763000,11.995762939453124,-0.3373200202861801,9.707563018304109,1.3490122239887714
1757088927665810200,12.00581005859375,-0.3359327671788633,9.70724270030856,1.351659231366217
1757088927675855600,12.015855712890625,-0.3345335313728079,9.706846394467354,1.3548520360581575
1757088927685902600,12.025902587890625,-0.3329010713327676,9.706333768770097,1.358917093539983
1757088927695948500,12.035948486328126,-0.33152759102247653,9.705738140964508,1.363503982938826
1757088927705995800,12.045995849609374,-0.33037586370408534,9.70511737871766,1.3681870261885225
1757088927716042800,12.056042724609375,-0.32948735389914363,9.704531687784195,1.3725531124435364
1757088927726088700,12.066088623046875,-0.328912513153255,9.704021400174497,1.3762896686233579
1757088927736135700,12.0761357421875,-0.3284919861862436,9.703585346844791,1.3794571927435695
1757088927746181600,12.086181640625,-0.3279672316597774,9.703170336303115,1.3824965604394674
1757088927756228600,12.096228515625,-0.3272953237475827,9.702753572195768,1.3855784521028398
1757088927766274800,12.10627490234375,-0.3265073517076671,9.702325117650627,1.3887649731844662
1757088927776321500,12.116321533203125,-0.3258377818830311,9.701862176313996,1.3921499394476413
1757088927786367700,12.12636767578125,-0.32543654413837936,9.701451257425546,1.3951055743828416
1757088927796414700,12.136414794921874,-0.32516572784036396,9.701130939429998,1.3973980692341923
1757088927806460700,12.146460693359375,-0.3248449349207803,9.70092284963727,1.3989125654503702
1757088927816508000,12.1565078125,-0.32415976566821336,9.700766197770834,1.4001621271200477
1757088927826555000,12.166554931640626,-0.32337201282400635,9.70062532799542,1.4013186036787926
1757088927836600800,12.176600830078126,-0.32239049097336825,9.700488549873231,1.4024920313723384
1757088927846647800,12.186647705078125,-0.3213436488015577,9.700401456111669,1.4033344735458493
1757088927856693800,12.19669384765625,-0.3203588390152901,9.700374568104744,1.4037420314334332
1757088927866740700,12.20674072265625,-0.3195238494958728,9.700422498899698,1.4036011616580188
1757088927876786700,12.21678662109375,-0.3189580323066562,9.700523621186614,1.4030343215554952
1757088927886833700,12.226833740234374,-0.31888474787473675,9.700652800524233,1.4021626532875
1757088927896879600,12.236879638671875,-0.3192679385060444,9.70077087394595,1.4012559137061238
1757088927906926600,12.246926513671875,-0.3199211051851511,9.70088660928011,1.4003056272439658
1757088927916972500,12.25697265625,-0.3205785461805761,9.700976625651121,1.399530405087769
1757088927927019500,12.26701953125,-0.32124267264511436,9.700967857822775,1.399435420280695
1757088927937066800,12.277066650390625,-0.32189846967272456,9.700852122488618,1.4000788327507674
1757088927947112700,12.28711279296875,-0.3225675645733252,9.70065864574313,1.4012681886658072
1757088927957159700,12.29715966796875,-0.32331451048310844,9.700473352304101,1.402386817432195
1757088927967206000,12.307205810546876,-0.323995368886739,9.700333651572466,1.4031937499009073
1757088927977252600,12.317252685546874,-0.3245407643424347,9.700214993628858,1.4038723798148334
1757088927987298800,12.327298828125,-0.32468568923845886,9.700087567856908,1.4047272430785
1757088927997345800,12.337345703125,-0.3243626312965527,9.699901689895986,1.4060807035140692
1757088928007391700,12.347391845703125,-0.3236249646717682,9.699624626520276,1.4081620398327708
1757088928017438700,12.357438720703126,-0.3229808946145698,9.699248778945208,1.4108989174507558
1757088928027484700,12.367484619140624,-0.3224697302220389,9.698821493443846,1.4139531904548406
1757088928037531600,12.37753173828125,-0.3220751414138824,9.698394207942485,1.4169664007961749
1757088928047577600,12.38757763671875,-0.32184768933355806,9.697962830787896,1.4199667516559362
1757088928057624800,12.397624755859376,-0.32192919360455124,9.697571785643696,1.4226253033407033
1757088928067671800,12.407671875,-0.322076748849079,9.697212304681539,1.4250366022661327
1757088928077717800,12.4177177734375,-0.322252799535729,9.69685457728505,1.4274267122730613
1757088928087764700,12.4277646484375,-0.3225610982999205,9.696513216501474,1.4296760986350476
1757088928097810700,12.437810791015625,-0.32266927138213064,9.69620400442183,1.4317531971700488
1757088928107857700,12.447857666015626,-0.32245464225076137,9.69594447670281,1.4335614156357943
1757088928117903600,12.457903564453124,-0.3218783402001485,9.695732295256853,1.435110106382519
1757088928127950600,12.46795068359375,-0.3211567844599485,9.695589087393879,1.4362451017618179
1757088928137996800,12.477996826171875,-0.32036662046294656,9.695507254329323,1.4369699089050292
1757088928148043500,12.48804345703125,-0.31958632027283307,9.695469260406494,1.4374036241471766
1757088928158089700,12.49808984375,-0.31894659759718924,9.69545815449059,1.4376198972463607
1757088928168136700,12.50813671875,-0.31846659552790224,9.6954406188339,1.4378427462168037
1757088928178183700,12.51818359375,-0.31823870505616064,9.695359370291232,1.4384411505013703
1757088928188230000,12.52822998046875,-0.3181558125456795,9.695188689899444,1.4396122401073574
1757088928198276900,12.53827685546875,-0.3181425512053072,9.69495137401223,1.4412214288696645
1757088928208322800,12.54832275390625,-0.3183158619455993,9.69469359985888,1.442909381956607
1757088928218369800,12.558369873046875,-0.31871337336320427,9.694477326759696,1.4442721947424113
1757088928228415700,12.568415771484375,-0.3192858760215342,9.694323597502708,1.4451708971478043
1757088928238462700,12.578462646484375,-0.31994262289721515,9.694259884616732,1.4454554131776094
1757088928248508700,12.5885087890625,-0.3206044478068128,9.694252870354056,1.4453618896752596
1757088928258555600,12.5985556640625,-0.321192988284491,9.694297878539562,1.444925105693191
1757088928268601600,12.6086015625,-0.3215940068334341,9.694318921327591,1.4446933427639306
1757088928278648600,12.618648681640625,-0.32171551432125267,9.694248194178938,1.4451428400970994
1757088928288694500,12.628694580078125,-0.32145266213398427,9.694048287692665,1.4465395551525055
1757088928298741800,12.63874169921875,-0.32085992040522393,9.693757780313492,1.448624398602545
1757088928308788700,12.648788818359375,-0.3200669433966279,9.693452659887075,1.4508346219979227
1757088928318834700,12.658834716796875,-0.31942696499265727,9.693173842945694,1.452839970470965
1757088928328881700,12.668881591796875,-0.3191328774169087,9.692895026004313,1.4547564716167747
1757088928338927900,12.678927978515626,-0.3193360353061929,9.69267758386135,1.4561692610241472
1757088928348974600,12.688974609375,-0.3200341371055692,9.692526192691922,1.4570226629830896
1757088928359020800,12.699020751953125,-0.320901165731065,9.692471247634291,1.4571948046796024
1757088928369067800,12.70906787109375,-0.3217086096564308,9.692513333210348,1.4567463302597403
1757088928379113700,12.71911376953125,-0.32231344368178394,9.692608610278368,1.455966139667481
1757088928389160700,12.72916064453125,-0.32283845393657684,9.692726099178195,1.4550637840002774
1757088928399206700,12.73920654296875,-0.32333219227027143,9.692821960768104,1.4543281632021068
1757088928409253600,12.749253662109375,-0.32396329324804246,9.692881582000851,1.4537828042790293
1757088928419300900,12.75930078125,-0.32465189656671134,9.692911392617225,1.4534316527538
1757088928429346800,12.769346923828126,-0.32548085820414124,9.692909639051557,1.4532475283585489
1757088928439393800,12.779393798828124,-0.3264453558547422,9.692895026004313,1.4531361769385636
1757088928449439700,12.789439697265625,-0.3273465790107846,9.69290204026699,1.4528830789603293
1757088928459486700,12.79948681640625,-0.32802265164144334,9.692931266361475,1.4525306122608481
1757088928469532700,12.80953271484375,-0.3282187587354332,9.692929512795805,1.4525105923861263
1757088928479579600,12.81957958984375,-0.32804884552862495,9.69284417259991,1.4531160109333694
1757088928489625600,12.82962548828125,-0.3276554257642478,9.692664724379778,1.4544029820039868
1757088928499672600,12.839672607421875,-0.32728699431065467,9.692402858573198,1.4562293206483126
1757088928509718800,12.84971875,-0.3271685190301388,9.692098322668672,1.458281577003002
1757088928519765500,12.859765625,-0.3275951469443738,9.691791448676586,1.4602216051548718
1757088928529811700,12.869811767578126,-0.3281849295310676,9.69150444842875,1.461990514523536
1757088928539859000,12.87985888671875,-0.32872144756056365,9.691266548019646,1.4634502118125556
1757088928549905700,12.88990576171875,-0.32911793606486167,9.691062549880147,1.4647073722667991
1757088928559952000,12.899951904296875,-0.329187348039262,9.69090589801371,1.4657280936166643
1757088928569998800,12.909998779296876,-0.32901703297365453,9.690747492581606,1.4668112126782535
