time,seconds_elapsed,z,y,x
1757088679438677800,0.015677734375,-1.0423126220703125,-0.207183837890625,-0.178436279296875
1757088679448723700,0.0257236328125,-1.0419464111328125,-0.20416259765625,-0.176849365234375
1757088679458770700,0.035770751953125,-1.0457763671875,-0.198211669921875,-0.17022705078125
1757088679468816600,0.045816650390625,-1.051239013671875,-0.1933441162109375,-0.162200927734375
1757088679478863600,0.055863525390625,-1.0481414794921875,-0.1909637451171875,-0.15728759765625
1757088679488909800,0.065909912109375,-1.0394134521484375,-0.1896820068359375,-0.149688720703125
1757088679498956800,0.075956787109375,-1.0238037109375,-0.1883087158203125,-0.13970947265625
1757088679509003000,0.0860029296875,-1.0080108642578125,-0.1834869384765625,-0.1336822509765625
1757088679519049000,0.096049072265625,-1.000213623046875,-0.17779541015625,-0.128509521484375
1757088679529096000,0.106095947265625,-1.0007781982421875,-0.1775665283203125,-0.1260528564453125
1757088679539142000,0.116141845703125,-1.00762939453125,-0.182342529296875,-0.1210784912109375
1757088679549188900,0.12618896484375,-1.0200653076171875,-0.1817169189453125,-0.119842529296875
1757088679559234800,0.13623486328125,-1.0295867919921875,-0.17974853515625,-0.1233978271484375
1757088679569280800,0.14628076171875,-1.03424072265625,-0.18084716796875,-0.1233062744140625
1757088679579327700,0.15632763671875,-1.0452880859375,-0.177276611328125,-0.1226959228515625
1757088679589374000,0.1663740234375,-1.0579986572265625,-0.170196533203125,-0.1278839111328125
1757088679599420700,0.176420654296875,-1.0644378662109375,-0.1641387939453125,-0.133209228515625
1757088679609467000,0.186466796875,-1.0557098388671875,-0.16357421875,-0.1357269287109375
1757088679619512800,0.196512939453125,-1.030303955078125,-0.1681671142578125,-0.1374664306640625
1757088679629559800,0.206559814453125,-0.994598388671875,-0.1744384765625,-0.142303466796875
1757088679639605800,0.216605712890625,-0.9603729248046875,-0.18585205078125,-0.146392822265625
1757088679649652700,0.22665283203125,-0.93267822265625,-0.1944427490234375,-0.146575927734375
1757088679659698700,0.23669873046875,-0.91107177734375,-0.1963653564453125,-0.146453857421875
1757088679669744600,0.24674462890625,-0.890869140625,-0.1874237060546875,-0.1509246826171875
1757088679679791900,0.2567919921875,-0.8896484375,-0.1773834228515625,-0.15301513671875
1757088679689837800,0.266837890625,-0.925384521484375,-0.1728515625,-0.1564788818359375
1757088679699884800,0.276884765625,-0.969512939453125,-0.1650543212890625,-0.168365478515625
1757088679709931000,0.286930908203125,-0.986724853515625,-0.1540374755859375,-0.1707305908203125
1757088679719977700,0.296977783203125,-0.9971771240234375,-0.137603759765625,-0.1705780029296875
1757088679730024000,0.30702392578125,-1.0043792724609375,-0.0847320556640625,-0.1503753662109375
1757088679740070000,0.31706982421875,-1.056884765625,-0.081634521484375,-0.09393310546875
1757088679750116900,0.327116943359375,-1.0904083251953125,-0.1188507080078125,-0.1035003662109375
1757088679760162800,0.337162841796875,-1.05108642578125,-0.1089630126953125,-0.1474151611328125
1757088679770209800,0.347209716796875,-0.982879638671875,-0.142547607421875,-0.1717987060546875
1757088679780255700,0.357255859375,-0.83441162109375,-0.2285003662109375,-0.193084716796875
1757088679790301700,0.3673017578125,-0.727447509765625,-0.32427978515625,-0.1714630126953125
1757088679800348700,0.3773486328125,-0.7576751708984375,-0.3794403076171875,-0.15234375
1757088679810395000,0.387394775390625,-0.8065032958984375,-0.3939056396484375,-0.1341400146484375
1757088679820441600,0.397441650390625,-0.840484619140625,-0.346527099609375,-0.1677398681640625
1757088679830487800,0.40748779296875,-0.8909149169921875,-0.3730010986328125,-0.112945556640625
1757088679840533800,0.41753369140625,-0.9012908935546875,-0.3633270263671875,-0.0368194580078125
1757088679850581000,0.4275810546875,-0.8819427490234375,-0.287811279296875,-0.0279388427734375
1757088679860627000,0.437626953125,-0.890716552734375,-0.2077178955078125,-0.0581817626953125
1757088679870674000,0.447673828125,-0.912109375,-0.17376708984375,-0.09063720703125
1757088679880720000,0.457719970703125,-0.9596710205078125,-0.1823577880859375,-0.1241912841796875
1757088679890765800,0.467765869140625,-0.9448699951171875,-0.19329833984375,-0.169891357421875
1757088679900812800,0.477812744140625,-0.8010101318359375,-0.2223663330078125,-0.2476959228515625
1757088679910858800,0.487858642578125,-0.6674652099609375,-0.262481689453125,-0.291351318359375
1757088679920905700,0.49790576171875,-0.6505126953125,-0.3081207275390625,-0.2998809814453125
1757088679930952000,0.507951904296875,-0.8097991943359375,-0.344085693359375,-0.310699462890625
1757088679940999000,0.5179990234375,-1.0506591796875,-0.3355560302734375,-0.31884765625
1757088679951044900,0.528044921875,-1.188995361328125,-0.27349853515625,-0.343505859375
1757088679961090800,0.5380908203125,-1.22601318359375,-0.189453125,-0.3466796875
1757088679971137800,0.5481376953125,-1.2130279541015625,-0.1398773193359375,-0.3067169189453125
1757088679981183700,0.558183837890625,-1.1732635498046875,-0.1396942138671875,-0.238311767578125
1757088679991230700,0.568230712890625,-1.05828857421875,-0.18902587890625,-0.1971435546875
1757088680001276700,0.578276611328125,-1.0008392333984375,-0.2318878173828125,-0.17242431640625
1757088680011322600,0.588322509765625,-1.0050048828125,-0.2665863037109375,-0.1551361083984375
1757088680021369900,0.598369873046875,-1.0177154541015625,-0.268798828125,-0.1898040771484375
1757088680031416000,0.608416015625,-1.0234527587890625,-0.2164154052734375,-0.255889892578125
1757088680041462800,0.618462890625,-1.0380096435546875,-0.15814208984375,-0.2635955810546875
1757088680051509000,0.628509033203125,-1.051055908203125,-0.1418914794921875,-0.207733154296875
1757088680061555000,0.638554931640625,-1.0716552734375,-0.1627960205078125,-0.088287353515625
1757088680071602000,0.648601806640625,-1.126068115234375,-0.17486572265625,-0.001953125
1757088680081647900,0.65864794921875,-1.0447998046875,-0.1352386474609375,-0.1337738037109375
1757088680091694800,0.66869482421875,-0.9924163818359375,-0.12359619140625,-0.2474517822265625
1757088680101740800,0.67874072265625,-0.9674530029296875,-0.169952392578125,-0.31805419921875
1757088680111786800,0.688786865234375,-0.935455322265625,-0.199066162109375,-0.3566131591796875
1757088680121833700,0.698833740234375,-0.8943328857421875,-0.1862945556640625,-0.3744354248046875
1757088680131879700,0.708879638671875,-0.83441162109375,-0.1669769287109375,-0.355377197265625
1757088680141926700,0.7189267578125,-0.7761688232421875,-0.166839599609375,-0.3219146728515625
1757088680151972900,0.728972900390625,-0.7428131103515625,-0.168426513671875,-0.3025665283203125
1757088680162019800,0.739019775390625,-0.7454986572265625,-0.1290740966796875,-0.332489013671875
1757088680172065800,0.749065673828125,-0.783203125,-0.09124755859375,-0.37213134765625
1757088680182111700,0.75911181640625,-0.8184661865234375,-0.1034393310546875,-0.3534698486328125
1757088680192159000,0.769158935546875,-0.8284759521484375,-0.1046905517578125,-0.3581695556640625
1757088680202205000,0.779204833984375,-0.861968994140625,-0.08740234375,-0.4467315673828125
1757088680212252000,0.789251953125,-0.9346771240234375,-0.070343017578125,-0.52288818359375
1757088680222297900,0.7992978515625,-1.0081634521484375,-0.0760955810546875,-0.4945220947265625
1757088680232343800,0.80934375,-1.039306640625,-0.0949554443359375,-0.4247283935546875
1757088680242390800,0.819390869140625,-1.06268310546875,-0.04632568359375,-0.4071044921875
1757088680252437000,0.82943701171875,-1.0720672607421875,-0.0502777099609375,-0.4176177978515625
1757088680262483700,0.839483642578125,-0.962066650390625,-0.138336181640625,-0.481689453125
1757088680272530000,0.849530029296875,-0.9120330810546875,-0.17755126953125,-0.533111572265625
1757088680282576000,0.859575927734375,-0.93634033203125,-0.2019805908203125,-0.5521697998046875
1757088680292622800,0.869622802734375,-0.9370880126953125,-0.21807861328125,-0.55267333984375
1757088680302668800,0.879668701171875,-0.8997039794921875,-0.2207183837890625,-0.5442657470703125
1757088680312715800,0.8897158203125,-0.86517333984375,-0.2185516357421875,-0.544952392578125
1757088680322761700,0.89976171875,-0.91448974609375,-0.206390380859375,-0.5782012939453125
1757088680332807700,0.9098076171875,-0.964691162109375,-0.182281494140625,-0.598114013671875
1757088680342854700,0.919854736328125,-0.9399871826171875,-0.168365478515625,-0.571624755859375
1757088680352900900,0.92990087890625,-0.868682861328125,-0.1660003662109375,-0.5471343994140625
1757088680362947800,0.93994775390625,-0.8122406005859375,-0.166961669921875,-0.53680419921875
1757088680372993800,0.949993896484375,-0.7866668701171875,-0.1416015625,-0.5107421875
1757088680383041000,0.960041015625,-0.7440643310546875,-0.1038360595703125,-0.446258544921875
1757088680393087000,0.9700869140625,-0.6995391845703125,-0.094451904296875,-0.3775787353515625
1757088680403133000,0.9801328125,-0.656036376953125,-0.0882110595703125,-0.352020263671875
1757088680413180000,0.990179931640625,-0.6416168212890625,-0.0822296142578125,-0.3542327880859375
1757088680423225900,1.000225830078125,-0.6894989013671875,-0.075775146484375,-0.3949127197265625
1757088680433272300,1.010272216796875,-0.70819091796875,-0.131622314453125,-0.4202117919921875
1757088680443318300,1.020318359375,-0.624664306640625,-0.1857452392578125,-0.3709564208984375
1757088680453364500,1.030364501953125,-0.571258544921875,0.0102996826171875,-0.5478515625
1757088680463411500,1.040411376953125,-0.6026611328125,0.080780029296875,-0.65911865234375
1757088680473457400,1.05045751953125,-0.741668701171875,-0.0187530517578125,-0.5701904296875
1757088680483504400,1.06050439453125,-0.850830078125,0.089385986328125,-0.595977783203125
1757088680493550300,1.07055029296875,-0.7644500732421875,0.2319793701171875,-0.705413818359375
1757088680503596300,1.08059619140625,-0.634674072265625,0.1756591796875,-0.799285888671875
1757088680513643300,1.090643310546875,-0.599090576171875,0.101898193359375,-0.7482757568359375
1757088680523689200,1.100689208984375,-0.627349853515625,0.0344696044921875,-0.6584320068359375
1757088680533736200,1.110736083984375,-0.7265167236328125,0.003082275390625,-0.6124267578125
1757088680543782100,1.1207822265625,-0.7450103759765625,0.1369171142578125,-0.6085662841796875
1757088680553828400,1.130828369140625,-0.7015533447265625,0.3206634521484375,-0.6510467529296875
1757088680563875300,1.140875244140625,-0.654052734375,0.4284210205078125,-0.717193603515625
1757088680573921500,1.150921630859375,-0.6306915283203125,0.4701690673828125,-0.74639892578125
1757088680583968500,1.160968505859375,-0.6261138916015625,0.457916259765625,-0.734222412109375
1757088680594014500,1.171014404296875,-0.614227294921875,0.439971923828125,-0.6754913330078125
1757088680604060400,1.181060302734375,-0.59991455078125,0.4339752197265625,-0.626739501953125
1757088680614107400,1.191107421875,-0.5845184326171875,0.4514923095703125,-0.63116455078125
1757088680624153300,1.2011533203125,-0.5794525146484375,0.4540252685546875,-0.63580322265625
1757088680634200300,1.211200439453125,-0.58404541015625,0.4375152587890625,-0.6462249755859375
1757088680644246300,1.221246337890625,-0.544403076171875,0.4421539306640625,-0.6703033447265625
1757088680654293200,1.231293212890625,-0.468109130859375,0.479034423828125,-0.6962432861328125
1757088680664339200,1.241339111328125,-0.364166259765625,0.5049285888671875,-0.6815643310546875
1757088680674385400,1.251385498046875,-0.2627410888671875,0.513885498046875,-0.66497802734375
1757088680684432400,1.261432373046875,-0.178466796875,0.5498046875,-0.6586151123046875
1757088680694478300,1.271478271484375,-0.1023712158203125,0.5644073486328125,-0.6450653076171875
1757088680704525300,1.281525390625,-0.035186767578125,0.557373046875,-0.66131591796875
1757088680714571300,1.2915712890625,0.0271759033203125,0.653839111328125,-0.73748779296875
1757088680724617200,1.3016171875,0.0433502197265625,0.7642669677734375,-0.71990966796875
1757088680734664400,1.31166455078125,-0.035858154296875,0.694549560546875,-0.622467041015625
1757088680744710100,1.321710205078125,-0.0643157958984375,0.7515106201171875,-0.6790618896484375
1757088680754757400,1.33175732421875,-0.0226593017578125,0.76226806640625,-0.809661865234375
1757088680764803300,1.34180322265625,0.0728759765625,0.6402435302734375,-1.004974365234375
1757088680774849500,1.351849609375,0.2903900146484375,0.39764404296875,-1.46435546875
1757088680784896300,1.361896240234375,0.658355712890625,-0.0131988525390625,-2.429107666015625
1757088680794942500,1.3719423828125,0.82989501953125,-0.3390350341796875,-2.635101318359375
1757088680804989400,1.381989501953125,0.414215087890625,-0.1631927490234375,-1.963043212890625
1757088680815035400,1.392035400390625,-0.3389892578125,0.076171875,-1.95947265625
1757088680825081300,1.402081298828125,-0.379058837890625,0.28631591796875,-1.5557708740234375
1757088680835128300,1.41212841796875,-0.1486663818359375,0.4542083740234375,-1.1963348388671875
1757088680845174300,1.42217431640625,0.0621337890625,0.4084320068359375,-1.4252471923828125
1757088680855221200,1.43222119140625,0.0545196533203125,0.3072509765625,-1.392608642578125
1757088680865267200,1.44226708984375,-0.066864013671875,0.3786468505859375,-1.08026123046875
1757088680875313400,1.4523134765625,-0.0733489990234375,0.4980926513671875,-0.9880523681640625
1757088680885360000,1.462360107421875,-0.035736083984375,0.5260467529296875,-0.8890838623046875
1757088680895406300,1.47240625,-0.0659637451171875,0.554779052734375,-0.822357177734375
1757088680905453600,1.48245361328125,-0.14617919921875,0.585601806640625,-0.8478851318359375
1757088680915499300,1.492499267578125,-0.2420501708984375,0.6377105712890625,-0.8367462158203125
1757088680925546500,1.50254638671875,-0.2982330322265625,0.7064208984375,-0.7610015869140625
1757088680935592400,1.512592529296875,-0.27294921875,0.710205078125,-0.685699462890625
1757088680945638400,1.522638427734375,-0.1500701904296875,0.6726837158203125,-0.644073486328125
1757088680955685400,1.532685302734375,0.1608123779296875,0.5616455078125,-0.712310791015625
1757088680965731300,1.5427314453125,0.302734375,0.410552978515625,-0.9030303955078125
1757088680975778300,1.5527783203125,0.146636962890625,0.37310791015625,-0.99664306640625
1757088680985824300,1.56282421875,0.0042877197265625,0.4170684814453125,-0.9694061279296875
1757088680995870500,1.572870361328125,-0.02484130859375,0.4508056640625,-0.944915771484375
1757088681005917200,1.582917236328125,0.0619659423828125,0.4387054443359375,-0.926361083984375
1757088681015963400,1.59296337890625,0.0658111572265625,0.4296112060546875,-0.8976287841796875
1757088681026010400,1.60301025390625,-0.019927978515625,0.4323272705078125,-0.883087158203125
1757088681036056300,1.613056396484375,-0.1338348388671875,0.4378204345703125,-0.85498046875
1757088681046102300,1.623102294921875,-0.2589263916015625,0.4537811279296875,-0.823822021484375
1757088681056149200,1.633149169921875,-0.3446044921875,0.462188720703125,-0.8043212890625
1757088681066195200,1.6431953125,-0.4258575439453125,0.465667724609375,-0.7914276123046875
1757088681076242200,1.6532421875,-0.4826202392578125,0.4677734375,-0.794891357421875
1757088681086288100,1.6632880859375,-0.4885406494140625,0.4553680419921875,-0.7934417724609375
1757088681096334300,1.673334228515625,-0.444183349609375,0.4547576904296875,-0.8055267333984375
1757088681106381300,1.68338134765625,-0.400360107421875,0.467254638671875,-0.806243896484375
1757088681116427500,1.693427490234375,-0.3885650634765625,0.489471435546875,-0.789886474609375
1757088681126474500,1.703474609375,-0.3833770751953125,0.5189361572265625,-0.757720947265625
1757088681136520400,1.7135205078125,-0.34088134765625,0.5184173583984375,-0.74603271484375
1757088681146566400,1.72356640625,-0.0811767578125,0.5132598876953125,-0.7924041748046875
1757088681156613400,1.73361328125,0.02081298828125,0.4591217041015625,-0.74127197265625
1757088681166659300,1.743659423828125,-0.1056060791015625,0.456207275390625,-0.6985626220703125
1757088681176706300,1.753706298828125,0.1403350830078125,0.4580841064453125,-0.8304901123046875
1757088681186752300,1.763752197265625,0.9171142578125,0.3769378662109375,-1.13006591796875
1757088681196799200,1.77379931640625,1.3521728515625,0.1516265869140625,-1.1736907958984375
1757088681206845200,1.78384521484375,-0.3468780517578125,0.1896820068359375,-0.98602294921875
1757088681216891400,1.793891357421875,-0.0858306884765625,0.3503265380859375,-1.2588043212890625
1757088681226938400,1.8039384765625,0.0662078857421875,0.3478546142578125,-1.0678558349609375
1757088681236984300,1.813984375,0.1538543701171875,0.37322998046875,-0.8667449951171875
1757088681247031300,1.82403125,0.16876220703125,0.355743408203125,-0.937896728515625
1757088681257077200,1.8340771484375,0.161865234375,0.3075408935546875,-0.9425506591796875
1757088681267123200,1.844123291015625,0.168182373046875,0.3564453125,-0.898284912109375
1757088681277170400,1.85417041015625,0.1659698486328125,0.387237548828125,-0.888519287109375
1757088681287216400,1.86421630859375,0.1304931640625,0.3843841552734375,-0.8962860107421875
1757088681297263400,1.874263427734375,0.0504150390625,0.3783721923828125,-0.93487548828125
1757088681307309300,1.884309326171875,0.0300140380859375,0.37164306640625,-0.978851318359375
1757088681317355500,1.89435546875,0.0994873046875,0.3234710693359375,-0.9740753173828125
1757088681327402200,1.90440234375,0.1193389892578125,0.319305419921875,-0.9405059814453125
1757088681337448400,1.914448486328125,0.0892486572265625,0.3522186279296875,-0.904327392578125
1757088681347495400,1.924495361328125,0.1214141845703125,0.37994384765625,-0.835784912109375
1757088681357541400,1.934541259765625,0.1446075439453125,0.427703857421875,-0.7740478515625
1757088681367588400,1.94458837890625,0.1581573486328125,0.45281982421875,-0.7202606201171875
1757088681377634300,1.95463427734375,0.146759033203125,0.5193634033203125,-0.6621551513671875
1757088681387680300,1.96468017578125,0.10040283203125,0.520416259765625,-0.7190093994140625
1757088681397727200,1.974727294921875,-0.0338287353515625,0.4388885498046875,-0.752716064453125
1757088681407773200,1.984773193359375,-0.3859710693359375,0.464447021484375,-0.5986785888671875
1757088681417820200,1.994820068359375,-1.0671234130859375,0.5782928466796875,-0.4422607421875
1757088681427866000,2.0048662109375,-0.25830078125,0.536407470703125,-1.1562347412109375
1757088681437913600,2.01491357421875,1.0167083740234375,-0.3189849853515625,-2.0399322509765625
1757088681447959600,2.02495947265625,1.13250732421875,-0.178009033203125,-1.4047088623046875
1757088681458005800,2.035005859375,1.3436126708984375,0.2562408447265625,-0.7432861328125
1757088681468052700,2.045052734375,1.3833770751953125,0.3206787109375,-0.6553192138671875
1757088681478098700,2.0550986328125,0.6291046142578125,0.222381591796875,-0.8642578125
1757088681488145700,2.065145751953125,0.58685302734375,0.175994873046875,-1.061492919921875
1757088681498191600,2.075191650390625,0.61981201171875,0.1059722900390625,-1.0137939453125
1757088681508238600,2.085238525390625,0.5498504638671875,0.037567138671875,-0.993682861328125
1757088681518284500,2.095284423828125,0.0557861328125,0.2194671630859375,-0.8621368408203125
1757088681528330500,2.10533056640625,0.0061187744140625,0.233978271484375,-1.0310516357421875
1757088681538377700,2.115377685546875,0.2070465087890625,0.6633453369140625,-0.6236114501953125
1757088681548423700,2.125423583984375,0.1777496337890625,0.252227783203125,-0.65167236328125
1757088681558470700,2.135470703125,0.0583953857421875,0.1919708251953125,-1.203765869140625
1757088681568516600,2.1455166015625,0.17755126953125,0.301727294921875,-0.996490478515625
1757088681578563600,2.1555634765625,0.365234375,0.207122802734375,-0.857330322265625
1757088681588609800,2.16560986328125,0.422149658203125,0.207733154296875,-0.856353759765625
1757088681598655700,2.17565576171875,0.36334228515625,0.1794586181640625,-0.815185546875
1757088681608702700,2.18570263671875,0.40350341796875,0.10028076171875,-0.9227142333984375
1757088681618748700,2.195748779296875,0.472900390625,0.10650634765625,-1.0255889892578125
1757088681628795600,2.205795654296875,0.40594482421875,0.1332244873046875,-1.0243377685546875
1757088681638841600,2.215841552734375,0.3648529052734375,0.2150115966796875,-0.9104461669921875
1757088681648888600,2.225888671875,0.4262237548828125,0.179656982421875,-0.91326904296875
1757088681658934500,2.2359345703125,0.511322021484375,0.135284423828125,-0.9733123779296875
1757088681668980500,2.24598046875,0.51849365234375,0.16595458984375,-0.9188690185546875
1757088681679027500,2.25602734375,0.4749603271484375,0.2062225341796875,-0.85498046875
1757088681689073700,2.26607373046875,0.469757080078125,0.21832275390625,-0.843048095703125
1757088681699120600,2.27612060546875,0.48907470703125,0.215576171875,-0.791290283203125
1757088681709166800,2.286166748046875,0.45306396484375,0.173492431640625,-0.7972259521484375
1757088681719213800,2.2962138671875,0.380828857421875,0.094024658203125,-0.8400115966796875
1757088681729259800,2.306259765625,0.3946685791015625,0.035064697265625,-0.8281707763671875
1757088681739305700,2.3163056640625,0.3636627197265625,-0.0028839111328125,-0.8316192626953125
1757088681749352700,2.326352783203125,0.3868560791015625,-0.043731689453125,-0.95660400390625
1757088681759398700,2.336398681640625,0.4931793212890625,-0.0933837890625,-1.195068359375
1757088681769445600,2.346445556640625,0.5777740478515625,0.0405426025390625,-1.067718505859375
1757088681779491600,2.35649169921875,0.662628173828125,0.21868896484375,-0.9124298095703125
1757088681789538600,2.36653857421875,0.723358154296875,0.2938079833984375,-0.88177490234375
1757088681799584500,2.37658447265625,0.6989898681640625,0.3101806640625,-0.9699554443359375
1757088681809630700,2.386630615234375,0.652557373046875,0.2644805908203125,-0.9842987060546875
1757088681819677700,2.396677734375,0.744537353515625,0.2671356201171875,-0.8773040771484375
1757088681829723600,2.4067236328125,0.6810760498046875,0.2358856201171875,-0.8809051513671875
1757088681839770600,2.4167705078125,0.595733642578125,0.150970458984375,-0.993682861328125
1757088681849816600,2.426816650390625,0.5050506591796875,0.1038818359375,-1.031707763671875
1757088681859863800,2.43686376953125,0.389617919921875,0.0560150146484375,-1.0652923583984375
1757088681869909800,2.44690966796875,0.346588134765625,-0.0047760009765625,-1.1358184814453125
1757088681879955700,2.456955810546875,0.3582000732421875,-0.016815185546875,-1.0395050048828125
1757088681890002700,2.467002685546875,0.3364410400390625,0.02142333984375,-1.00341796875
1757088681900048600,2.477048583984375,0.29364013671875,0.037139892578125,-1.06781005859375
1757088681910095600,2.487095703125,0.3308868408203125,0.1072235107421875,-0.948577880859375
1757088681920141800,2.497141845703125,0.3187255859375,0.1195526123046875,-0.82757568359375
1757088681930188500,2.5071884765625,0.383453369140625,0.0509490966796875,-0.750335693359375
1757088681940234800,2.51723486328125,0.4618988037109375,0.0150909423828125,-0.7235260009765625
1757088681950280700,2.52728076171875,0.4139862060546875,0.0159149169921875,-0.7056427001953125
1757088681960327700,2.53732763671875,0.389801025390625,-0.0628814697265625,-0.720550537109375
1757088681970373600,2.54737353515625,0.4337310791015625,-0.103057861328125,-0.8162384033203125
1757088681980420600,2.557420654296875,0.46429443359375,-0.073211669921875,-0.83660888671875
1757088681990466600,2.567466552734375,0.4748992919921875,-0.041015625,-0.8206939697265625
1757088682000513500,2.577513427734375,0.5923309326171875,-0.0156707763671875,-0.825164794921875
1757088682010559500,2.5875595703125,0.724029541015625,-0.0015106201171875,-0.794952392578125
1757088682020605400,2.59760546875,0.6790313720703125,0.0314483642578125,-0.6533355712890625
1757088682030652700,2.607652587890625,0.6256103515625,0.0491790771484375,-0.723663330078125
1757088682040699000,2.617698974609375,0.5460968017578125,0.0669708251953125,-0.7754669189453125
1757088682050745600,2.62774560546875,0.4169921875,0.1243133544921875,-0.7344818115234375
1757088682060791800,2.637791748046875,0.4908447265625,0.105621337890625,-0.7508087158203125
1757088682070838800,2.6478388671875,0.4844512939453125,0.070709228515625,-0.8217620849609375
1757088682080884700,2.657884765625,0.4643402099609375,0.02630615234375,-0.8466339111328125
1757088682090930700,2.6679306640625,0.4874725341796875,0.000274658203125,-0.7651519775390625
1757088682100977700,2.677977783203125,0.536895751953125,-0.0460968017578125,-0.669036865234375
1757088682111023600,2.688023681640625,0.622406005859375,-0.0992431640625,-0.5670928955078125
1757088682121070600,2.698070556640625,0.6611175537109375,-0.1697845458984375,-0.4865264892578125
1757088682131116500,2.708116455078125,0.6776123046875,-0.2126007080078125,-0.50006103515625
1757088682141163500,2.71816357421875,0.709442138671875,-0.22869873046875,-0.569671630859375
1757088682151209500,2.72820947265625,0.748809814453125,-0.2063446044921875,-0.58636474609375
1757088682161255700,2.738255615234375,0.716796875,-0.2081756591796875,-0.6640625
1757088682171302700,2.748302734375,0.7748870849609375,-0.1589508056640625,-0.647613525390625
1757088682181348600,2.7583486328125,0.6942138671875,-0.0412139892578125,-0.64141845703125
1757088682191395800,2.768395751953125,0.453155517578125,0.011444091796875,-0.6882781982421875
1757088682201441800,2.77844189453125,0.3228302001953125,0.079620361328125,-0.7646331787109375
1757088682211488800,2.78848876953125,0.2784271240234375,0.141326904296875,-0.564239501953125
1757088682221534700,2.79853466796875,0.111053466796875,0.189605712890625,-0.6383819580078125
1757088682231580700,2.80858056640625,0.1407623291015625,0.18536376953125,-1.046966552734375
1757088682241627600,2.818627685546875,0.28887939453125,0.1329193115234375,-1.47796630859375
1757088682251673600,2.828673583984375,0.2030029296875,0.0756072998046875,-1.4041748046875
1757088682261720600,2.838720458984375,0.3385467529296875,0.07989501953125,-1.2378997802734375
1757088682271766800,2.848766845703125,0.6410369873046875,0.215362548828125,-1.0308990478515625
1757088682281812700,2.858812744140625,0.7964935302734375,0.1939239501953125,-0.821136474609375
1757088682291859700,2.868859619140625,0.7530364990234375,0.1651611328125,-0.82269287109375
1757088682301905700,2.87890576171875,0.7155914306640625,0.11236572265625,-0.7996826171875
1757088682311952600,2.88895263671875,0.7747650146484375,0.123199462890625,-0.6815948486328125
1757088682321998600,2.89899853515625,0.8726959228515625,0.0923309326171875,-0.619415283203125
1757088682332045600,2.909045654296875,0.9881591796875,0.00592041015625,-0.5983123779296875
1757088682342091500,2.919091552734375,0.750335693359375,-0.1377105712890625,-0.76165771484375
1757088682352137500,2.929137451171875,-0.0447998046875,-0.1473846435546875,-0.9527130126953125
1757088682362184700,2.939184814453125,0.0850677490234375,-0.08026123046875,-0.9086456298828125
1757088682372230700,2.949230712890625,0.17376708984375,-0.13397216796875,-0.9200286865234375
1757088682382277600,2.959277587890625,0.2133636474609375,-0.0777435302734375,-0.88482666015625
1757088682392323800,2.96932373046875,0.2808837890625,-0.1006011962890625,-0.8434295654296875
1757088682402370800,2.979370849609375,0.3750762939453125,-0.202362060546875,-0.85205078125
1757088682412416800,2.989416748046875,0.5153350830078125,-0.22760009765625,-0.8320465087890625
1757088682422462700,2.999462646484375,0.5218658447265625,-0.11688232421875,-0.83642578125
1757088682432510000,3.009510009765625,0.49261474609375,-0.01123046875,-0.84222412109375
1757088682442556000,3.019555908203125,0.58001708984375,0.1675567626953125,-0.9014739990234375
1757088682452603000,3.029602783203125,0.553436279296875,0.26422119140625,-0.9358673095703125
1757088682462648800,3.03964892578125,0.4637451171875,0.417694091796875,-0.87713623046875
1757088682472694800,3.04969482421875,0.3947296142578125,0.449005126953125,-0.7963409423828125
1757088682482741800,3.05974169921875,0.489959716796875,0.43853759765625,-0.872955322265625
1757088682492787700,3.06978759765625,0.61669921875,0.2676544189453125,-1.0306243896484375
1757088682502834700,3.079834716796875,0.6822967529296875,0.1748199462890625,-1.00018310546875
1757088682512881000,3.089880859375,0.6822509765625,0.1365509033203125,-0.9693450927734375
1757088682522927900,3.099927978515625,0.64801025390625,0.123565673828125,-1.04931640625
1757088682532973800,3.109973876953125,0.693115234375,0.1779327392578125,-1.030426025390625
1757088682543019800,3.120019775390625,0.6046905517578125,0.40972900390625,-0.98907470703125
1757088682553066800,3.130066650390625,0.4862823486328125,0.5667572021484375,-0.94281005859375
1757088682563112700,3.14011279296875,0.446502685546875,0.8372955322265625,-0.9930572509765625
1757088682573160000,3.150159912109375,0.5798492431640625,0.818817138671875,-1.188507080078125
1757088682583206000,3.160205810546875,0.33624267578125,0.8897552490234375,-0.9932861328125
1757088682593251800,3.170251953125,0.2993621826171875,0.8255157470703125,-1.0753021240234375
1757088682603298800,3.180298828125,0.4940643310546875,0.7511444091796875,-1.171630859375
1757088682613345000,3.190344970703125,0.5583953857421875,0.7723541259765625,-1.0919647216796875
1757088682623391700,3.200391845703125,0.5107421875,0.7328338623046875,-1.1322784423828125
1757088682633438000,3.21043798828125,0.412750244140625,0.7043914794921875,-1.0996246337890625
1757088682643485000,3.22048486328125,0.0222320556640625,0.6646575927734375,-0.71466064453125
1757088682653531000,3.23053076171875,0.3649444580078125,0.82208251953125,-0.5159149169921875
1757088682663576800,3.240576904296875,0.785064697265625,0.751495361328125,-1.1806488037109375
1757088682673623800,3.250623779296875,0.3881072998046875,0.184722900390625,-0.897857666015625
1757088682683669800,3.260669677734375,0.321441650390625,0.26055908203125,-0.5506591796875
1757088682693716700,3.270716796875,0.2881622314453125,0.229705810546875,-0.2411041259765625
1757088682703762700,3.2807626953125,0.3689422607421875,-0.2130584716796875,-0.1922149658203125
1757088682713809000,3.290808837890625,0.5318145751953125,-0.2038421630859375,-0.302734375
1757088682723855600,3.300855712890625,0.610137939453125,-0.3065948486328125,-0.2189788818359375
1757088682733901800,3.31090185546875,0.62225341796875,-0.116119384765625,-0.2953338623046875
1757088682743949000,3.320948974609375,0.554412841796875,0.2931671142578125,-0.620391845703125
1757088682753995000,3.3309951171875,0.444183349609375,0.486541748046875,-0.531707763671875
1757088682764042000,3.3410419921875,0.396820068359375,0.5952606201171875,-0.527435302734375
1757088682774088000,3.351087890625,0.4424896240234375,0.6794891357421875,-0.6335296630859375
1757088682784134000,3.3611337890625,0.351104736328125,0.4775238037109375,-0.9718475341796875
1757088682794180900,3.371180908203125,0.3769378662109375,0.1031951904296875,-1.1866302490234375
1757088682804226800,3.381226806640625,0.56591796875,-0.308868408203125,-1.3242034912109375
1757088682814273800,3.391273681640625,0.81787109375,-0.2806243896484375,-1.0740814208984375
1757088682824319700,3.40131982421875,0.910675048828125,0.1312255859375,-0.6342926025390625
1757088682834366000,3.411365966796875,0.7911834716796875,0.436737060546875,-0.629058837890625
1757088682844413000,3.421412841796875,0.6231231689453125,0.506622314453125,-0.733245849609375
1757088682854459000,3.431458984375,0.484466552734375,0.758148193359375,-0.743896484375
1757088682864505900,3.441505859375,0.515594482421875,0.66192626953125,-0.9500732421875
1757088682874551800,3.4515517578125,0.7566986083984375,0.53741455078125,-0.9756927490234375
1757088682884598800,3.461598876953125,0.714263916015625,0.4713897705078125,-0.800323486328125
1757088682894644700,3.471644775390625,0.583251953125,0.2958984375,-0.7205352783203125
1757088682904690700,3.481690673828125,0.5678863525390625,0.2288055419921875,-0.6995086669921875
1757088682914738000,3.491738037109375,0.5498809814453125,0.2103118896484375,-0.70623779296875
1757088682924783600,3.50178369140625,0.542022705078125,0.206695556640625,-0.7087554931640625
1757088682934830800,3.511830810546875,0.559783935546875,0.2528076171875,-0.71612548828125
1757088682944876800,3.521876708984375,0.607696533203125,0.2774658203125,-0.7430572509765625
1757088682954923000,3.531923095703125,0.6265411376953125,0.321136474609375,-0.763916015625
1757088682964970000,3.541969970703125,0.721343994140625,-0.2306976318359375,-0.76953125
1757088682975016000,3.552015869140625,0.9989471435546875,-0.590972900390625,-0.8003997802734375
1757088682985063000,3.56206298828125,0.1823272705078125,0.6402435302734375,-0.6441650390625
1757088682995108900,3.57210888671875,0.34344482421875,0.2954864501953125,-0.6444549560546875
1757088683005155800,3.58215576171875,0.5977783203125,0.2211761474609375,-0.798065185546875
1757088683015201800,3.592201904296875,0.6013031005859375,0.41656494140625,-0.8931732177734375
1757088683025247700,3.602247802734375,0.649993896484375,0.4178314208984375,-0.8851470947265625
1757088683035294700,3.612294677734375,0.57305908203125,0.3656158447265625,-0.8261260986328125
1757088683045340700,3.622340576171875,0.5741729736328125,0.3727264404296875,-0.8058013916015625
1757088683055387600,3.6323876953125,0.6858367919921875,0.37060546875,-0.732269287109375
1757088683065433900,3.642433837890625,0.7122344970703125,0.251068115234375,-0.6345367431640625
1757088683075479800,3.652479736328125,0.618988037109375,0.220794677734375,-0.683990478515625
1757088683085527000,3.662527099609375,0.54473876953125,0.2272491455078125,-0.782318115234375
1757088683095572700,3.67257275390625,0.576416015625,0.2685546875,-0.83447265625
1757088683105620000,3.682619873046875,0.6334686279296875,0.334564208984375,-0.8414764404296875
1757088683115666000,3.692666015625,0.64752197265625,0.342926025390625,-0.8444976806640625
1757088683125713000,3.702712890625,0.59332275390625,0.38134765625,-0.8029327392578125
1757088683135758800,3.7127587890625,0.494171142578125,0.3359375,-0.7820281982421875
1757088683145804800,3.7228046875,0.4632415771484375,0.250030517578125,-0.7729339599609375
1757088683155851800,3.732851806640625,0.4606475830078125,0.20843505859375,-0.763824462890625
1757088683165897700,3.742897705078125,0.4944305419921875,0.2252044677734375,-0.779541015625
1757088683175944700,3.75294482421875,0.5685577392578125,0.322509765625,-0.7741241455078125
1757088683185991000,3.762990966796875,0.5956878662109375,0.3710174560546875,-0.7895965576171875
1757088683196036900,3.773036865234375,0.6248321533203125,0.4562835693359375,-0.7998809814453125
1757088683206083800,3.783083740234375,0.614501953125,0.624420166015625,-0.692901611328125
1757088683216129800,3.7931298828125,0.54937744140625,0.654449462890625,-0.657562255859375
1757088683226176800,3.8031767578125,0.4710845947265625,0.5970611572265625,-0.6344146728515625
1757088683236222700,3.81322265625,0.389129638671875,0.4835968017578125,-0.6916961669921875
1757088683246268700,3.8232685546875,0.430389404296875,0.404510498046875,-0.8274383544921875
1757088683256315600,3.833315673828125,0.465484619140625,0.2962188720703125,-0.85858154296875
1757088683266361600,3.843361572265625,0.4788665771484375,0.2141265869140625,-0.8563079833984375
1757088683276408800,3.853408935546875,0.474822998046875,0.147918701171875,-0.876708984375
1757088683286455000,3.863455078125,0.4564361572265625,0.1416015625,-0.898681640625
1757088683296501800,3.873501708984375,0.4910888671875,0.193817138671875,-0.8466339111328125
1757088683306548000,3.8835478515625,0.5590972900390625,0.200439453125,-0.807464599609375
1757088683316594000,3.893593994140625,0.5798187255859375,0.2397613525390625,-0.825286865234375
1757088683326641000,3.903640869140625,0.5383148193359375,0.2491302490234375,-0.8813934326171875
1757088683336686800,3.913686767578125,0.421234130859375,0.2761688232421875,-0.82763671875
1757088683346733800,3.92373388671875,0.34124755859375,0.229248046875,-0.8384857177734375
1757088683356779800,3.93377978515625,0.304229736328125,0.1390228271484375,-0.8390960693359375
1757088683366825700,3.94382568359375,0.35198974609375,0.1060638427734375,-0.834686279296875
1757088683376872700,3.953872802734375,0.43975830078125,0.113800048828125,-0.8553924560546875
1757088683386918700,3.963918701171875,0.440673828125,0.1113128662109375,-0.8568878173828125
1757088683396965600,3.973965576171875,0.403411865234375,0.1314544677734375,-0.903167724609375
1757088683407011800,3.98401171875,0.36248779296875,0.194305419921875,-0.9438934326171875
1757088683417057800,3.994057861328125,0.3394622802734375,0.2234039306640625,-0.947265625
1757088683427104800,4.004104736328125,0.3273468017578125,0.20050048828125,-0.90191650390625
1757088683437151500,4.0141513671875,0.34051513671875,0.1532135009765625,-0.818450927734375
1757088683447198700,4.02419873046875,0.3545074462890625,0.1288604736328125,-0.7330322265625
1757088683457244700,4.03424462890625,0.3819732666015625,0.085235595703125,-0.7312469482421875
1757088683467291600,4.044291748046875,0.345123291015625,0.02886962890625,-0.787445068359375
1757088683477337600,4.054337646484375,0.388427734375,0.03790283203125,-0.9047393798828125
1757088683487383600,4.064383544921875,0.371368408203125,0.0942230224609375,-0.9613494873046875
1757088683497430500,4.074430419921875,0.411102294921875,0.11322021484375,-0.9823760986328125
1757088683507476500,4.0844765625,0.5421142578125,0.072845458984375,-1.10821533203125
1757088683517523500,4.0945234375,0.5457611083984375,0.04510498046875,-1.1426544189453125
1757088683527569400,4.1045693359375,0.55352783203125,0.0466461181640625,-1.04815673828125
1757088683537615600,4.11461572265625,0.5083465576171875,0.0582427978515625,-0.9307861328125
1757088683547662600,4.12466259765625,0.4876861572265625,0.10418701171875,-0.8710174560546875
1757088683557708500,4.13470849609375,0.3801422119140625,0.157989501953125,-0.842987060546875
1757088683567755500,4.144755615234375,0.3634490966796875,0.265533447265625,-0.8389739990234375
1757088683577801500,4.154801513671875,0.4134674072265625,0.330963134765625,-0.8621978759765625
1757088683587847400,4.164847412109375,0.4313507080078125,0.32684326171875,-0.8964385986328125
1757088683597894400,4.174894287109375,0.376922607421875,0.2808685302734375,-0.9139556884765625
1757088683607940400,4.1849404296875,0.355316162109375,0.2446746826171875,-0.96343994140625
1757088683617987600,4.194987548828125,0.3936309814453125,0.2058563232421875,-1.0239410400390625
1757088683628033500,4.205033447265625,0.4377593994140625,0.191802978515625,-1.077606201171875
1757088683638079700,4.215079833984375,0.452667236328125,0.180450439453125,-1.0846099853515625
1757088683648126700,4.225126708984375,0.4222564697265625,0.17333984375,-0.9745025634765625
1757088683658172700,4.235172607421875,0.416351318359375,0.1744384765625,-0.8941802978515625
1757088683668219600,4.2452197265625,0.4576416015625,0.1999053955078125,-0.8660736083984375
1757088683678265600,4.255265625,0.480987548828125,0.1583099365234375,-0.8756103515625
1757088683688312600,4.2653125,0.4541778564453125,0.0781097412109375,-0.890869140625
1757088683698358500,4.275358642578125,0.4339447021484375,-0.0399322509765625,-0.95733642578125
1757088683708404500,4.285404541015625,0.4641265869140625,-0.040283203125,-1.1219940185546875
1757088683718451500,4.295451416015625,0.57745361328125,0.030792236328125,-1.022247314453125
1757088683728497400,4.305497314453125,0.4436492919921875,0.079620361328125,-0.865631103515625
1757088683738544400,4.31554443359375,0.3536224365234375,0.12823486328125,-0.77874755859375
1757088683748590600,4.325590576171875,0.4026336669921875,0.140838623046875,-0.753570556640625
1757088683758636500,4.335636474609375,0.449981689453125,0.109344482421875,-0.825897216796875
1757088683768683500,4.34568359375,0.4958038330078125,0.052764892578125,-0.90338134765625
1757088683778729500,4.3557294921875,0.471527099609375,0.0171966552734375,-0.9100494384765625
1757088683788776700,4.365776611328125,0.3755645751953125,-0.0046234130859375,-0.9105072021484375
1757088683798822700,4.37582275390625,0.317474365234375,0.0255889892578125,-0.9090576171875
1757088683808868600,4.38586865234375,0.2020263671875,0.0461883544921875,-0.9225616455078125
1757088683818915600,4.39591552734375,0.14349365234375,-0.0153656005859375,-0.9093475341796875
1757088683828961500,4.40596142578125,0.294036865234375,0.0562591552734375,-0.7634124755859375
1757088683839008500,4.416008544921875,0.301300048828125,-0.083038330078125,-0.6727447509765625
1757088683849054500,4.426054443359375,0.30560302734375,-0.2116546630859375,-0.6890106201171875
1757088683859100700,4.4361005859375,0.5380096435546875,-0.0840301513671875,-0.555633544921875
1757088683869147600,4.446147705078125,0.6947479248046875,-0.0300750732421875,-0.5827178955078125
1757088683879193600,4.456193603515625,0.6764984130859375,-0.04901123046875,-0.5335235595703125
1757088683889240600,4.466240478515625,0.6037445068359375,-0.204986572265625,-0.1619873046875
1757088683899286500,4.47628662109375,0.72430419921875,0.360382080078125,0.4350433349609375
1757088683909332500,4.48633251953125,0.990264892578125,0.1969757080078125,0.0458831787109375
1757088683919379500,4.49637939453125,1.032318115234375,0.9728240966796875,0.1464996337890625
1757088683929425400,4.50642529296875,0.980682373046875,0.7495269775390625,-0.031585693359375
1757088683939472400,4.516472412109375,0.5677642822265625,0.40875244140625,-0.001861572265625
1757088683949518300,4.526518310546875,0.0811920166015625,0.3769683837890625,-0.062835693359375
1757088683959564500,4.536564453125,-0.227142333984375,0.4867706298828125,-0.4656524658203125
1757088683969611500,4.546611572265625,-0.022491455078125,0.6290283203125,-0.5358734130859375
1757088683979657700,4.55665771484375,0.253143310546875,0.6221466064453125,-0.4112701416015625
1757088683989704700,4.56670458984375,0.07122802734375,0.74517822265625,-0.3748931884765625
1757088683999750700,4.576750732421875,0.129486083984375,0.5832672119140625,-0.1981201171875
1757088684009797600,4.586797607421875,0.2886199951171875,1.0838470458984375,-0.33258056640625
1757088684019843600,4.596843505859375,0.018646240234375,1.063934326171875,-0.9429473876953125
1757088684029889500,4.6068896484375,0.1418914794921875,1.294647216796875,-1.2443389892578125
1757088684039936500,4.6169365234375,0.0847320556640625,1.31768798828125,-1.67730712890625
1757088684049982500,4.626982421875,0.3235931396484375,1.2988433837890625,-1.72589111328125
1757088684060029400,4.637029541015625,0.670684814453125,1.041778564453125,-1.355621337890625
1757088684070075400,4.647075439453125,0.7333984375,1.1279754638671875,-0.79425048828125
1757088684080121600,4.65712158203125,0.5939788818359375,1.0943450927734375,-0.5052032470703125
1757088684090168600,4.66716845703125,0.60076904296875,1.2395172119140625,-0.4573211669921875
1757088684100214500,4.677214599609375,0.8782958984375,1.7320404052734375,-0.868316650390625
1757088684110261500,4.687261474609375,0.441986083984375,1.403228759765625,-0.720733642578125
1757088684120307500,4.697307373046875,0.328582763671875,1.1122589111328125,-0.34521484375
1757088684130353400,4.707353515625,0.28826904296875,1.0666046142578125,-0.4159698486328125
1757088684140400600,4.717400634765625,0.365081787109375,0.9427642822265625,-0.4488067626953125
1757088684150446300,4.7274462890625,0.370391845703125,0.8816680908203125,-0.411712646484375
1757088684160493600,4.73749365234375,0.35784912109375,0.89508056640625,-0.4345550537109375
1757088684170539500,4.74753955078125,0.36865234375,0.89910888671875,-0.4373779296875
1757088684180585700,4.757585693359375,0.384307861328125,0.8621826171875,-0.4960784912109375
1757088684190632700,4.7676328125,0.4061126708984375,0.9217529296875,-0.476806640625
1757088684200678700,4.7776787109375,0.4473724365234375,0.9797515869140625,-0.4986419677734375
1757088684210725600,4.7877255859375,0.4890594482421875,0.9179840087890625,-0.5044403076171875
1757088684220771600,4.797771484375,0.553619384765625,0.98223876953125,-0.503143310546875
1757088684230817500,4.807817626953125,0.499237060546875,0.9575042724609375,-0.551849365234375
1757088684240864500,4.817864501953125,0.25701904296875,0.8397979736328125,-0.8689422607421875
1757088684250910500,4.827910400390625,0.3291473388671875,0.6244354248046875,-1.046356201171875
1757088684260957400,4.83795751953125,0.42047119140625,0.4138946533203125,-0.87591552734375
1757088684271003400,4.84800341796875,0.51165771484375,0.2673492431640625,-0.776153564453125
1757088684281049600,4.858049560546875,0.323883056640625,0.4234619140625,-0.430206298828125
1757088684291096600,4.8680966796875,0.1842041015625,0.5370330810546875,-0.4148406982421875
1757088684301142500,4.878142578125,0.3055267333984375,0.5518951416015625,-0.5463714599609375
1757088684311189800,4.888189697265625,0.37457275390625,0.6287841796875,-0.573699951171875
1757088684321235500,4.8982353515625,0.4900360107421875,0.743896484375,-0.630615234375
1757088684331281400,4.908281494140625,0.491729736328125,0.8103179931640625,-0.67852783203125
1757088684341328600,4.91832861328125,0.4258880615234375,0.82763671875,-0.7170257568359375
1757088684351374600,4.92837451171875,0.417388916015625,0.850982666015625,-0.7494049072265625
1757088684361421600,4.938421630859375,0.4609832763671875,0.879486083984375,-0.764678955078125
1757088684371467500,4.948467529296875,0.4577789306640625,0.8436737060546875,-0.7626953125
1757088684381513500,4.958513427734375,0.4172210693359375,0.776123046875,-0.745635986328125
1757088684391560400,4.968560546875,0.383819580078125,0.6988525390625,-0.688323974609375
1757088684401606700,4.978606689453125,0.35064697265625,0.642669677734375,-0.61041259765625
1757088684411653600,4.988653564453125,0.3235015869140625,0.54681396484375,-0.54815673828125
1757088684421699600,4.998699462890625,0.32843017578125,0.481658935546875,-0.5278472900390625
1757088684431746600,5.00874658203125,0.390228271484375,0.5104827880859375,-0.5154876708984375
1757088684441791200,5.018791259765625,0.4485015869140625,0.5474395751953125,-0.5092010498046875
1757088684451837200,5.028837158203125,0.468017578125,0.5812225341796875,-0.5191192626953125
1757088684461884200,5.03888427734375,0.45556640625,0.6202545166015625,-0.565185546875
1757088684471930400,5.048930419921875,0.4226837158203125,0.657318115234375,-0.61920166015625
1757088684481977300,5.058977294921875,0.381866455078125,0.6758270263671875,-0.6721038818359375
1757088684492023300,5.069023193359375,0.35992431640625,0.6678924560546875,-0.6937408447265625
1757088684502069200,5.0790693359375,0.3580780029296875,0.6604156494140625,-0.696533203125
1757088684512116200,5.0891162109375,0.3653411865234375,0.6471710205078125,-0.681060791015625
1757088684522162200,5.099162109375,0.3712310791015625,0.6256866455078125,-0.65234375
1757088684532209400,5.10920947265625,0.3660888671875,0.5941925048828125,-0.623931884765625
1757088684542255400,5.11925537109375,0.3591766357421875,0.5543670654296875,-0.5933837890625
1757088684552301000,5.129301025390625,0.355377197265625,0.527435302734375,-0.5803680419921875
1757088684562348300,5.139348388671875,0.3564605712890625,0.5153961181640625,-0.5868988037109375
1757088684572394500,5.14939453125,0.3531494140625,0.51983642578125,-0.6036376953125
1757088684582441200,5.159441162109375,0.3558349609375,0.5339508056640625,-0.6333160400390625
1757088684592487400,5.1694873046875,0.365570068359375,0.546875,-0.641204833984375
1757088684602533400,5.179533447265625,0.3854217529296875,0.5515594482421875,-0.628570556640625
1757088684612580400,5.189580322265625,0.4244537353515625,0.53472900390625,-0.6060791015625
1757088684622626300,5.199626220703125,0.4439697265625,0.533233642578125,-0.585540771484375
1757088684632673300,5.20967333984375,0.442535400390625,0.5478973388671875,-0.5829620361328125
1757088684642719200,5.21971923828125,0.4028472900390625,0.57086181640625,-0.5925140380859375
1757088684652765200,5.22976513671875,0.33929443359375,0.5958404541015625,-0.6167144775390625
1757088684662812200,5.239812255859375,0.292449951171875,0.6053924560546875,-0.6540679931640625
1757088684672858000,5.249858154296875,0.2853546142578125,0.6031036376953125,-0.69451904296875
1757088684682905000,5.259905029296875,0.302642822265625,0.6063385009765625,-0.708831787109375
1757088684692951300,5.269951416015625,0.3296051025390625,0.6071319580078125,-0.70208740234375
1757088684702997200,5.279997314453125,0.370849609375,0.61065673828125,-0.6785430908203125
1757088684713044200,5.290044189453125,0.4092559814453125,0.625091552734375,-0.6507568359375
1757088684723090200,5.300090087890625,0.40234375,0.6512298583984375,-0.632598876953125
1757088684733137400,5.310137451171875,0.3956451416015625,0.6803741455078125,-0.655914306640625
1757088684743183400,5.320183349609375,0.3795013427734375,0.6964111328125,-0.7005767822265625
1757088684753229300,5.330229248046875,0.372955322265625,0.7013397216796875,-0.754638671875
1757088684763276300,5.3402763671875,0.3742828369140625,0.7154693603515625,-0.7728118896484375
1757088684773322200,5.350322265625,0.376739501953125,0.7301788330078125,-0.7807464599609375
1757088684783369200,5.360369140625,0.3719024658203125,0.7354888916015625,-0.77349853515625
1757088684793415400,5.37041552734375,0.3487091064453125,0.73468017578125,-0.7783203125
1757088684803461400,5.38046142578125,0.318115234375,0.728759765625,-0.7576904296875
1757088684813508400,5.39050830078125,0.31005859375,0.7020111083984375,-0.72607421875
1757088684823554300,5.40055419921875,0.336273193359375,0.6844482421875,-0.7287750244140625
1757088684833601300,5.410601318359375,0.34295654296875,0.681182861328125,-0.6935272216796875
1757088684843647200,5.420647216796875,0.365509033203125,0.6556549072265625,-0.6416015625
1757088684853693200,5.430693115234375,0.361663818359375,0.63592529296875,-0.6231689453125
1757088684863740200,5.440740234375,0.359375,0.6280059814453125,-0.6187896728515625
1757088684873786000,5.4507861328125,0.3747711181640625,0.632781982421875,-0.611419677734375
1757088684883833000,5.4608330078125,0.379150390625,0.64398193359375,-0.6022186279296875
1757088684893879300,5.47087939453125,0.363616943359375,0.654541015625,-0.611053466796875
1757088684903925200,5.48092529296875,0.347320556640625,0.6599273681640625,-0.6265869140625
1757088684913972500,5.490972412109375,0.335418701171875,0.6641845703125,-0.6370391845703125
1757088684924018400,5.501018310546875,0.341094970703125,0.6769866943359375,-0.650115966796875
1757088684934065400,5.5110654296875,0.3468017578125,0.6977996826171875,-0.677093505859375
1757088684944111400,5.521111328125,0.360015869140625,0.7210235595703125,-0.7028656005859375
1757088684954157300,5.5311572265625,0.3625030517578125,0.74761962890625,-0.719818115234375
1757088684964204300,5.541204345703125,0.3607635498046875,0.769256591796875,-0.730133056640625
1757088684974250200,5.551250244140625,0.361297607421875,0.7764129638671875,-0.7620086669921875
1757088684984297200,5.561297119140625,0.363037109375,0.790740966796875,-0.8250579833984375
1757088684994343200,5.57134326171875,0.3588714599609375,0.804901123046875,-0.829010009765625
1757088685004389400,5.581389404296875,0.3882293701171875,0.78253173828125,-0.670989990234375
1757088685014436400,5.591436279296875,0.4379119873046875,0.69073486328125,-0.4760284423828125
1757088685024482300,5.601482421875,0.4287567138671875,0.5616912841796875,-0.3777313232421875
1757088685034529300,5.611529296875,0.335205078125,0.47259521484375,-0.4189605712890625
1757088685044575200,5.6215751953125,0.24798583984375,0.4989776611328125,-0.5074920654296875
1757088685054621200,5.63162109375,0.2454376220703125,0.587066650390625,-0.5883331298828125
1757088685064668200,5.641668212890625,0.3401336669921875,0.6645355224609375,-0.62811279296875
1757088685074714000,5.651714111328125,0.3892059326171875,0.727752685546875,-0.6594390869140625
1757088685084761300,5.66176123046875,0.3926849365234375,0.759979248046875,-0.6965789794921875
1757088685094807300,5.671807373046875,0.39312744140625,0.764892578125,-0.70831298828125
1757088685104853500,5.681853515625,0.383270263671875,0.7476959228515625,-0.6903533935546875
1757088685114900200,5.691900146484375,0.372406005859375,0.71728515625,-0.65911865234375
1757088685124946400,5.701946533203125,0.36962890625,0.693634033203125,-0.6275177001953125
1757088685134993400,5.711993408203125,0.368408203125,0.679168701171875,-0.5988922119140625
1757088685145039400,5.722039306640625,0.359375,0.6708831787109375,-0.5876617431640625
1757088685155085300,5.732085205078125,0.3523406982421875,0.6637725830078125,-0.585845947265625
1757088685165132300,5.74213232421875,0.3489837646484375,0.6644134521484375,-0.5929412841796875
1757088685175178200,5.75217822265625,0.352264404296875,0.6741485595703125,-0.6043853759765625
1757088685185225200,5.76222509765625,0.3611297607421875,0.69000244140625,-0.6142578125
1757088685195271200,5.772271240234375,0.3678131103515625,0.706939697265625,-0.6221160888671875
1757088685205317400,5.7823173828125,0.3684539794921875,0.71533203125,-0.6255340576171875
1757088685215364000,5.792364013671875,0.3666839599609375,0.7177886962890625,-0.6286163330078125
1757088685225410300,5.802410400390625,0.364593505859375,0.7174224853515625,-0.6298828125
1757088685235457300,5.812457275390625,0.364532470703125,0.7176971435546875,-0.6333465576171875
1757088685245503200,5.822503173828125,0.3638153076171875,0.7162017822265625,-0.6356658935546875
1757088685255549200,5.832549072265625,0.3616180419921875,0.715576171875,-0.6360931396484375
1757088685265596400,5.842596435546875,0.3591156005859375,0.7118377685546875,-0.635406494140625
1757088685275642400,5.852642333984375,0.3543243408203125,0.7088623046875,-0.63409423828125
1757088685285689300,5.862689453125,0.3516387939453125,0.7055816650390625,-0.631988525390625
1757088685295735300,5.8727353515625,0.3509674072265625,0.704742431640625,-0.6324920654296875
1757088685305781200,5.88278125,0.3504638671875,0.703369140625,-0.63299560546875
1757088685315828200,5.892828125,0.3504638671875,0.702545166015625,-0.6335296630859375
1757088685325874400,5.90287451171875,0.34906005859375,0.704071044921875,-0.6364898681640625
1757088685335921400,5.91292138671875,0.3467254638671875,0.6990814208984375,-0.63897705078125
1757088685345967400,5.92296728515625,0.3438568115234375,0.69586181640625,-0.640228271484375
1757088685356013300,5.933013427734375,0.3419342041015625,0.694976806640625,-0.6389007568359375
1757088685366060300,5.943060302734375,0.3450927734375,0.6919097900390625,-0.6372528076171875
1757088685376106200,5.953106201171875,0.34619140625,0.6902313232421875,-0.6353302001953125
1757088685386153200,5.9631533203125,0.3462982177734375,0.6876373291015625,-0.6317901611328125
1757088685396199200,5.97319921875,0.349395751953125,0.6881561279296875,-0.6295166015625
1757088685406245000,5.9832451171875,0.3546142578125,0.691162109375,-0.6295013427734375
1757088685416292000,5.9932919921875,0.3578643798828125,0.6954498291015625,-0.6312255859375
1757088685426338300,6.00333837890625,0.35784912109375,0.6972808837890625,-0.6321258544921875
1757088685436385500,6.013385498046875,0.3572540283203125,0.69830322265625,-0.6309051513671875
1757088685446431700,6.023431640625,0.3575592041015625,0.69671630859375,-0.6295013427734375
1757088685456477700,6.033477783203125,0.3588409423828125,0.6933441162109375,-0.6307830810546875
1757088685466524700,6.043524658203125,0.3610382080078125,0.6938934326171875,-0.631195068359375
1757088685476570600,6.053570556640625,0.3613739013671875,0.695159912109375,-0.631805419921875
1757088685486617600,6.06361767578125,0.362701416015625,0.6943359375,-0.631378173828125
1757088685496663600,6.07366357421875,0.3616485595703125,0.695831298828125,-0.6287841796875
1757088685506709500,6.08370947265625,0.3598480224609375,0.69622802734375,-0.6235504150390625
1757088685516756500,6.093756591796875,0.3559417724609375,0.6931610107421875,-0.6213226318359375
1757088685526802400,6.103802490234375,0.352630615234375,0.69049072265625,-0.6266632080078125
1757088685536849400,6.113849365234375,0.3522186279296875,0.6891326904296875,-0.6331329345703125
1757088685546895600,6.1238955078125,0.35382080078125,0.6903533935546875,-0.6392974853515625
1757088685556941600,6.133941650390625,0.3545989990234375,0.690673828125,-0.64453125
1757088685566988500,6.143988525390625,0.3560028076171875,0.693359375,-0.6429595947265625
1757088685577034500,6.154034423828125,0.3546905517578125,0.6936492919921875,-0.640411376953125
1757088685587080400,6.16408056640625,0.35577392578125,0.6908721923828125,-0.637603759765625
1757088685597127400,6.17412744140625,0.3565826416015625,0.6899261474609375,-0.6309661865234375
1757088685607173400,6.18417333984375,0.3601837158203125,0.688812255859375,-0.627197265625
1757088685617220600,6.194220703125,0.36236572265625,0.689422607421875,-0.625274658203125
1757088685627266600,6.2042666015625,0.3626708984375,0.6891021728515625,-0.6241912841796875
1757088685637313500,6.2143134765625,0.3632659912109375,0.688568115234375,-0.623779296875
1757088685647359500,6.224359375,0.3612213134765625,0.6911468505859375,-0.624908447265625
1757088685657405700,6.23440576171875,0.3605194091796875,0.692901611328125,-0.6265106201171875
1757088685667452700,6.24445263671875,0.3606109619140625,0.6942596435546875,-0.626556396484375
1757088685677498600,6.25449853515625,0.3637237548828125,0.69580078125,-0.625152587890625
1757088685687544600,6.264544677734375,0.367523193359375,0.697052001953125,-0.62274169921875
1757088685697591600,6.274591552734375,0.36761474609375,0.695404052734375,-0.619659423828125
1757088685707637500,6.284637451171875,0.365386962890625,0.6956634521484375,-0.6198272705078125
1757088685717684500,6.2946845703125,0.36431884765625,0.6923828125,-0.619293212890625
1757088685727730400,6.30473046875,0.3607940673828125,0.690704345703125,-0.6216888427734375
1757088685737776600,6.314776611328125,0.3614501953125,0.6886138916015625,-0.62457275390625
1757088685747823400,6.3248232421875,0.3633880615234375,0.6875457763671875,-0.6270904541015625
1757088685757869600,6.33486962890625,0.3650054931640625,0.69091796875,-0.629058837890625
1757088685767916500,6.34491650390625,0.3654632568359375,0.693023681640625,-0.6294708251953125
1757088685777962500,6.35496240234375,0.36376953125,0.692535400390625,-0.6285552978515625
1757088685788008400,6.365008544921875,0.363433837890625,0.69281005859375,-0.6282501220703125
1757088685798055700,6.3750556640625,0.3634185791015625,0.6929931640625,-0.62933349609375
1757088685808101400,6.385101318359375,0.3630828857421875,0.6934356689453125,-0.6274566650390625
1757088685818148600,6.395148681640625,0.36346435546875,0.6932220458984375,-0.6269378662109375
1757088685828194600,6.405194580078125,0.363677978515625,0.6932220458984375,-0.624908447265625
1757088685838240500,6.415240478515625,0.36151123046875,0.691619873046875,-0.62359619140625
1757088685848287500,6.42528759765625,0.3600616455078125,0.6902313232421875,-0.6273651123046875
1757088685858333700,6.435333740234375,0.3596649169921875,0.6908111572265625,-0.631439208984375
1757088685868380700,6.445380615234375,0.359100341796875,0.6902313232421875,-0.6331329345703125
1757088685878426600,6.455426513671875,0.361175537109375,0.6925048828125,-0.634368896484375
1757088685888472600,6.46547265625,0.360626220703125,0.69329833984375,-0.6353759765625
1757088685898519600,6.47551953125,0.358551025390625,0.693572998046875,-0.6354522705078125
1757088685908565500,6.4855654296875,0.357574462890625,0.693511962890625,-0.6351470947265625
1757088685918612500,6.495612548828125,0.3575286865234375,0.6950531005859375,-0.637359619140625
1757088685928658400,6.505658447265625,0.357391357421875,0.693145751953125,-0.6372833251953125
1757088685938704400,6.515704345703125,0.3578338623046875,0.6911468505859375,-0.6352386474609375
1757088685948751400,6.52575146484375,0.35894775390625,0.688201904296875,-0.632171630859375
1757088685958797600,6.535797607421875,0.35931396484375,0.6905975341796875,-0.6287841796875
1757088685968844300,6.54584423828125,0.3589324951171875,0.693206787109375,-0.63055419921875
1757088685978890500,6.555890380859375,0.35418701171875,0.695465087890625,-0.633514404296875
1757088685988936400,6.5659365234375,0.356048583984375,0.697296142578125,-0.6361236572265625
1757088685998983700,6.575983642578125,0.361175537109375,0.6959381103515625,-0.6354827880859375
1757088686009029600,6.586029541015625,0.363861083984375,0.6938018798828125,-0.6365509033203125
1757088686019076600,6.59607666015625,0.3652191162109375,0.6928558349609375,-0.6359100341796875
1757088686029122600,6.60612255859375,0.3643646240234375,0.690338134765625,-0.6324310302734375
1757088686039168500,6.61616845703125,0.364715576171875,0.68939208984375,-0.6305084228515625
1757088686049215500,6.626215576171875,0.365753173828125,0.6894073486328125,-0.6251678466796875
1757088686059261400,6.636261474609375,0.3667144775390625,0.688720703125,-0.6221771240234375
1757088686069307600,6.6463076171875,0.3659515380859375,0.6881561279296875,-0.623504638671875
1757088686079354600,6.656354736328125,0.360015869140625,0.6874542236328125,-0.6252899169921875
1757088686089400600,6.666400634765625,0.3599395751953125,0.6854248046875,-0.6274261474609375
1757088686099447600,6.676447509765625,0.358795166015625,0.6848907470703125,-0.62799072265625
1757088686109493500,6.686493408203125,0.358734130859375,0.686737060546875,-0.629486083984375
1757088686119539500,6.69653955078125,0.3595733642578125,0.686431884765625,-0.6313934326171875
1757088686129586400,6.70658642578125,0.360260009765625,0.6882476806640625,-0.6317901611328125
1757088686139632400,6.71663232421875,0.35888671875,0.688385009765625,-0.6305389404296875
1757088686149679400,6.726679443359375,0.3591461181640625,0.6897430419921875,-0.630523681640625
1757088686159725300,6.736725341796875,0.3592681884765625,0.692047119140625,-0.6349945068359375
1757088686169771500,6.746771484375,0.361114501953125,0.6961517333984375,-0.6364288330078125
1757088686179818800,6.75681884765625,0.3615875244140625,0.6952667236328125,-0.639404296875
1757088686189864700,6.76686474609375,0.36328125,0.6947174072265625,-0.638397216796875
1757088686199911700,6.77691162109375,0.3622894287109375,0.6929168701171875,-0.6360626220703125
1757088686209957600,6.78695751953125,0.3615875244140625,0.68988037109375,-0.6331329345703125
1757088686220003600,6.797003662109375,0.3607177734375,0.68682861328125,-0.628692626953125
1757088686230050600,6.807050537109375,0.360595703125,0.6850128173828125,-0.624481201171875
1757088686240096500,6.817096435546875,0.3603057861328125,0.68426513671875,-0.6252593994140625
1757088686250143500,6.8271435546875,0.3611907958984375,0.6866607666015625,-0.6273193359375
1757088686260189400,6.837189453125,0.362640380859375,0.6926116943359375,-0.629669189453125
1757088686270235600,6.847235595703125,0.3620147705078125,0.696014404296875,-0.6319122314453125
1757088686280282600,6.85728271484375,0.3620452880859375,0.695587158203125,-0.6351470947265625
1757088686290328600,6.86732861328125,0.3637542724609375,0.69415283203125,-0.636932373046875
1757088686300375600,6.87737548828125,0.364105224609375,0.6921234130859375,-0.6361846923828125
1757088686310421500,6.88742138671875,0.3643341064453125,0.6897125244140625,-0.636474609375
1757088686320467500,6.897467529296875,0.363250732421875,0.6905517578125,-0.6341400146484375
1757088686330514400,6.907514404296875,0.36468505859375,0.68865966796875,-0.630218505859375
1757088686340560400,6.917560302734375,0.364532470703125,0.6860198974609375,-0.6290740966796875
1757088686350607600,6.927607666015625,0.363250732421875,0.686920166015625,-0.6271820068359375
1757088686360653600,6.937653564453125,0.3648834228515625,0.687774658203125,-0.62701416015625
1757088686370699500,6.947699462890625,0.3663177490234375,0.6876678466796875,-0.6244354248046875
1757088686380746500,6.95774658203125,0.367095947265625,0.68658447265625,-0.6269378662109375
1757088686390792700,6.967792724609375,0.366943359375,0.685699462890625,-0.62774658203125
1757088686400838700,6.977838623046875,0.365814208984375,0.6876373291015625,-0.62921142578125
1757088686410885600,6.9878857421875,0.3651123046875,0.688323974609375,-0.63092041015625
1757088686420931600,6.997931640625,0.3630218505859375,0.6872100830078125,-0.6291961669921875
1757088686430978600,7.007978515625,0.3651123046875,0.6873321533203125,-0.62908935546875
1757088686441023700,7.018023681640625,0.36602783203125,0.6880035400390625,-0.6298828125
1757088686451070000,7.028070068359375,0.366912841796875,0.6894989013671875,-0.6302642822265625
1757088686461116700,7.03811669921875,0.367401123046875,0.68963623046875,-0.6294403076171875
1757088686471163000,7.048162841796875,0.367034912109375,0.69268798828125,-0.629241943359375
1757088686481210000,7.058210205078125,0.365020751953125,0.6930084228515625,-0.6296539306640625
1757088686491256000,7.068256103515625,0.3616180419921875,0.6938323974609375,-0.6285552978515625
1757088686501302000,7.078302001953125,0.3585205078125,0.6934051513671875,-0.6292266845703125
1757088686511349000,7.088348876953125,0.358917236328125,0.6945648193359375,-0.6285552978515625
1757088686521395000,7.09839501953125,0.3606719970703125,0.6934967041015625,-0.6266326904296875
1757088686531442000,7.10844189453125,0.361328125,0.6929779052734375,-0.626129150390625
1757088686541487900,7.11848779296875,0.3609771728515625,0.691192626953125,-0.6258087158203125
1757088686551533800,7.128533935546875,0.3560791015625,0.6920318603515625,-0.6296539306640625
1757088686561580800,7.138580810546875,0.3533172607421875,0.6939849853515625,-0.633453369140625
1757088686571627000,7.148626953125,0.354644775390625,0.6949310302734375,-0.6335906982421875
1757088686581674000,7.158674072265625,0.359619140625,0.6964874267578125,-0.6330108642578125
1757088686591720000,7.168719970703125,0.3627166748046875,0.69580078125,-0.6307220458984375
1757088686601766000,7.178765869140625,0.3603057861328125,0.6923980712890625,-0.6273651123046875
1757088686611812900,7.188812744140625,0.3598480224609375,0.6884613037109375,-0.62738037109375
1757088686621858800,7.19885888671875,0.3600616455078125,0.6889190673828125,-0.62689208984375
1757088686631905800,7.20890576171875,0.362060546875,0.6887969970703125,-0.6270599365234375
1757088686641951700,7.21895166015625,0.363677978515625,0.6897125244140625,-0.6290130615234375
1757088686651997700,7.228997802734375,0.364044189453125,0.689300537109375,-0.6305084228515625
1757088686662045000,7.239044921875,0.365631103515625,0.6884765625,-0.630035400390625
1757088686672091000,7.2490908203125,0.3663787841796875,0.6871185302734375,-0.6286163330078125
1757088686682137000,7.25913720703125,0.3694305419921875,0.686004638671875,-0.627166748046875
1757088686692184000,7.26918408203125,0.3724212646484375,0.6862945556640625,-0.630218505859375
1757088686702230000,7.27922998046875,0.373870849609375,0.69091796875,-0.63067626953125
1757088686712277000,7.289277099609375,0.3751373291015625,0.692169189453125,-0.62823486328125
1757088686722323000,7.299322998046875,0.3740081787109375,0.692413330078125,-0.6283721923828125
1757088686732369000,7.309368896484375,0.37127685546875,0.6901397705078125,-0.629241943359375
1757088686742416000,7.319415771484375,0.369781494140625,0.6867523193359375,-0.629119873046875
1757088686752461800,7.3294619140625,0.369476318359375,0.685699462890625,-0.631591796875
1757088686762508800,7.3395087890625,0.3669586181640625,0.684722900390625,-0.6313018798828125
1757088686772554800,7.3495546875,0.365234375,0.68267822265625,-0.6311187744140625
1757088686782601000,7.35960107421875,0.36468505859375,0.6833648681640625,-0.63018798828125
1757088686792648000,7.36964794921875,0.3637237548828125,0.68438720703125,-0.629425048828125
1757088686802694000,7.37969384765625,0.36334228515625,0.686553955078125,-0.63031005859375
1757088686812740900,7.389740966796875,0.3656768798828125,0.6892852783203125,-0.6309967041015625
1757088686822786800,7.399786865234375,0.3682708740234375,0.691741943359375,-0.63177490234375
1757088686832832800,7.409832763671875,0.3677520751953125,0.6905517578125,-0.6309661865234375
1757088686842880000,7.4198798828125,0.3666534423828125,0.6879730224609375,-0.6295928955078125
1757088686852926000,7.429926025390625,0.3634033203125,0.68670654296875,-0.6277923583984375
1757088686862973000,7.439972900390625,0.36529541015625,0.6866455078125,-0.6287384033203125
1757088686873019000,7.450018798828125,0.364501953125,0.686798095703125,-0.6284332275390625
1757088686883065000,7.460065185546875,0.36724853515625,0.68829345703125,-0.62939453125
1757088686893112000,7.470112060546875,0.3664703369140625,0.6905364990234375,-0.62933349609375
1757088686903158000,7.480157958984375,0.3643341064453125,0.6911773681640625,-0.6318359375
1757088686913205000,7.490205078125,0.3641815185546875,0.6912841796875,-0.6320037841796875
1757088686923251000,7.5002509765625,0.3673095703125,0.690643310546875,-0.6282501220703125
1757088686933297000,7.510296875,0.3684844970703125,0.688751220703125,-0.6259765625
1757088686943343900,7.52034375,0.3657073974609375,0.6896820068359375,-0.627838134765625
1757088686953389800,7.530389892578125,0.3642730712890625,0.6909332275390625,-0.6320037841796875
1757088686963436800,7.540436767578125,0.3657684326171875,0.6925048828125,-0.6341400146484375
1757088686973482800,7.550482666015625,0.369110107421875,0.6960296630859375,-0.6343231201171875
1757088686983529000,7.560529052734375,0.3715972900390625,0.698944091796875,-0.6325836181640625
1757088686993576000,7.570575927734375,0.3697662353515625,0.69781494140625,-0.6313018798828125
1757088687003622000,7.580621826171875,0.36395263671875,0.6915740966796875,-0.6304931640625
1757088687013667800,7.590667724609375,0.3592529296875,0.6844482421875,-0.62664794921875
1757088687023715000,7.600715087890625,0.3579254150390625,0.6799468994140625,-0.6278076171875
1757088687033761000,7.610760986328125,0.363861083984375,0.681854248046875,-0.6314544677734375
1757088687043808000,7.62080810546875,0.36712646484375,0.6858673095703125,-0.6313018798828125
1757088687053854000,7.63085400390625,0.3710479736328125,0.6959075927734375,-0.6363983154296875
1757088687063900000,7.64089990234375,0.37176513671875,0.7002105712890625,-0.6382904052734375
1757088687073947000,7.65094677734375,0.3749542236328125,0.699859619140625,-0.63470458984375
1757088687083992800,7.660992919921875,0.3748626708984375,0.69757080078125,-0.6285552978515625
1757088687094039800,7.671039794921875,0.37506103515625,0.689849853515625,-0.61920166015625
1757088687104086000,7.6810859375,0.370208740234375,0.68133544921875,-0.6147003173828125
1757088687114132000,7.691132080078125,0.3627471923828125,0.67242431640625,-0.60809326171875
1757088687124179000,7.701178955078125,0.3591156005859375,0.66357421875,-0.606964111328125
1757088687134225000,7.711224853515625,0.3534698486328125,0.66522216796875,-0.614166259765625
1757088687144272000,7.72127197265625,0.354217529296875,0.67559814453125,-0.6284332275390625
1757088687154317800,7.73131787109375,0.3574371337890625,0.68939208984375,-0.6396026611328125
1757088687164363800,7.74136376953125,0.3621063232421875,0.70489501953125,-0.6485137939453125
1757088687174410800,7.75141064453125,0.3606414794921875,0.7171478271484375,-0.649658203125
1757088687184456700,7.761456787109375,0.3641510009765625,0.7206268310546875,-0.6505584716796875
1757088687194504000,7.77150390625,0.3489532470703125,0.73297119140625,-0.6966705322265625
1757088687204550000,7.7815498046875,0.3603057861328125,0.74761962890625,-0.67742919921875
1757088687214595800,7.791595947265625,0.3864593505859375,0.726715087890625,-0.64093017578125
1757088687224643000,7.80164306640625,0.370758056640625,0.7008514404296875,-0.6295623779296875
1757088687234689000,7.81168896484375,0.3701324462890625,0.6769866943359375,-0.6127166748046875
1757088687244735000,7.82173486328125,0.3634033203125,0.6705169677734375,-0.6091766357421875
1757088687254782000,7.831781982421875,0.364959716796875,0.670684814453125,-0.60675048828125
1757088687264828000,7.841827880859375,0.3606414794921875,0.6729278564453125,-0.60736083984375
1757088687274875000,7.851875,0.365997314453125,0.6763763427734375,-0.6122894287109375
1757088687284920800,7.8619208984375,0.36431884765625,0.680755615234375,-0.6213836669921875
1757088687294967000,7.871967041015625,0.362548828125,0.68426513671875,-0.624359130859375
1757088687305014000,7.882013916015625,0.3659210205078125,0.6841888427734375,-0.623321533203125
1757088687315060000,7.89206005859375,0.36517333984375,0.684356689453125,-0.623809814453125
1757088687325107000,7.90210693359375,0.3673553466796875,0.688446044921875,-0.6278228759765625
1757088687335153000,7.91215283203125,0.3623199462890625,0.69842529296875,-0.6321868896484375
1757088687345198800,7.92219873046875,0.363983154296875,0.7013397216796875,-0.6374969482421875
1757088687355245800,7.932245849609375,0.364715576171875,0.7042236328125,-0.6431732177734375
1757088687365291800,7.942291748046875,0.3582611083984375,0.7053680419921875,-0.6402435302734375
1757088687375338800,7.9523388671875,0.3696441650390625,0.708740234375,-0.6295623779296875
1757088687385384700,7.962384765625,0.3669586181640625,0.7086029052734375,-0.6183013916015625
1757088687395431000,7.972430908203125,0.3715667724609375,0.70458984375,-0.6074981689453125
1757088687405478000,7.982477783203125,0.3740081787109375,0.7000885009765625,-0.6013946533203125
1757088687415524000,7.992524169921875,0.3724212646484375,0.7032470703125,-0.5915985107421875
1757088687425571000,8.002571044921876,0.37786865234375,0.7062225341796875,-0.5847015380859375
1757088687435617300,8.0126171875,0.3846588134765625,0.6933135986328125,-0.58966064453125
1757088687445663200,8.022663330078124,0.3846282958984375,0.6918487548828125,-0.5913848876953125
1757088687455710200,8.032710205078125,0.3784637451171875,0.70233154296875,-0.5915069580078125
1757088687465756200,8.042756103515625,0.3751373291015625,0.710235595703125,-0.5927734375
1757088687475802000,8.052802001953125,0.3769683837890625,0.715667724609375,-0.5933837890625
1757088687485849300,8.062849365234374,0.372711181640625,0.7206268310546875,-0.59619140625
1757088687495895300,8.072895263671874,0.3687896728515625,0.7216644287109375,-0.600860595703125
1757088687505942300,8.0829423828125,0.367431640625,0.7131805419921875,-0.6052093505859375
1757088687515988200,8.09298828125,0.368560791015625,0.693695068359375,-0.608184814453125
1757088687526034400,8.103034423828126,0.365478515625,0.6887054443359375,-0.5982208251953125
1757088687536081400,8.113081298828124,0.3570709228515625,0.693145751953125,-0.60089111328125
1757088687546127400,8.12312744140625,0.3493804931640625,0.700042724609375,-0.6064910888671875
1757088687556174300,8.13317431640625,0.34820556640625,0.708587646484375,-0.6038818359375
1757088687566220300,8.14322021484375,0.3421630859375,0.7174072265625,-0.609619140625
1757088687576266200,8.153266357421876,0.3258514404296875,0.7219085693359375,-0.6339874267578125
1757088687586313200,8.163313232421874,0.2816314697265625,0.7192535400390625,-0.679046630859375
1757088687596359200,8.173359130859374,0.224700927734375,0.723541259765625,-0.7342376708984375
1757088687606406100,8.18340625,0.2344970703125,0.745880126953125,-0.7691192626953125
1757088687616452000,8.1934521484375,0.295196533203125,0.7811737060546875,-0.751251220703125
1757088687626498300,8.203498291015626,0.362640380859375,0.800933837890625,-0.704193115234375
1757088687636545300,8.213545166015624,0.4014129638671875,0.7844390869140625,-0.6850738525390625
1757088687646591200,8.22359130859375,0.393951416015625,0.7709808349609375,-0.6957855224609375
1757088687656638500,8.233638427734375,0.439117431640625,0.7801055908203125,-0.723114013671875
1757088687666684400,8.243684326171875,0.4403533935546875,0.7995452880859375,-0.7725982666015625
1757088687676730400,8.25373046875,0.39947509765625,0.8137664794921875,-0.75946044921875
1757088687686777300,8.26377734375,0.40289306640625,0.8149261474609375,-0.7101287841796875
1757088687696823300,8.2738232421875,0.38653564453125,0.808563232421875,-0.7021636962890625
1757088687706869200,8.283869140625,0.37005615234375,0.7971038818359375,-0.730316162109375
1757088687716916200,8.293916259765625,0.3353729248046875,0.8493194580078125,-0.7513885498046875
1757088687726962400,8.30396240234375,0.3020782470703125,0.9161376953125,-0.7536163330078125
1757088687737009400,8.314009521484374,0.3049163818359375,0.92559814453125,-0.6927032470703125
1757088687747055400,8.324055419921875,0.3072662353515625,0.9334259033203125,-0.628875732421875
1757088687757101300,8.334101318359375,0.2811431884765625,0.98046875,-0.5926666259765625
1757088687767148300,8.344148193359375,0.2808074951171875,1.0146331787109375,-0.5203857421875
1757088687777194200,8.3541943359375,0.231842041015625,1.030120849609375,-0.444122314453125
1757088687787241200,8.3642412109375,0.312408447265625,1.021026611328125,-0.414337158203125
1757088687797287200,8.374287109375,0.3779449462890625,1.0284423828125,-0.3610687255859375
1757088687807333000,8.3843330078125,0.395416259765625,1.0167999267578125,-0.376434326171875
1757088687817380000,8.394380126953125,0.31427001953125,0.99951171875,-0.4254608154296875
1757088687827426300,8.40442626953125,0.3431243896484375,0.97515869140625,-0.4611968994140625
1757088687837473300,8.414473388671874,0.3907470703125,0.9717559814453125,-0.49505615234375
1757088687847519500,8.42451953125,0.3681640625,0.9622955322265625,-0.518829345703125
1757088687857565200,8.434565185546875,0.2746429443359375,0.9441986083984375,-0.4850006103515625
1757088687867612400,8.4446123046875,0.2038421630859375,0.9466094970703125,-0.44903564453125
1757088687877658400,8.454658447265626,0.17376708984375,0.9676055908203125,-0.396148681640625
1757088687887705300,8.464705322265624,0.17926025390625,1.00469970703125,-0.3524932861328125
1757088687897751300,8.474751220703125,0.151031494140625,1.0483245849609375,-0.3288421630859375
1757088687907797200,8.48479736328125,0.1649169921875,1.0792388916015625,-0.3089752197265625
1757088687917844200,8.49484423828125,0.2278289794921875,1.102813720703125,-0.275787353515625
1757088687927890200,8.50489013671875,0.247589111328125,1.1051788330078125,-0.261199951171875
1757088687937936400,8.514936279296874,0.2127685546875,1.0776214599609375,-0.26434326171875
1757088687947983400,8.5249833984375,0.1812591552734375,1.034698486328125,-0.256011962890625
1757088687958029300,8.535029296875,0.184814453125,0.9879913330078125,-0.2262115478515625
1757088687968076300,8.545076171875,0.179901123046875,0.958526611328125,-0.2143096923828125
1757088687978122200,8.555122314453126,0.177276611328125,0.94793701171875,-0.1984710693359375
1757088687988168200,8.565168212890624,0.17803955078125,0.9539794921875,-0.190521240234375
1757088687998215200,8.575215087890625,0.175262451171875,0.9699859619140625,-0.1848602294921875
1757088688008261000,8.58526123046875,0.1943511962890625,0.9862213134765625,-0.1767578125
1757088688018308400,8.595308349609375,0.1850433349609375,1.00390625,-0.1883697509765625
1757088688028354000,8.60535400390625,0.1733856201171875,1.0106201171875,-0.1759796142578125
1757088688038400300,8.615400146484374,0.1695404052734375,1.0091400146484375,-0.16607666015625
1757088688048447500,8.625447509765625,0.1542816162109375,0.999053955078125,-0.16162109375
1757088688058493400,8.635493408203125,0.1471405029296875,0.985015869140625,-0.1403350830078125
1757088688068540400,8.64554052734375,0.1284027099609375,0.9718017578125,-0.119232177734375
1757088688078586400,8.65558642578125,0.0972442626953125,0.961395263671875,-0.104888916015625
1757088688088632300,8.66563232421875,0.0794525146484375,0.96331787109375,-0.0792999267578125
1757088688098679300,8.67567919921875,0.07696533203125,0.96075439453125,-0.06146240234375
1757088688108725200,8.685725341796875,0.0735931396484375,0.9528961181640625,-0.0442962646484375
1757088688118772200,8.695772216796875,0.077972412109375,0.958160400390625,-0.0373382568359375
1757088688128818200,8.705818115234376,0.083709716796875,0.9723052978515625,-0.0370941162109375
1757088688138864400,8.715864501953124,0.0889739990234375,0.980377197265625,-0.0246124267578125
1757088688148911400,8.725911376953125,0.1050567626953125,0.9869384765625,-0.0028533935546875
1757088688158957300,8.735957275390625,0.112030029296875,0.9841461181640625,0.0161590576171875
1757088688169003300,8.746003173828125,0.104736328125,0.9802703857421875,0.0316619873046875
1757088688179050200,8.75605029296875,0.1101531982421875,0.9770050048828125,0.0469818115234375
1757088688189096200,8.76609619140625,0.09674072265625,0.9659271240234375,0.0522613525390625
1757088688199143200,8.77614306640625,0.069000244140625,0.95135498046875,0.0358123779296875
1757088688209189000,8.786189208984375,0.0718994140625,0.942596435546875,0.024627685546875
1757088688219235000,8.796235107421875,0.0655670166015625,0.9238128662109375,0.0128631591796875
1757088688229282300,8.8062822265625,0.066070556640625,0.91412353515625,-0.0006561279296875
1757088688239328500,8.81632861328125,0.0862884521484375,0.9068450927734375,-0.015960693359375
1757088688249375200,8.826375244140625,0.1043701171875,0.9085540771484375,-0.0233306884765625
1757088688259421400,8.83642138671875,0.1189117431640625,0.9079742431640625,-0.026458740234375
1757088688269467400,8.84646728515625,0.1240081787109375,0.9139862060546875,-0.024444580078125
1757088688279514400,8.856514404296876,0.1186065673828125,0.9193572998046875,-0.02264404296875
1757088688289560300,8.866560302734374,0.1113128662109375,0.932586669921875,-0.0163421630859375
1757088688299607300,8.876607177734375,0.0949554443359375,0.944244384765625,0.003265380859375
1757088688309653200,8.8866533203125,0.05743408203125,0.9461212158203125,0.0243377685546875
1757088688319699200,8.89669921875,0.02685546875,0.9324951171875,0.0225677490234375
1757088688329746200,8.90674609375,0.022705078125,0.9282684326171875,0.0296173095703125
1757088688339792100,8.916792236328124,0.02288818359375,0.9264678955078125,0.0423736572265625
1757088688349839000,8.926839111328125,0.052642822265625,0.9082794189453125,0.04461669921875
1757088688359885300,8.93688525390625,0.0921630859375,0.88848876953125,0.0676422119140625
1757088688369931300,8.94693115234375,0.162384033203125,0.8729248046875,0.09197998046875
1757088688379978200,8.956978271484376,0.233551025390625,0.8636016845703125,0.0937652587890625
1757088688390024200,8.967024169921874,0.258453369140625,0.8983154296875,0.0775909423828125
1757088688400070100,8.977070068359374,0.26544189453125,0.9392852783203125,0.0691375732421875
1757088688410117400,8.987117431640625,0.2517547607421875,0.961883544921875,0.048431396484375
1757088688420163300,8.997163330078125,0.2157440185546875,0.9691619873046875,0.0384521484375
1757088688430210300,9.007210205078126,0.1593170166015625,0.955780029296875,0.032623291015625
1757088688440256800,9.0172568359375,0.1072845458984375,0.93963623046875,0.029693603515625
1757088688450302700,9.027302734375,0.077972412109375,0.925506591796875,0.01904296875
1757088688460349700,9.037349609375,0.0663299560546875,0.914642333984375,0.0174407958984375
1757088688470396000,9.04739599609375,0.01361083984375,0.89691162109375,0.0073699951171875
1757088688480443000,9.05744287109375,0.035552978515625,0.88275146484375,0.0068206787109375
1757088688490488800,9.06748876953125,0.0475311279296875,0.863525390625,0.0226898193359375
1757088688500534800,9.07753466796875,0.0457611083984375,0.85369873046875,0.0562591552734375
1757088688510581800,9.087581787109375,0.0530242919921875,0.8456878662109375,0.0653228759765625
1757088688520627700,9.097627685546875,0.0653228759765625,0.8444976806640625,0.091217041015625
1757088688530673700,9.107673583984376,0.0677032470703125,0.84454345703125,0.125152587890625
1757088688540720600,9.117720703125,0.0623016357421875,0.8459014892578125,0.1421356201171875
1757088688550766600,9.1277666015625,0.0251312255859375,0.8342132568359375,0.1777801513671875
1757088688560813600,9.1378134765625,-0.01434326171875,0.8320465087890625,0.1793670654296875
1757088688570859800,9.14785986328125,-0.004669189453125,0.83746337890625,0.1836700439453125
1757088688580905700,9.15790576171875,0.02783203125,0.849609375,0.195220947265625
1757088688590953000,9.167952880859374,0.0840606689453125,0.855377197265625,0.2266998291015625
1757088688600999000,9.1779990234375,0.1469879150390625,0.8466033935546875,0.266326904296875
1757088688611046000,9.1880458984375,0.21673583984375,0.8546905517578125,0.3033599853515625
1757088688621091800,9.198091796875,0.2239990234375,0.87847900390625,0.3272857666015625
1757088688631137800,9.2081376953125,0.20849609375,0.8891143798828125,0.3387908935546875
1757088688641184800,9.218184814453124,0.2081451416015625,0.897430419921875,0.32843017578125
1757088688651230700,9.228230712890625,0.1245574951171875,0.89801025390625,0.3248443603515625
1757088688661277700,9.238277587890625,0.03143310546875,0.8871002197265625,0.2917327880859375
1757088688671324000,9.248323974609375,-0.0084228515625,0.8836822509765625,0.27093505859375
1757088688681369900,9.258369873046876,-0.006195068359375,0.87225341796875,0.2593994140625
1757088688691416800,9.268416748046874,0.0119476318359375,0.86541748046875,0.2694244384765625
1757088688701462800,9.278462890625,0.05963134765625,0.8574981689453125,0.264495849609375
1757088688711509800,9.288509765625,0.077484130859375,0.849029541015625,0.2620849609375
1757088688721555700,9.2985556640625,0.046112060546875,0.8443450927734375,0.2533721923828125
1757088688731601700,9.3086015625,0.0248260498046875,0.8432769775390625,0.2603607177734375
1757088688741648600,9.318648681640624,0.013702392578125,0.852874755859375,0.284149169921875
1757088688751694600,9.328694580078125,0.01861572265625,0.8688507080078125,0.2904815673828125
1757088688761740800,9.33874072265625,0.0525360107421875,0.8853759765625,0.280670166015625
1757088688771787800,9.348787841796875,0.0673370361328125,0.913543701171875,0.3009185791015625
1757088688781834000,9.358833984375,0.080230712890625,0.9424896240234375,0.314239501953125
1757088688791881000,9.368880859375,0.071197509765625,0.970184326171875,0.328216552734375
1757088688801927000,9.378927001953125,0.05267333984375,0.9816436767578125,0.3360443115234375
1757088688811972900,9.388972900390625,0.0346527099609375,0.99664306640625,0.3311767578125
1757088688822019800,9.399019775390625,0.01922607421875,1.01531982421875,0.3245086669921875
1757088688832065800,9.409065673828126,0.0058441162109375,1.035186767578125,0.3078155517578125
1757088688842112800,9.41911279296875,-0.009368896484375,1.040863037109375,0.285003662109375
1757088688852158700,9.42915869140625,-0.0201568603515625,1.034576416015625,0.2553558349609375
1757088688862204700,9.43920458984375,-0.0254974365234375,1.0247650146484375,0.2301788330078125
1757088688872251600,9.449251708984375,-0.0225372314453125,1.0032501220703125,0.211395263671875
1757088688882297900,9.4592978515625,-0.022918701171875,0.9854888916015625,0.1927337646484375
1757088688892344800,9.4693447265625,-0.0254669189453125,0.968109130859375,0.1762847900390625
1757088688902390800,9.479390869140625,-0.0243988037109375,0.9516143798828125,0.17205810546875
1757088688912436700,9.489436767578125,-0.024871826171875,0.9428863525390625,0.18096923828125
1757088688922483700,9.499483642578125,-0.0253448486328125,0.9480743408203125,0.1884002685546875
1757088688932529700,9.50952978515625,-0.0226287841796875,0.953826904296875,0.1991729736328125
1757088688942575600,9.51957568359375,0.001190185546875,0.9644927978515625,0.2286376953125
1757088688952622800,9.529622802734375,0.0523529052734375,0.975189208984375,0.2603607177734375
1757088688962668800,9.539668701171875,0.1126556396484375,0.969757080078125,0.2955780029296875
1757088688972715800,9.5497158203125,0.1497039794921875,0.9644622802734375,0.3272552490234375
1757088688982762000,9.559761962890626,0.1287841796875,0.968109130859375,0.346832275390625
1757088688992808000,9.569807861328124,0.05987548828125,0.9717864990234375,0.3531036376953125
1757088689002855000,9.57985498046875,-0.0135498046875,0.97735595703125,0.3624725341796875
1757088689012900900,9.58990087890625,-0.052032470703125,0.986785888671875,0.358184814453125
1757088689022947800,9.59994775390625,-0.0464019775390625,0.996429443359375,0.34918212890625
1757088689032993800,9.609993896484376,-0.0381622314453125,0.9947509765625,0.363128662109375
1757088689043039700,9.620039794921874,-0.0310211181640625,0.993072509765625,0.3756103515625
1757088689053086700,9.630086669921875,-0.0303192138671875,0.97412109375,0.366058349609375
1757088689063132700,9.640132568359375,-0.030609130859375,0.9534912109375,0.335968017578125
1757088689073179600,9.6501796875,-0.0357818603515625,0.9569091796875,0.3432769775390625
1757088689083225600,9.6602255859375,-0.03363037109375,0.9564056396484375,0.3424072265625
1757088689093271800,9.670271728515624,-0.026885986328125,0.9551544189453125,0.329376220703125
1757088689103318800,9.68031884765625,-0.0174713134765625,0.9561920166015625,0.3250579833984375
1757088689113364700,9.69036474609375,-0.009521484375,0.948089599609375,0.3122406005859375
1757088689123410700,9.70041064453125,-0.00262451171875,0.9457550048828125,0.295166015625
1757088689133458000,9.7104580078125,0.0079803466796875,0.947235107421875,0.279144287109375
1757088689143503600,9.720503662109374,0.012298583984375,0.9487152099609375,0.258087158203125
1757088689153550800,9.73055078125,0.0068206787109375,0.9552764892578125,0.24310302734375
1757088689163596800,9.7405966796875,0.0036468505859375,0.96142578125,0.237701416015625
1757088689173642800,9.750642822265625,0.0012969970703125,0.9658966064453125,0.239959716796875
1757088689183689700,9.760689697265626,0.0015411376953125,0.9694976806640625,0.2498016357421875
1757088689193736000,9.77073583984375,0.006988525390625,0.969512939453125,0.2576904296875
1757088689203783000,9.780782958984375,0.014739990234375,0.9722442626953125,0.268585205078125
1757088689213828900,9.790828857421875,0.0260162353515625,0.982421875,0.27923583984375
1757088689223874800,9.800874755859375,0.03662109375,0.986541748046875,0.28076171875
1757088689233921800,9.810921875,0.0411529541015625,0.9847564697265625,0.2779388427734375
1757088689243967700,9.8209677734375,0.0388336181640625,0.9791412353515625,0.27349853515625
1757088689254014700,9.8310146484375,0.036956787109375,0.9694061279296875,0.2675933837890625
1757088689264060700,9.841060791015625,0.0370330810546875,0.9582672119140625,0.2592315673828125
1757088689274106600,9.851106689453125,0.0341033935546875,0.9437255859375,0.2459259033203125
1757088689284153600,9.861153564453126,0.0341796875,0.9404144287109375,0.241424560546875
1757088689294199800,9.87119970703125,0.03338623046875,0.9443206787109375,0.2357177734375
1757088689304245800,9.881245849609375,0.0293731689453125,0.9554443359375,0.2243499755859375
1757088689314292700,9.891292724609375,0.0236663818359375,0.963836669921875,0.2146759033203125
1757088689324338700,9.901338623046875,0.0211029052734375,0.97393798828125,0.204132080078125
1757088689334386000,9.911385986328124,0.022796630859375,0.9849700927734375,0.1958160400390625
1757088689344431900,9.921431884765624,0.029815673828125,0.993408203125,0.18896484375
1757088689354477800,9.931477783203125,0.0383148193359375,0.9974517822265625,0.1857757568359375
1757088689364524800,9.94152490234375,0.042144775390625,0.9992523193359375,0.1937103271484375
1757088689374570800,9.95157080078125,0.037567138671875,0.99267578125,0.21295166015625
1757088689384617700,9.96161767578125,0.03424072265625,0.9803924560546875,0.232635498046875
1757088689394664000,9.971663818359374,0.03448486328125,0.9703216552734375,0.252532958984375
1757088689404710000,9.9817099609375,0.0424957275390625,0.9680633544921875,0.2705841064453125
1757088689414756900,9.9917568359375,0.0513916015625,0.9614410400390625,0.2896575927734375
1757088689424802800,10.001802734375,0.052215576171875,0.9613800048828125,0.306304931640625
1757088689434848800,10.011848876953126,0.048004150390625,0.9605712890625,0.3133392333984375
1757088689444895000,10.02189501953125,0.0354766845703125,0.9582366943359375,0.3151092529296875
1757088689454941000,10.03194091796875,0.022735595703125,0.959564208984375,0.315338134765625
1757088689464988000,10.04198779296875,0.0165252685546875,0.9615325927734375,0.3157958984375
1757088689475034000,10.0520341796875,0.017303466796875,0.9608306884765625,0.313079833984375
1757088689485080000,10.062080078125,0.0215911865234375,0.956512451171875,0.306396484375
1757088689495127000,10.072126953125,0.024627685546875,0.9462890625,0.2977752685546875
1757088689505173000,10.082173095703125,0.023040771484375,0.9381866455078125,0.29534912109375
1757088689515220200,10.09222021484375,0.021575927734375,0.9355621337890625,0.2942047119140625
1757088689525266200,10.10226611328125,0.0242462158203125,0.9401397705078125,0.3002471923828125
1757088689535312100,10.11231201171875,0.031707763671875,0.9430694580078125,0.3042144775390625
1757088689545359000,10.122359130859374,0.04510498046875,0.940887451171875,0.30316162109375
1757088689555405000,10.132405029296875,0.057403564453125,0.9381103515625,0.2982177734375
1757088689565452000,10.1424521484375,0.0642852783203125,0.9425506591796875,0.2876739501953125
1757088689575498000,10.152498046875,0.069580078125,0.9511260986328125,0.2808380126953125
1757088689585544200,10.162544189453126,0.0820159912109375,0.957611083984375,0.28192138671875
1757088689595591200,10.172591064453124,0.0719757080078125,0.969573974609375,0.2879791259765625
1757088689605637000,10.18263720703125,0.048065185546875,0.979644775390625,0.28558349609375
1757088689615683000,10.19268310546875,0.030059814453125,0.981719970703125,0.2821502685546875
1757088689625730000,10.20272998046875,0.025543212890625,0.9813690185546875,0.2760467529296875
1757088689635776000,10.21277587890625,0.0409393310546875,0.97589111328125,0.2674102783203125
1757088689645823000,10.222822998046874,0.0610198974609375,0.9654083251953125,0.258453369140625
1757088689655869000,10.232868896484375,0.0760650634765625,0.95574951171875,0.2545623779296875
1757088689665915100,10.2429150390625,0.0822296142578125,0.9496002197265625,0.252410888671875
1757088689675961900,10.2529619140625,0.08099365234375,0.9501495361328125,0.255279541015625
1757088689686008000,10.263008056640626,0.073455810546875,0.953521728515625,0.2621917724609375
1757088689696055300,10.27305517578125,0.0669097900390625,0.956024169921875,0.263397216796875
1757088689706101200,10.283101318359375,0.06256103515625,0.9580841064453125,0.263824462890625
1757088689716147200,10.293147216796875,0.0586090087890625,0.957000732421875,0.2672119140625
1757088689726194200,10.303194091796875,0.0601959228515625,0.95477294921875,0.2714691162109375
1757088689736240000,10.313240234375,0.0609893798828125,0.954315185546875,0.2758026123046875
1757088689746287000,10.323287109375,0.0649566650390625,0.954742431640625,0.2794189453125
1757088689756333000,10.3333330078125,0.0681915283203125,0.957733154296875,0.280731201171875
1757088689766379000,10.34337890625,0.0701904296875,0.9600677490234375,0.2766571044921875
1757088689776426000,10.353426025390625,0.07098388671875,0.960479736328125,0.2715911865234375
1757088689786472200,10.36347216796875,0.0684356689453125,0.95770263671875,0.2646331787109375
1757088689796519200,10.373519287109374,0.0654296875,0.9547271728515625,0.2581329345703125
1757088689806565000,10.383565185546875,0.056854248046875,0.9548492431640625,0.254730224609375
1757088689816611000,10.393611083984375,0.0473785400390625,0.9577484130859375,0.2579498291015625
1757088689826658000,10.403657958984375,0.0447845458984375,0.9591217041015625,0.2587890625
1757088689836704000,10.4137041015625,0.0499725341796875,0.959320068359375,0.263275146484375
1757088689846750000,10.42375,0.0543060302734375,0.9566192626953125,0.2698822021484375
1757088689856797000,10.433796875,0.0569915771484375,0.9552154541015625,0.275634765625
1757088689866843000,10.4438427734375,0.060882568359375,0.9519195556640625,0.28118896484375
1757088689876890000,10.45389013671875,0.0674591064453125,0.951171875,0.2851715087890625
1757088689886936000,10.46393603515625,0.071533203125,0.953948974609375,0.2908782958984375
1757088689896982300,10.473982177734374,0.076751708984375,0.9553375244140625,0.2920379638671875
1757088689907029200,10.484029296875,0.0727691650390625,0.954345703125,0.29400634765625
1757088689917075200,10.4940751953125,0.066497802734375,0.9537811279296875,0.2996978759765625
1757088689927122200,10.5041220703125,0.062896728515625,0.9495849609375,0.3069000244140625
1757088689937168100,10.514168212890626,0.06463623046875,0.94970703125,0.315948486328125
1757088689947214000,10.524214111328124,0.0706939697265625,0.9484710693359375,0.3211212158203125
1757088689957261000,10.534260986328125,0.0720977783203125,0.9468536376953125,0.32049560546875
1757088689967307000,10.54430712890625,0.071563720703125,0.950347900390625,0.315216064453125
1757088689977353200,10.554353271484375,0.0707550048828125,0.9544677734375,0.307586669921875
1757088689987400000,10.56439990234375,0.0677032470703125,0.9589080810546875,0.298675537109375
1757088689997446100,10.574446044921874,0.0623321533203125,0.958404541015625,0.2916259765625
1757088690007493000,10.5844931640625,0.0544891357421875,0.9539642333984375,0.28790283203125
1757088690017539000,10.5945390625,0.0489349365234375,0.9513397216796875,0.284210205078125
1757088690027585000,10.6045849609375,0.0482177734375,0.949554443359375,0.2798919677734375
1757088690037632000,10.614632080078126,0.049713134765625,0.9449462890625,0.281036376953125
1757088690047678000,10.624677978515624,0.054290771484375,0.9442138671875,0.2822265625
1757088690057725200,10.63472509765625,0.0579833984375,0.9465179443359375,0.2852935791015625
1757088690067771000,10.64477099609375,0.0605621337890625,0.94793701171875,0.28790283203125
1757088690077817000,10.654817138671875,0.06201171875,0.94708251953125,0.287261962890625
1757088690087864000,10.664864013671876,0.062591552734375,0.948333740234375,0.2857818603515625
1757088690097910300,10.67491015625,0.0612945556640625,0.951995849609375,0.2852935791015625
1757088690107957200,10.684957275390625,0.061920166015625,0.9543914794921875,0.28387451171875
1757088690118003200,10.695003173828125,0.0616607666015625,0.9581451416015625,0.2823486328125
1757088690128049200,10.705049072265625,0.06036376953125,0.95843505859375,0.2862091064453125
1757088690138096000,10.71509619140625,0.0586090087890625,0.9593048095703125,0.2880401611328125
1757088690148142000,10.72514208984375,0.059356689453125,0.961334228515625,0.2878570556640625
1757088690158188000,10.73518798828125,0.060943603515625,0.9611663818359375,0.286895751953125
1757088690168235000,10.745235107421875,0.0589141845703125,0.959136962890625,0.2854156494140625
1757088690178281000,10.755281005859375,0.05548095703125,0.958404541015625,0.282684326171875
1757088690188328000,10.765327880859376,0.0544891357421875,0.9582061767578125,0.28631591796875
1757088690198374100,10.7753740234375,0.057952880859375,0.9596405029296875,0.286163330078125
1757088690208420000,10.785420166015625,0.0598907470703125,0.9588470458984375,0.28497314453125
1757088690218467000,10.795467041015625,0.06201171875,0.9580841064453125,0.2847900390625
1757088690228513000,10.805512939453125,0.0590362548828125,0.9582672119140625,0.2829132080078125
1757088690238560000,10.81556005859375,0.0528411865234375,0.9552154541015625,0.2783203125
1757088690248606000,10.82560595703125,0.0444488525390625,0.950958251953125,0.2767181396484375
1757088690258652000,10.83565185546875,0.04119873046875,0.953094482421875,0.2754364013671875
1757088690268699100,10.84569921875,0.0382537841796875,0.9562225341796875,0.27606201171875
1757088690278745000,10.8557451171875,0.0423736572265625,0.9538116455078125,0.2801055908203125
1757088690288791300,10.865791259765626,0.0470733642578125,0.95513916015625,0.287078857421875
1757088690298838000,10.875838134765624,0.053192138671875,0.9563751220703125,0.29302978515625
1757088690308884200,10.88588427734375,0.05340576171875,0.9531097412109375,0.2937164306640625
1757088690318931200,10.89593115234375,0.0542144775390625,0.95294189453125,0.2929840087890625
1757088690328977200,10.90597705078125,0.05169677734375,0.9493560791015625,0.2860565185546875
1757088690339023000,10.916023193359376,0.0491485595703125,0.9475555419921875,0.2805023193359375
1757088690349070000,10.926070068359374,0.0452728271484375,0.9478759765625,0.2806854248046875
1757088690359116000,10.936115966796875,0.0432281494140625,0.94744873046875,0.2820281982421875
1757088690369163000,10.9461630859375,0.042022705078125,0.9510650634765625,0.2849884033203125
1757088690379209000,10.956208984375,0.041595458984375,0.9518585205078125,0.2834930419921875
1757088690389255200,10.966255126953126,0.0411834716796875,0.9522552490234375,0.283599853515625
1757088690399302000,10.976302001953124,0.0418243408203125,0.955810546875,0.2864532470703125
1757088690409348000,10.98634814453125,0.04364013671875,0.9557037353515625,0.28399658203125
1757088690419395000,10.99639501953125,0.045166015625,0.9564056396484375,0.2857666015625
1757088690429441000,11.00644091796875,0.0473480224609375,0.95928955078125,0.29022216796875
1757088690439488300,11.01648828125,0.050140380859375,0.9588623046875,0.294769287109375
1757088690449535200,11.02653515625,0.0506591796875,0.96038818359375,0.2985992431640625
1757088690459581200,11.036581298828125,0.0501556396484375,0.9595947265625,0.300933837890625
1757088690469627100,11.046627197265625,0.0479736328125,0.956390380859375,0.30029296875
1757088690479674000,11.056674072265626,0.0458526611328125,0.9521484375,0.29595947265625
1757088690489720000,11.066719970703126,0.0465087890625,0.9504241943359375,0.2931671142578125
1757088690499767000,11.07676708984375,0.047119140625,0.9493255615234375,0.29150390625
1757088690509813000,11.08681298828125,0.0496978759765625,0.9510040283203125,0.28802490234375
1757088690519859200,11.096859130859375,0.052734375,0.9554595947265625,0.28570556640625
1757088690529906000,11.106906005859376,0.050811767578125,0.958740234375,0.284698486328125
1757088690539952000,11.1169521484375,0.047088623046875,0.9613189697265625,0.2854766845703125
1757088690549999000,11.1269990234375,0.044647216796875,0.9590301513671875,0.2866058349609375
1757088690560045000,11.137045166015625,0.043243408203125,0.9539642333984375,0.285858154296875
1757088690570091000,11.147091064453125,0.04278564453125,0.94989013671875,0.288787841796875
1757088690580138000,11.157137939453126,0.04205322265625,0.9485015869140625,0.2891693115234375
1757088690590184000,11.167183837890626,0.0428009033203125,0.949676513671875,0.28875732421875
1757088690600230000,11.17722998046875,0.042633056640625,0.955047607421875,0.2883453369140625
1757088690610277000,11.187277099609375,0.045318603515625,0.9582672119140625,0.2855072021484375
1757088690620323000,11.197322998046875,0.0487060546875,0.9589691162109375,0.27947998046875
1757088690630370000,11.2073701171875,0.0485076904296875,0.9602508544921875,0.2764892578125
1757088690640416300,11.217416259765624,0.053070068359375,0.9589080810546875,0.2726593017578125
1757088690650462200,11.227462158203124,0.0540618896484375,0.9572601318359375,0.2671966552734375
1757088690660509200,11.23750927734375,0.0507049560546875,0.9610443115234375,0.268096923828125
1757088690670555100,11.24755517578125,0.0527191162109375,0.96075439453125,0.2645416259765625
1757088690680602000,11.25760205078125,0.0542144775390625,0.9621734619140625,0.2608795166015625
1757088690690648000,11.26764794921875,0.0538787841796875,0.961822509765625,0.260040283203125
1757088690700694000,11.277694091796874,0.053558349609375,0.9596710205078125,0.2576446533203125
1757088690710741000,11.287740966796875,0.0494537353515625,0.9569244384765625,0.2592010498046875
1757088690720787000,11.297786865234375,0.042572021484375,0.9550018310546875,0.2624969482421875
1757088690730833200,11.307833251953125,0.037811279296875,0.9534454345703125,0.2664337158203125
1757088690740880100,11.317880126953124,0.034423828125,0.9534149169921875,0.2743682861328125
1757088690750926000,11.327926025390624,0.035186767578125,0.952850341796875,0.28277587890625
1757088690760973000,11.33797314453125,0.0421295166015625,0.95318603515625,0.2926177978515625
1757088690771019000,11.34801904296875,0.0465545654296875,0.9507904052734375,0.30194091796875
1757088690781065000,11.35806494140625,0.0503692626953125,0.950897216796875,0.30902099609375
1757088690791112200,11.3681123046875,0.0547637939453125,0.9535675048828125,0.310821533203125
1757088690801158100,11.378158203125,0.05413818359375,0.95550537109375,0.306243896484375
1757088690811205000,11.388205078125,0.051300048828125,0.9565887451171875,0.30218505859375
1757088690821251000,11.3982509765625,0.0459747314453125,0.959197998046875,0.2964019775390625
1757088690831297300,11.40829736328125,0.04400634765625,0.955902099609375,0.2871551513671875
1757088690841344000,11.418343994140624,0.0404510498046875,0.953887939453125,0.2823944091796875
1757088690851390200,11.42839013671875,0.0424957275390625,0.9518280029296875,0.2815399169921875
1757088690861437200,11.438437255859375,0.0422821044921875,0.95184326171875,0.2828216552734375
1757088690871483100,11.448483154296875,0.0424041748046875,0.9523468017578125,0.284820556640625
1757088690881529000,11.458529052734375,0.046295166015625,0.9503021240234375,0.286346435546875
1757088690891576000,11.468576171875,0.0513458251953125,0.9501495361328125,0.289306640625
1757088690901622000,11.4786220703125,0.0526123046875,0.9521942138671875,0.2956390380859375
1757088690911668000,11.48866796875,0.0530853271484375,0.9558563232421875,0.3043212890625
1757088690921715000,11.49871484375,0.0556182861328125,0.9588775634765625,0.3129119873046875
1757088690931761200,11.50876123046875,0.0555267333984375,0.9596405029296875,0.3197479248046875
1757088690941807900,11.518807861328124,0.056304931640625,0.9570465087890625,0.3233642578125
1757088690951854000,11.52885400390625,0.058441162109375,0.952423095703125,0.3190155029296875
1757088690961900000,11.538900146484375,0.0568695068359375,0.95111083984375,0.3053741455078125
1757088690971947300,11.548947265625,0.05120849609375,0.95648193359375,0.28753662109375
1757088690981993000,11.558992919921875,0.0433807373046875,0.9579925537109375,0.2695159912109375
1757088690992040200,11.569040283203124,0.0412445068359375,0.9575958251953125,0.2537994384765625
1757088691002086100,11.579086181640625,0.0430145263671875,0.9584503173828125,0.243743896484375
1757088691012132000,11.589132080078125,0.0510711669921875,0.957611083984375,0.238372802734375
1757088691022179000,11.599178955078125,0.0556640625,0.956512451171875,0.2353668212890625
1757088691032225000,11.60922509765625,0.0617523193359375,0.9532012939453125,0.2357940673828125
1757088691042271200,11.619271240234376,0.0630645751953125,0.9538726806640625,0.240692138671875
1757088691052318200,11.629318115234375,0.0624542236328125,0.9561767578125,0.2456512451171875
1757088691062364200,11.6393642578125,0.0595703125,0.95623779296875,0.2474212646484375
1757088691072411100,11.6494111328125,0.0566558837890625,0.9610137939453125,0.2518157958984375
1757088691082457000,11.65945703125,0.05462646484375,0.9671630859375,0.254608154296875
1757088691092503000,11.6695029296875,0.05316162109375,0.967559814453125,0.258392333984375
1757088691102550000,11.679550048828125,0.0552825927734375,0.9681549072265625,0.2598876953125
1757088691112596000,11.689595947265625,0.0577392578125,0.9619903564453125,0.2635498046875
1757088691122643000,11.699642822265625,0.055206298828125,0.9593353271484375,0.266876220703125
1757088691132689000,11.70968896484375,0.054840087890625,0.9566497802734375,0.271209716796875
1757088691142735000,11.719735107421876,0.054351806640625,0.9542388916015625,0.2727508544921875
1757088691152782000,11.729781982421875,0.0568084716796875,0.95428466796875,0.270843505859375
1757088691162828000,11.739828125,0.059326171875,0.954254150390625,0.269805908203125
1757088691172875300,11.749875244140625,0.0602569580078125,0.959716796875,0.269195556640625
1757088691182921200,11.759921142578126,0.0604248046875,0.9679718017578125,0.2700347900390625
1757088691192967200,11.76996728515625,0.0663909912109375,0.9767303466796875,0.2856903076171875
1757088691203014100,11.78001416015625,0.062591552734375,0.9671173095703125,0.29150390625
1757088691213060000,11.79006005859375,0.058837890625,0.970855712890625,0.2781982421875
1757088691223106000,11.80010595703125,0.0493316650390625,0.95318603515625,0.234649658203125
1757088691233153000,11.810153076171876,0.0625457763671875,0.91363525390625,0.228118896484375
1757088691243199200,11.82019921875,0.0683135986328125,0.95697021484375,0.2787628173828125
1757088691253246000,11.830245849609375,0.04925537109375,0.9800872802734375,0.2621612548828125
1757088691263292200,11.840292236328125,0.0271759033203125,0.9434356689453125,0.255126953125
1757088691273338000,11.850338134765625,0.0352630615234375,0.962493896484375,0.27288818359375
1757088691283385000,11.860385009765626,0.0542755126953125,0.9801788330078125,0.276763916015625
1757088691293431000,11.87043115234375,0.0612335205078125,0.9599456787109375,0.279388427734375
1757088691303478000,11.88047802734375,0.0705413818359375,0.9492340087890625,0.2837066650390625
1757088691313524000,11.89052392578125,0.06475830078125,0.986083984375,0.305877685546875
1757088691323570000,11.90056982421875,0.0754547119140625,0.9495697021484375,0.284271240234375
1757088691333617000,11.910616943359376,0.0482330322265625,0.9097442626953125,0.31561279296875
1757088691343663000,11.9206630859375,0.045501708984375,0.957244873046875,0.3124542236328125
1757088691353709000,11.930708984375,0.0498046875,0.91998291015625,0.2769775390625
1757088691363756300,11.94075634765625,0.05755615234375,0.985565185546875,0.2882232666015625
1757088691373802200,11.95080224609375,0.0610809326171875,1.0015869140625,0.290679931640625
1757088691383849200,11.96084912109375,0.05474853515625,0.9496002197265625,0.2898712158203125
1757088691393895200,11.970895263671874,0.056671142578125,0.97760009765625,0.2832794189453125
1757088691403941000,11.980941162109374,0.0635223388671875,0.926177978515625,0.2440032958984375
1757088691413988000,11.990988037109375,0.0597686767578125,0.9594268798828125,0.2440338134765625
1757088691424034000,12.001033935546875,0.0565185546875,0.929595947265625,0.2181549072265625
1757088691434081000,12.0110810546875,0.0526123046875,0.962860107421875,0.23651123046875
1757088691444126500,12.02112646484375,0.0646514892578125,1.0036773681640625,0.2531890869140625
1757088691454172400,12.03117236328125,0.0720672607421875,0.98748779296875,0.2596893310546875
1757088691464219400,12.041219482421875,0.0633697509765625,0.9577789306640625,0.2313385009765625
1757088691474265300,12.051265380859375,0.0626983642578125,0.929443359375,0.2060699462890625
1757088691484311300,12.061311279296875,0.0593109130859375,0.9487152099609375,0.21844482421875
1757088691494358300,12.071358154296876,0.054718017578125,0.9668121337890625,0.24041748046875
1757088691504404200,12.081404296875,0.0500946044921875,0.9833221435546875,0.241546630859375
1757088691514451200,12.091451171875,0.053558349609375,0.97052001953125,0.2275238037109375
1757088691524497200,12.1014970703125,0.0586090087890625,0.9323883056640625,0.2174835205078125
1757088691534543400,12.11154345703125,0.0664215087890625,0.961578369140625,0.193695068359375
1757088691544590300,12.12159033203125,0.073333740234375,0.95166015625,0.2035980224609375
1757088691554636300,12.13163623046875,0.0561981201171875,0.9549102783203125,0.2055511474609375
1757088691564683300,12.141683349609375,0.047760009765625,0.983612060546875,0.222930908203125
1757088691574729200,12.151729248046875,0.0449371337890625,1.010711669921875,0.2134857177734375
1757088691584775200,12.161775146484375,0.050445556640625,1.0066680908203125,0.1996612548828125
1757088691594822100,12.171822265625,0.0580291748046875,1.000457763671875,0.20123291015625
1757088691604868000,12.1818681640625,0.0659637451171875,0.970062255859375,0.173553466796875
1757088691614915300,12.191915283203125,0.07305908203125,0.916839599609375,0.1611328125
1757088691624961300,12.201961181640625,0.053497314453125,0.88238525390625,0.15802001953125
1757088691635007500,12.212007568359375,0.0421142578125,0.89141845703125,0.1413726806640625
1757088691645054500,12.222054443359376,0.0372161865234375,0.9710845947265625,0.25555419921875
1757088691655100400,12.232100341796874,0.012664794921875,1.0638885498046875,0.3376617431640625
1757088691665146400,12.242146484375,0.03509521484375,1.039459228515625,0.3224334716796875
1757088691675193300,12.252193359375,0.044830322265625,0.9039306640625,0.2496185302734375
1757088691685239300,12.2622392578125,0.0503387451171875,0.8787994384765625,0.242401123046875
1757088691695286300,12.272286376953126,0.06878662109375,0.9067535400390625,0.2789154052734375
1757088691705332200,12.282332275390624,0.0764617919921875,0.9734344482421875,0.3264617919921875
1757088691715378200,12.292378173828125,0.052581787109375,1.0175323486328125,0.356353759765625
1757088691725425200,12.302425048828125,0.045318603515625,1.0024261474609375,0.36083984375
1757088691735471400,12.312471435546875,0.0307769775390625,0.9593505859375,0.3743896484375
1757088691745518000,12.32251806640625,-0.0301361083984375,0.950042724609375,0.286895751953125
1757088691755564300,12.332564208984374,-0.0429229736328125,0.97998046875,0.2264556884765625
1757088691765610200,12.3426103515625,-0.04669189453125,1.0030975341796875,0.2075653076171875
1757088691775657200,12.3526572265625,-0.0425567626953125,1.009918212890625,0.1960906982421875
1757088691785703200,12.362703125,-0.020355224609375,0.943572998046875,0.1986083984375
1757088691795749000,12.3727490234375,0.0110321044921875,0.8701019287109375,0.1966705322265625
1757088691805796400,12.38279638671875,0.0297088623046875,0.8272247314453125,0.1791839599609375
1757088691815842300,12.39284228515625,0.00616455078125,0.8221435546875,0.1923980712890625
1757088691825889300,12.40288916015625,-0.0419158935546875,0.8449554443359375,0.2412567138671875
1757088691835935200,12.412935302734375,-0.0759429931640625,0.885162353515625,0.2810821533203125
1757088691845981400,12.4229814453125,-0.0915679931640625,0.9651947021484375,0.2996063232421875
1757088691856028400,12.4330283203125,-0.10675048828125,1.0279541015625,0.3612060546875
1757088691866074400,12.443074462890625,-0.10894775390625,0.9951934814453125,0.3904876708984375
1757088691876121300,12.453121337890625,-0.057281494140625,0.9969024658203125,0.354736328125
1757088691886167300,12.463167236328125,0.000152587890625,0.9522857666015625,0.3429718017578125
1757088691896213200,12.473213134765626,0.0139923095703125,0.8586883544921875,0.359222412109375
1757088691906260200,12.48326025390625,-0.000823974609375,0.83135986328125,0.3357696533203125
1757088691916306200,12.49330615234375,-0.0287628173828125,0.6845855712890625,0.2302093505859375
1757088691926353200,12.503353271484375,-0.094390869140625,0.3163604736328125,-0.0866241455078125
1757088691936399000,12.513399169921875,-0.0916595458984375,0.622711181640625,-0.1737823486328125
1757088691946445300,12.5234453125,-0.0357513427734375,1.2678680419921875,-0.01165771484375
1757088691956492300,12.5334921875,-0.021240234375,1.60040283203125,0.152801513671875
1757088691966538200,12.543538330078125,0.0272369384765625,1.3823699951171875,0.2397308349609375
1757088691976584200,12.553584228515625,0.042083740234375,1.0019683837890625,0.2589111328125
1757088691986631400,12.56363134765625,0.0508270263671875,0.8804473876953125,0.251007080078125
1757088691996677400,12.573677490234376,0.0697479248046875,1.0406494140625,0.1203460693359375
1757088692006724400,12.583724365234374,0.10333251953125,1.201171875,0.10174560546875
1757088692016770300,12.593770263671875,0.095611572265625,1.1940765380859375,0.162750244140625
1757088692026816300,12.603816162109375,0.0754547119140625,1.06463623046875,0.1365203857421875
1757088692036863200,12.61386328125,0.058349609375,1.02435302734375,0.1296539306640625
1757088692046909400,12.623909423828126,0.0485992431640625,1.0377197265625,0.1682891845703125
1757088692056956400,12.633956298828124,0.044097900390625,1.025177001953125,0.21990966796875
1757088692067002400,12.64400244140625,0.05267333984375,1.0723419189453125,0.294769287109375
1757088692077048300,12.65404833984375,0.0571136474609375,0.9824981689453125,0.275177001953125
1757088692087095300,12.66409521484375,0.0323028564453125,0.8739013671875,0.18017578125
1757088692097141200,12.674141357421876,0.012939453125,0.9012298583984375,0.1146087646484375
1757088692107187200,12.684187255859374,0.0150146484375,0.942779541015625,0.094635009765625
1757088692117234200,12.694234130859375,0.004638671875,0.935516357421875,0.0795440673828125
1757088692127280000,12.704280029296875,-0.0051422119140625,0.8824005126953125,0.0617523193359375
1757088692137327000,12.7143271484375,-0.0291748046875,0.7579498291015625,-0.0679168701171875
1757088692147373300,12.724373291015626,-0.07086181640625,0.7725677490234375,-0.1832122802734375
1757088692157419300,12.734419189453124,-0.0741729736328125,1.0307769775390625,-0.104644775390625
1757088692167466200,12.74446630859375,-0.0459136962890625,1.28387451171875,0.016693115234375
1757088692177512200,12.75451220703125,-0.0254669189453125,1.4965362548828125,0.20458984375
1757088692187559400,12.764559326171875,0.0393218994140625,1.6191253662109375,0.4517364501953125
1757088692197605400,12.77460546875,0.1172027587890625,1.3532867431640625,0.587890625
1757088692207651300,12.7846513671875,0.1605377197265625,0.870269775390625,0.4687957763671875
1757088692217698300,12.7946982421875,0.17742919921875,0.651123046875,0.34857177734375
1757088692227744300,12.804744140625,0.20050048828125,0.84869384765625,0.453369140625
1757088692237790500,12.81479052734375,0.2251129150390625,1.110015869140625,0.6071014404296875
1757088692247837200,12.824837158203126,0.2776641845703125,1.063507080078125,0.5134124755859375
1757088692257883400,12.83488330078125,0.3002777099609375,0.4226531982421875,0.059722900390625
1757088692267930400,12.844930419921875,0.3091278076171875,-0.6551055908203125,-0.7682647705078125
1757088692277976300,12.854976318359375,0.4040069580078125,0.4093017578125,-0.50762939453125
1757088692288022300,12.865022216796875,0.25787353515625,1.9543914794921875,0.2855377197265625
1757088692298069200,12.8750693359375,-0.2668304443359375,2.118011474609375,0.429168701171875
1757088692308115200,12.885115234375,-0.65545654296875,1.7549591064453125,0.36517333984375
1757088692318162200,12.895162109375,-0.596588134765625,1.2091827392578125,0.398162841796875
1757088692328208100,12.9052080078125,-0.3235626220703125,0.88641357421875,0.4371490478515625
1757088692338254300,12.91525439453125,-0.1350555419921875,0.7918243408203125,0.563140869140625
1757088692348301000,12.925301025390626,-0.22772216796875,0.8680419921875,0.6314849853515625
1757088692358347300,12.93534716796875,-0.315673828125,1.0234222412109375,0.33892822265625
1757088692368393200,12.945393310546875,-0.3148040771484375,0.9658050537109375,0.1719818115234375
1757088692378440400,12.9554404296875,-0.2551422119140625,0.908966064453125,0.1501312255859375
1757088692388486400,12.965486328125,-0.0281219482421875,1.043609619140625,0.1906585693359375
1757088692398533400,12.975533447265626,0.18328857421875,1.098388671875,0.19085693359375
1757088692408579300,12.985579345703124,0.3101959228515625,0.997589111328125,0.11944580078125
1757088692418625300,12.995625244140625,0.3489990234375,0.8946990966796875,0.0137176513671875
1757088692428672300,13.00567236328125,0.3439483642578125,0.916351318359375,-0.1147308349609375
1757088692438718200,13.01571826171875,0.3458404541015625,0.9449005126953125,-0.1965484619140625
1757088692448765700,13.025765625,0.3346405029296875,0.96783447265625,-0.1029815673828125
1757088692458811600,13.035811767578124,0.2331390380859375,1.0563507080078125,-0.001678466796875
1757088692468857900,13.04585791015625,0.14801025390625,1.0929718017578125,0.0888824462890625
1757088692478904800,13.05590478515625,0.1101837158203125,1.0888671875,0.1544647216796875
1757088692488950800,13.06595068359375,0.0993194580078125,1.0592041015625,0.1906585693359375
1757088692498996700,13.075996826171876,0.09521484375,1.05364990234375,0.202239990234375
