time,seconds_elapsed,z,y,x
1757088679449979000,0.026978759765625,-0.6136930391132831,-0.3338153366334736,-0.6909146643511951
1757088679460025900,0.03702587890625,-0.632882308229804,-0.288998582046479,-0.5835005838148295
1757088679470071800,0.04707177734375,-0.7086632331401109,-0.21831644157990812,-0.432364777386561
1757088679480118800,0.057118896484375,-0.7154635608047246,-0.17073621362894773,-0.3171054632425308
1757088679490164700,0.067164794921875,-0.6621627632498741,-0.1555168710567057,-0.22552155065312982
1757088679500211700,0.077211669921875,-0.5345189646333456,-0.1289735859155655,-0.07642024572715163
1757088679510257700,0.087257568359375,-0.3786000886470079,-0.11150339567661285,0.025286855339258906
1757088679520303600,0.0973037109375,-0.26830314615070816,-0.05480827950835228,0.10520210357531905
1757088679530350800,0.107350830078125,-0.24598960753381252,-0.044757133354246616,0.16523571651652455
1757088679540397000,0.11739697265625,-0.2854980265796184,-0.09971417368352413,0.22228359164521097
1757088679550443800,0.12744384765625,-0.39125148042738433,-0.1493897664785385,0.26897636923715473
1757088679560490000,0.137489990234375,-0.498023755928874,-0.1482959798924625,0.25642463843896984
1757088679570536000,0.147535888671875,-0.5646206729084253,-0.16678382274135947,0.2414671616733074
1757088679580583000,0.1575830078125,-0.6406009197831154,-0.16590031790509818,0.2695117912881076
1757088679590628900,0.16762890625,-0.7651900070041417,-0.105398941321671,0.2420046295508742
1757088679600675800,0.17767578125,-0.8750169939011335,-0.025487200216948985,0.19476283977404235
1757088679610721800,0.1877216796875,-0.848904063001275,0.030102585057914254,0.15810264976620672
1757088679620767700,0.197767822265625,-0.6679770024865865,0.03083630615994334,0.14344079494625328
1757088679630814700,0.207814697265625,-0.35140813033878804,0.01074511976763606,0.09958061043173073
1757088679640860700,0.217860595703125,0.00016249708533287046,-0.05718553003370762,0.029701456911116836
1757088679650907600,0.22790771484375,0.3105424514651298,-0.13151523322239517,-0.012129998254776
1757088679660953900,0.237953857421875,0.5308008208930493,-0.15654548345208166,-0.03411211296021938
1757088679670999800,0.247999755859375,0.7425532277822494,-0.09233765356615185,-0.11803557392433285
1757088679681046800,0.258046875,0.8619535141885281,0.017798399280011652,-0.22242709176912903
1757088679691092700,0.2680927734375,0.6564315261214971,0.08402078385874628,-0.2908618917003274
1757088679701140000,0.278139892578125,0.19985680191218852,0.15523717733249068,-0.4654247509453445
1757088679711186000,0.28818603515625,-0.05942249530553818,0.28793650577291846,-0.6396981987897307
1757088679721233000,0.29823291015625,-0.16512977192401884,0.45182650676891206,-0.7353113668952137
1757088679731278800,0.30827880859375,-0.23169220211207867,0.8601583013348281,-0.7638941219747066
1757088679741324800,0.31832470703125,-0.5677735839813948,1.3538380367100238,-0.3666265961281955
1757088679751371800,0.328371826171875,-1.0893956576406956,1.0519133375950156,-0.2510950409140438
1757088679761418000,0.33841796875,-0.9942448463499546,1.1949218786038458,-0.8093895064756274
1757088679771464700,0.348464599609375,-0.4499199424952268,1.2482871196970342,-1.1643620512977242
1757088679781511000,0.358510986328125,0.6396341205775737,0.7017801956281066,-1.469906256084144
1757088679791556900,0.368556884765625,2.0709370897620913,-0.17563947550058365,-1.3302512632869183
1757088679801603800,0.378603759765625,2.179083576226234,-0.8297089486658573,-1.0555090239994227
1757088679811649800,0.38864990234375,1.617584834730625,-1.0746280043587089,-0.6908525589004159
1757088679821696800,0.39869677734375,1.2789303875029085,-0.782286103233695,-0.7972115774258971
1757088679831742700,0.40874267578125,0.7816770314246415,-0.643207010628283,-0.5232251249417662
1757088679841788700,0.41878857421875,0.4364011202305555,-0.8467506843596696,0.45212161725796757
1757088679851835600,0.428835693359375,0.6001894144177436,-0.24279694897234438,0.9717429455541073
1757088679861881900,0.4388818359375,0.5843593926012516,0.5946677283868194,0.9456602636620401
1757088679871928800,0.4489287109375,0.38725276618003845,1.13931382701993,0.8171217081628739
1757088679881975000,0.45897509765625,-0.033790625920891756,1.1510282302111388,0.7321689041510224
1757088679892021000,0.46902099609375,-0.2770253817886114,1.0138181463479996,0.47731867542192336
1757088679902068000,0.47906787109375,0.6417571040809155,0.769286920928955,0.041991029641777276
1757088679912114000,0.489114013671875,2.2378794640660287,0.32975480919629335,-0.5589012723483144
1757088679922161000,0.499160888671875,2.8590555524110792,-0.1764297490954399,-0.5491944095872342
1757088679932206800,0.509206787109375,2.0097645359188316,-0.7271969609573483,-0.6157262985065579
1757088679942253800,0.51925390625,-0.302701674836874,-0.9398755427807569,-0.6136141286581754
1757088679952299800,0.5292998046875,-2.132459187695384,-0.6072741119816899,-0.7604273226469754
1757088679962345700,0.539345703125,-2.767961907556653,0.13613821684792637,-0.8765922803938389
1757088679972392700,0.549392822265625,-2.7744845873236654,0.7275641868345439,-0.6495721617460251
1757088679982439000,0.55943896484375,-2.5092490120500326,0.88944007152915,-0.04407324274331331
1757088679992486000,0.56948583984375,-1.5878765096873044,0.4792065349951386,0.43770314273983235
1757088680002531800,0.57953173828125,-0.6506050119251012,-0.06827127993255853,0.7056549912348389
1757088680012577800,0.589577880859375,-0.5501672001421452,-0.48904549970328803,0.9295029095873236
1757088680022624800,0.599624755859375,-0.658315440171957,-0.7498505451835692,0.8821224419921636
1757088680032670700,0.609670654296875,-0.7586059524387121,-0.47488750275224445,0.27985972843170165
1757088680042718000,0.619718017578125,-0.8175877182394266,0.10635916465595364,-0.04814648353159427
1757088680052764000,0.629763916015625,-1.0087515106081961,0.39922772000357504,0.3451201361104846
1757088680062809600,0.6398095703125,-1.0588859530866146,0.19519860084280372,1.1662345671713352
1757088680072856800,0.64985693359375,-1.6687153025090693,-0.03894537833556533,2.6938310879409313
1757088680082902800,0.65990283203125,-1.3439666310369969,0.09120908792763947,1.9525126626506446
1757088680092949800,0.66994970703125,-0.5763847604602576,0.4185468991100788,0.7367930568203329
1757088680102996000,0.679995849609375,-0.349343599024415,0.07885814039856195,-0.05075403568148613
1757088680113042000,0.6900419921875,-0.06726736358702183,-0.3487333581715822,-0.42303602722287176
1757088680123089000,0.7000888671875,0.24520868628919124,-0.36737609932124615,-0.6165493053272366
1757088680133134800,0.710134765625,0.762446261253953,-0.15753814775124192,-0.4664215799629688
1757088680143181800,0.720181884765625,1.3252759590923786,-0.11498466192111373,-0.07105828030258417
1757088680153227800,0.730227783203125,1.7552321409672498,-0.18940511213317512,0.2763599036172032
1757088680163274800,0.740274658203125,1.8455583085805176,-0.038202451013773675,0.2855968107789755
1757088680173320700,0.75032080078125,1.553197410494089,0.4098135575562715,-0.10938918000161647
1757088680183366700,0.76036669921875,1.1216250255942344,0.3823445358723402,-0.015908932271599768
1757088680193413600,0.77041357421875,0.8845037841707467,0.23729952059984205,0.2874871545702219
1757088680203459800,0.7804599609375,0.6748661774784326,0.3604427929267287,-0.16497516588419675
1757088680213506800,0.7905068359375,-0.04387421303987503,0.5331618509359658,-0.9201140267342328
1757088680223553000,0.800552978515625,-0.8579992236047983,0.6400153749801218,-0.8620154735088348
1757088680233598700,0.8105986328125,-1.5207190362155436,0.4494507175482809,0.05477934567481279
1757088680243646000,0.82064599609375,-1.707726293426752,0.7147980826333165,0.5712815921023487
1757088680253692000,0.83069189453125,-2.182273896700144,1.1143068115353583,0.7884639150857925
1757088680263739000,0.84073876953125,-1.4987386750757694,0.40314313988164063,0.43901480986028907
1757088680273784800,0.850784912109375,-0.6678355481892824,-0.2155186275549233,-0.09907353769242763
1757088680283830800,0.860830810546875,-0.8102075448602437,-0.456499320885539,-0.29249533812105655
1757088680293877800,0.870877685546875,-0.962180898091197,-0.7178105623222887,-0.35937165656387804
1757088680303924000,0.880924072265625,-0.7730255229353904,-0.8156520740017295,-0.21535539981722832
1757088680313970700,0.890970703125,-0.2996434563100338,-0.8721126507617533,-0.13801497050523756
1757088680324017000,0.901016845703125,-0.5214227516949177,-0.8319671028561889,-0.27347558035254477
1757088680334062800,0.911062744140625,-1.198473287475109,-0.6312618674211203,-0.5443535454273224
1757088680344109800,0.92110986328125,-1.2803566209137438,-0.4547555459581315,-0.3514969776660204
1757088680354155800,0.93115576171875,-0.7234440381646156,-0.3844387316726148,0.002849544212222099
1757088680364202800,0.94120263671875,-0.08759060516953468,-0.4197089286267757,0.19625497802793979
1757088680374248700,0.951248779296875,0.19073650686740873,-0.305096826345101,0.38665538480877876
1757088680384296000,0.9612958984375,0.5117950916498899,0.07035546579547226,0.9269441650152206
1757088680394341600,0.971341552734375,0.9407599243998527,0.23518398975059387,1.6899574125021695
1757088680404387800,0.981387939453125,1.3226970485150813,0.2348074845883995,2.167778338357806
1757088680414434800,0.991434814453125,1.5820967572420834,0.2558436967458576,2.3491712628185746
1757088680424481000,1.00148095703125,1.2024398530185223,0.2810834980729967,2.2169763767689465
1757088680434527500,1.011527587890625,0.6423433795362711,0.15214629864506424,1.8501532351553438
1757088680444573400,1.021573486328125,0.9798907423049211,-1.1703786812387407,2.7037282125771043
1757088680454619400,1.031619384765625,1.6583236723542212,0.1421102769948542,1.835275984019041
1757088680464666400,1.041666259765625,1.5649071375101804,1.36551546889171,0.2847837408304214
1757088680474712300,1.05171240234375,0.5684323401510715,0.6684130558162927,0.5732353565186262
1757088680484759300,1.06175927734375,-0.9047463617324829,0.3533439572395757,1.1007546715229748
1757088680494805200,1.07180517578125,-0.7788765870511531,2.1171929372414944,0.1390378838121891
1757088680504851500,1.0818515625,0.6007715982198715,1.9914402130685747,-0.967660206285119
1757088680514898200,1.091898193359375,1.1924877833247185,1.105184982120618,-0.9181488641411065
1757088680524944400,1.1019443359375,1.049535940939188,0.3059769701804966,0.12064005733430384
1757088680534991400,1.111991455078125,0.08165595442354678,-0.3771848150216043,0.8951572801321744
1757088680545037300,1.122037353515625,-0.7167536006152629,0.09873455152902752,1.232851357895136
1757088680555083300,1.132083251953125,-0.5699836612462997,1.8205492472693323,1.154955048266053
1757088680565130200,1.142130126953125,-0.29442367583513257,2.9744612162232396,0.6563286502689123
1757088680575176200,1.15217626953125,-0.13959317960739134,3.458032083907723,0.3462321890056133
1757088680585223400,1.162223388671875,-0.31362989608645436,3.319568785113096,0.4677332470834255
1757088680595269400,1.172269287109375,-0.4741261629909277,2.964924741593003,1.042318264645338
1757088680605315300,1.1823154296875,-0.6259913796722889,2.7099332046970726,1.8463392298251389
1757088680615362300,1.1923623046875,-0.8218816160410642,2.655260534267127,2.1271394539773465
1757088680625408500,1.202408447265625,-1.071218195915222,2.640462485846877,2.2258891665428875
1757088680635455500,1.21245556640625,-1.4917027850896118,2.378707153904438,2.3443045335650443
1757088680645501400,1.22250146484375,-1.6489251448899507,2.170682243105769,2.26864869633913
1757088680655548400,1.23254833984375,-1.329133511303365,2.2785309156671163,2.1029986999332904
1757088680665594400,1.242594482421875,-0.6992606140226125,2.478956749638915,2.1263351518571376
1757088680675640300,1.252640380859375,0.05864245084375143,2.361710718657076,2.422413024640083
1757088680685687300,1.262687255859375,0.6514528609260917,2.4306109441429373,2.4980086561113595
1757088680695733200,1.272733154296875,1.1134466875746845,2.486082948257029,2.645243874904513
1757088680705780200,1.2827802734375,1.4711517261005937,2.2009899953469634,2.679070156660676
1757088680715826200,1.292826171875,1.725010167313367,2.2291809015646575,2.0449369715869428
1757088680725872400,1.302872314453125,1.9405076059497892,3.647060033291578,1.5673784960597752
1757088680735919400,1.31291943359375,1.1288690784383564,2.812663803592324,2.462726914849877
1757088680745965300,1.32296533203125,0.4231775545854121,2.560103585496545,2.3439199181616304
1757088680756012500,1.333012451171875,0.6070863343246281,2.615581142568588,0.9614256958097219
1757088680766058200,1.343058349609375,1.322598848837614,1.5196213041067121,-0.8578659526139497
1757088680776104200,1.353104248046875,2.769526672655344,-0.7258698040068149,-3.957862012475729
1757088680786151400,1.3631513671875,6.132178228169679,-4.378061939489841,-12.682711632269621
1757088680796197400,1.373197265625,8.728765916454792,-8.512081898382306,-18.917164824521542
1757088680806244400,1.383244384765625,7.022355381801724,-8.550839791321755,-13.584613710486888
1757088680816290300,1.393290283203125,-0.46821953276302664,-5.817950366190075,-11.091521467989683
1757088680826336300,1.403336181640625,-4.005423389595747,-3.7990684578359124,-9.484640982624889
1757088680836383200,1.41338330078125,-1.702894050964713,-1.7150661347955465,-4.368094672226905
1757088680846429400,1.423429443359375,0.4137777850121259,-1.3557020770162342,-4.948498020678758
1757088680856476400,1.433476318359375,1.4461802203208207,-2.4312878204911947,-6.489656618332862
1757088680866522400,1.4435224609375,0.24089425715617835,-2.414315058380365,-3.57790174139142
1757088680876568300,1.453568359375,-0.2258001849314198,-1.061772322177887,-1.8636007457494734
1757088680886615300,1.463615234375,0.16051029542982578,-0.4820125323265791,-1.1284171699523926
1757088680896661200,1.4736611328125,0.14836327297501264,-0.21551438977122306,-0.08189268578886985
1757088680906708200,1.483708251953125,-0.5253892807057127,0.1772358047813177,-0.06748012955486773
1757088680916754200,1.493754150390625,-1.4794810168981551,0.6367208634793758,-0.15290508112311363
1757088680926801400,1.503801513671875,-2.2600036175906655,1.4560107094615697,0.47095104008615013
1757088680936847000,1.51384716796875,-2.3330764525860546,1.8397300408184527,1.3320540749251841
1757088680946893300,1.523893310546875,-1.477366216701269,1.7136135978996754,1.9982477011263369
1757088680956940300,1.533940185546875,0.7531570393830538,1.0108955368995667,1.8089935417711733
1757088680966986500,1.543986572265625,3.6199797186642884,-0.3966074545025825,0.37000060260593887
1757088680977033500,1.554033447265625,2.7428520162194965,-1.1988465047016739,-1.1474737525999545
1757088680987079400,1.564079345703125,1.2456944728553294,-0.8760974826142192,-1.1212830802887677
1757088680997125400,1.57412548828125,0.635884997177124,-0.3680860011562705,-0.7787684505015611
1757088681007172400,1.58417236328125,1.3337322372704743,-0.30915538102090356,-0.6342617798894643
1757088681017218300,1.59421826171875,2.0087160497792063,-0.4122027907803654,-0.3382031963288784
1757088681027265300,1.604265380859375,1.4958208879329262,-0.3806739723116159,-0.15233809489011763
1757088681037311200,1.614311279296875,0.6018032793551683,-0.31142478725761175,0.03596504735052585
1757088681047357400,1.624357421875,-0.5424776685528457,-0.17462328419536352,0.36889936336576934
1757088681057404200,1.634404052734375,-1.4402299336142836,-0.015609949325025081,0.5784042835891247
1757088681067450400,1.644450439453125,-2.19144285319224,0.04103635926544666,0.7635825718075037
1757088681077497300,1.654497314453125,-2.86099382699728,0.13509645271003246,0.7916144880712032
1757088681087543300,1.664543212890625,-3.1709178543031213,0.10947247437089681,0.8162959248632192
1757088681097589200,1.67458935546875,-2.968143703639507,0.11528320647627115,0.8105939138293266
1757088681107636200,1.68463623046875,-2.603462834751606,0.2959665213629603,0.7843699237704277
1757088681117682200,1.69468212890625,-2.534696172517538,0.5681880100011826,0.9905027372121811
1757088681127729400,1.7047294921875,-2.735202378249168,0.98461134108603,1.310476449367404
1757088681137775400,1.714775390625,-2.723811215662956,1.1972802782982588,1.6741566167801618
1757088681147821300,1.7248212890625,-1.7134920173466204,1.2665566436201334,1.4830606289505959
1757088681157868300,1.734868408203125,0.9138649032115935,0.984012498410046,1.4049433700472116
1757088681167914500,1.74491455078125,-1.252174482524395,0.6780763716965913,2.3217817361116406
1757088681177961500,1.75496142578125,0.10068619705345482,0.9013169718056917,1.460889129152894
1757088681188007400,1.76500732421875,2.7578841656565665,0.41426439948529004,-0.3657990592628717
1757088681198054400,1.775054443359375,15.717944420319794,-1.2353007968738674,-3.125837772604823
1757088681208100400,1.785100341796875,-0.2706841230031103,-2.3804762094035743,-0.6960580185890197
1757088681218146300,1.795146240234375,-3.920595234876871,-0.48405134467780586,-2.4383786555349825
1757088681228193300,1.805193359375,-0.8494225339174271,-0.08313654837012291,-2.634052618804574
1757088681238239200,1.8152392578125,-0.27397242395877835,0.05658902544528246,0.2334545356094837
1757088681248286200,1.8252861328125,0.2267569376669824,0.24999036760777232,0.2123492037385702
1757088681258332200,1.835332275390625,0.03687280984520912,-0.26478344759196043,-0.2819552394062281
1757088681268378400,1.84537841796875,0.009247136294841765,-0.01580780998468399,0.1493418356835842
1757088681278425300,1.85542529296875,-0.04655249233841896,0.5059437352731824,0.3798246620059013
1757088681288471300,1.86547119140625,-0.3328701647378504,0.6385641532585025,0.36877544472515583
1757088681298518500,1.8755185546875,-1.0941045659840107,0.5988362462431192,0.11100187589526175
1757088681308564500,1.885564453125,-1.7560278213895857,0.6425976465582848,-0.3556161034226417
1757088681318610400,1.8956103515625,-1.2928139514267445,0.32327216917872426,-0.5423626638710498
1757088681328657400,1.905657470703125,-0.8261576859250664,0.046237727300822734,-0.21915362305641173
1757088681338703400,1.915703369140625,-1.0579036640509962,0.3484250228747725,0.0788712921410799
1757088681348750300,1.925750244140625,-0.9751067228987812,0.6048775722339749,0.6344418126314878
1757088681358796300,1.93579638671875,-0.6205576641857624,1.016674412561953,1.3800304625868796
1757088681368843300,1.94584326171875,-0.4451650030530989,1.307896662007272,1.7963292905092239
1757088681378889200,1.95588916015625,-0.4451264246083796,1.7366124884322285,2.463274027338624
1757088681388935400,1.965935302734375,-0.807290196108818,2.11078599280864,2.3711212288200856
1757088681398982400,1.975982421875,-1.6810720952570437,1.2522428715854883,1.4568991827338933
1757088681409028400,1.9860283203125,-4.2832232628881926,1.0515063642293214,2.301322300928831
1757088681419075300,1.996075439453125,-11.015483353447914,1.1181246162578462,4.639064407238364
1757088681429121300,2.006121337890625,-10.031758732068537,2.868886041551828,0.8441969082236289
1757088681439168800,2.016168701171875,3.8211271449089046,-4.1346284461796285,-9.43560544129908
1757088681449214700,2.026214599609375,8.445807052963971,-7.243641925233602,-8.878280186095834
1757088681459260700,2.0362607421875,8.547419169223309,-2.2283254537791013,-0.11441957538425922
1757088681469307600,2.0463076171875,11.890161909174918,-0.5535559657976031,1.9966706610679625
1757088681479353600,2.056353515625,5.432719461226463,-0.8942676378160714,1.3201432723790407
1757088681489400600,2.066400634765625,2.381711596417427,-1.7428063746362923,-1.4508809453576803
1757088681499446500,2.076446533203125,3.2121114499568937,-1.977758455327153,-1.4440017072379587
1757088681509493500,2.086493408203125,2.8947043734192848,-2.809365054307878,-1.071058036917448
1757088681519539700,2.096539794921875,-0.37181349724680185,-1.8274588805273173,-0.05353869796395302
1757088681529585700,2.106585693359375,-4.091820693327486,-0.4483054930359125,-0.5885556752473116
1757088681539632600,2.116632568359375,-1.8370239967301487,2.0754466761410235,0.01032265657186508
1757088681549678600,2.1266787109375,-1.4457257545515894,2.108667100958526,4.413378167542815
1757088681559725800,2.136725830078125,-2.8302704796925187,-1.260413903081417,-2.0324697042018176
1757088681569771800,2.146771728515625,-2.5662434034258124,0.7188830138593911,-2.0221131453603505
1757088681579818800,2.15681884765625,-0.8520686645120382,0.285203281416744,0.23606267228126523
1757088681589864700,2.16686474609375,0.3559574642062187,0.011665157222002743,0.2813490902066231
1757088681599910700,2.17691064453125,-0.1566086118161678,0.281757671007514,0.8712678705006838
1757088681609957600,2.18695751953125,-0.3623404432415962,-0.4139630784511566,0.17504560126066207
1757088681620003600,2.197003662109375,0.30246143634021283,-0.5567005474336445,-0.9321236134797334
1757088681630050600,2.207050537109375,0.1145773962944746,-0.20502090667709708,-1.6167834552198648
1757088681640096800,2.2170966796875,-0.8152940543442964,0.4940279642909765,-0.5864303536564112
1757088681650143700,2.227143798828125,-0.5496241793066263,0.8792311044648289,-0.12498247045278549
1757088681660189700,2.237189697265625,0.22820465225726363,0.2287087293218821,-0.7788888620108365
1757088681670235600,2.247235595703125,0.5566162301510572,0.5062259132154285,-0.7319073306053876
1757088681680282600,2.25728271484375,0.12806465437710285,0.9795520849350839,0.06995499523580073
1757088681690328600,2.26732861328125,-0.14602818109095095,1.3351106860168278,0.19999007290303705
1757088681700375600,2.27737548828125,-0.025354221487045286,1.4413459320321678,0.5736211409658193
1757088681710421500,2.28742138671875,-0.1682207236766815,1.3106409922793507,0.841283651125431
1757088681720468700,2.29746875,-0.9768138190776109,0.6497566514674574,0.3037614130228758
1757088681730514700,2.3075146484375,-1.2472814497858284,0.04498418357577175,0.28970716870725155
1757088681740561000,2.317560791015625,-1.2761907334059477,-0.36918271035179495,0.25038112049102784
1757088681750607600,2.327607666015625,-1.5727040749967098,-0.7461997675910592,-0.2060486422896385
1757088681760653800,2.33765380859375,-0.6648872197777033,-1.3369370246611534,-2.874424386456609
1757088681770700800,2.34770068359375,0.21461597962677478,-0.919086144991219,-2.8565882855147122
1757088681780746800,2.357746826171875,1.0692764141976834,1.0065411410823464,-1.0043518143445254
1757088681790793700,2.367793701171875,1.7932640577197074,2.097914382406324,-0.31209377256035803
1757088681800839700,2.377839599609375,2.0543816762804985,2.3597405876278876,-0.8141168272584677
1757088681810885600,2.3878857421875,1.142526943847537,2.0777271882936357,-1.475475288388133
1757088681820932600,2.3979326171875,1.9101263500809669,1.8370032462030648,-0.6853560073107481
1757088681830978600,2.407978515625,1.9463263752311466,1.8151355516575276,-0.06447627156376838
1757088681841025500,2.418025634765625,0.9862082548886537,1.0595935168340802,-0.9917968686759472
1757088681851071500,2.428071533203125,0.3228478062868118,0.39128655174076554,-1.749852786016464
1757088681861118500,2.438118408203125,-0.7765928600281476,0.009219298439845442,-1.777921527159214
1757088681871164700,2.44816455078125,-1.440944365493953,-0.6083052085950971,-2.538033207985759
1757088681881210600,2.458210693359375,-1.355128368781507,-0.9834395208276807,-2.1993653167545792
1757088681891257900,2.4682578125,-1.3285825994223355,-0.680505352409184,-1.2064981884986161
1757088681901303800,2.4783037109375,-1.8074600485935806,-0.490828583727777,-1.8209090204924343
1757088681911350800,2.488350830078125,-1.6903718385219573,0.011174816421791911,-1.3644593839675188
1757088681921396700,2.498396728515625,-1.5423405009150504,0.5355444352235644,0.04868424367010593
1757088681931443700,2.508443603515625,-1.4559242002218962,0.06152940445691347,0.9198930774599313
1757088681941489700,2.51848974609375,-0.3779553610026836,-0.5161917922388762,1.4019880273729561
1757088681951535600,2.52853564453125,-0.5764195395126939,-0.4106410944215953,1.4948486818999052
1757088681961582600,2.53858251953125,-1.0193816256940365,-0.9503322009958326,1.6126678365945815
1757088681971628500,2.548628662109375,-0.8624784148454666,-1.6102980387233197,0.7965753253489732
1757088681981675500,2.558675537109375,-0.4177326601177454,-1.4709877677105367,0.22464812881946564
1757088681991721700,2.5687216796875,-0.40712008068859573,-1.0949285957179964,0.3728326111614704
1757088682001768700,2.578768798828125,0.29005379018783567,-0.7888852823030204,0.3584937046855688
1757088682011814700,2.588814697265625,1.738731672543287,-0.6120723425762727,0.33095863202810283
1757088682021860600,2.598860595703125,1.9583114120572804,-0.32317111995704473,1.5826321792930365
1757088682031907600,2.608907470703125,1.1417705725222824,-0.04256017129924148,1.78027890394032
1757088682041953500,2.61895361328125,0.7778519201785326,-0.003548705457523465,0.6950427040666342
1757088682052000800,2.629000732421875,-0.7489566650837659,0.5892466531861573,1.105803187084198
1757088682062046700,2.639046630859375,-0.6411562155783176,0.6255102450918406,1.0640145481467247
1757088682072093700,2.64909375,-0.2148988882213831,0.356448316463083,0.6189139886319637
1757088682082139600,2.6591396484375,-0.5740940191745758,-0.1293652155816555,-0.04282265816032886
1757088682092185900,2.669185791015625,-0.472482487437129,-0.34971308992393313,0.48655309836566446
1757088682102232600,2.679232666015625,-0.11554594906568527,-0.7452836756594479,1.3977590115010738
1757088682112278800,2.68927880859375,0.6709294225513934,-1.1504647511094808,2.419757541695237
1757088682122325800,2.69932568359375,1.3099462880134582,-1.808581015447527,3.3649019647896288
1757088682132371700,2.709371826171875,1.4886580105662346,-2.273715478209406,3.648020987278223
1757088682142418700,2.719418701171875,1.7151462142944336,-2.528394442024827,3.0104642574965954
1757088682152464600,2.729464599609375,2.20281399590373,-2.3311736877046525,2.71416192830801
1757088682162510600,2.739510498046875,2.058255887365341,-2.2058482490330933,2.163700129133463
1757088682172557600,2.7495576171875,2.210980935746431,-1.9592918013967573,1.8444313503772019
1757088682182603500,2.759603515625,2.354855153673887,-0.8422862522967159,2.1671084762722255
1757088682192650500,2.769650390625,0.14506430449485777,0.04520598680002149,1.8416770832329987
1757088682202696400,2.779696533203125,-1.591480671659112,0.6251360780172049,0.9948989263445138
1757088682212743700,2.78974365234375,-2.123535292005539,1.4509034494504331,2.0390777241647244
1757088682222790000,2.799789794921875,-3.12356807410717,1.929394383522123,2.941966475331783
1757088682232835800,2.8098359375,-4.274602734059095,2.1008995356969535,0.22056991959512232
1757088682242882800,2.8198828125,-2.2420511967927217,1.8588617345288394,-5.204883350020647
1757088682252928800,2.8299287109375,-2.7647996441334484,1.1482673141304403,-5.774326913040876
1757088682262975700,2.839975830078125,-2.4636791010081764,0.8669522723238915,-4.437925164300203
1757088682273021700,2.850021728515625,0.07640636333227158,1.8355742363132534,-2.460858198368549
1757088682283067600,2.860067626953125,2.5742723961025473,2.3310027150519192,-0.40724166124165057
1757088682293114600,2.870114501953125,2.393205634856224,1.6400934575282036,0.6314286022901535
1757088682303160600,2.88016064453125,2.0988819122642277,1.268269292756915,0.1965717888921499
1757088682313207600,2.89020751953125,2.1545184592902658,0.856317919454351,1.2434972550719976
1757088682323253500,2.90025341796875,3.092587829431891,0.7866171181753278,2.256616313239932
1757088682333300500,2.910300537109375,4.0770162151664495,-0.10154000087119638,2.2341087133556603
1757088682343346700,2.9203466796875,4.477735781162977,-1.320649760596454,2.2693676582634446
1757088682353392600,2.930392578125,-3.699888537159562,-2.585556591182947,-1.1181313382595777
1757088682363439600,2.940439697265625,-5.4092596751838915,-1.525694194279611,-0.629303280699253
1757088682373485600,2.950485595703125,-3.7405963951230046,-2.227725149798393,-1.0169126052320003
1757088682383532800,2.96053271484375,-3.473564584082365,-1.9597981434836982,-0.6409685840517282
1757088682393578800,2.970578857421875,-2.8950065712362525,-1.956312931716442,-0.2354378183811903
1757088682403625700,2.980625732421875,-2.1848101371794937,-2.7833400939524173,-0.31282442492246626
1757088682413671700,2.990671630859375,-0.8809639196068048,-3.7476764165118333,-0.15657704763412475
1757088682423717600,3.000717529296875,-0.14355331541001795,-3.1046558683663603,-0.16551321828365326
1757088682433764900,3.010764892578125,-0.8263573001503944,-2.1651655255109072,-0.37262978206574915
1757088682443810800,3.020810791015625,0.024191022926568984,-0.8319609653763472,-0.5233867452442645
1757088682453857800,3.03085791015625,0.13445990837216376,0.2886084136851132,-1.38273387632668
1757088682463904000,3.040904052734375,-0.5346978283315896,1.362850049074739,-0.9591682722717523
1757088682473950000,3.050949951171875,-1.3741314676761627,2.0680930985078216,-0.2592617615610361
1757088682483997000,3.060996826171875,-1.0786848785340786,1.8882517874032259,-0.16662731700539588
1757088682494043000,3.07104296875,0.44188802720904347,0.5486699473217129,-1.8773288268506525
1757088682504089900,3.08108984375,1.236644320437312,-1.0082152117744088,-2.341386015769839
1757088682514135800,3.0911357421875,1.7059107684373855,-1.6239172526225447,-1.687612310680747
1757088682524182800,3.101182861328125,1.3057044126600026,-1.9503084306046365,-2.220235086303949
1757088682534228700,3.111228759765625,1.717183857601881,-1.9803750675663352,-2.5056799213916063
1757088682544274700,3.121274658203125,1.5810598154097795,-0.204772046482563,-1.9379729729056356
1757088682554321700,3.13132177734375,0.28351240572035313,1.7120114234000443,-1.6024235059559344
1757088682564368000,3.141367919921875,-0.23185732954591512,3.8864348988607524,-1.5149842919558285
1757088682574414800,3.151414794921875,0.5200403574258089,4.819972178530692,-2.9835347495168447
1757088682584460800,3.161460693359375,0.07099485967755317,5.155733242404461,-2.8462241278886795
1757088682594506800,3.1715068359375,-2.045805278854072,5.199284799361228,-1.4811492423713206
1757088682604554000,3.181553955078125,-0.07711772647202014,4.28303358553499,-3.5016391704440113
1757088682614600000,3.191599853515625,0.997533951023221,4.437271961088478,-2.5520845296919346
1757088682624647000,3.20164697265625,1.0933142923891543,4.43352049960047,-2.651082079538703
1757088682634692900,3.21169287109375,0.20779870082736013,4.238754883347451,-2.6671763052493334
1757088682644739800,3.22173974609375,-2.4055066057637333,3.9599817811086773,-0.47037470150291916
1757088682654785800,3.231785888671875,-3.2086399744540453,4.666519108135998,4.094826597145199
1757088682664832000,3.24183203125,2.925073208197951,6.306786607056856,-1.3693272822648286
1757088682674878700,3.251878662109375,0.4397606597915292,0.9581241700462997,-2.381844282886386
1757088682684925000,3.261925048828125,-1.9616595534414052,-0.43978272549286485,1.4680530294328926
1757088682694972000,3.271971923828125,-2.139140857416391,0.7416118552789092,4.986193252822757
1757088682705017900,3.282017822265625,-1.9209382514744995,-3.1088433831840754,6.16196137201488
1757088682715063800,3.292063720703125,-0.5208709630310535,-4.804153847151994,5.50197361471653
1757088682725110800,3.30211083984375,0.7832108168631792,-5.120590032830834,5.0864673984766
1757088682735156700,3.31215673828125,0.7982681007415056,-5.333409192168713,5.923851704075932
1757088682745203700,3.32220361328125,0.9305039033234119,-1.5825997383281587,2.517432318505645
1757088682755249700,3.332249755859375,-0.6401040761768817,0.9391299851104616,1.880080755907297
1757088682765297000,3.342296875,-1.3168968378037214,1.8260221257224678,2.4106729024857283
1757088682775342800,3.3523427734375,-1.2164046654850245,2.7085303521618247,1.62055946662724
1757088682785388800,3.362388916015625,-1.6027145978569983,1.7755542135059832,-1.1566671128809451
1757088682795436000,3.37243603515625,-2.3062398835867643,-1.6265560766935347,-4.053013992810249
1757088682805482000,3.38248193359375,-0.762280257037282,-6.004055706125498,-5.86913577902615
1757088682815529000,3.392529052734375,1.4553122058033943,-7.596869087693094,-5.048755215197802
1757088682825575000,3.402574951171875,3.3517525603592393,-4.354783062972128,-0.5579933637231588
1757088682835620900,3.412620849609375,2.6154467025339603,-0.29313509732931853,1.2227245161563158
1757088682845667800,3.422667724609375,1.0473416457653044,0.8592685128882527,0.045021044987440105
1757088682855713800,3.4327138671875,-0.6834171482026576,3.0289103070303796,-0.0017056348741054533
1757088682865760800,3.4427607421875,-1.07239717656672,3.499702357162535,-1.4314122747778892
1757088682875806700,3.452806640625,0.8214262734889983,1.9501196300342678,-2.795175493174791
1757088682885853700,3.462853759765625,1.8053011169940232,1.3784794337525963,-1.4054396291315554
1757088682895899600,3.472899658203125,0.19340718738138674,0.020434300741553304,-0.1764770953685045
1757088682905945900,3.48294580078125,-0.21203297739624977,-1.1192314084559678,0.18377368211746214
1757088682915992800,3.492992919921875,-0.39854046839177604,-1.251715340580046,0.22722762391865253
1757088682926038800,3.503038818359375,-0.5183183559387922,-1.3922040077224374,0.16090309413969517
1757088682936086000,3.5130859375,-0.4572200363755226,-1.0128639143630862,0.1990080761283636
1757088682946131700,3.523131591796875,-0.049777299603819845,-0.6473997861430049,-0.01645312215089798
1757088682956177700,3.533177734375,0.3597399053543806,-0.3447732223689556,-0.2258177571207285
1757088682966225000,3.543224853515625,0.251511001303792,-1.8232374634400008,-0.34765491528511044
1757088682976270800,3.553270751953125,4.144450752013921,-10.553947207438945,-0.6272492707788944
1757088682986317800,3.56331787109375,-1.244451194795966,-0.26860183683633804,0.1477788241505623
1757088682996363800,3.57336376953125,-4.420073281267285,2.1936095297068356,1.247187341761589
1757088683006410800,3.58341064453125,-0.4170423397660255,-1.4329375846490262,-0.17010288416147232
1757088683016457000,3.59345703125,-0.2952764932721853,0.702253073836863,-1.317432844376564
1757088683026503000,3.6035029296875,0.28779753569364547,1.3795149142801761,-1.6839537881731985
1757088683036550000,3.6135498046875,-0.07435644506514072,0.9075450525403023,-1.0955302148729562
1757088683046595800,3.623595947265625,-0.5609913764953613,0.6032803661704063,-0.7200158172816038
1757088683056642800,3.633642822265625,0.38552141234278675,0.9602455461144447,-0.334621246188879
1757088683066688800,3.643688720703125,1.1492699883669615,-0.03387888872623444,0.8155161726623773
1757088683076734700,3.653734619140625,0.5901157641708851,-0.66385816899091,0.9192828366070985
1757088683086781700,3.66378173828125,-0.349461087924242,-0.710543055537343,-0.03831190273761749
1757088683096827600,3.67382763671875,-0.38517771347165103,-0.4205898031145334,-0.6839701059103012
1757088683106875000,3.683875,0.28537936863601204,0.2564072489127517,-0.8436790218293666
1757088683116920800,3.6939208984375,0.669514879578352,0.5192424850463867,-0.8386889584571122
1757088683126967800,3.7039677734375,0.45134500686228274,0.782907157741487,-0.5604489401817322
1757088683137014000,3.714013916015625,-0.40622634671926494,0.7762091214075684,-0.14058219064474106
1757088683147060000,3.72406005859375,-0.9445593166828155,-0.17030220612585545,-0.07410977682769299
1757088683157107000,3.73410693359375,-0.9774158766239881,-0.8560352300554513,0.0884305631250143
1757088683167153000,3.74415283203125,-0.7887848176032304,-1.04334965351969,-0.07246551675200462
1757088683177199900,3.754199951171875,-0.024865561187267304,-0.47721389987319707,-0.056397010004520416
1757088683187245800,3.764245849609375,0.5251403109133244,0.24283786550462244,-0.08030570885837078
1757088683197291800,3.774291748046875,0.771360804593563,0.3812234228879213,-0.41595279096364973
1757088683207338800,3.7843388671875,1.1246002420127392,2.0371976095065474,0.3658329615324735
1757088683217384700,3.794384765625,0.5787397991538047,2.7112802353918553,1.117481349918246
1757088683227431700,3.804431640625,0.08254735030531883,2.447116673263907,1.2127747845500707
1757088683237478000,3.814477783203125,-0.9596084172546863,1.2975079544618724,1.2407535093218087
1757088683247523800,3.82452392578125,-0.8140969535142183,0.4719873973965645,-0.06356558645963668
1757088683257570800,3.83457080078125,-0.3122144763305783,-0.47571810835748907,-0.7271592592954635
1757088683267616800,3.84461669921875,-0.039894203492999075,-1.3266092535227536,-0.6132686762213707
1757088683277663700,3.854663818359375,0.047484220230579376,-1.9149311200141905,-0.6301999372780323
1757088683287709700,3.864709716796875,-0.043081893618404865,-2.1567960488334297,-0.8368295943260192
1757088683297757000,3.8747568359375,0.10147592265903949,-1.5425193646132944,-0.4545663069963455
1757088683307803000,3.884802978515625,0.8100067615911364,-1.1529691351458429,0.15210720874369144
1757088683317848800,3.894848876953125,1.2744640557438134,-0.7234872927844523,0.31820261082947254
1757088683327895800,3.904895751953125,1.12165191360116,-0.284883401812613,-0.16028174737095832
1757088683337941800,3.914941650390625,0.25843524760901926,0.1286477149620652,0.056689855471253395
1757088683347988700,3.92498876953125,-0.7673112369418144,0.23902371404394507,0.43118835401833056
1757088683358035000,3.935034912109375,-1.206358487766981,-0.4300668026424944,0.23127134635150431
1757088683368081000,3.945080810546875,-1.1627478940993548,-0.9137151194773614,0.4875824414134025
1757088683378128000,3.9551279296875,-0.21210019741356373,-0.7674272645369171,0.25136428630948066
1757088683388173800,3.965173828125,0.15497370409071445,-0.5940532497502863,0.3282949657768011
1757088683398220800,3.975220703125,-0.14881518146097658,-0.450959368545562,0.009642273092269896
1757088683408266800,3.985266845703125,-0.5029319862365722,0.09236980227008461,-0.38605040465295315
1757088683418312700,3.995312744140625,-0.764145174126327,0.7020959835790097,-0.5967798982352018
1757088683428359700,4.005359619140625,-0.8910910536065697,0.6977627766802906,-0.24442016626000404
1757088683438406400,4.015406494140625,-0.8073445566445588,0.3581247252427041,0.41797348313629623
1757088683448453400,4.025453369140625,-0.6706210872545838,-0.008445172262191773,1.4351812719225883
1757088683458499300,4.035499267578125,-0.3227943225339055,-0.21113515177369116,1.7074977453678846
1757088683468546600,4.045546630859375,-0.5774158570736646,-0.8374236146964132,1.4077163418918848
1757088683478592500,4.055592529296875,-0.4265811524838209,-1.0105873477332294,0.39692309632301326
1757088683488638700,4.065638671875,-0.3127113199368119,-0.6532245467737317,-0.5690753142297268
1757088683498685700,4.075685791015625,-0.4313859224170446,-0.16448519041016696,-0.6026227790445089
1757088683508731600,4.085731689453125,0.8503694593787193,-0.4691125726126134,-1.600915439480543
1757088683518778600,4.095778564453125,1.3470140359088778,-0.7470332958057523,-2.4119775553435088
1757088683528824600,4.105824462890625,1.32531044588387,-0.9059288495153188,-1.8673153823584316
1757088683538870500,4.11587060546875,1.2118588387489317,-0.829104114640504,-0.6715414169698953
1757088683548917500,4.12591748046875,0.869553467798233,-0.44675709455013274,0.14871931987106798
1757088683558963500,4.13596337890625,0.1190735386699438,-0.024779928730428218,0.5008551799625158
1757088683569010400,4.146010498046875,-0.4965115978002548,0.8924280012987553,0.66493047439754
1757088683579056400,4.156056396484375,-0.12631284227371214,1.81698220243752,0.5224029949039221
1757088683589102600,4.1661025390625,0.2537093881309032,2.0402216335028407,0.1959843443930149
1757088683599149600,4.176149658203125,-0.1400140353679657,1.728985646815598,-0.07392740599811076
1757088683609195500,4.186195556640625,-0.6211670282557606,1.4106620399549603,-0.3671475512623787
1757088683619242500,4.196242431640625,-0.47333209000378845,0.9896914208292961,-1.0389327138602733
1757088683629288400,4.206288330078125,-0.04639233334064483,0.8927027265869081,-1.531438583150506
1757088683639334400,4.21633447265625,0.21242519158422946,0.8077505801621824,-1.9684499442338943
1757088683649381600,4.226381591796875,0.003138590286672115,0.8085087050531059,-1.2624936319649218
1757088683659427600,4.236427490234375,-0.300217456805706,0.7662940957885235,-0.19490180985331534
1757088683669474600,4.246474609375,-0.05802753381580114,0.993579587374255,0.1585270126581192
1757088683679520500,4.2565205078125,0.2682452784836292,0.9039836337316781,0.18566461043059826
1757088683689567500,4.2665673828125,0.09154986418932676,0.30435945198126135,-0.011141571739315986
1757088683699613700,4.27661376953125,-0.27802199161052704,-0.8042285435158759,-0.3255114725381136
1757088683709659600,4.28665966796875,-0.19267478145360944,-1.5123013364821671,-1.9124901566028594
1757088683719706600,4.29670654296875,0.8603320504665374,-0.774133045785874,-2.0370722295612094
1757088683729752600,4.306752685546875,0.5278139140367507,-0.11369878682903944,-0.19986498521864413
1757088683739799600,4.316799560546875,-0.884635886117816,0.2082276668291539,0.7071423071831464
1757088683749845500,4.326845458984375,-0.7399585351139306,0.5422306349892169,1.3663783693313598
1757088683759891500,4.336891357421875,-0.21680501410365102,0.3583060000937432,0.9444932657092809
1757088683769938400,4.3469384765625,0.24925737715810536,-0.19315189744606612,-0.012591770547628401
1757088683779984400,4.356984375,0.33504473229795695,-0.5779916842002422,-0.23293840278089045
1757088683790031400,4.36703125,-0.3716632751211524,-0.9101458096232264,-0.2365875729382038
1757088683800077300,4.377077392578125,-1.1435194620162248,-0.8312245408605784,-0.22060031473338604
1757088683810123500,4.38712353515625,-1.693451684358716,-0.46088688831999897,-0.15143617761433123
1757088683820170800,4.397170654296875,-2.8457243616729975,-0.9599459055807441,-0.3398334278792143
1757088683830216700,4.407216796875,-1.8799816794469952,-0.6556090307574719,0.8001601980984211
1757088683840263700,4.417263671875,-0.8771367625340819,-1.0146502132579684,2.0084423474043605
1757088683850309600,4.4273095703125,-1.630624933567643,-3.29528862259835,1.9650930350214242
1757088683860355600,4.43735546875,0.15050591102689503,-2.452230655276775,2.940768789979815
1757088683870402600,4.447402587890625,2.007546567608416,-1.7155239615656435,3.1396757438212632
1757088683880448500,4.457448486328125,2.4563369215518236,-2.1195028216190637,3.046080345278978
1757088683890495500,4.46749560546875,1.6963164261400698,-3.144683342850208,4.507285116252302
1757088683900541400,4.47754150390625,1.3058274545177817,-2.8505262089967727,12.040232059133052
1757088683910587600,4.487587646484375,4.330647861886024,0.346109731669724,8.651222658047079
1757088683920634600,4.497634521484375,5.210927890881896,2.180895301823318,9.41768283111751
1757088683930680600,4.5076806640625,5.516560942995548,5.253267733961343,7.5762547542095176
1757088683940727600,4.5177275390625,2.965154166434705,-0.13565057946145534,7.023575863507389
1757088683950773500,4.5277734375,-1.9676491492450237,-1.4784510893285274,7.212502106082439
1757088683960819500,4.5378193359375,-6.079438571628928,-1.253666182386875,3.6118344061315057
1757088683970866400,4.547866455078125,-5.940602347868681,-0.09080430651903151,1.0656348428249358
1757088683980912400,4.557912353515625,-2.6411335169762373,-0.02186053415238857,1.6314637224793433
1757088683990959600,4.567959716796875,-2.6776070983707903,0.541791585984826,2.179565806785226
1757088684001005600,4.578005615234375,-4.552196855646372,-1.2089905898362396,2.3437533294230697
1757088684011052500,4.588052490234375,-1.4959545973151922,2.430115269580483,3.4076375291883942
1757088684021098500,4.598098388671875,-3.7901217657923696,2.874305728513002,-2.7563179392531514
1757088684031144700,4.608144775390625,-3.852839503251016,4.666373854446411,-6.635912178438901
1757088684041191700,4.618191650390625,-3.247256997618079,5.121880072641372,-10.75354740424156
1757088684051237600,4.628237548828125,-2.613505505338311,5.416764936247468,-13.161076163482665
1757088684061284600,4.63828466796875,1.5537722877725957,2.9703695629954336,-10.96949784734249
1757088684071330600,4.64833056640625,3.2266303891748187,2.7933178826093674,-5.4638487589836116
1757088684081376500,4.65837646484375,2.720338571116328,2.9072710095256564,-1.506180515514314
1757088684091423500,4.668423583984375,1.1956100069984792,3.052244713127613,-0.05800181485265493
1757088684101469400,4.678469482421875,5.237528897559643,7.671741665586829,-2.416014848035574
1757088684111516400,4.688516357421875,1.7688213981196284,7.608990318119526,-4.590568964138627
1757088684121562400,4.698562255859375,-0.10062924270182848,3.4900650525063273,0.3026666035234928
1757088684131608600,4.708608642578125,-1.0188853666096924,2.6751731492221356,0.6076710023447871
1757088684141655600,4.718655517578125,-0.4708084167450666,1.880949939957261,0.03606587737649679
1757088684151701500,4.728701416015625,-0.11613923878371715,0.8583855925738811,0.303630480119586
1757088684161748700,4.738748779296875,-0.38117023139595985,1.0200473961263894,0.4963604988917708
1757088684171794400,4.74879443359375,-0.37616672402024265,1.1363707593053578,0.37268238903582096
1757088684181840400,4.75884033203125,-0.33899288540184497,1.2314414910972118,0.3133621850609779
1757088684191887600,4.7688876953125,-0.13515841203033924,1.076673538711667,0.10473580123782157
1757088684201933600,4.77893359375,0.00975888520926237,2.5372610545694827,0.45516427288949485
1757088684211980500,4.78898046875,0.49639469342231746,1.9538298827290534,0.2745505161076784
1757088684222026500,4.799026611328125,0.8062269507914781,2.5430653569340707,0.652418198826909
1757088684232072700,4.80907275390625,1.2211030524343252,2.742724005925655,0.39892040762007236
1757088684242119400,4.819119384765625,-1.2438888847380876,2.1996511479586363,-1.2524848636478185
1757088684252165600,4.82916552734375,-1.6382783709302544,0.17760931426882742,-4.672281032663584
1757088684262212600,4.839212646484375,-0.4917576812714338,-1.8463544273942707,-3.3827053325057026
1757088684272258600,4.849258544921875,0.36375703204125165,-3.7213837451308964,-2.466418170583248
1757088684282304500,4.859304443359375,0.005429039311408996,-3.4242221687644716,0.18798983850777148
1757088684292351500,4.8693515625,-2.564651165798306,-1.498461611700058,2.2144898206502197
1757088684302397400,4.8793974609375,-1.709477521008253,-1.3238210841089486,0.7223071430891752
1757088684312444400,4.8894443359375,-0.8898761248588561,-0.7901625356972217,0.3692512455433607
1757088684322490400,4.899490478515625,0.17943769873976706,0.30001988840699195,-0.08254793482720851
1757088684332536600,4.90953662109375,0.7945172237753868,1.1808517060667276,-0.5450882894426584
1757088684342583300,4.919583251953125,0.25420915434658525,1.4814520247101783,-0.9528367311626672
1757088684352629500,4.92962939453125,-0.02861965302377939,1.6525369056463242,-1.2005536008805036
1757088684362676700,4.9396767578125,0.3291337546885013,1.9662977346360682,-1.4486469026952982
1757088684372722700,4.94972265625,0.6154039346843958,1.9076947390198706,-1.3964245480269193
1757088684382768600,4.9597685546875,0.30251930400729177,1.3742548017948866,-1.2228577871471642
1757088684392815600,4.969815673828125,0.0020627777487039565,0.5456371554970741,-0.8117173649013042
1757088684402861600,4.979861572265625,-0.2428179917603731,0.08257657639980316,0.029391514179110526
1757088684412908500,4.989908447265625,-0.5096545724898577,-0.711893301102519,0.8146504957437515
1757088684422954500,4.99995458984375,-0.5182186949566007,-1.5478881981700658,1.2473352257996797
1757088684433001500,5.01000146484375,-0.03293400909155607,-1.5396604680508374,1.4348071779131888
1757088684443046400,5.02004638671875,0.6929705739676952,-1.1034294436901808,1.571681746211648
1757088684453092400,5.03009228515625,1.0585665118739007,-0.7775801174998282,1.6048779133707285
1757088684463139300,5.040139404296875,1.0705576861798762,-0.36703883019089695,1.2948784827411175
1757088684473185300,5.050185302734375,0.8054875306010246,0.029749826097488403,0.8203419853836298
1757088684483232300,5.060232177734375,0.4193237287014723,0.3313262962967157,0.2725672333359718
1757088684493278200,5.0702783203125,0.10758446866720914,0.33921383467614646,-0.01790215191543102
1757088684503324200,5.08032421875,0.04012713546603918,0.26978140200972556,-0.10997545545697211
1757088684513371100,5.09037109375,0.09130436499565839,0.21145897690057752,0.009580898293852806
1757088684523417300,5.100417236328125,0.16129063215255737,0.05764087258577347,0.274568051764369
1757088684533464300,5.11046435546875,0.1489049055710435,-0.2025724906116724,0.5626911661505699
1757088684543510300,5.12051025390625,0.051368075926601885,-0.5613578717201948,0.8879600621044635
1757088684553556200,5.13055615234375,-0.009061258333921431,-0.8890759143918752,1.093889461928606
1757088684563603500,5.140603515625,-0.03828998316675424,-1.0341729521125553,1.0763345160156488
1757088684573649200,5.150649169921875,-0.08956307428628206,-1.0549427684187889,0.9497223985344171
1757088684583696400,5.1606962890625,-0.1286672964453697,-0.9235983617186546,0.6803495773255824
1757088684593742300,5.170742431640625,-0.06739303579330444,-0.7858329820603132,0.4658189378947019
1757088684603788300,5.180788330078125,0.04846972413659095,-0.6898147402852773,0.5290379028737545
1757088684613835300,5.190835205078125,0.3846002058446407,-0.8163549615740776,0.693621731352806
1757088684623881200,5.200881103515625,0.6365989906653762,-0.9207453103750943,0.9215168792694807
1757088684633928200,5.21092822265625,0.6946937444984912,-0.8288409336596727,0.9774445181965827
1757088684643974400,5.220974365234375,0.42576866705715655,-0.6465951917618513,0.9102128104448318
1757088684654020400,5.231020263671875,-0.16212883654236793,-0.4255892188370228,0.6834902134388685
1757088684664067300,5.2410673828125,-0.7764759556502103,-0.2849678652256727,0.34174306089282036
1757088684674113300,5.25111328125,-0.9972042806774377,-0.309548179730773,-0.13353811735212803
1757088684684160300,5.26116015625,-0.912163359990716,-0.3388134371817112,-0.40754269001483917
1757088684694206200,5.271206298828125,-0.6795996357411146,-0.3342787163615227,-0.44262803192138667
1757088684704252200,5.281252197265625,-0.3375204747617245,-0.36866029391288757,-0.30247137321233747
1757088684714299100,5.291299072265625,0.11026245570480823,-0.2919903112083673,-0.0796381848603487
1757088684724345000,5.301344970703125,0.17636720525324343,-0.1323714116603136,0.14285948792696
1757088684734392000,5.31139208984375,0.07921616005599498,0.13243804715573787,0.014232523491978644
1757088684744438300,5.321438232421875,-0.0478773112013936,0.3281985196650028,-0.37042145836651325
1757088684754484200,5.331484130859375,-0.17932020983994007,0.37628362839817997,-0.9563368482381105
1757088684764531500,5.341531494140625,-0.1691015981644392,0.45682665314376353,-1.286117668658495
1757088684774577400,5.351577392578125,-0.1569493880778551,0.5923720186650753,-1.3852110800951718
1757088684784624400,5.361624267578125,-0.14419570496678352,0.6804799257069826,-1.393361068803072
1757088684794670300,5.37167041015625,-0.3089484602719545,0.6633470045983791,-1.3879507341921329
1757088684804716300,5.38171630859375,-0.5882587381273507,0.6373702672988176,-1.3308733407080173
1757088684814763300,5.39176318359375,-0.7938999686598778,0.4331564392209053,-0.997996307837963
1757088684824809200,5.401809326171875,-0.5787105730593204,0.16211889967024326,-0.9192775759100913
1757088684834856200,5.411856201171875,-0.45607145086228845,0.13914426679611205,-0.7722036851584911
1757088684844902400,5.42190234375,-0.24410978513658046,-0.04698270044922828,-0.24258944370150565
1757088684854948400,5.4319482421875,-0.17715630980432032,-0.30374446188807486,0.06739712744653224
1757088684864995300,5.441995361328125,-0.22480594972968101,-0.422809817251563,0.14101239875555038
1757088684875041300,5.452041259765625,-0.1131131689608097,-0.4373889622241258,0.18628829528689383
1757088684885088300,5.462088134765625,0.014271394197642803,-0.33960838695168494,0.2923532993018627
1757088684895134200,5.47213427734375,-0.07252075407058,-0.2509001759290695,0.2669166602283716
1757088684905180200,5.48218017578125,-0.23537644358277318,-0.18325462667942047,0.09581658172309399
1757088684915227100,5.49222705078125,-0.3734434365361929,-0.1770738922178745,-0.03231003197431564
1757088684925273000,5.502273193359375,-0.37580724305808544,-0.08801730614900588,-0.14123100994229315
1757088684935320300,5.5123203125,-0.29545418792665,0.07185410685539245,-0.3758592655062675
1757088684945366300,5.5223662109375,-0.20879238803982733,0.2718324893206358,-0.6556383299171924
1757088684955412500,5.53241259765625,-0.09779197344928979,0.5235474887639284,-0.8815776675909757
1757088684965459500,5.54245947265625,-0.12650953388959169,0.7560393168210983,-0.968971288883686
1757088684975505400,5.55250537109375,-0.11557517516016959,0.8723580038249492,-1.2225719559431076
1757088684985552400,5.562552490234375,-0.07805734540969132,0.9714303724735974,-1.6600135251373052
1757088684995598300,5.572598388671875,-0.12523615295290946,1.1519926913291216,-2.1573113048791885
1757088685005644300,5.582644287109375,0.034494682537019254,1.1332190172761678,-1.0951327399879693
1757088685015691300,5.592691162109375,0.5083703778982163,0.5100274974554777,0.8630810569137334
1757088685025737200,5.6027373046875,0.7345631058111787,-0.7118915475368499,2.29744458271265
1757088685035784200,5.6127841796875,0.03686199619024992,-1.8447785563796757,2.3271733660221097
1757088685045830100,5.622830078125,-0.9559881809309124,-2.0413713880598543,1.510526143503189
1757088685055876400,5.63287646484375,-1.3923711809828876,-1.2831453748494386,0.6217506733626127
1757088685065923300,5.64292333984375,-0.6851017402887344,-0.48993981819450855,0.058680737027525895
1757088685075969300,5.65296923828125,0.07157675121873616,0.1885731913536787,-0.21782734288871286
1757088685086016300,5.663016357421875,0.20025573810189962,0.6188736566215753,-0.6166401984810829
1757088685096062200,5.673062255859375,0.21036358287930487,0.7548977455705403,-0.8527484634697436
1757088685106108200,5.683108154296875,0.16045213550180196,0.6532821221798658,-0.7666986580014228
1757088685116155400,5.6931552734375,0.038620530295372005,0.3851414731144905,-0.48701194804906844
1757088685126201300,5.703201416015625,-0.009365209716558456,0.10116086536049843,-0.1741068591058254
1757088685136248300,5.713248291015625,-0.004210603432357311,-0.07204290742576122,0.12392916200757026
1757088685146294300,5.723294189453125,-0.05659107127189636,-0.16997487386763094,0.3021919717490673
1757088685156340500,5.733340576171875,-0.13983020323365927,-0.26080606839358805,0.34250586195886135
1757088685166387200,5.74338720703125,-0.1860442573979497,-0.28961072259545323,0.3008370500087738
1757088685176433400,5.753433349609375,-0.17586860808134078,-0.2286269693225622,0.19065642736852167
1757088685186480400,5.76348046875,-0.11312953557372092,-0.10031740027368068,0.08236030330061912
1757088685196526300,5.7735263671875,-0.016243571053445337,0.06898001272380351,-0.01899462332725525
1757088685206572300,5.783572265625,0.0066124038770794865,0.17684651320278644,-0.07474339855611324
1757088685216619300,5.793619384765625,-0.00307955357581377,0.21329729824364185,-0.09819850842356681
1757088685226665200,5.803665283203125,-0.021577041035890577,0.20641806012392042,-0.1222498306185007
1757088685236712200,5.813712158203125,-0.024821137523651123,0.205574010515213,-0.1452069278359413
1757088685246758100,5.823758056640625,-0.018137714236974717,0.19893676445782182,-0.17141162867248058
1757088685256804400,5.833804443359375,-0.02666384278088808,0.19699206013083456,-0.18414426899552344
1757088685266851000,5.84385107421875,-0.04020429235547781,0.16344927149116992,-0.17574352039694785
1757088685276897300,5.853897216796875,-0.08329290797561406,0.1266062722623348,-0.16821137132644653
1757088685286944500,5.863944580078125,-0.11666735431104898,0.09857143338918685,-0.14149462931454182
1757088685296990500,5.873990478515625,-0.12379589101672171,0.0856073223978281,-0.13529694371819495
1757088685307036400,5.884036376953125,-0.12382628615498542,0.0758645115405321,-0.143368606492877
1757088685317083400,5.89408349609375,-0.12200023977160453,0.059899465167522425,-0.14030921892225742
1757088685327129300,5.90412939453125,-0.13733692511320114,0.0682446841865778,-0.16451894654929636
1757088685337176300,5.91417626953125,-0.1545987332984805,0.05159399363696575,-0.17859774078428745
1757088685347222300,5.92422216796875,-0.19260113169550894,0.0144043729275465,-0.2015524999141693
1757088685357268200,5.934268310546875,-0.21608868252784014,-0.002955342674255371,-0.19857903706133365
1757088685367315200,5.944315185546875,-0.2131856545627117,-0.0167266783952713,-0.18102935184538363
1757088685377361400,5.954361328125,-0.18267624226957557,-0.04418868581652641,-0.15712649821043015
1757088685387408400,5.964408447265625,-0.19724924976229666,-0.053926820498704904,-0.12366086646020412
1757088685397454300,5.974454345703125,-0.18048662327080964,-0.06940262205004692,-0.10119184502065182
1757088685407500300,5.984500244140625,-0.13869973789900542,-0.0381722020059824,-0.08829670761227607
1757088685417547300,5.99454736328125,-0.09766191732883453,-0.00386427421271801,-0.11018471429347991
1757088685427593200,6.00459326171875,-0.09765870245844126,0.03178513131737709,-0.1269347735643387
1757088685437640400,6.014640380859375,-0.10655249527096748,0.048100306302309034,-0.12488894695043563
1757088685447686400,6.024686279296875,-0.1106754204198718,0.04017302043437958,-0.11041501591801643
1757088685457732400,6.034732421875,-0.0955433177396655,0.007056932774186134,-0.11155015742778777
1757088685467779600,6.044779541015625,-0.0839323749229312,-0.008844985234737396,-0.11532909144461154
1757088685477825500,6.054825439453125,-0.0667804568529129,0.00965045639872551,-0.13040800263285637
1757088685487872500,6.06487255859375,-0.06091653325557708,0.013602993416786193,-0.12822890502810477
1757088685497918700,6.074918701171875,-0.0643839171051979,0.015315642553567885,-0.1080021095573902
1757088685507964700,6.084964599609375,-0.07711684968918561,0.03312427096664906,-0.06358253759443759
1757088685518011600,6.09501171875,-0.11759499054998158,0.014563362881541251,-0.02706511705815792
1757088685528057600,6.1050576171875,-0.1504340148344636,-0.013776596418023108,-0.05343640663325786
1757088685538104600,6.1151044921875,-0.1634215067014098,-0.043881227302551264,-0.11924480358362197
1757088685548150500,6.125150634765625,-0.1547331733331084,-0.027765374282002448,-0.1753092206329107
1757088685558196500,6.135196533203125,-0.15292612391114235,-0.02831950103342533,-0.24004092826247214
1757088685568243500,6.145243408203125,-0.12843348768949508,-0.0056529111951589585,-0.2524766314655542
1757088685578289400,6.155289306640625,-0.13702829755544663,0.006569441518187523,-0.2266179675877094
1757088685588335600,6.165335693359375,-0.1421826115787029,-0.013429390415549277,-0.1943710639774799
1757088685598382600,6.175382568359375,-0.13601912051290274,-0.03755260880291462,-0.14851064555644988
1757088685608428500,6.185428466796875,-0.11540303346365689,-0.04681494266688824,-0.09309913945794104
1757088685618475500,6.1954755859375,-0.08853606932610272,-0.046754736912250516,-0.07651683796942234
1757088685628521500,6.205521484375,-0.07478285378366709,-0.044455227798223494,-0.06085808106660843
1757088685638568700,6.215568603515625,-0.06546849747151136,-0.04721650920510292,-0.05724164413511753
1757088685648614700,6.22561474609375,-0.08164221815913915,-0.036788054171204565,-0.06590075140893459
1757088685658660600,6.23566064453125,-0.0976698083743453,-0.01419569861292839,-0.07900280956625938
1757088685668707600,6.24570751953125,-0.09663549689054489,-0.004084054443240165,-0.08597147953510284
1757088685678753500,6.25575341796875,-0.08085574395656585,0.019638766449689864,-0.0745142659753561
1757088685688799700,6.2657998046875,-0.03428337787389755,0.03150514533221722,-0.05818272437751293
1757088685698846500,6.275846435546875,-0.026635201208293435,0.029552257698774335,-0.027274375894665717
1757088685708892700,6.285892578125,-0.05084872822761535,0.023888240587711333,-0.012703998750448225
1757088685718939600,6.295939697265625,-0.053419163237512106,0.004162380376458168,-0.012579495587944984
1757088685728985600,6.305985595703125,-0.08320639873594045,-0.011336217528581619,-0.012794599643349646
1757088685739031600,6.316031494140625,-0.10753595335036516,-0.033630466923117636,-0.04678513205051422
1757088685749078500,6.32607861328125,-0.07945435272604226,-0.03667173431515693,-0.06844575971662997
1757088685759124500,6.33612451171875,-0.06489712732434272,-0.02550093648135662,-0.09509177457988262
1757088685769171500,6.34617138671875,-0.05820522847026586,0.012817395997047424,-0.09417816686630248
1757088685779217400,6.356217529296875,-0.06885404825657605,0.0104699560880661,-0.08795359326303005
1757088685789263400,6.366263427734375,-0.07783610387444495,0.011012976923584937,-0.08526011639535426
1757088685799310300,6.376310302734375,-0.07831804217249154,0.012805705559253693,-0.09560323123335837
1757088685809356500,6.3863564453125,-0.07126461652964353,0.007979308316111565,-0.08997370091378688
1757088685819403800,6.39640380859375,-0.0662660775899887,0.02069850463569164,-0.07465396670699119
1757088685829449500,6.406449462890625,-0.06961538801789284,0.017663082462549207,-0.06441606580913066
1757088685839495400,6.416495361328125,-0.07568769366890192,-0.0010305120915174483,-0.03722878367602825
1757088685849542700,6.426542724609375,-0.09672434421777724,-0.012809212690591812,-0.05693710823059082
1757088685859588600,6.436588623046875,-0.10475801306962966,-0.018104981011152266,-0.09501344864666461
1757088685869635600,6.446635498046875,-0.09793547357320785,-0.008882979157567023,-0.11599077022373676
1757088685879681500,6.456681640625,-0.09186725957542657,-0.0036316345006227493,-0.1366758308559656
1757088685889727500,6.4667275390625,-0.08065233033895491,0.01722469104528427,-0.14216332235634327
1757088685899774500,6.4767744140625,-0.10153349806517362,0.021464812833070755,-0.14831424620151518
1757088685909820700,6.486820556640625,-0.10725859771370887,0.0123784200578928,-0.13561843075752258
1757088685919867400,6.496867431640625,-0.1163002745643258,0.03588321428596973,-0.15195055687725542
1757088685929913600,6.50691357421875,-0.11012421627789735,0.028691256955265997,-0.15682371587157248
1757088685939959600,6.51695947265625,-0.10616671082377434,0.006934767699241637,-0.1451426304280758
1757088685950006500,6.527006591796875,-0.09702975690513849,-0.018602993661165235,-0.11104045433998107
1757088685960052500,6.537052490234375,-0.08900748623013496,-0.01969429602921009,-0.0810018744289875
1757088685970099500,6.547099365234375,-0.09209259276390075,0.006481178712844848,-0.08392214578986168
1757088685980145400,6.5571455078125,-0.1278819912865758,0.031015315988659857,-0.11173428182303904
1757088685990191400,6.56719140625,-0.14216536818295716,0.060654667448997494,-0.13161504033505916
1757088686000238300,6.57723828125,-0.09461948089301586,0.06031330666542053,-0.14668752178251743
1757088686010284500,6.587284423828125,-0.05244184263795614,0.03583002279400825,-0.13988427150845525
1757088686020331500,6.59733154296875,-0.042540041826665397,0.02463993573784828,-0.1474596751987934
1757088686030377700,6.607377685546875,-0.04812485622167587,0.01471416952908039,-0.11707447380721568
1757088686040423700,6.617423583984375,-0.04838818333297967,-0.0055085342884063715,-0.09315291547179222
1757088686050470700,6.627470703125,-0.041326282122731206,-0.016495207726955414,-0.052527475094795224
1757088686060516600,6.6375166015625,-0.037035599191486836,-0.012063947281241416,-0.0024602526336908338
1757088686070562600,6.6475625,-0.03025397622734308,-0.02114215674996376,-0.01719020425379276
1757088686080609500,6.657609619140625,-0.06953092460483312,-0.025978490865230557,-0.018676643419265747
1757088686090655500,6.667655517578125,-0.0950774537935853,-0.04607259986698627,-0.04552899450957775
1757088686100702500,6.677702392578125,-0.10248509970158338,-0.05012918178141117,-0.055633039894700045
1757088686110748400,6.68774853515625,-0.10646598603129387,-0.03674363050758839,-0.06110474930405616
1757088686120794600,6.697794677734375,-0.09798077401965856,-0.037277298992872236,-0.085105802616477
1757088686130841600,6.707841552734375,-0.08108487653732299,-0.034542905592918394,-0.09379179789721966
1757088686140887600,6.717887451171875,-0.09465367542356252,-0.016903788527846336,-0.08353110064566135
1757088686150934500,6.7279345703125,-0.1019829953983426,-0.0143085113376379,-0.07600245870649815
1757088686160980500,6.73798046875,-0.09849193841218948,0.011039864930510521,-0.11437456719875334
1757088686171026400,6.7480263671875,-0.08994184447079896,0.043369770649075504,-0.12916297100782392
1757088686181073400,6.758073486328125,-0.07745850273370743,0.06004851824939251,-0.16600421667098997
1757088686191119400,6.768119384765625,-0.06330605874061584,0.044134909802675246,-0.16838438980579376
1757088686201166600,6.77816650390625,-0.06385287896841764,0.03869184196591377,-0.14109949251711368
1757088686211212500,6.788212646484375,-0.0700026337698102,0.009724106156826019,-0.11782558443546294
1757088686221258800,6.7982587890625,-0.07935030782967806,-0.024241876330971718,-0.08428045770823955
1757088686231305500,6.808305419921875,-0.09102408674955367,-0.044267596271634096,-0.04023907140791416
1757088686241351700,6.8183515625,-0.09053308836221695,-0.056687517383694645,-0.02127893487215042
1757088686251398700,6.828398681640625,-0.09482084868401289,-0.04279577015340328,-0.03832943839430809
1757088686261444600,6.838444580078125,-0.07617372362017631,0.005524900901317596,-0.06520400131642819
1757088686271490600,6.848490478515625,-0.07371610133498907,0.05067512522637844,-0.08984744418561458
1757088686281537500,6.85853759765625,-0.09150660956948994,0.06158113464415073,-0.11567688196897506
1757088686291583500,6.86858349609375,-0.06247983704954385,0.04918868606090546,-0.15224164877831936
1757088686301630500,6.87863037109375,-0.06288754106760025,0.030327333724498747,-0.1457961259007454
1757088686311676400,6.888676513671875,-0.06091711777746677,0.002590601015090942,-0.13851356767714024
1757088686321722600,6.89872265625,-0.07829699938446283,0.0016553659915924071,-0.13124153084754944
1757088686331769300,6.908769287109375,-0.0593126051902771,-0.009181085321307183,-0.09293196619749068
1757088686341815600,6.918815673828125,-0.055986383377015586,-0.02546469612419605,-0.07940846775770187
1757088686351862500,6.928862548828125,-0.07047609650045633,-0.030009353816509245,-0.059818216624855994
1757088686361908500,6.938908447265625,-0.07088409277945756,-0.022333412361145017,-0.047293666094541546
1757088686371954400,6.948954345703125,-0.05270546201020479,-0.02132511210143566,-0.040948680981993675
1757088686382001700,6.959001708984375,-0.04308773883730173,-0.024418401941657064,-0.04088905974924564
1757088686392047600,6.969047607421875,-0.04246668432950973,-0.03936871831417083,-0.0602320581227541
1757088686402093600,6.979093505859375,-0.050613458167016505,-0.03092588413953781,-0.06667816552221775
1757088686412140500,6.989140625,-0.056981531894206995,-0.022835516664385793,-0.08304302486777305
1757088686422186500,6.9991865234375,-0.07035685403496027,-0.02214110465943813,-0.08086275821924209
1757088686432233500,7.0092333984375,-0.0599289835229516,-0.025358313140273092,-0.06827274123728275
1757088686442279000,7.01927880859375,-0.03353606663793325,-0.03197802354097366,-0.0800473501831293
1757088686452324900,7.029324951171875,-0.0334054259955883,-0.02200608010292053,-0.08512684540450573
1757088686462371800,7.039371826171875,-0.02015782188773155,-0.004507248291373253,-0.0691939477354288
1757088686472417800,7.049417724609375,-0.025602058768272398,0.007902735948562622,-0.08138239817917346
1757088686482464800,7.05946484375,-0.02458294485360384,0.026282442247867584,-0.06799860047101974
1757088686492510700,7.0695107421875,-0.05242576828598976,0.03153086429536343,-0.06509937189817429
1757088686502557000,7.079556884765625,-0.07886515466123818,0.032635026144981386,-0.06599252134561538
1757088686512604000,7.08960400390625,-0.09252192409187555,0.02948679124712944,-0.061762920951843256
1757088686522650000,7.099650146484375,-0.06822627174705266,0.03129588649570942,-0.04208382249176502
1757088686532697000,7.109697021484375,-0.07005699430555105,0.02468085227012634,-0.0386339742988348
1757088686542743000,7.119742919921875,-0.05794979240447282,0.010478139394521713,-0.024509002834558487
1757088686552789000,7.1297890625,-0.09242635476291179,0.004288052582740783,-0.05288637153506279
1757088686562836000,7.1398359375,-0.1415574654176831,0.027891046488285064,-0.08669219502508639
1757088686572882000,7.1498818359375,-0.13523819926828146,0.04629530270695686,-0.10681202298998832
1757088686582929000,7.159928955078125,-0.09810381587743759,0.05815291376113891,-0.10102934793531894
1757088686592974800,7.169974853515625,-0.05627221458107233,0.05691548092067241,-0.08602759363651274
1757088686603020800,7.180020751953125,-0.06484189000576734,0.034954993525147436,-0.05968143850266933
1757088686613067800,7.19006787109375,-0.09912234527021646,-0.0008142389923334122,-0.052771220722794526
1757088686623114000,7.200114013671875,-0.09608955344557761,-0.009483283138275145,-0.038299627777934074
1757088686633160700,7.21016064453125,-0.08754968863725662,-0.009293313524127007,-0.03840250363051891
1757088686643207000,7.22020703125,-0.0630114597082138,0.0028191490739583967,-0.06546177546977996
1757088686653252900,7.2302529296875,-0.0726712684571743,0.008851414975523948,-0.08062778041958808
1757088686663299800,7.2402998046875,-0.05901362224370241,-0.0022726211071014404,-0.07699088522195816
1757088686673345800,7.250345703125,-0.055365621130168435,-0.010637129348516464,-0.06871347074210643
1757088686683391700,7.260391845703125,-0.04174100040346384,-0.01908990039527416,-0.0559749852001667
1757088686693439000,7.27043896484375,-0.005900456215441227,-0.03201660198569298,-0.06266542274951935
1757088686703485000,7.28048486328125,0.00665887336730957,0.004156535157561302,-0.08413140462636948
1757088686713532000,7.290531982421875,0.016365736128389836,0.035227380725741386,-0.07234159811139107
1757088686723577900,7.300577880859375,0.019137246668338773,0.03784662331342697,-0.05248363595306873
1757088686733624000,7.3106240234375,-0.005692366422712802,0.03117255237698555,-0.06132569857835769
1757088686743671000,7.320671142578125,-0.0349149537757039,-0.00343465062379837,-0.07376841604411602
1757088686753717000,7.330717041015625,-0.0277522225394845,-0.021887422159314156,-0.08161328432559967
1757088686763764000,7.340763916015625,-0.049345922449231146,-0.03011632132232189,-0.0918593685299158
1757088686773810000,7.350809814453125,-0.06841594910025596,-0.05129471842944622,-0.08272504495978356
1757088686783855900,7.36085595703125,-0.08043430367410183,-0.0513040707796812,-0.08182312768399715
1757088686793902800,7.37090283203125,-0.08467530224472283,-0.04390986887514591,-0.06896656872034072
1757088686803948800,7.38094873046875,-0.08328150979876518,-0.024926351463794707,-0.07867723087370396
1757088686813995800,7.390995849609375,-0.07277385204881429,0.004313187023997306,-0.07050210772454739
1757088686824041700,7.401041748046875,-0.04245937780588865,0.02537058809995651,-0.09276654650270938
1757088686834088000,7.411087890625,-0.03273322582244873,0.02541851889491081,-0.08715162923038006
1757088686844135000,7.421135009765625,-0.03833206874281168,0.01056406411230564,-0.07090016713142394
1757088686854180900,7.431180908203125,-0.07551233710199594,-0.024552257454395293,-0.05510872375965118
1757088686864228000,7.44122802734375,-0.060541270202398294,-0.016729601004719732,-0.05494447310864925
1757088686874274000,7.451274169921875,-0.06752513774037361,-0.0233101484388113,-0.06542378154695033
1757088686884320000,7.461320068359375,-0.04820464345961809,-0.011979191607236862,-0.05918284133076667
1757088686894367000,7.471366943359375,-0.04822305589914322,0.007677695021033286,-0.06358779829144477
1757088686904413000,7.481412841796875,-0.053132162989676,0.026368951487541196,-0.07182078910768032
1757088686914460000,7.4914599609375,-0.06344312912374735,0.025928221982717513,-0.09705459908545017
1757088686924505900,7.501505859375,-0.051670858265459536,0.024226094239950178,-0.06696867290139198
1757088686934552000,7.511552001953125,-0.028003274691104887,0.0050970308780670165,-0.03705050449967384
1757088686944599000,7.52159912109375,-0.05063391643315553,0.004127893584966659,-0.042046997612714763
1757088686954645000,7.53164501953125,-0.06199088448882103,0.020641806012392044,-0.07431962018609047
1757088686964692000,7.54169189453125,-0.059573594214022155,0.025142040041089057,-0.11341302869021892
1757088686974738000,7.551738037109375,-0.029180794037878512,0.054098085412383076,-0.11601999631822109
1757088686984784000,7.561783935546875,-0.0016539046868681907,0.09004676614999771,-0.09580196867585182
1757088686994830800,7.571830810546875,0.0023898177459836007,0.09566577507555485,-0.08902385284304619
1757088687004876800,7.581876708984375,-0.035792613393068315,0.04528524888157844,-0.07647650595903396
1757088687014922800,7.5919228515625,-0.09719108494669199,-0.01840542526245117,-0.049777299603819845
1757088687024969700,7.6019697265625,-0.12009849780350923,-0.08379588906168937,-0.031029929035902022
1757088687035016000,7.612015869140625,-0.0923021438613534,-0.07859364424347877,-0.08157529040277003
1757088687045063000,7.62206298828125,-0.0406923681333661,-0.05214110612571239,-0.08339666061103343
1757088687055109000,7.632109130859375,-0.0068760232493281365,0.028723990181088444,-0.11897007829546928
1757088687065154800,7.64215478515625,-0.002555237440764904,0.10271861619651317,-0.15087445207834244
1757088687075202000,7.6522021484375,0.025756957069039344,0.11118073959350586,-0.1402618726491928
1757088687085248000,7.662248046875,0.04684446102231741,0.09036299249231815,-0.08337269521355628
1757088687095295000,7.672294921875,0.03882248260825872,0.04738602055311203,-0.002610474759340286
1757088687105341000,7.6823408203125,0.02860971615165472,-0.062195467150211334,0.05748012906610966
1757088687115387000,7.692386962890625,-0.058499242980778215,-0.13006430376172065,0.12275251944363116
1757088687125433900,7.702433837890625,-0.0948269861638546,-0.23161036904752252,0.14932371550500392
1757088687135479800,7.712479736328125,-0.13948562757968902,-0.27350714453458785,0.1180278290092945
1757088687145526800,7.72252685546875,-0.1668096878349781,-0.19760230098366735,-0.021981530183553696
1757088687155573000,7.732572998046875,-0.13593611840456724,-0.08034545634686946,-0.15197159966528415
1757088687165619000,7.742618896484375,-0.09130436499565839,0.07467851662635802,-0.25382220085561275
1757088687175666000,7.752666015625,-0.08555851482003926,0.19572949284911154,-0.3190630270510912
1757088687185711900,7.7627119140625,-0.06300824483782053,0.2565554252117872,-0.29801614736914633
1757088687195758800,7.7727587890625,-0.12441782230734824,0.311017667761445,-0.5501023182123899
1757088687205804800,7.7828046875,-0.26313217325359584,0.5272679705917835,-0.7654542108982801
1757088687215850800,7.792850830078125,0.14690321035981177,0.4197054214954376,-0.30838498117029667
1757088687225897700,7.802897705078125,0.03164396928101778,0.16886428227722644,-0.167471951135993
1757088687235943700,7.812943603515625,-0.007446516613662243,-0.09514262798428536,-0.0038116672426462173
1757088687245990000,7.822989990234375,-0.07666939818263054,-0.21706278825700281,0.06877133840918541
1757088687256037000,7.833037109375,-0.08270604799836874,-0.23117899189293384,0.08530454005897045
1757088687266083000,7.8430830078125,-0.11142156261205673,-0.2194511446982622,0.09146832338571548
1757088687276130000,7.853130126953125,-0.09637246204018592,-0.1905249099433422,0.04963000008761882
1757088687286176000,7.863176025390625,-0.0678565616518259,-0.16890227620005607,-0.04358078305125236
1757088687296222000,7.873221923828125,-0.11188479620963335,-0.11889233688414096,-0.10522913771271705
1757088687306269000,7.88326904296875,-0.08790420116335153,-0.1274661039620638,-0.1124292783498764
1757088687316315000,7.89331494140625,-0.07122954521626233,-0.13064356495440005,-0.11741875720024109
1757088687326361900,7.90336181640625,-0.06930646819919348,-0.12658406043052672,-0.14882453381121158
1757088687336407800,7.91340771484375,-0.0893757350206375,-0.04119944087266922,-0.20334172141849993
1757088687346454000,7.9234541015625,-0.11505962685346603,-0.0016740706920623778,-0.27259470586478707
1757088687356501000,7.9335009765625,-0.09059066376835108,0.023704700714349745,-0.3372457494735718
1757088687366547000,7.943546875,-0.14107815746814012,0.026366028878092765,-0.3600315817773342
1757088687376594000,7.953593994140625,-0.08567658824175596,0.038759061983227726,-0.28391046512722967
1757088687386640000,7.963639892578125,-0.053608548329770564,0.04256137687563896,-0.1866080287605524
1757088687396685800,7.973685791015625,-0.05409837767332792,0.021381226202845573,-0.08542612061202526
1757088687406732800,7.98373291015625,-0.012445347814261912,-0.040898996621370316,-0.017284896799921987
1757088687416778800,7.99377880859375,-0.001210252572596073,-0.05630524006783962,0.05120002588331699
1757088687426826000,8.003825927734376,-0.004192483253777027,-0.01113923365175724,0.12240063726603984
1757088687436872200,8.0138720703125,0.10035276384800672,-0.10760054301917553,0.11193944900631904
1757088687446918100,8.023918212890624,0.10545447090119123,-0.1951432173937559,0.05463000033199787
1757088687456965000,8.033965087890625,0.08609247556626796,-0.12819091110527514,0.04434066150784492
1757088687467011300,8.04401123046875,0.017352993600070477,-0.05294891537725925,0.024887773019075392
1757088687477057300,8.054057373046875,0.04771832124739885,-0.0048538697719573975,-0.00032090251743793486
1757088687487104300,8.064104248046876,0.02725596345514059,0.03212707662284374,-0.02328618304133415
1757088687497150200,8.074150146484374,-0.007738193036615848,0.04954933606684207,-0.10078209517598151
1757088687507197400,8.084197509765625,-0.016163199293613432,-0.009710662153363227,-0.13969897806942463
1757088687517243400,8.094243408203125,-0.021995558708906172,-0.19320143567621706,-0.2198252387076616
1757088687527289300,8.104289306640625,-0.00022474866658449172,-0.3248082927048206,-0.15540625028908253
1757088687537336300,8.11433642578125,-0.08534633337408304,-0.31408874576985835,-0.1406844819754362
1757088687547382300,8.12438232421875,-0.132549690836668,-0.28281799371540545,-0.23698095616996287
1757088687557429200,8.13442919921875,-0.1830415684506297,-0.21210370454490182,-0.24379122070670126
1757088687567475200,8.14447509765625,-0.18163433200120924,-0.15952537604570388,-0.2654226222783327
1757088687577521400,8.154521484375,-0.2857856113493442,-0.0987573113501072,-0.4515437443047762
1757088687587568400,8.164568359375,-0.5755526935502886,-0.13699205719828605,-0.8343968142211436
1757088687597614300,8.1746142578125,-1.149662202554941,-0.17656360460817813,-1.3912836780071258
1757088687607661300,8.184661376953125,-1.3252327044725418,-0.04467793063819408,-1.868135466569662
1757088687617707300,8.194707275390625,-0.7965349933385849,0.22632453759908674,-1.928960814410448
1757088687627753200,8.204753173828125,-0.08254618126153945,0.49712709935009475,-1.5220283652484417
1757088687637800200,8.21480029296875,0.5185863592252135,0.3995978684902191,-1.199318506127596
1757088687647846100,8.22484619140625,0.6029375440821051,0.1496428644567728,-1.2825351339966058
1757088687657893000,8.23489306640625,0.8915031415387987,0.10687164422273636,-1.4892717585504054
1757088687667939000,8.24493896484375,1.342354519665241,0.19335574945509432,-2.016144007822871
1757088687677985300,8.2549853515625,0.95077073854357,0.32493221134543415,-2.223545818287134
1757088687688032500,8.265032470703124,0.98587010897547,0.2893383353948593,-1.8236375686734914
1757088687698078500,8.275078369140624,0.9539338787496089,0.2097527575045824,-1.6113175910294055
1757088687708124400,8.28512451171875,0.8125567383348942,-0.027820319339632988,-1.9184686464905738
1757088687718171400,8.29517138671875,0.6326113823339343,0.14144085330069064,-2.256338080820441
1757088687728217300,8.30521728515625,0.2521498837292194,0.7928443221271038,-2.4786522137343883
1757088687738264300,8.315264404296874,0.22014818705171346,1.0324497815817595,-2.2280133190900084
1757088687748310300,8.325310302734374,0.35303339345306156,0.9167512723028659,-1.592088282163441
1757088687758356200,8.335356201171875,0.1892220106512308,1.221892156985402,-1.2989341878727079
1757088687768403200,8.3454033203125,0.22557459601461885,1.551323433315754,-0.8736497972011565
1757088687778449400,8.355449462890626,-0.10036913046091794,1.7226906383246183,-0.09343933119773865
1757088687788496100,8.36549609375,0.23580416747555136,1.6001497158050537,0.202071555352211
1757088687798542300,8.375542236328124,1.224452947384119,1.559763929402828,0.5648825387150049
1757088687808588300,8.38558837890625,1.554368792361021,1.4529782098978756,0.6302186419785022
1757088687818635300,8.39563525390625,1.2542187017031012,1.237131227171421,0.04468173003047705
1757088687828681200,8.40568115234375,0.899900675266981,0.9207605079442263,-0.45335897703319783
1757088687838728200,8.415728271484374,1.6300155694976448,0.7563502824664116,-0.8852595709741115
1757088687848774100,8.425774169921874,1.6791420039772986,0.6812497410356998,-1.3381143978774548
1757088687858820000,8.435820068359375,1.0136407439544797,0.4281020784407854,-1.2827797564074397
1757088687868867300,8.445867431640625,0.13180413316637277,0.320995456418395,-1.0552899744212627
1757088687878913300,8.455913330078126,-0.2426141397513449,0.419687885838747,-0.682931702773273
1757088687888960300,8.465960205078124,-0.22757424539923665,0.6654431000947952,-0.3429293480679393
1757088687899006500,8.47600634765625,-0.3429237951099872,1.0517489408135414,-0.12846885126382113
1757088687909052400,8.486052490234375,-0.42293665850162504,1.3525877443879841,-0.0909405001193285
1757088687919099400,8.496099365234375,0.14679215120077133,1.5616864218980073,0.08682020531892776
1757088687929145300,8.506145263671876,0.6043862815856933,1.651007796382904,0.2173725848585367
1757088687939191300,8.51619140625,0.4397987998448312,1.4254308622807264,0.07335457454621791
1757088687949238300,8.52623828125,0.06924801601022482,1.0154407791137694,-0.02881225298643112
1757088687959284200,8.5362841796875,0.03860299463868141,0.5063572845101356,0.08467837098464369
1757088687969331200,8.546331298828125,0.08720584363564848,0.09255436505675316,0.14386121231541038
1757088687979377200,8.556377197265626,0.06162862704768777,-0.10183540362119674,0.13283479138836263
1757088687989423400,8.56642333984375,0.1322175362728536,-0.1436509305655956,0.14131722692102194
1757088687999470300,8.57647021484375,0.11054010360240936,-0.029169395861029623,0.04133022764548659
1757088688009516300,8.586516357421875,0.2723544673681259,0.08687865750789642,0.02523220254257321
1757088688019563300,8.596563232421875,0.3554128359355032,0.244321382060647,-0.17478709645494817
1757088688029609200,8.606609130859376,0.20904139436483382,0.3240893307805061,-0.2823530065521598
1757088688039655200,8.6166552734375,0.2153917863048613,0.3230272545069456,-0.24396423918604848
1757088688049702100,8.6267021484375,0.09298924934267998,0.23470775054097173,-0.3413910325847566
1757088688059748000,8.636748046875,0.01905789782181382,0.0809627114623785,-0.312497165729478
1757088688069795300,8.64679541015625,-0.09191840524077415,-0.062112465041875835,-0.2081487563740462
1757088688079841300,8.65684130859375,-0.36791561302542686,-0.19457564663887023,-0.1623216557007283
1757088688089887500,8.666887451171876,-0.6193124864302575,-0.23780688560009,-0.06426693966202437
1757088688099934500,8.6769345703125,-0.6525557076014578,-0.22842589379251002,0.014350012391805647
1757088688109980400,8.68698046875,-0.683368048363924,-0.3256453280508518,0.08163805344067514
1757088688120027400,8.69702734375,-0.6485610850073397,-0.3365133435457945,0.06858776200320571
1757088688130073300,8.7070732421875,-0.5728337899804115,-0.22226327950954436,-0.013325016725622117
1757088688140119300,8.717119384765626,-0.5288379963874816,-0.11047405262887477,-0.09507456771675497
1757088688150166300,8.727166259765625,-0.38341245736479757,-0.04976034846901893,0.014964573226729406
1757088688160212200,8.737212158203125,-0.25268895904198285,-0.04153787904679775,0.0934551224219147
1757088688170258200,8.747258056640625,-0.3006745529234409,-0.08285013264417648,0.15891917204717174
1757088688180305200,8.75730517578125,-0.3415780795894563,-0.1342716923236847,0.1501928082234226
1757088688190351400,8.767351318359376,-0.28850246909260746,-0.16627601934969424,0.20296967323571444
1757088688200398000,8.777398193359375,-0.6502316485680639,-0.32935470396280286,-0.03259378081914037
1757088688210444300,8.7874443359375,-0.6684872900962829,-0.4147597817867994,-0.2599903315639123
1757088688220490200,8.797490234375,-0.6937491571247577,-0.5695481924384832,-0.4793658172100782
1757088688230537200,8.807537109375,-0.7496050459899007,-0.6864940714299679,-0.6819684106990694
1757088688240583200,8.817583251953126,-0.599194558161497,-0.7535884165376424,-0.9432877623770386
1757088688250630400,8.82763037109375,-0.3747511581338942,-0.787040019762516,-1.1353686695907264
1757088688260676400,8.83767626953125,-0.2213981871128082,-0.7432616683125496,-1.274004329277575
1757088688270722300,8.847722412109375,-0.11039148891195655,-0.7390145322620868,-1.3639508499234914
1757088688280769300,8.857769287109376,-0.13371069744005798,-0.6388584600299596,-1.4358422200493515
1757088688290815200,8.867815185546876,-0.18461437072530387,-0.541976294901967,-1.4821473134979606
1757088688300862200,8.8778623046875,-0.3123345955789089,-0.4012438821315765,-1.4394640638083218
1757088688310908400,8.887908447265625,-0.5798842930138111,-0.323196181333065,-1.2586347645796834
1757088688320954400,8.897954345703125,-0.9512113219179212,-0.3775684075117111,-1.279514178740233
1757088688331001300,8.90800146484375,-1.0411001210272313,-0.519232548174262,-1.3610843545764684
1757088688341047300,8.91804736328125,-1.0447416923999786,-0.47004035498201846,-1.2496955251902342
1757088688351094300,8.92809423828125,-0.8163363299388438,-0.6031845045804977,-1.295760380142182
1757088688361140200,8.93814013671875,-0.4187014320846647,-0.7813929537862538,-1.2078436117582023
1757088688371186200,8.948186279296875,0.15916881769299507,-0.9634767831206321,-1.0156532528206705
1757088688381233200,8.958233154296876,0.9864742123484611,-1.1069652166008948,-0.9179441353492438
1757088688391279000,8.968279052734376,1.4059855725765227,-0.8942354891121387,-1.166107287529856
1757088688401325300,8.9783251953125,1.5303776759207248,-0.46397944750785824,-1.2852844327047466
1757088688411372300,8.988372314453125,1.4603953542865813,-0.1582563790231943,-1.512075272641331
1757088688421418200,8.998418212890625,1.1769734033286572,-0.015609072542190551,-1.7003206933453678
1757088688431465500,9.008465576171876,0.6521908198118209,-0.06736497874259949,-1.7967200433924793
1757088688441512000,9.018511962890624,0.07152787057571112,-0.2213075862199068,-1.8749780259408055
1757088688451558000,9.028557861328125,-0.36483642477579414,-0.35917876434028145,-1.986561354985833
1757088688461604900,9.03860498046875,-0.4341676620900631,-0.45776539529860016,-2.040457926476747
1757088688471650800,9.04865087890625,-0.9077264004565775,-0.6189315242886543,-2.121377967841178
1757088688481697800,9.05869775390625,-0.9922399362683295,-0.7519394802868365,-2.207637762798369
1757088688491743700,9.06874365234375,-0.7250422671414911,-0.9286591522395611,-2.118123934481293
1757088688501789700,9.078789794921875,-0.7549462608873844,-1.0648749643683433,-1.7822059264801442
1757088688511836700,9.088836669921875,-0.716827104242891,-1.1562433345109224,-1.6389948486365378
1757088688521883000,9.0988828125,-0.5680908332370221,-1.1892355035305022,-1.4527147366560995
1757088688531928800,9.1089287109375,-0.5098141469657421,-1.210571721547842,-1.0797438860677182
1757088688541975800,9.118975830078124,-0.4985772981584072,-1.191882218647003,-0.875776872357726
1757088688552021800,9.129021728515625,-0.7066844804130494,-1.2667208942711352,-0.5480678897753357
1757088688562068700,9.13906884765625,-1.1474969873450696,-1.3409183493822812,-0.3958526906125247
1757088688572114700,9.14911474609375,-1.1979587620817125,-1.3185288229197263,-0.3966897259585559
1757088688582160600,9.15916064453125,-0.9035609513401984,-1.232336394110322,-0.28884119952768084
1757088688592207600,9.16920751953125,-0.3917747736491263,-1.1373130085915326,-0.058373132383078334
1757088688602253600,9.179253662109375,0.2537421213567257,-1.163258181709051,0.32406390407830477
1757088688612300800,9.18930078125,0.9545582942582667,-1.235057343506813,0.7418436182081699
1757088688622346800,9.1993466796875,1.3711737869143485,-0.9930161813378333,1.013758378984779
1757088688632393000,9.20939306640625,1.1515385908860714,-0.8472755850166082,1.1922884613603353
1757088688642440000,9.21943994140625,1.2405039184749125,-0.7664882301211356,1.1638536633841692
1757088688652486000,9.22948583984375,0.725318088408187,-0.7012573407977819,1.1066237096868454
1757088688662532900,9.239532958984375,-0.25083354043364525,-0.8165899393737316,0.9078148093923926
1757088688672578800,9.249578857421875,-0.8423346214830875,-0.8584645030289888,0.5808975617095827
1757088688682624800,9.259624755859376,-0.9134744425892829,-0.9460276356697082,0.49176528005599973
1757088688692671700,9.269671630859374,-0.7536509603798389,-1.0486100582659243,0.4836326808743179
1757088688702717700,9.2797177734375,-0.3816740892648697,-1.1059078165024518,0.5481127518303692
1757088688712764700,9.2897646484375,0.0648888709526509,-1.1981254969507455,0.48101475346088407
1757088688722810600,9.299810546875,-0.1417652629494667,-1.2567618103146552,0.434820573040843
1757088688732856800,9.30985693359375,-0.38253801261782644,-1.2921136942029,0.44795711798965926
1757088688742903800,9.31990380859375,-0.47123000315800306,-1.2582862434029578,0.6368535499483347
1757088688752949800,9.32994970703125,-0.5261001689214259,-1.1089128435373306,0.8705692207120358
1757088688762995700,9.33999560546875,-0.21626725396513938,-0.9655103347748517,0.7546244815871119
1757088688773042700,9.350042724609375,0.000754033237695694,-0.7538806774824858,0.9261331408932805
1757088688783088600,9.360088623046876,0.16669636365361512,-0.46339843274950976,1.1370881137944757
1757088688793135900,9.370135986328124,0.13236154785342513,-0.1765565903455019,1.2910866892427206
1757088688803181800,9.380181884765625,-0.02183196564503014,-0.02000233906507492,1.4563928406469524
1757088688813227800,9.390227783203125,-0.2123918738365173,0.08251052542626858,1.4540275728203356
1757088688823274800,9.400274658203125,-0.3765793964743614,0.2724292861700058,1.4116370224669574
1757088688833321000,9.410321044921876,-0.526890369451046,0.4609498705536127,1.27916580369398
1757088688843368000,9.420367919921874,-0.6451800642669201,0.6073813717484474,1.0611375314056872
1757088688853414000,9.430413818359375,-0.783986404345557,0.5456821636825799,0.7749579523026943
1757088688863459800,9.4404599609375,-0.8466120796065777,0.502766566541791,0.4672137532539665
1757088688873506800,9.4505068359375,-0.834545282781124,0.32265316049754617,0.23800182365030048
1757088688883552800,9.460552734375,-0.7895535369534045,0.11729659212529658,0.02759776263013482
1757088688893599700,9.470599853515624,-0.7984884654939174,-0.021994974187016486,-0.1871352675050497
1757088688903645700,9.480645751953125,-0.7625403692781925,-0.20538053376972673,-0.3093684392496943
1757088688913691600,9.490691650390625,-0.71146250846982,-0.310849909979105,-0.2957425033487379
1757088688923738600,9.500738525390625,-0.6751368111133575,-0.31376141351163384,-0.21108795163109897
1757088688933784800,9.510784912109376,-0.6128758775115013,-0.24990064349770544,-0.19847513829544186
1757088688943830800,9.520830810546874,-0.4094271885871887,-0.1615589276999235,0.057608139359951016
1757088688953877800,9.530877685546875,0.05062308451188728,-0.04035889839529991,0.316245339281857
1757088688963923700,9.540923828125,0.6776923408150672,-0.03343056043684482,0.6606283932894468
1757088688973971000,9.550970947265625,1.1845359475374222,-0.1013496659308672,0.9632849138103425
1757088688984017000,9.561016845703126,1.2434487397551537,-0.09470599013268947,1.2090545949831604
1757088688994062800,9.571062744140624,0.6666437080562114,-0.06183014096915722,1.2858216083213687
1757088689004109800,9.58110986328125,-0.063604164904356,0.005768646529316902,1.369188166055083
1757088689014155800,9.59115576171875,-0.6333434960007667,0.06019114159047603,1.4161622448064386
1757088689024202800,9.60120263671875,-0.6856991216599941,0.18499825547635554,1.2918131038211285
1757088689034248700,9.611248779296876,-0.5976794774234294,0.19007891974151134,1.3536300930477678
1757088689044295000,9.621294921875,-0.5078349558472633,0.1884334906220436,1.507255889660865
1757088689054342000,9.631341796875,-0.47898061728477476,0.0800473501831293,1.5152487881109118
1757088689064387800,9.641387939453125,-0.48780455973148346,-0.18299685252606868,1.2042644380971788
1757088689074434800,9.651434814453125,-0.5103390476226807,-0.18778993202149866,1.149522501823306
1757088689084480800,9.661480712890626,-0.534374587726593,-0.1676636743158102,1.1953808744177221
1757088689094526700,9.671526611328124,-0.4709750054836273,-0.1891863548159599,1.0486644188016652
1757088689104573700,9.68157373046875,-0.39727731658816334,-0.1694230852037668,0.9632225160986184
1757088689114619600,9.69161962890625,-0.29082773370239884,-0.20425123747885227,0.8520200030647218
1757088689124665900,9.701665771484375,-0.23885199247254058,-0.2621516377836466,0.6602883476801216
1757088689134712600,9.711712646484376,-0.13926701639294622,-0.23486323336362838,0.47560383432805536
1757088689144758800,9.7217587890625,-0.06215339984046295,-0.22480419616401195,0.2605634918093681
1757088689154806000,9.731805908203125,-0.09450902452217415,-0.16671616433262823,0.05399579408168793
1757088689164851700,9.741851806640625,-0.14107085094451904,-0.10039397264122962,-0.05081745630651712
1757088689174897700,9.751897705078125,-0.16358195796012878,-0.051502808222174644,-0.07701455835849046
1757088689184945000,9.76194482421875,-0.17889177356110886,-0.006137479841709137,-0.018510785333067176
1757088689194990800,9.771990966796874,-0.14945174406515432,0.012054010409116744,0.051326136481016874
1757088689205037800,9.782037841796875,-0.08590716386092827,0.020292261922359466,0.1316606330424547
1757088689215083800,9.792083740234375,0.019779051703214645,0.09966858097612857,0.24322628030031918
1757088689225129700,9.802129638671875,0.12127192549705505,0.18442425498068332,0.2712994053572416
1757088689235176700,9.8121767578125,0.18769233513223008,0.1813748042821884,0.2504588619023561
1757088689245223000,9.822222900390624,0.1849275100613944,0.14290917228758335,0.20245880110412834
1757088689255270000,9.832269775390625,0.14401563569214193,0.058897010126709934,0.14065321005433798
1757088689265315800,9.84231591796875,0.13688097977293653,-0.039458734685182566,0.07199760697931051
1757088689275361800,9.85236181640625,0.10309797090291976,-0.17377075901925562,-0.05894114152938127
1757088689285408800,9.86240869140625,0.07943064305689185,-0.24990415062904356,-0.14253770862668752
1757088689295454700,9.872454833984374,0.08840656119491905,-0.23096914853453634,-0.1772857814028859
1757088689305500700,9.882500732421875,0.04827566286921501,-0.14845920763015746,-0.28151246407479047
1757088689315547600,9.892547607421875,-0.009659772216342389,-0.04921382050216198,-0.40143151365816593
1757088689325593600,9.902593505859375,-0.058441722373571245,0.036219314372539516,-0.5108168942674994
1757088689335640600,9.912640625,-0.06389291871786117,0.16210428662300108,-0.6113678110361099
1757088689345686800,9.922686767578124,-0.012647884649038314,0.25613106231987476,-0.6930246422424912
1757088689355732700,9.932732666015625,0.07288407095763832,0.3116226479172706,-0.7476289236113428
1757088689365780000,9.942780029296875,0.13815638826992363,0.3393868531554937,-0.7289978728994727
1757088689375826000,9.952825927734375,0.10717789716031402,0.31633857052326203,-0.5666083395943046
1757088689385873000,9.962872802734376,0.07081369442436844,0.20514672501385212,-0.38049861574470994
1757088689395918800,9.9729189453125,0.0453133059322834,0.08825754464566707,-0.19205986442565917
1757088689405964800,9.98296484375,0.0971884545981884,0.05040741420090198,-0.01649754581451416
1757088689416011800,9.99301171875,0.18391044197333975,0.00404722956418991,0.15372750342190264
1757088689426057700,10.0030576171875,0.21088495813859626,-0.0199117381721735,0.33256869757324453
1757088689436104000,10.01310400390625,0.1882323785593733,-0.004480944806337356,0.423386155834794
1757088689446150100,10.023150146484374,0.08408113574385642,-0.0343120194464922,0.4500143427804112
1757088689456196000,10.033196044921874,-0.06748769180681556,-0.04168985473811626,0.4417924578800797
1757088689466243000,10.0432431640625,-0.16938388570453972,-0.008186229065060615,0.4325888684660196
1757088689476289000,10.0532890625,-0.19063249850366262,-0.0010234978288412094,0.41392450000643727
1757088689486335000,10.0633349609375,-0.17205873093698174,-0.021189503023028373,0.34601240877509115
1757088689496382000,10.0733818359375,-0.139895961946249,-0.10550327847898006,0.2556993929043412
1757088689506428000,10.083427978515624,-0.1431775043675676,-0.19443886851668357,0.19275866034477948
1757088689516475000,10.093474853515625,-0.19042557775471358,-0.24693770203888415,0.17848083640635012
1757088689526521000,10.10352099609375,-0.19555998150110243,-0.21718261524438856,0.19334844293147324
1757088689536567000,10.113567138671876,-0.1557119552373886,-0.16053133821785448,0.24591274290531873
1757088689546614300,10.1236142578125,-0.052992754518985746,-0.1641869381159544,0.24528964257091282
1757088689556660200,10.13366015625,0.048349385692551726,-0.2002314804434776,0.19824264471381903
1757088689566707200,10.143707275390625,0.12412081212215124,-0.18656535866260526,0.10457856484949588
1757088689576753200,10.153753173828125,0.12303593949489294,-0.09867898541688919,0.004546703518927097
1757088689586799000,10.163799072265626,0.21645313192605972,-0.02453063014447689,-0.01628361080288887
1757088689596846000,10.17384619140625,0.19969722743630408,0.0667804568529129,0.03661094403862953
1757088689606892000,10.18389208984375,-0.029110359150171277,0.1918798316836357,0.04425122965872288
1757088689616938200,10.193938232421875,-0.23657365401070563,0.2383779634863138,0.0033951953962445256
1757088689626985000,10.20398486328125,-0.349291613108851,0.24973522380292415,-0.047099897088110444
1757088689637031200,10.21403125,-0.2641606395184994,0.20524550921320914,-0.12620587476789952
1757088689647078100,10.224078125,-0.0684229633629322,0.12324001069962978,-0.22638708144128322
1757088689657124000,10.2341240234375,0.103675441997312,0.02349485735595226,-0.27747604816555976
1757088689667170000,10.244170166015625,0.19996618057079613,-0.046638417056202884,-0.3073220281139016
1757088689677217000,10.254217041015625,0.2024761175651103,-0.0684749858111143,-0.30744916162490843
1757088689687263000,10.264262939453126,0.15255561009831725,-0.04485211816132068,-0.248137140956521
1757088689697310000,10.27431005859375,0.07243051850385963,-0.01049567505121231,-0.2073635242804885
1757088689707356000,10.28435595703125,0.023633352511189875,0.006678162589669227,-0.21787556594461202
1757088689717401900,10.29440185546875,-0.019487886736914515,0.015639467680454253,-0.18987813647240398
1757088689727449000,10.304448974609375,-0.022768296647071837,-0.0053664954692125314,-0.1447317115396261
1757088689737495300,10.314495361328126,-0.016847126437164843,-0.017031214299798012,-0.1139084109917283
1757088689747542000,10.3245419921875,0.010799699499085545,-0.02346738482713699,-0.06728694507032633
1757088689757588200,10.334588134765625,0.0400151995241642,0.0060369420766830445,-0.050153147178888316
1757088689767634200,10.34463427734375,0.06824519564323127,0.03966682447791099,-0.0778930947586894
1757088689777681200,10.35468115234375,0.08199205451011657,0.03899579334855079,-0.12097498837709426
1757088689787727000,10.36472705078125,0.06648461571149528,0.032383097210526464,-0.18328414503484963
1757088689797774000,10.374774169921874,0.030489757744595405,-0.0012543839752674102,-0.26386691726893186
1757088689807820000,10.384820068359375,-0.031094226443767546,-0.02050678145587444,-0.3129509739115834
1757088689817866000,10.394865966796875,-0.1412906311750412,0.00891103620827198,-0.3009916560485959
1757088689827913000,10.404912841796875,-0.20031455561704933,0.0299678527623415,-0.2868669768452644
1757088689837959200,10.414959228515626,-0.16049918951392173,0.04392915809750557,-0.26289076571315523
1757088689848005000,10.425005126953126,-0.10100180234126746,0.02540799750089645,-0.18995967727601526
1757088689858052000,10.435052001953125,-0.07706453498005866,0.0014069441884756089,-0.1375979141369462
1757088689868098000,10.44509814453125,-0.03577748888917267,-0.02504559392929077,-0.0812801068484783
1757088689878145000,10.45514501953125,0.02115377412252128,-0.03826221837699413,-0.04358165983408689
1757088689888191000,10.46519091796875,0.06543729861564934,-0.027539748832583425,-0.0009159458011388778
1757088689898237000,10.47523681640625,0.12846497880630195,-0.003234744137525558,0.027868834656476972
1757088689908284200,10.4852841796875,0.12143442258238792,-0.015683891344070434,0.04092003940939903
1757088689918330000,10.495330078125,0.057760041986033316,-0.007836684975028037,0.0946589361205697
1757088689928377000,10.505377197265625,0.0070446578145027154,-0.0416401703774929,0.15483254205435515
1757088689938423000,10.515423095703126,-0.00010411796160042286,-0.06492109272181987,0.2395335632622242
1757088689948469200,10.52546923828125,0.049330067292973394,-0.06372691450119018,0.31379969969540833
1757088689958516200,10.53551611328125,0.08569792329072952,-0.07950608291327953,0.3227899386197328
1757088689968562200,10.545562255859375,0.08287110236696899,-0.05973989069163799,0.29202538252174853
1757088689978608000,10.555608154296875,0.0716330845158547,-0.024763854378461837,0.2153451706841588
1757088689988655000,10.565655029296876,0.049985973918437954,0.025793781948089598,0.1332072779625654
1757088689998701000,10.575701171875,0.0007985299665480851,0.03944762876927852,0.051123745776712894
1757088690008748000,10.585748046875,-0.07108019987344741,0.009041969111561774,0.00007598784565925598
1757088690018794000,10.5957939453125,-0.14201536525301633,-0.02849719568789005,-0.04087093957066536
1757088690028840200,10.605840087890625,-0.16069909600019455,-0.039943887853622434,-0.08685264628380536
1757088690038887000,10.615886962890626,-0.1590063206076622,-0.07876140202581881,-0.09560352349430322
1757088690048933000,10.62593310546875,-0.10791910744905471,-0.10445347716510295,-0.08809621660411357
1757088690058980000,10.63597998046875,-0.06212539758868515,-0.0890975026011467,-0.07247106970995665
1757088690069026000,10.646026123046875,-0.029644612157344815,-0.06953940017223358,-0.04535071533322334
1757088690079072000,10.656072021484375,-0.005848726028203964,-0.06541676728427409,-0.03711421738564968
1757088690089119000,10.666118896484376,0.0065676879525184625,-0.07314648475348949,-0.055518473604321474
1757088690099165000,10.6761650390625,0.008460369831323623,-0.03494447213113308,-0.07112053188383578
1757088690109212200,10.686212158203125,0.0064413581591099495,-0.003743278181552887,-0.0791413412541151
1757088690119258000,10.696258056640625,0.022370785229466856,0.02864274163842201,-0.11122487099617719
1757088690129304000,10.706303955078125,0.015918942208960653,0.04333703742325306,-0.07992752319574356
1757088690139351000,10.71635107421875,-0.00297525295112282,0.044563948869705196,-0.04971650932729244
1757088690149397200,10.726397216796874,0.003341090588830411,0.0633995822429657,-0.052500879348814485
1757088690159443200,10.736443115234374,0.020277064353227615,0.07347557057738303,-0.06585603548437356
1757088690169490200,10.746490234375,0.017614055689051746,0.05355857170820236,-0.06564180821180343
1757088690179536100,10.7565361328125,-0.015524828324839472,0.04446691823601723,-0.09929857861995696
1757088690189583000,10.7665830078125,-0.03295410203151405,0.030150223591923712,-0.0808297327324748
1757088690199629000,10.776629150390624,-0.0063970440933480855,0.04063946890234947,-0.061198272806406016
1757088690209675000,10.786675048828124,0.012956512206792831,0.04958265381455421,-0.0746755940169096
1757088690219722000,10.796721923828125,0.0395440383484587,0.03582710018455982,-0.0778410723105073
1757088690229768000,10.806767822265625,0.040727147185802455,0.04044891476631164,-0.0827881733238697
1757088690239815000,10.81681494140625,-0.022719196808338164,0.01418868435025215,-0.12251432677358388
1757088690249861000,10.826861083984374,-0.09854695653505623,-0.028898762226104734,-0.1492754924491048
1757088690259907000,10.836906982421874,-0.1562532225072384,-0.036271336820721624,-0.163339089114964
1757088690269954000,10.8469541015625,-0.18342881420254706,0.006001286241412163,-0.16596972987949848
1757088690280000000,10.857,-0.16387538794875145,-0.006668810239434242,-0.1335644208371639
1757088690290046000,10.8670458984375,-0.10551558997128158,-0.0028086276799440383,-0.0812476658836007
1757088690300093200,10.87709326171875,-0.04878185882568359,0.017938976794481275,0.004412555745244026
1757088690310139100,10.88713916015625,-0.02612816500160843,-0.010472294175624846,0.020477555361390114
1757088690320186000,10.89718603515625,-0.0012367752533406018,-0.010243746116757392,0.021970424267649648
1757088690330232000,10.907232177734375,-0.023223054677248,-0.03329144422709942,-0.026352584874629974
1757088690340278300,10.9172783203125,-0.05722356048915535,-0.07900573217570782,-0.10137392358928918
1757088690350325000,10.927324951171874,-0.08310735880825668,-0.05851297924518585,-0.10409984142184257
1757088690360371200,10.93737109375,-0.11017419289946555,-0.07371405550837516,-0.10662205337584019
1757088690370418200,10.947418212890625,-0.12066519177556037,-0.0474830511868,-0.08046557559520005
1757088690380464000,10.957464111328125,-0.1306944183588028,-0.026518589091300962,-0.07353256146162748
1757088690390510000,10.967510009765626,-0.13260112876296043,-0.03879354877471924,-0.09409750284552573
1757088690400557000,10.97755712890625,-0.12488770484142005,-0.0021516250759363175,-0.0545174798682332
1757088690410603000,10.98760302734375,-0.09797047182135284,0.008213701593875885,-0.07223346156179905
1757088690420650000,10.99764990234375,-0.08915836594291031,0.0056026423126459115,-0.0729299193933606
1757088690430696000,11.007696044921875,-0.06153389796894043,0.028340543821454046,-0.028879180742800235
1757088690440743000,11.017742919921876,-0.03773556415438652,0.03998772699534893,0.0100385789334774
1757088690450790100,11.0277900390625,-0.018742109870910642,0.041673488125205035,0.053824236907064914
1757088690460836000,11.037836181640625,-0.0225040927529335,0.04977963769137859,0.0873585499793291
1757088690470882300,11.04788232421875,-0.042570729225873946,0.028229484662413595,0.09102876292467117
1757088690480929000,11.057928955078125,-0.0662133975546807,-0.02318213814496994,0.06448796200156212
1757088690490975200,11.067975341796876,-0.063682490837574,-0.046744215518236154,0.025385201147198676
1757088690501022200,11.078022216796874,-0.06229483587145805,-0.061006549626588816,0.009564823941886425
1757088690511068200,11.088068115234375,-0.04900156599096953,-0.06009761808812618,-0.013356325179338454
1757088690521114000,11.098114013671875,-0.000990180081129074,-0.01585223364830017,-0.04060556663274765
1757088690531161000,11.1081611328125,-0.01290850834660232,0.021621464699506758,-0.0569619504109025
1757088690541207000,11.11820703125,-0.035728315985202784,0.04729658870398998,-0.046831601540744304
1757088690551254000,11.12825390625,-0.07476970204114913,0.05203355409801006,-0.03470014198124408
1757088690561300000,11.138300048828125,-0.08801379901766776,-0.0033908114820718764,-0.04213175328671932
1757088690571346000,11.148345947265625,-0.09738010471276938,-0.04356967713534832,-0.020521394503116606
1757088690581393000,11.158392822265625,-0.10375731159448623,-0.06784954738914967,-0.00313011471927166
1757088690591439000,11.168439208984376,-0.1038799881260842,-0.06441840389668942,-0.006528232724964618
1757088690601485000,11.178485107421874,-0.09719546886086464,-0.02817570864856243,-0.007111877831816673
1757088690611532000,11.188531982421875,-0.0913233619570732,0.016667057162523268,-0.014346797521412371
1757088690621578000,11.198577880859375,-0.05371526010725647,0.033252865782380105,-0.07132073063105344
1757088690631625200,11.208625244140626,-0.04959434425234795,0.044641105759143825,-0.1122436926499009
1757088690641671200,11.218671142578126,-0.02894552397727966,0.03605214111208915,-0.13944997174441814
1757088690651717000,11.228717041015624,0.012746011261269449,0.012857143485546112,-0.1964399792060256
1757088690661764000,11.23876416015625,-0.021506825343891978,0.03622399054765701,-0.20923048719614742
1757088690671810000,11.24881005859375,-0.019775617637112736,0.05157528893649578,-0.21934359267055986
1757088690681857000,11.25885693359375,-0.001737125990912318,0.05672492678463459,-0.26476065123826265
1757088690691903200,11.2689033203125,0.00886836611032486,0.059143093842267985,-0.2829264225259423
1757088690701949200,11.27894921875,0.0019897125124931333,0.04209492840766906,-0.2988254179254174
1757088690711996200,11.28899609375,-0.011480009913444519,0.02276595855951309,-0.30309973424375053
1757088690722042000,11.2990419921875,-0.07936163294129073,-0.004137245935201645,-0.26666502355486155
1757088690732088000,11.309088134765625,-0.14436872344613075,-0.023847324055433272,-0.2326876428902149
1757088690742135000,11.319135009765626,-0.18167524853348732,-0.02745733124613762,-0.15969254930615423
1757088690752181000,11.329180908203124,-0.19492522726152092,-0.031844168028235434,-0.06904109526127576
1757088690762228000,11.33922802734375,-0.1364144765060395,-0.03631459144055843,0.020132395185530186
1757088690772274000,11.34927392578125,-0.07157010228224098,-0.05105623349845409,0.12445961562246083
1757088690782320000,11.359320068359375,-0.04253565791249275,-0.05586977126002311,0.20110358710289
1757088690792367000,11.3693671875,0.006426233655214309,-0.041975101420283316,0.24648352853059768
1757088690802413000,11.3794130859375,0.016765329905226826,-0.012502338698506355,0.22913901049792765
1757088690812460300,11.389460205078125,-0.007249277008511126,-0.016350830820202826,0.1873486179947853
1757088690822506200,11.39950634765625,-0.05300554093532264,0.015398060140013693,0.13829320292472838
1757088690832552000,11.409552001953125,-0.08608721486926078,0.000029226094484329223,0.053717853923141955
1757088690842599200,11.41959912109375,-0.12410451857447624,-0.02431318800151348,-0.026053601928055285
1757088690852645000,11.42964501953125,-0.12491937862131744,-0.04136544508934021,-0.03022825726419687
1757088690862692000,11.439692138671875,-0.11272972260117531,-0.056036944520473475,-0.025498013871908188
1757088690872738000,11.449738037109375,-0.1121417666453868,-0.04306289665699005,-0.00009849193841218948
1757088690882784300,11.4597841796875,-0.10026775244567543,-0.06476794798672199,0.01705050352215767
1757088690892831000,11.4698310546875,-0.05020224701762199,-0.07346095753014087,0.043912206962704654
1757088690902877200,11.479877197265624,-0.02712769743297249,-0.0651771133095026,0.09674421796202659
1757088690912923100,11.489923095703125,-0.02727839448265731,-0.030194647255539893,0.18199673557281493
1757088690922970000,11.49997021484375,-0.007857070175930857,-0.0027022446960210797,0.2672355169191956
1757088690933016000,11.51001611328125,-0.0031564912695437666,0.01924772130548954,0.35679508407413957
1757088690943063000,11.52006298828125,-0.0038531682968139646,0.005102291575074196,0.40886341722458597
1757088690953109000,11.53010888671875,0.00954407341480255,-0.0335275910705328,0.40364743614196774
1757088690963155000,11.540155029296875,0.007672361258789897,-0.0683054744631052,0.30825404826700686
1757088690973202000,11.550201904296875,-0.04951137867663055,-0.03702537005841732,0.12960837668776512
1757088690983248000,11.560247802734375,-0.12109784757178275,-0.003942015624046325,-0.04480009571313858
1757088690993295000,11.570295166015624,-0.17119246949646622,-0.0029015666604042052,-0.20396423723101614
1757088691003341000,11.580341064453124,-0.16603347929809242,0.006219897428154945,-0.3275412248000502
1757088691013387000,11.590386962890625,-0.11109539939761161,0.0022650223225355146,-0.39741029531806704
1757088691023434200,11.600434326171875,-0.05410111761968583,-0.011987374913692474,-0.4342988872542977
1757088691033480200,11.610480224609375,0.0033890579164028165,-0.03695347386598587,-0.435607631765306
1757088691043526100,11.620526123046876,0.04056706125326454,-0.048159927535057066,-0.4000219391211867
1757088691053573000,11.630572998046874,0.038867271598055954,-0.02177344039082527,-0.3468403840318322
1757088691063619000,11.640619140625,0.01756488278508186,-0.02415185995995998,-0.32559418238550425
1757088691073666000,11.650666015625,-0.02309087966494262,0.003392565047740936,-0.2962149431660771
1757088691083712000,11.6607119140625,-0.028150501142069694,0.07117898407280444,-0.25405513282865283
1757088691093758200,11.67075830078125,-0.0542400511663407,0.09344751450419425,-0.21630290980041025
1757088691103805200,11.68080517578125,-0.04881225396394729,0.09826572844088077,-0.20216098720133305
1757088691113851100,11.69085107421875,-0.015955036435648797,0.06591594897806644,-0.16133973199129104
1757088691123898000,11.700898193359375,-0.019513605700060725,0.01185293487906456,-0.13508505453318356
1757088691133944000,11.710944091796875,-0.03529803480915725,-0.012713935622572899,-0.08354805178046226
1757088691143990000,11.720989990234376,-0.047566053295135496,-0.04361293175518512,-0.06071458094269037
1757088691154037000,11.731037109375,-0.03152447108719498,-0.039700142225623125,-0.06391980672478675
1757088691164083000,11.7410830078125,0.0007738704493269324,-0.045456513795256615,-0.07183131050169468
1757088691174130000,11.7511298828125,0.02204582759141922,-0.01132218900322914,-0.0868710587233305
1757088691184175900,11.76117578125,0.014865560698509216,0.05291501310765743,-0.0690919486656785
1757088691194222000,11.77122216796875,0.05911733834650367,0.1590051515638828,0.000020458266139030454
1757088691204269000,11.78126904296875,0.04510167247559875,0.11817980470061301,0.17520663704127074
1757088691214315300,11.791315185546875,-0.024517222673632204,0.06518705018162727,0.03949526730328798
1757088691224361200,11.801361328125,-0.09238017753362655,0.13833470397889613,-0.12930968600213527
1757088691234408200,11.811408203125,-0.08037994313836097,-0.4111246401548385,-0.6281169935241341
1757088691244454100,11.8214541015625,0.04603928211927414,-0.20727438469231127,-0.03863134395033121
1757088691254501000,11.831501220703124,-0.05038227975964546,0.17323825957775116,-0.056201195171475406
1757088691264547000,11.841547119140625,-0.29541860515661533,0.027158056038618088,-0.17260902176350354
1757088691274593000,11.851593017578125,-0.321512867888622,-0.1707359213680029,-0.10809066462367772
1757088691284640000,11.861639892578125,-0.13568630836196244,0.24195582197308538,0.0719914694994688
1757088691294686000,11.87168603515625,-0.026136384840682148,0.03633212709724903,0.03703676823526621
1757088691304733000,11.88173291015625,0.06179331609010696,-0.030346622946858404,0.13891542647629976
1757088691314779100,11.891779052734375,0.057532224579527974,0.0014496142864227294,0.2606222362592816
1757088691324825000,11.9018251953125,0.11175357104539871,0.22827567166686058,0.27096476657539603
1757088691334872000,11.9118720703125,0.004871368896029889,-0.5454138681352139,0.2714499197438359
1757088691344918000,11.92191796875,-0.19684936372451484,-0.16995149299204348,0.5570449769571423
1757088691354964000,11.9319638671875,-0.09702953770942986,-0.2400035188615322,0.15201456202417613
1757088691365011000,11.942010986328125,-0.09304423093292861,-0.12149053668379783,0.16637275772243737
1757088691375057000,11.952056884765625,0.011552490627765654,0.569619504109025,0.22374241215139626
1757088691385104100,11.962104248046876,-0.040298108118772505,-0.03741875329017639,0.22101211040467023
1757088691395150000,11.972150146484376,-0.06294007497243582,0.051767012116312974,0.1968032595604658
1757088691405196300,11.9821962890625,0.016979264916852116,-0.0760305157572031,-0.06825783592909575
1757088691415243300,11.9922431640625,0.009937018255144358,-0.2333148348778486,-0.2705152692422271
1757088691425289200,12.002289306640625,0.00011456629037857055,-0.07370178054869174,-0.3545721473276615
1757088691435336200,12.012336181640626,-0.062346127667278047,-0.28415537979900835,-0.45346156062483783
1757088691445381000,12.022381103515626,-0.001031096613407135,0.3589420329749584,-0.17299042229652403
1757088691455427000,12.032427001953126,0.12954765947647393,0.32366146075725555,-0.07400076349526644
1757088691465474300,12.042474365234375,0.08125796808190644,0.09898469036519526,-0.20664894627034663
1757088691475520300,12.052520263671875,0.03553432778306305,-0.2583645204603672,-0.5424021190986037
1757088691485566500,12.06256640625,0.02049914613869041,-0.23980945759415626,-0.5420487756162882
1757088691495613400,12.072613525390626,-0.023018472015857695,-0.009751578685641289,-0.32471418468058105
1757088691505659400,12.082659423828124,-0.09185176974534988,0.14830255576372145,-0.20928513999283313
1757088691515706400,12.092706298828125,-0.0736252081811428,0.1985159086972475,-0.31072073064148426
1757088691525752300,12.10275244140625,-0.03171268713567406,-0.25303718795776364,-0.47032677070796486
1757088691535798300,12.11279833984375,0.05541157916374504,-0.056223407003283495,-0.5894233979925513
1757088691545845200,12.12284521484375,0.1637022598715499,-0.08589958334267139,-0.7611135513454675
1757088691555891200,12.13289111328125,0.06760580176115036,-0.07295534609556198,-0.5904954111382364
1757088691565938200,12.142938232421875,-0.05065466696023941,0.07217793198227881,-0.5196218397527933
1757088691575984000,12.152984130859375,-0.09236264187693595,0.4390390675187111,-0.5027595522791147
1757088691586030300,12.1630302734375,-0.06635134472064673,0.4878419691324234,-0.6832914759963751
1757088691596077300,12.173077392578126,0.030917664300464092,0.42243104706704615,-0.7089961183562874
1757088691606123300,12.183123291015624,0.10060447358675301,0.2527776602387428,-0.8579486624613404
1757088691616170200,12.193170166015625,0.22016959516592322,-0.24251228681206702,-1.1399889498025177
1757088691626216200,12.20321630859375,0.14869878853969276,-0.6161334180027246,-1.0632114150702954
1757088691636262100,12.21326220703125,-0.07782678805682808,-0.8876707237690686,-1.392808695617318
1757088691646309400,12.223309326171876,-0.005154350555874407,-0.1697930875599384,-0.6488976234853268
1757088691656355300,12.233355224609374,-0.25899467159006745,0.6526338874042034,0.4331114310353994
1757088691666401300,12.2434013671875,-0.15881689898278564,1.1287275510758161,0.6258224528461694
1757088691676448300,12.2534482421875,0.06993457350227981,-0.12646657153069973,-0.03175678200572729
1757088691686494500,12.263494384765625,0.12701894471645356,-0.8148410498797893,-0.409782870157063
1757088691696541200,12.273541259765626,0.3143289842665195,-0.6825877116411924,-0.13044395072907208
1757088691706587400,12.28358740234375,0.5068073663651943,-0.1360661745250225,0.30721301478147506
1757088691716633300,12.29363330078125,0.3992413101375103,0.45372225738763805,0.7560843250066042
1757088691726680300,12.303680419921875,0.22698972350955007,0.5060644390434026,0.7733543164983391
1757088691736726300,12.313726318359375,0.23182722666859626,0.17863748827278614,1.0040566307902337
1757088691746773200,12.323773193359376,-0.2804828470324166,-0.17789572999477385,0.485763117031753
1757088691756819200,12.333819091796874,-0.6196271053373813,0.11013210732340813,-0.37199177642315623
1757088691766865200,12.343865234375,-0.597637391847372,0.3273176451772451,-0.6346636386886239
1757088691776912100,12.353912109375,-0.6184767662584781,0.5159077876657248,-0.8246595563217997
1757088691786958300,12.363958251953125,-0.42639001382589337,0.16989596341252325,-0.8088935396522283
1757088691797004300,12.37400439453125,-0.11865795273953117,-0.645344314917922,-0.7931006349757314
