time,seconds_elapsed,z,y,x
1757088098191555800,0.015555908203125,-1.0359649658203125,-0.065673828125,-0.0398712158203125
1757088098201602800,0.025602783203125,-1.0566253662109375,-0.0732269287109375,-0.0419921875
1757088098211648800,0.035648681640625,-0.992340087890625,-0.086029052734375,-0.016693115234375
1757088098221695700,0.04569580078125,-0.956787109375,-0.107330322265625,-0.0026702880859375
1757088098231741700,0.05574169921875,-0.9514617919921875,-0.1485443115234375,-0.0042877197265625
1757088098241789000,0.065788818359375,-0.9753875732421875,-0.1737060546875,-0.031890869140625
1757088098251836000,0.0758359375,-0.931793212890625,-0.114715576171875,-0.05633544921875
1757088098261881900,0.0858818359375,-0.877655029296875,-0.08111572265625,-0.021514892578125
1757088098271928800,0.0959287109375,-0.8784027099609375,-0.1014556884765625,0.008270263671875
1757088098281975800,0.105975830078125,-0.92974853515625,-0.124908447265625,0.0233001708984375
1757088098292021800,0.116021728515625,-0.9744873046875,-0.1380157470703125,0.0449066162109375
1757088098302068700,0.12606884765625,-0.9989471435546875,-0.14337158203125,0.082855224609375
1757088098312115700,0.13611572265625,-1.02972412109375,-0.1558685302734375,0.12115478515625
1757088098322161700,0.14616162109375,-1.02789306640625,-0.18304443359375,0.1567535400390625
1757088098332209000,0.156208984375,-0.9785003662109375,-0.2427978515625,0.2001800537109375
1757088098342255900,0.166255859375,-0.906982421875,-0.3002471923828125,0.254608154296875
1757088098352301800,0.1763017578125,-0.84039306640625,-0.314971923828125,0.2732696533203125
1757088098362348800,0.186348876953125,-0.7761077880859375,-0.3141326904296875,0.2579345703125
1757088098372395800,0.196395751953125,-0.737335205078125,-0.3203277587890625,0.1941070556640625
1757088098382441700,0.206441650390625,-0.7302703857421875,-0.34515380859375,0.096649169921875
1757088098392488700,0.21648876953125,-0.7388916015625,-0.3746337890625,0.0351715087890625
1757088098402534700,0.22653466796875,-0.7499237060546875,-0.3681488037109375,0.032379150390625
1757088098412581600,0.23658154296875,-0.768157958984375,-0.3330230712890625,0.0565185546875
1757088098422628900,0.24662890625,-0.80767822265625,-0.30419921875,0.1159820556640625
1757088098432674800,0.2566748046875,-0.8531646728515625,-0.26898193359375,0.1944732666015625
1757088098442721800,0.2667216796875,-0.8988189697265625,-0.2472381591796875,0.217315673828125
1757088098452768800,0.276768798828125,-0.9149169921875,-0.2513427734375,0.2118072509765625
1757088098462814200,0.286814208984375,-0.9290313720703125,-0.257354736328125,0.214141845703125
1757088098472861000,0.29686083984375,-0.92919921875,-0.28802490234375,0.264739990234375
1757088098482908200,0.306908203125,-0.8995513916015625,-0.293731689453125,0.3370208740234375
1757088098492954400,0.316954345703125,-0.8527679443359375,-0.269073486328125,0.3548583984375
1757088098503001000,0.3270009765625,-0.7984161376953125,-0.26544189453125,0.31292724609375
1757088098513048000,0.337048095703125,-0.7654266357421875,-0.2585296630859375,0.27191162109375
1757088098523094300,0.34709423828125,-0.731201171875,-0.225341796875,0.239776611328125
1757088098533141200,0.357141357421875,-0.799560546875,-0.1890411376953125,0.0924224853515625
1757088098543188000,0.36718798828125,-0.8289642333984375,-0.211181640625,-0.0405731201171875
1757088098553234200,0.377234130859375,-0.8397369384765625,-0.141632080078125,0.1139984130859375
1757088098563281200,0.38728125,-0.8155670166015625,-0.0813751220703125,0.217254638671875
1757088098573328400,0.397328369140625,-0.788299560546875,-0.0897674560546875,0.2754669189453125
1757088098583374300,0.407374267578125,-0.7261962890625,-0.066009521484375,0.281036376953125
1757088098593421300,0.41742138671875,-0.7245025634765625,-0.08099365234375,0.245330810546875
1757088098603468300,0.42746826171875,-0.7427978515625,-0.0974578857421875,0.247650146484375
1757088098613514200,0.43751416015625,-0.7072601318359375,-0.0444488525390625,0.2902984619140625
1757088098623561200,0.447561279296875,-0.6895751953125,-0.007110595703125,0.3359527587890625
1757088098633607200,0.457607177734375,-0.65570068359375,-0.0269622802734375,0.340240478515625
1757088098643654100,0.467654052734375,-0.6063995361328125,-0.0406951904296875,0.319549560546875
1757088098653701000,0.477701171875,-0.54443359375,-0.0108184814453125,0.3014068603515625
1757088098663747000,0.4877470703125,-0.4802093505859375,0.0337982177734375,0.2722930908203125
1757088098673794000,0.4977939453125,-0.421173095703125,0.0776214599609375,0.2436676025390625
1757088098683841300,0.50784130859375,-0.3835906982421875,0.1203460693359375,0.2230377197265625
1757088098693887200,0.51788720703125,-0.3642578125,0.1179046630859375,0.262725830078125
1757088098703934200,0.527934326171875,-0.333648681640625,0.1157379150390625,0.301513671875
1757088098713981200,0.537981201171875,-0.3163604736328125,0.15997314453125,0.342864990234375
1757088098724027100,0.548027099609375,-0.33843994140625,0.216644287109375,0.3681640625
1757088098734074000,0.55807421875,-0.4036712646484375,0.2977294921875,0.35516357421875
1757088098744121000,0.56812109375,-0.48773193359375,0.397552490234375,0.3511962890625
1757088098754167000,0.5781669921875,-0.55426025390625,0.474822998046875,0.3014068603515625
1757088098764214000,0.588214111328125,-0.5484161376953125,0.503143310546875,0.27099609375
1757088098774261200,0.59826123046875,-0.4839630126953125,0.50531005859375,0.4095916748046875
1757088098784307200,0.60830712890625,-0.4123382568359375,0.471038818359375,0.689239501953125
1757088098794354200,0.618354248046875,-0.3097076416015625,0.4227294921875,1.0263671875
1757088098804401200,0.628401123046875,-0.23663330078125,0.3238983154296875,1.4184112548828125
1757088098814447000,0.638447021484375,-0.24102783203125,0.1566009521484375,1.805816650390625
1757088098824494000,0.648494140625,-0.3460235595703125,-0.0034027099609375,2.139068603515625
1757088098834540000,0.6585400390625,-0.549591064453125,-0.0899658203125,2.30426025390625
1757088098844587000,0.6685869140625,-0.892974853515625,-0.0884857177734375,2.2903289794921875
1757088098854634000,0.678634033203125,-1.2259368896484375,-0.048004150390625,2.172210693359375
1757088098864680000,0.688679931640625,-1.3462677001953125,-0.003814697265625,2.022186279296875
1757088098874727200,0.69872705078125,-1.293121337890625,0.0288238525390625,1.879852294921875
1757088098884774100,0.708774169921875,-1.1567230224609375,0.0378265380859375,1.75811767578125
1757088098894820000,0.718820068359375,-0.99737548828125,0.0082244873046875,1.618988037109375
1757088098904867000,0.7288671875,-0.8778228759765625,-0.0339202880859375,1.4928741455078125
1757088098914914000,0.7389140625,-0.81317138671875,-0.065704345703125,1.38623046875
1757088098924960300,0.748960205078125,-0.77313232421875,-0.089141845703125,1.284942626953125
1757088098935007000,0.759007080078125,-0.7588348388671875,-0.06927490234375,1.1812896728515625
1757088098945054000,0.769053955078125,-0.7732391357421875,-0.00897216796875,1.0732574462890625
1757088098955100200,0.77910009765625,-0.7891693115234375,0.0609130859375,0.9452972412109375
1757088098965147100,0.789147216796875,-0.8043975830078125,0.145721435546875,0.807647705078125
1757088098975194000,0.799194091796875,-0.79608154296875,0.2100372314453125,0.6816558837890625
1757088098985240300,0.809240234375,-0.78167724609375,0.2239837646484375,0.5930633544921875
1757088098995287300,0.819287353515625,-0.740936279296875,0.2169036865234375,0.5581207275390625
1757088099005333200,0.829333251953125,-0.65496826171875,0.2222137451171875,0.5305328369140625
1757088099015380200,0.839380126953125,-0.5765228271484375,0.235443115234375,0.4889984130859375
1757088099025427200,0.84942724609375,-0.49951171875,0.250579833984375,0.4340057373046875
1757088099035473200,0.85947314453125,-0.4265594482421875,0.28326416015625,0.3745880126953125
1757088099045520100,0.86952001953125,-0.3659820556640625,0.327789306640625,0.324462890625
1757088099055567000,0.879567138671875,-0.324920654296875,0.3715667724609375,0.287750244140625
1757088099065613000,0.889613037109375,-0.3111572265625,0.4103546142578125,0.257354736328125
1757088099075660300,0.899660400390625,-0.3212738037109375,0.451171875,0.220001220703125
1757088099085707300,0.909707275390625,-0.330780029296875,0.498260498046875,0.2172393798828125
1757088099095753200,0.919753173828125,-0.3353729248046875,0.5318145751953125,0.2501373291015625
1757088099105800200,0.92980029296875,-0.327545166015625,0.5297088623046875,0.270660400390625
1757088099115847200,0.93984716796875,-0.3136444091796875,0.518463134765625,0.3005523681640625
1757088099125893000,0.94989306640625,-0.2996978759765625,0.5196990966796875,0.3418426513671875
1757088099135940000,0.959940185546875,-0.2591400146484375,0.5181732177734375,0.3950347900390625
1757088099145987000,0.969987060546875,-0.2140655517578125,0.5093231201171875,0.4754638671875
1757088099156033000,0.980032958984375,-0.1868133544921875,0.5009765625,0.5626983642578125
1757088099166080300,0.990080322265625,-0.175140380859375,0.497894287109375,0.6246795654296875
1757088099176126200,1.000126220703125,-0.1717376708984375,0.50469970703125,0.6755218505859375
1757088099186173200,1.010173095703125,-0.1582489013671875,0.5336761474609375,0.696380615234375
1757088099196220200,1.02022021484375,-0.1466522216796875,0.55755615234375,0.72137451171875
1757088099206266000,1.03026611328125,-0.145660400390625,0.5821380615234375,0.7675628662109375
1757088099216313000,1.04031298828125,-0.13714599609375,0.6068572998046875,0.7690277099609375
1757088099226360000,1.050360107421875,-0.137603759765625,0.6109161376953125,0.79693603515625
1757088099236406000,1.060406005859375,-0.152008056640625,0.5951385498046875,0.908935546875
1757088099246453000,1.070452880859375,-0.1735076904296875,0.5898590087890625,0.986419677734375
1757088099256500200,1.080500244140625,-0.1788177490234375,0.574676513671875,1.0881805419921875
1757088099266546200,1.090546142578125,-0.1781463623046875,0.5663299560546875,1.1593475341796875
1757088099276593200,1.10059326171875,-0.1663055419921875,0.580780029296875,1.1735076904296875
1757088099286640000,1.11064013671875,-0.1259765625,0.6036834716796875,1.1605224609375
1757088099296686000,1.12068603515625,-0.072235107421875,0.632568359375,1.12615966796875
1757088099306733000,1.130733154296875,-0.0292510986328125,0.6533355712890625,1.125213623046875
1757088099316780000,1.140780029296875,-0.00518798828125,0.664520263671875,1.1623687744140625
1757088099326826000,1.150825927734375,-0.003753662109375,0.6708221435546875,1.249359130859375
1757088099336873000,1.160873046875,0.031524658203125,0.6839141845703125,1.386199951171875
1757088099346920200,1.170920166015625,0.0503082275390625,0.753326416015625,1.4473419189453125
1757088099356966100,1.180966064453125,0.02581787109375,0.8467864990234375,1.4205322265625
1757088099367013000,1.19101318359375,-0.132781982421875,0.9044036865234375,1.310821533203125
1757088099377059300,1.201059326171875,-0.2401123046875,0.9274139404296875,1.194854736328125
1757088099387106300,1.211106201171875,-0.2364959716796875,0.9139251708984375,1.1432952880859375
1757088099397153000,1.221153076171875,-0.20367431640625,0.9211273193359375,1.108306884765625
1757088099407199200,1.23119921875,-0.186370849609375,0.93743896484375,1.0722198486328125
1757088099417246200,1.24124609375,-0.1396026611328125,0.9272308349609375,1.0682525634765625
1757088099427293200,1.251293212890625,-0.0870208740234375,0.8998565673828125,1.03216552734375
1757088099437339100,1.261339111328125,-0.0616302490234375,0.8718719482421875,0.96490478515625
1757088099447386000,1.27138623046875,-0.0293426513671875,0.84442138671875,0.905242919921875
1757088099457433300,1.281433349609375,-0.005218505859375,0.81683349609375,0.8611602783203125
1757088099467480000,1.29147998046875,0.00390625,0.797698974609375,0.8701934814453125
1757088099477527000,1.301527099609375,-0.012237548828125,0.8043212890625,0.91107177734375
1757088099487574300,1.31157421875,-0.0466461181640625,0.8375091552734375,0.934814453125
1757088099497620200,1.3216201171875,-0.101837158203125,0.85760498046875,0.9222412109375
1757088099507667200,1.331667236328125,-0.1352386474609375,0.82745361328125,0.914337158203125
1757088099517714200,1.341714111328125,-0.1404266357421875,0.794464111328125,0.9243316650390625
1757088099527760400,1.351760498046875,-0.1599273681640625,0.7853240966796875,0.916229248046875
1757088099537807000,1.36180712890625,-0.1721038818359375,0.8123626708984375,0.870513916015625
1757088099547854000,1.37185400390625,-0.145355224609375,0.81689453125,0.828582763671875
1757088099557900300,1.381900390625,-0.1014862060546875,0.73614501953125,0.8719635009765625
1757088099567947300,1.391947265625,-0.03192138671875,0.5886688232421875,0.847381591796875
1757088099577994000,1.401993896484375,0.03424072265625,0.481658935546875,0.2835235595703125
1757088099588040200,1.412040283203125,-0.0852508544921875,0.6137237548828125,-0.018310546875
1757088099598087400,1.42208740234375,-0.3573150634765625,0.892333984375,0.45831298828125
1757088099608133400,1.43213330078125,-0.4828338623046875,0.966217041015625,0.64520263671875
1757088099618180400,1.442180419921875,-0.45623779296875,0.79010009765625,0.5351104736328125
1757088099628227300,1.452227294921875,-0.4283294677734375,0.5687408447265625,0.4411773681640625
1757088099638273300,1.462273193359375,-0.3466033935546875,0.550140380859375,0.468719482421875
1757088099648320300,1.4723203125,-0.319061279296875,0.661712646484375,0.466156005859375
1757088099658367200,1.4823671875,-0.3431243896484375,0.784454345703125,0.5248565673828125
1757088099668413200,1.4924130859375,-0.29443359375,0.7790679931640625,0.4043121337890625
1757088099678460200,1.502460205078125,-0.270599365234375,0.699127197265625,0.2370147705078125
1757088099688507400,1.51250732421875,-0.271820068359375,0.675048828125,0.26141357421875
1757088099698553300,1.52255322265625,-0.242431640625,0.66259765625,0.3420257568359375
1757088099708600300,1.532600341796875,-0.2337188720703125,0.63616943359375,0.4808197021484375
1757088099718647300,1.542647216796875,-0.2928466796875,0.6860809326171875,0.6602325439453125
1757088099728693200,1.552693359375,-0.43463134765625,0.82696533203125,0.8165435791015625
1757088099738740200,1.562740234375,-0.559906005859375,0.9604949951171875,0.903350830078125
1757088099748787200,1.572787109375,-0.628143310546875,0.8576202392578125,1.1210784912109375
1757088099758833200,1.582833251953125,-0.5204010009765625,0.73529052734375,0.902252197265625
1757088099768880000,1.592880126953125,-0.4324188232421875,0.647247314453125,0.6309051513671875
1757088099778926000,1.602926025390625,-0.4488525390625,0.6898345947265625,0.5841217041015625
1757088099788973300,1.612973388671875,-0.4100341796875,0.7567596435546875,0.5956878662109375
1757088099799020300,1.623020263671875,-0.363006591796875,0.706939697265625,0.48345947265625
1757088099809066200,1.633066162109375,-0.1928558349609375,0.517486572265625,0.315460205078125
1757088099819113200,1.64311328125,-0.0189208984375,0.4722137451171875,0.3990325927734375
1757088099829160200,1.65316015625,-0.0851593017578125,0.5418701171875,0.62548828125
1757088099839206100,1.6632060546875,-0.155029296875,0.456939697265625,0.69329833984375
1757088099849253000,1.673253173828125,-0.23486328125,0.335235595703125,0.74871826171875
1757088099859300000,1.683300048828125,-0.26312255859375,0.305633544921875,0.773895263671875
1757088099869346000,1.693345947265625,-0.2783660888671875,0.30181884765625,0.73699951171875
1757088099879393300,1.703393310546875,-0.34710693359375,0.2992095947265625,0.70587158203125
1757088099889440300,1.713440185546875,-0.430908203125,0.33154296875,0.640655517578125
1757088099899486200,1.723486328125,-0.51666259765625,0.411346435546875,0.5389404296875
1757088099909533200,1.733533203125,-0.6116180419921875,0.4942169189453125,0.47943115234375
1757088099919580200,1.743580078125,-0.7030029296875,0.500762939453125,0.4457855224609375
1757088099929626000,1.753626220703125,-0.712432861328125,0.5335540771484375,0.212127685546875
1757088099939673000,1.763673095703125,-0.67584228515625,0.754302978515625,-0.0696868896484375
1757088099949720000,1.773719970703125,-0.3246612548828125,1.0499420166015625,-0.099334716796875
1757088099959766300,1.783766357421875,0.002044677734375,1.0462493896484375,-0.006378173828125
1757088099969813000,1.79381298828125,-0.043487548828125,0.8849945068359375,0.2497100830078125
1757088099979859200,1.803859130859375,-0.159698486328125,0.709564208984375,0.392669677734375
1757088099989906400,1.813906494140625,-0.1079254150390625,0.6275177001953125,0.572601318359375
1757088099999953200,1.823953125,-0.0261077880859375,0.627960205078125,0.7255859375
1757088100009999400,1.833999267578125,-0.0250396728515625,0.65789794921875,0.7915191650390625
1757088100020046300,1.84404638671875,-0.0479888916015625,0.712921142578125,0.865264892578125
1757088100030093300,1.85409326171875,-0.1503143310546875,0.6482086181640625,0.90814208984375
1757088100040139300,1.86413916015625,-0.3152008056640625,0.4337310791015625,0.890869140625
1757088100050186200,1.874186279296875,-0.3837432861328125,0.3565673828125,0.8880157470703125
1757088100060233200,1.884233154296875,-0.3006591796875,0.346527099609375,0.9087371826171875
1757088100070279200,1.894279052734375,-0.204681396484375,0.3222808837890625,0.99322509765625
1757088100080326400,1.904326416015625,-0.1301422119140625,0.36041259765625,1.0534210205078125
1757088100090373400,1.914373291015625,-0.1373748779296875,0.443756103515625,1.0297088623046875
1757088100100419300,1.92441943359375,-0.1503143310546875,0.482757568359375,0.9628448486328125
1757088100110466300,1.93446630859375,-0.181396484375,0.4825592041015625,0.880279541015625
1757088100120513300,1.94451318359375,-0.1749267578125,0.45086669921875,0.8233184814453125
1757088100130559200,1.954559326171875,-0.145904541015625,0.4865875244140625,0.7944793701171875
1757088100140606200,1.964606201171875,-0.137664794921875,0.5348663330078125,0.7719268798828125
1757088100150652200,1.974652099609375,-0.0951080322265625,0.4963226318359375,0.7886810302734375
1757088100160699100,1.98469921875,-0.039031982421875,0.5149993896484375,0.7878265380859375
1757088100170746400,1.994746337890625,0.022003173828125,0.5855712890625,0.735260009765625
1757088100180792300,2.004792236328125,0.0951995849609375,0.602935791015625,0.627471923828125
1757088100190839300,2.01483935546875,0.31317138671875,0.3776092529296875,0.4459381103515625
1757088100200886300,2.02488623046875,0.8420867919921875,-0.79718017578125,-0.1020050048828125
1757088100210932200,2.03493212890625,0.5792388916015625,-0.7974700927734375,0.1096649169921875
1757088100220979200,2.044979248046875,0.013153076171875,1.001617431640625,1.0782318115234375
1757088100231026200,2.055026123046875,-0.486053466796875,1.4927978515625,1.448516845703125
1757088100241072000,2.065072021484375,-0.970611572265625,1.335479736328125,1.4328155517578125
1757088100251119000,2.075119140625,-1.1653900146484375,0.7837066650390625,1.0710906982421875
1757088100261166300,2.085166259765625,-1.002838134765625,0.4621734619140625,0.73583984375
1757088100271212300,2.09521240234375,-0.595367431640625,0.6178741455078125,0.713958740234375
1757088100281259300,2.10525927734375,0.213714599609375,0.8427276611328125,0.9433746337890625
1757088100291306200,2.11530615234375,1.6065521240234375,0.9564666748046875,0.992431640625
1757088100301352200,2.125352294921875,1.34521484375,0.5973052978515625,0.611358642578125
1757088100311399200,2.135399169921875,0.6407012939453125,0.64007568359375,0.5862274169921875
1757088100321445000,2.145445068359375,-0.0177154541015625,1.0814971923828125,1.029022216796875
1757088100331492000,2.1554921875,-0.1586151123046875,1.20367431640625,1.1283111572265625
1757088100341539000,2.1655390625,-0.038299560546875,1.0333251953125,0.9923858642578125
1757088100351585000,2.1755849609375,0.00665283203125,0.7994537353515625,0.865875244140625
1757088100361632000,2.185632080078125,0.0221405029296875,0.655609130859375,0.8054656982421875
1757088100371679200,2.19567919921875,0.0614471435546875,0.5552215576171875,0.7643280029296875
1757088100381725200,2.20572509765625,0.0410919189453125,0.511749267578125,0.753173828125
1757088100391772200,2.215772216796875,-0.0875244140625,0.58538818359375,0.812408447265625
1757088100401819100,2.225819091796875,-0.2111358642578125,0.68646240234375,0.8682098388671875
1757088100411865300,2.235865234375,-0.19683837890625,0.7272186279296875,0.920166015625
1757088100421912300,2.245912353515625,-0.158111572265625,0.58740234375,0.8737640380859375
1757088100431959000,2.255958984375,-0.225555419921875,0.2935943603515625,0.766632080078125
1757088100442005200,2.266005126953125,-0.2239990234375,0.231170654296875,0.715484619140625
1757088100452052200,2.27605224609375,-0.1884765625,0.253265380859375,0.6494293212890625
1757088100462098400,2.286098388671875,-0.2182159423828125,0.2015533447265625,0.635040283203125
1757088100472144400,2.296144287109375,-0.1824188232421875,0.33135986328125,0.6837921142578125
1757088100482191600,2.306191650390625,-0.1359710693359375,0.460723876953125,0.6833953857421875
1757088100492237600,2.316237548828125,-0.17169189453125,0.650360107421875,0.7726898193359375
1757088100502284500,2.326284423828125,-0.0792999267578125,0.7833099365234375,0.821441650390625
1757088100512331500,2.33633154296875,0.004486083984375,0.88092041015625,0.7609710693359375
1757088100522377500,2.34637744140625,0.0694732666015625,0.958831787109375,0.68646240234375
1757088100532424400,2.356424560546875,0.1232147216796875,0.9700164794921875,0.6473236083984375
1757088100542471400,2.366471435546875,0.141021728515625,0.948394775390625,0.643707275390625
1757088100552517400,2.376517333984375,0.1033172607421875,0.9236297607421875,0.6363677978515625
1757088100562564400,2.386564453125,0.02642822265625,0.8706207275390625,0.608245849609375
1757088100572611600,2.396611572265625,-0.0255889892578125,0.81451416015625,0.5687103271484375
1757088100582657500,2.406657470703125,-0.025665283203125,0.754241943359375,0.599884033203125
1757088100592704500,2.41670458984375,-0.0072479248046875,0.743377685546875,0.652984619140625
1757088100602751500,2.42675146484375,-0.00115966796875,0.755828857421875,0.7060546875
1757088100612797400,2.43679736328125,-0.0450897216796875,0.7379302978515625,0.74298095703125
1757088100622844400,2.446844482421875,-0.0419769287109375,0.777923583984375,0.710784912109375
1757088100632891400,2.456891357421875,0.0060882568359375,0.7829132080078125,0.6957855224609375
1757088100642937300,2.466937255859375,0.0543365478515625,0.774749755859375,0.657012939453125
1757088100652984300,2.476984375,0.076202392578125,0.7479248046875,0.591278076171875
1757088100663030300,2.4870302734375,0.0425872802734375,0.6736907958984375,0.5641937255859375
1757088100673077500,2.497077392578125,-0.0251312255859375,0.633453369140625,0.5373077392578125
1757088100683124500,2.50712451171875,-0.08038330078125,0.6492919921875,0.5419464111328125
1757088100693170400,2.51717041015625,-0.0875244140625,0.66033935546875,0.611602783203125
1757088100703217400,2.527217529296875,-0.073333740234375,0.6142425537109375,0.7052154541015625
1757088100713264400,2.537264404296875,-0.0453338623046875,0.6193084716796875,0.7386016845703125
1757088100723310600,2.547310546875,-0.011444091796875,0.6437530517578125,0.713592529296875
1757088100733357300,2.557357421875,0.017791748046875,0.629913330078125,0.6597900390625
1757088100743404300,2.567404296875,0.04052734375,0.6432037353515625,0.6144561767578125
1757088100753450500,2.577450439453125,0.066070556640625,0.7102813720703125,0.6067962646484375
1757088100763497500,2.58749755859375,0.0817718505859375,0.750579833984375,0.582489013671875
1757088100773543400,2.59754345703125,0.0884246826171875,0.82952880859375,0.577850341796875
1757088100783590700,2.607590576171875,0.065826416015625,0.8941497802734375,0.6283721923828125
1757088100793637600,2.6176376953125,0.0324249267578125,0.9008331298828125,0.6443939208984375
1757088100803683600,2.62768359375,0.004180908203125,0.896240234375,0.6134490966796875
1757088100813730600,2.63773046875,-0.005859375,0.896453857421875,0.5611724853515625
1757088100823777500,2.647777587890625,-0.016021728515625,0.9175872802734375,0.5185699462890625
1757088100833823500,2.657823486328125,-0.037322998046875,0.97137451171875,0.517333984375
1757088100843870500,2.667870361328125,-0.0557861328125,0.9876251220703125,0.5066986083984375
1757088100853917400,2.67791748046875,-0.0465087890625,0.981964111328125,0.50848388671875
1757088100863963400,2.68796337890625,-0.01617431640625,0.94244384765625,0.521881103515625
1757088100874010600,2.6980107421875,0.0215301513671875,0.9033966064453125,0.5457763671875
1757088100884057600,2.7080576171875,0.046722412109375,0.878173828125,0.5806427001953125
1757088100894103600,2.718103515625,0.03851318359375,0.863067626953125,0.6140899658203125
1757088100904150500,2.728150634765625,0.0135955810546875,0.8518524169921875,0.6127777099609375
1757088100914196500,2.738196533203125,-0.0123748779296875,0.84234619140625,0.59039306640625
1757088100924243500,2.748243408203125,-0.027740478515625,0.82672119140625,0.5712127685546875
1757088100934290400,2.75829052734375,-0.0376739501953125,0.81719970703125,0.560577392578125
1757088100944336400,2.76833642578125,-0.05328369140625,0.8188018798828125,0.5475921630859375
1757088100954383400,2.77838330078125,-0.0496063232421875,0.82427978515625,0.5488128662109375
1757088100964430600,2.7884306640625,-0.0014801025390625,0.925323486328125,0.5910186767578125
1757088100974476500,2.7984765625,0.0296783447265625,0.8536529541015625,0.5408172607421875
1757088100984523500,2.8085234375,-0.022705078125,0.7513885498046875,0.55926513671875
1757088100994570500,2.818570556640625,-0.0592498779296875,0.7068328857421875,0.5595703125
1757088101004616400,2.828616455078125,-0.067047119140625,0.594482421875,0.496551513671875
1757088101014663400,2.838663330078125,-0.06463623046875,0.6609344482421875,0.4973602294921875
1757088101024710400,2.84871044921875,-0.033050537109375,0.821929931640625,0.53997802734375
1757088101034756400,2.85875634765625,-0.0003662109375,0.8231964111328125,0.542633056640625
1757088101044803300,2.86880322265625,0.0248565673828125,0.8291473388671875,0.56591796875
1757088101054849300,2.878849365234375,0.0386962890625,0.8531494140625,0.570587158203125
1757088101064896500,2.888896484375,0.0443878173828125,0.85064697265625,0.5765533447265625
1757088101074943500,2.898943603515625,0.048431396484375,0.8264007568359375,0.5453338623046875
1757088101084989400,2.908989501953125,0.0460968017578125,0.805084228515625,0.484344482421875
1757088101095036400,2.919036376953125,0.0245819091796875,0.7775115966796875,0.4300537109375
1757088101105083400,2.92908349609375,-0.0055389404296875,0.7259979248046875,0.353424072265625
1757088101115129300,2.93912939453125,-0.0269927978515625,0.66925048828125,0.2906341552734375
1757088101125176300,2.94917626953125,-0.04052734375,0.6425933837890625,0.27178955078125
1757088101135223300,2.959223388671875,-0.04229736328125,0.6345062255859375,0.28485107421875
1757088101145269500,2.96926953125,-0.0505828857421875,0.6465606689453125,0.3379364013671875
1757088101155316500,2.97931640625,-0.086578369140625,0.689605712890625,0.353240966796875
1757088101165362400,2.989362548828125,-0.0980224609375,0.699920654296875,0.3638153076171875
1757088101175409700,2.99940966796875,-0.1048736572265625,0.722137451171875,0.3770904541015625
1757088101185456600,3.00945654296875,-0.0945892333984375,0.8462677001953125,0.425506591796875
1757088101195502600,3.019502685546875,-0.08587646484375,0.9448089599609375,0.45538330078125
1757088101205549600,3.029549560546875,-0.087493896484375,1.0209197998046875,0.4947357177734375
1757088101215596500,3.039596435546875,-0.0384979248046875,0.9136199951171875,0.4333648681640625
1757088101225642500,3.049642578125,0.0195159912109375,0.6888427734375,0.32598876953125
1757088101235689500,3.059689453125,0.0722503662109375,0.638336181640625,0.3173980712890625
1757088101245736400,3.069736328125,0.119903564453125,0.5821990966796875,0.29931640625
1757088101255782400,3.079782470703125,0.081207275390625,0.5835113525390625,0.296844482421875
1757088101265829600,3.08982958984375,0.030517578125,0.75762939453125,0.30682373046875
1757088101275875600,3.09987548828125,-0.0287933349609375,0.787750244140625,0.2613372802734375
1757088101285922600,3.109922607421875,-0.114410400390625,0.8630828857421875,0.233978271484375
1757088101295969500,3.119969482421875,-0.1588287353515625,0.9673919677734375,0.2042694091796875
1757088101306015500,3.130015380859375,-0.1470947265625,1.04302978515625,0.1663818359375
1757088101316062500,3.1400625,-0.074676513671875,0.9954071044921875,0.115966796875
1757088101326109400,3.150109375,-0.0070953369140625,0.8694305419921875,0.093414306640625
1757088101336155400,3.1601552734375,0.0153961181640625,0.87255859375,0.06988525390625
1757088101346202400,3.170202392578125,0.0359954833984375,0.8706207275390625,0.0574951171875
1757088101356249600,3.18024951171875,0.0506744384765625,0.8558349609375,0.051422119140625
1757088101366295600,3.190295654296875,0.2104644775390625,1.117706298828125,0.21685791015625
1757088101376342500,3.200342529296875,-0.080230712890625,2.304779052734375,1.1538238525390625
1757088101386389500,3.210389404296875,-0.7008819580078125,2.766143798828125,0.74432373046875
1757088101396435500,3.220435546875,-0.013275146484375,2.25213623046875,0.128326416015625
1757088101406482400,3.230482421875,-0.0780181884765625,1.3224945068359375,0.0174102783203125
1757088101416528400,3.2405283203125,-0.049835205078125,1.11651611328125,0.2028350830078125
1757088101426575400,3.250575439453125,-0.122406005859375,0.8733673095703125,0.18621826171875
1757088101436622300,3.260622314453125,-0.0949554443359375,0.6934814453125,0.2322540283203125
1757088101446668300,3.270668212890625,-0.1341552734375,1.0802154541015625,0.258087158203125
1757088101456715500,3.280715576171875,-0.01361083984375,1.1692047119140625,0.039703369140625
1757088101466763000,3.290762939453125,0.0607452392578125,1.1020355224609375,0.0405426025390625
1757088101476809000,3.30080908203125,0.0351104736328125,1.0181884765625,0.04852294921875
1757088101486856000,3.31085595703125,0.05328369140625,0.9662322998046875,0.0101318359375
1757088101496903200,3.320903076171875,0.05499267578125,0.9437255859375,0.012664794921875
1757088101506949000,3.33094921875,0.0203857421875,0.9408416748046875,0.030975341796875
1757088101516996000,3.34099609375,0.0039520263671875,0.9383544921875,0.05120849609375
1757088101527042000,3.3510419921875,-0.0294036865234375,0.9115753173828125,0.088623046875
1757088101537089000,3.361089111328125,-0.0786895751953125,0.9297027587890625,0.1113128662109375
1757088101547136000,3.371135986328125,-0.131134033203125,0.9742889404296875,0.134429931640625
1757088101557182000,3.381181884765625,-0.1469573974609375,0.9906158447265625,0.1380157470703125
1757088101567229000,3.39122900390625,-0.1619873046875,1.001556396484375,0.13623046875
1757088101577276000,3.40127587890625,-0.1679840087890625,0.987884521484375,0.145477294921875
1757088101587322000,3.411322021484375,-0.156585693359375,0.9660186767578125,0.1482086181640625
1757088101597369000,3.421369140625,-0.1432647705078125,0.9454803466796875,0.15899658203125
1757088101607416000,3.431416015625,-0.1144561767578125,0.9365234375,0.15374755859375
1757088101617462300,3.441462158203125,-0.0874176025390625,0.9448394775390625,0.13250732421875
1757088101627509000,3.451509033203125,-0.065399169921875,0.963714599609375,0.11041259765625
1757088101637555200,3.46155517578125,-0.057342529296875,0.97540283203125,0.1022186279296875
1757088101647602200,3.471602294921875,-0.0554351806640625,0.9871063232421875,0.0917205810546875
1757088101657649200,3.481649169921875,-0.043060302734375,1.004486083984375,0.0898590087890625
1757088101667695000,3.491695068359375,-0.0261688232421875,1.0217742919921875,0.0910797119140625
1757088101677742000,3.5017421875,-0.0199737548828125,1.0364837646484375,0.0951995849609375
1757088101687789300,3.511789306640625,-0.015838623046875,1.0430145263671875,0.10675048828125
1757088101697835300,3.521835205078125,-0.0113677978515625,1.048553466796875,0.1279296875
1757088101707882200,3.53188232421875,-0.0041046142578125,1.0427703857421875,0.1495208740234375
1757088101717929200,3.54192919921875,-0.0016326904296875,1.0182647705078125,0.1791839599609375
1757088101727975200,3.55197509765625,0.0059967041015625,0.9949951171875,0.2038726806640625
1757088101738022100,3.562022216796875,-0.0032806396484375,0.9899749755859375,0.2152557373046875
1757088101748068000,3.572068115234375,-0.0044708251953125,0.9770660400390625,0.227447509765625
1757088101758115000,3.582114990234375,-0.007476806640625,0.9700775146484375,0.228790283203125
1757088101768162000,3.592162109375,-0.0235443115234375,0.9697265625,0.2276153564453125
1757088101778208000,3.6022080078125,-0.039031982421875,0.9716796875,0.2208099365234375
1757088101788255200,3.612255126953125,-0.054107666015625,0.9746246337890625,0.20513916015625
1757088101798302200,3.62230224609375,-0.06903076171875,0.9747161865234375,0.1933746337890625
1757088101808348200,3.63234814453125,-0.0746612548828125,0.9744720458984375,0.1828765869140625
1757088101818395100,3.64239501953125,-0.07806396484375,0.9732513427734375,0.17352294921875
1757088101828442000,3.652442138671875,-0.0809326171875,0.97515869140625,0.164520263671875
1757088101838488000,3.662488037109375,-0.0829925537109375,0.9783477783203125,0.157196044921875
1757088101848535000,3.67253515625,-0.082977294921875,0.9865570068359375,0.148284912109375
1757088101858581000,3.6825810546875,-0.0855255126953125,0.99090576171875,0.1424407958984375
1757088101868628000,3.6926279296875,-0.090087890625,0.992034912109375,0.1346435546875
1757088101878675000,3.702675048828125,-0.094635009765625,0.992034912109375,0.126739501953125
1757088101888721000,3.712720947265625,-0.0965576171875,0.9891510009765625,0.1197509765625
1757088101898768100,3.72276806640625,-0.094970703125,0.987640380859375,0.11712646484375
1757088101908815000,3.732815185546875,-0.086669921875,0.9859771728515625,0.1155853271484375
1757088101918861000,3.742861083984375,-0.0783233642578125,0.9822845458984375,0.1130828857421875
1757088101928908000,3.752907958984375,-0.0692596435546875,0.9793548583984375,0.1129150390625
1757088101938954200,3.762954345703125,-0.060760498046875,0.977447509765625,0.1170654296875
1757088101949001000,3.7730009765625,-0.0557403564453125,0.9835662841796875,0.1160736083984375
1757088101959048000,3.7830478515625,-0.0544586181640625,0.9959564208984375,0.1187591552734375
1757088101969094100,3.79309423828125,-0.051605224609375,1.0052337646484375,0.1243133544921875
1757088101979141000,3.80314111328125,-0.051483154296875,1.011016845703125,0.13067626953125
1757088101989188000,3.81318798828125,-0.05023193359375,1.013671875,0.1378021240234375
1757088101999234300,3.823234375,-0.046905517578125,1.01239013671875,0.1468505859375
1757088102009281300,3.83328125,-0.045654296875,1.007293701171875,0.1580047607421875
1757088102019328000,3.843327880859375,-0.050201416015625,0.994354248046875,0.166595458984375
1757088102029374200,3.853374267578125,-0.05303955078125,0.977325439453125,0.173736572265625
1757088102039421200,3.863421142578125,-0.0583343505859375,0.9598388671875,0.1814422607421875
1757088102049467100,3.873467041015625,-0.065032958984375,0.9528045654296875,0.1893768310546875
1757088102059514000,3.88351416015625,-0.07147216796875,0.950347900390625,0.200775146484375
1757088102069561000,3.89356103515625,-0.078094482421875,0.960113525390625,0.2124481201171875
1757088102079607000,3.90360693359375,-0.077239990234375,0.964508056640625,0.2209930419921875
1757088102089654300,3.913654296875,-0.07513427734375,0.969085693359375,0.2266082763671875
1757088102099701200,3.923701171875,-0.06976318359375,0.9686126708984375,0.2294769287109375
1757088102109747200,3.933747314453125,-0.0592803955078125,0.968231201171875,0.226318359375
1757088102119794200,3.943794189453125,-0.0523223876953125,0.963592529296875,0.2189178466796875
1757088102129841200,3.953841064453125,-0.0469970703125,0.960296630859375,0.2120361328125
1757088102139887000,3.96388720703125,-0.0450439453125,0.9601593017578125,0.205718994140625
1757088102149934000,3.97393408203125,-0.0446929931640625,0.9653167724609375,0.201385498046875
1757088102159980000,3.98397998046875,-0.0471649169921875,0.9737091064453125,0.1908416748046875
1757088102170027000,3.994027099609375,-0.0499725341796875,0.9806060791015625,0.169219970703125
1757088102180074200,4.00407421875,-0.050750732421875,0.9910888671875,0.14520263671875
1757088102190120200,4.0141201171875,-0.047515869140625,1.001678466796875,0.1217193603515625
1757088102200167200,4.024167236328125,-0.0398101806640625,1.007354736328125,0.1031341552734375
1757088102210214100,4.034214111328125,-0.0362548828125,1.0084228515625,0.09637451171875
1757088102220260000,4.044260009765625,-0.03045654296875,1.01190185546875,0.105804443359375
1757088102230307000,4.05430712890625,-0.0263519287109375,1.007659912109375,0.115264892578125
1757088102240353000,4.06435302734375,-0.0303192138671875,1.003936767578125,0.119873046875
1757088102250400000,4.07439990234375,-0.038299560546875,0.9940643310546875,0.1238861083984375
1757088102260447000,4.084447021484375,-0.0478363037109375,0.9887847900390625,0.1281280517578125
1757088102270493000,4.094492919921875,-0.056671142578125,0.9949188232421875,0.1264801025390625
1757088102280540000,4.104539794921875,-0.0693359375,0.9869842529296875,0.13714599609375
1757088102290587100,4.114587158203125,-0.0739898681640625,0.9862213134765625,0.1570587158203125
1757088102300633000,4.124633056640625,-0.073883056640625,0.9810333251953125,0.1695709228515625
1757088102310680000,4.13468017578125,-0.080780029296875,0.9774017333984375,0.1752166748046875
1757088102320727000,4.14472705078125,-0.0814361572265625,0.9764862060546875,0.180084228515625
1757088102330773000,4.15477294921875,-0.07952880859375,0.9738311767578125,0.1846160888671875
1757088102340820000,4.164820068359375,-0.076904296875,0.97454833984375,0.1890869140625
1757088102350866200,4.1748662109375,-0.070343017578125,0.9774017333984375,0.1911773681640625
1757088102360913200,4.1849130859375,-0.0642852783203125,0.9805145263671875,0.18865966796875
1757088102370960000,4.1949599609375,-0.058013916015625,0.9825439453125,0.183441162109375
1757088102381006000,4.205006103515625,-0.049407958984375,0.984954833984375,0.1851654052734375
1757088102391053300,4.21505322265625,-0.039764404296875,0.9870147705078125,0.1852569580078125
1757088102401100000,4.22510009765625,-0.0350494384765625,0.9812774658203125,0.1881103515625
1757088102411146200,4.235146240234375,-0.0334320068359375,0.9768218994140625,0.192962646484375
1757088102421193200,4.245193115234375,-0.0350799560546875,0.9752960205078125,0.2003631591796875
1757088102431239200,4.2552392578125,-0.0401763916015625,0.971893310546875,0.2012176513671875
1757088102441286100,4.2652861328125,-0.0457763671875,0.96868896484375,0.200225830078125
1757088102451333000,4.2753330078125,-0.0499725341796875,0.9709625244140625,0.198150634765625
1757088102461379000,4.285379150390625,-0.0521240234375,0.9732666015625,0.19482421875
1757088102471425800,4.29542578125,-0.0510711669921875,0.9740142822265625,0.1897735595703125
1757088102481472800,4.30547265625,-0.05096435546875,0.9739532470703125,0.187835693359375
1757088102491518700,4.315518798828125,-0.0506744384765625,0.9736175537109375,0.1859130859375
1757088102501565700,4.325565673828125,-0.051239013671875,0.972442626953125,0.182525634765625
1757088102511612700,4.33561279296875,-0.052825927734375,0.9740753173828125,0.181640625
1757088102521658600,4.34565869140625,-0.0546417236328125,0.9791107177734375,0.181396484375
1757088102531705600,4.35570556640625,-0.056121826171875,0.9834747314453125,0.1829833984375
1757088102541751600,4.36575146484375,-0.0546417236328125,0.986907958984375,0.1796875
1757088102551798800,4.375798828125,-0.0540313720703125,0.9862213134765625,0.168609619140625
1757088102561845800,4.385845703125,-0.052825927734375,0.986083984375,0.1602020263671875
1757088102571891700,4.3958916015625,-0.0479583740234375,0.9869232177734375,0.1507110595703125
1757088102581938700,4.405938720703125,-0.0431060791015625,0.9865264892578125,0.140625
1757088102591985700,4.415985595703125,-0.040863037109375,0.9896392822265625,0.1335296630859375
1757088102602031600,4.426031494140625,-0.03973388671875,0.992828369140625,0.1303558349609375
1757088102612078600,4.43607861328125,-0.0374908447265625,0.9978485107421875,0.1323089599609375
1757088102622124500,4.44612451171875,-0.0343780517578125,1.0060577392578125,0.137237548828125
1757088102632171500,4.456171630859375,-0.0323028564453125,1.0066070556640625,0.1417236328125
1757088102642218800,4.46621875,-0.0307464599609375,1.00030517578125,0.1537628173828125
1757088102652265000,4.476264892578125,-0.0309906005859375,0.9883880615234375,0.168365478515625
1757088102662311700,4.486311767578125,-0.0356903076171875,0.9700775146484375,0.1912078857421875
1757088102672358700,4.496358642578125,-0.0485687255859375,0.9540557861328125,0.22955322265625
1757088102682404900,4.50640478515625,-0.0601959228515625,0.9456024169921875,0.2552642822265625
1757088102692451800,4.516451904296875,-0.0713043212890625,0.947235107421875,0.259368896484375
1757088102702497800,4.526497802734375,-0.0826568603515625,0.964813232421875,0.246551513671875
1757088102712544800,4.536544677734375,-0.102020263671875,0.970245361328125,0.222412109375
1757088102722591700,4.546591796875,-0.1082305908203125,0.97955322265625,0.196044921875
1757088102732637700,4.5566376953125,-0.1015167236328125,0.992523193359375,0.172210693359375
1757088102742685000,4.566684814453125,-0.0882415771484375,0.9935455322265625,0.15850830078125
1757088102752732000,4.57673193359375,-0.0651092529296875,0.99444580078125,0.156768798828125
1757088102762777900,4.58677783203125,-0.0416717529296875,0.9876708984375,0.15777587890625
1757088102772824800,4.596824951171875,-0.0221405029296875,0.9818115234375,0.156097412109375
1757088102782870800,4.606870849609375,-0.00872802734375,0.9832916259765625,0.1490325927734375
1757088102792917800,4.616917724609375,-0.001312255859375,0.98651123046875,0.146087646484375
1757088102802964700,4.62696484375,0.0039215087890625,0.99322509765625,0.1477203369140625
1757088102813010700,4.6370107421875,0.003875732421875,1.0024566650390625,0.1437835693359375
1757088102823057700,4.6470576171875,0.0008392333984375,1.003936767578125,0.1397705078125
1757088102833104600,4.657104736328125,-0.0080718994140625,1.0031585693359375,0.138458251953125
1757088102843150600,4.667150634765625,-0.0193634033203125,0.9987335205078125,0.1449127197265625
1757088102853197800,4.67719775390625,-0.0340728759765625,0.9900054931640625,0.1586151123046875
1757088102863244800,4.687244873046875,-0.0482025146484375,0.97900390625,0.1727294921875
1757088102873290800,4.697290771484375,-0.0652618408203125,0.9695587158203125,0.1866912841796875
1757088102883337700,4.707337646484375,-0.0805206298828125,0.9634552001953125,0.1966552734375
1757088102893383700,4.7173837890625,-0.0903778076171875,0.96588134765625,0.199798583984375
1757088102903430700,4.7274306640625,-0.0961151123046875,0.9687042236328125,0.19879150390625
1757088102913477600,4.7374775390625,-0.0988311767578125,0.9732666015625,0.1934967041015625
1757088102923523600,4.747523681640625,-0.0928192138671875,0.9788055419921875,0.1854705810546875
1757088102933570600,4.757570556640625,-0.0821990966796875,0.9803466796875,0.1763763427734375
1757088102943617800,4.76761767578125,-0.0686798095703125,0.980133056640625,0.1689300537109375
1757088102953663700,4.777663818359375,-0.056121826171875,0.9781951904296875,0.1629791259765625
1757088102963710700,4.787710693359375,-0.0448760986328125,0.9802703857421875,0.1590576171875
1757088102973756700,4.797756591796875,-0.0332183837890625,0.9821319580078125,0.15472412109375
1757088102983803600,4.8078037109375,-0.0270843505859375,0.9844970703125,0.15692138671875
1757088102993850600,4.8178505859375,-0.02117919921875,0.988128662109375,0.1587982177734375
1757088103003896800,4.827896728515625,-0.0167388916015625,0.99127197265625,0.1620330810546875
1757088103013943600,4.837943603515625,-0.01397705078125,0.994476318359375,0.166839599609375
1757088103023990500,4.847990478515625,-0.0152130126953125,0.995361328125,0.1684112548828125
1757088103034036700,4.85803662109375,-0.0185546875,0.993804931640625,0.17266845703125
1757088103044083700,4.868083740234375,-0.0257568359375,0.99072265625,0.1776885986328125
1757088103054130000,4.8781298828125,-0.0362091064453125,0.9862518310546875,0.1788177490234375
1757088103064177000,4.888177001953125,-0.044677734375,0.9777679443359375,0.1822052001953125
1757088103074223900,4.898223876953125,-0.052215576171875,0.972198486328125,0.18414306640625
1757088103084269800,4.908269775390625,-0.057952880859375,0.9688720703125,0.1873779296875
1757088103094316800,4.91831689453125,-0.062042236328125,0.969573974609375,0.191497802734375
1757088103104363800,4.92836376953125,-0.0652618408203125,0.9694366455078125,0.1945343017578125
1757088103114409700,4.93840966796875,-0.066802978515625,0.9718475341796875,0.1982421875
1757088103124456700,4.948456787109375,-0.0698089599609375,0.9772491455078125,0.1984405517578125
1757088103134502700,4.958502685546875,-0.0683441162109375,0.9822235107421875,0.198150634765625
1757088103144549600,4.968549560546875,-0.0688018798828125,0.9818878173828125,0.20037841796875
1757088103154596900,4.978596923828125,-0.068634033203125,0.9814605712890625,0.200103759765625
1757088103164642800,4.988642822265625,-0.062042236328125,0.9788818359375,0.1969451904296875
1757088103174689800,4.998689697265625,-0.0541229248046875,0.976837158203125,0.1956024169921875
1757088103184736800,5.00873681640625,-0.0455780029296875,0.9764556884765625,0.195556640625
1757088103194782700,5.01878271484375,-0.0369873046875,0.97918701171875,0.194610595703125
1757088103204829700,5.02882958984375,-0.029632568359375,0.978729248046875,0.19720458984375
1757088103214875600,5.038875732421875,-0.0245513916015625,0.9789276123046875,0.1992034912109375
1757088103224922600,5.048922607421875,-0.0240631103515625,0.98004150390625,0.1995849609375
1757088103234969600,5.058969482421875,-0.0265960693359375,0.9796600341796875,0.2020416259765625
1757088103245015600,5.069015625,-0.031463623046875,0.9768218994140625,0.1990203857421875
1757088103255062800,5.079062744140625,-0.0382537841796875,0.9748992919921875,0.1967010498046875
1757088103265109800,5.08910986328125,-0.044677734375,0.977752685546875,0.1934356689453125
1757088103275155700,5.09915576171875,-0.0518798828125,0.979522705078125,0.188079833984375
1757088103285202700,5.10920263671875,-0.057098388671875,0.9825439453125,0.1833343505859375
1757088103295248600,5.11924853515625,-0.0619049072265625,0.9834136962890625,0.1791229248046875
1757088103305295600,5.129295654296875,-0.0667877197265625,0.983642578125,0.177703857421875
1757088103315342600,5.139342529296875,-0.0678558349609375,0.98162841796875,0.1783599853515625
1757088103325388500,5.149388427734375,-0.068328857421875,0.9766845703125,0.1789703369140625
1757088103335435500,5.159435546875,-0.0650787353515625,0.9747161865234375,0.1793975830078125
1757088103345482800,5.169482666015625,-0.0597991943359375,0.973052978515625,0.181488037109375
1757088103355528700,5.17952880859375,-0.0528106689453125,0.9749755859375,0.1817474365234375
1757088103365575700,5.18957568359375,-0.0437774658203125,0.9765777587890625,0.182525634765625
1757088103375622000,5.199621826171875,-0.0388336181640625,0.982391357421875,0.1851348876953125
1757088103385668900,5.2096689453125,-0.0363006591796875,0.9882354736328125,0.185821533203125
1757088103395715800,5.2197158203125,-0.0325164794921875,0.9900970458984375,0.1861572265625
1757088103405761800,5.22976171875,-0.0311126708984375,0.99169921875,0.1855010986328125
1757088103415808800,5.239808837890625,-0.031036376953125,0.9893035888671875,0.1818695068359375
1757088103425855700,5.249855712890625,-0.0331268310546875,0.9852294921875,0.17999267578125
1757088103435901700,5.259901611328125,-0.0355377197265625,0.982940673828125,0.178619384765625
1757088103445949000,5.269948974609375,-0.039947509765625,0.98382568359375,0.1787261962890625
1757088103455995000,5.279994873046875,-0.0438232421875,0.9837493896484375,0.17633056640625
1757088103466042000,5.2900419921875,-0.0486297607421875,0.981964111328125,0.1733551025390625
1757088103476089000,5.300089111328125,-0.0560760498046875,0.9818267822265625,0.1696014404296875
1757088103486135000,5.310135009765625,-0.0601348876953125,0.9803466796875,0.1655731201171875
1757088103496182000,5.32018212890625,-0.064422607421875,0.977996826171875,0.165771484375
1757088103506229000,5.33022900390625,-0.0672149658203125,0.9798583984375,0.1673126220703125
1757088103516275000,5.34027490234375,-0.0721893310546875,0.985321044921875,0.17120361328125
1757088103526322000,5.350322021484375,-0.0703887939453125,0.987701416015625,0.1763763427734375
1757088103536367900,5.360367919921875,-0.06591796875,0.985565185546875,0.1806488037109375
1757088103546415000,5.3704150390625,-0.060821533203125,0.9785614013671875,0.181793212890625
1757088103556462000,5.380462158203125,-0.0528411865234375,0.9733428955078125,0.18426513671875
1757088103566508000,5.390508056640625,-0.045654296875,0.969879150390625,0.187713623046875
1757088103576555000,5.400554931640625,-0.0402374267578125,0.969818115234375,0.19287109375
1757088103586602000,5.41060205078125,-0.035675048828125,0.9706878662109375,0.19671630859375
1757088103596648000,5.42064794921875,-0.0348358154296875,0.9733734130859375,0.2012786865234375
1757088103606695000,5.43069482421875,-0.03509521484375,0.9744873046875,0.206207275390625
1757088103616740900,5.440740966796875,-0.0353546142578125,0.9745941162109375,0.208831787109375
1757088103626787800,5.450787841796875,-0.032012939453125,0.9737091064453125,0.2107086181640625
1757088103636834800,5.460834716796875,-0.03125,0.9756927490234375,0.2097625732421875
1757088103646880800,5.470880859375,-0.0297698974609375,0.9761505126953125,0.210784912109375
1757088103656928000,5.480927978515625,-0.0316314697265625,0.977386474609375,0.207244873046875
1757088103666975000,5.49097509765625,-0.0332183837890625,0.9785919189453125,0.204864501953125
1757088103677021000,5.50102099609375,-0.0366973876953125,0.9786376953125,0.20001220703125
1757088103687068000,5.51106787109375,-0.0404815673828125,0.978485107421875,0.196014404296875
1757088103697114000,5.521114013671875,-0.0425872802734375,0.97662353515625,0.19195556640625
1757088103707160800,5.531160888671875,-0.042694091796875,0.9769439697265625,0.193145751953125
1757088103717207800,5.541207763671875,-0.04461669921875,0.9808502197265625,0.19268798828125
1757088103727254000,5.55125390625,-0.045745849609375,0.982696533203125,0.1911163330078125
1757088103737301000,5.561301025390625,-0.047210693359375,0.9837799072265625,0.191436767578125
1757088103747347000,5.571346923828125,-0.0462188720703125,0.9833526611328125,0.1921539306640625
1757088103757394200,5.581394287109375,-0.046142578125,0.983551025390625,0.19354248046875
1757088103767441200,5.591441162109375,-0.0456085205078125,0.981842041015625,0.191925048828125
1757088103777487000,5.601487060546875,-0.0424652099609375,0.9792327880859375,0.19085693359375
1757088103787534000,5.6115341796875,-0.041015625,0.9770050048828125,0.1917266845703125
1757088103797581000,5.6215810546875,-0.0393218994140625,0.976593017578125,0.190216064453125
1757088103807627000,5.631626953125,-0.0375213623046875,0.977081298828125,0.189727783203125
1757088103817674000,5.641674072265625,-0.0352783203125,0.9751739501953125,0.185791015625
1757088103827720000,5.651719970703125,-0.035186767578125,0.9776763916015625,0.182952880859375
1757088103837767000,5.661766845703125,-0.0350494384765625,0.976806640625,0.1820068359375
1757088103847814100,5.671814208984375,-0.0326385498046875,0.977783203125,0.1793365478515625
1757088103857860000,5.681860107421875,-0.029754638671875,0.9771575927734375,0.177520751953125
1757088103867907000,5.691906982421875,-0.028900146484375,0.9763946533203125,0.17779541015625
1757088103877954000,5.7019541015625,-0.027740478515625,0.9777374267578125,0.1782684326171875
1757088103888000000,5.712,-0.0271759033203125,0.9791717529296875,0.1802825927734375
1757088103898047000,5.722046875,-0.0307769775390625,0.9824066162109375,0.1821136474609375
1757088103908093000,5.732093017578125,-0.0326995849609375,0.9828643798828125,0.1831512451171875
1757088103918140000,5.742139892578125,-0.0372161865234375,0.9790802001953125,0.1852264404296875
1757088103928187000,5.752186767578125,-0.04254150390625,0.9718780517578125,0.1871185302734375
1757088103938232800,5.76223291015625,-0.044677734375,0.9677886962890625,0.189208984375
1757088103948279800,5.77227978515625,-0.0483245849609375,0.9677276611328125,0.19219970703125
1757088103958325800,5.78232568359375,-0.043365478515625,0.9712371826171875,0.1949462890625
1757088103968373000,5.792373046875,-0.0465087890625,0.9744415283203125,0.1965484619140625
1757088103978420000,5.802419921875,-0.043914794921875,0.9755859375,0.1951141357421875
1757088103988466000,5.8124658203125,-0.0423126220703125,0.98297119140625,0.1953125
1757088103998513000,5.822512939453125,-0.0442352294921875,0.984832763671875,0.19244384765625
1757088104008559900,5.832559814453125,-0.0453948974609375,0.9886627197265625,0.191619873046875
1757088104018605800,5.842605712890625,-0.043701171875,0.988372802734375,0.193756103515625
1757088104028652800,5.85265283203125,-0.0458526611328125,0.9900970458984375,0.1949462890625
1757088104038699000,5.862698974609375,-0.0502166748046875,0.990447998046875,0.193115234375
1757088104048746000,5.87274609375,-0.0534820556640625,0.9851226806640625,0.1876220703125
1757088104058793000,5.88279296875,-0.0579071044921875,0.97222900390625,0.1814117431640625
1757088104068839200,5.892839111328125,-0.0615692138671875,0.961151123046875,0.1755828857421875
1757088104078886100,5.90288623046875,-0.0648956298828125,0.9584808349609375,0.1752777099609375
1757088104088932900,5.912932861328125,-0.067596435546875,0.9599456787109375,0.17730712890625
1757088104098979000,5.92297900390625,-0.0714569091796875,0.9646453857421875,0.1841278076171875
1757088104109026000,5.933026123046875,-0.0742034912109375,0.970733642578125,0.1945037841796875
1757088104119072000,5.943072021484375,-0.0803070068359375,0.9738006591796875,0.2039642333984375
1757088104129119000,5.953118896484375,-0.0860748291015625,0.9772796630859375,0.2116851806640625
1757088104139166000,5.963166015625,-0.0903778076171875,0.9712371826171875,0.2178192138671875
1757088104149212000,5.9732119140625,-0.0975341796875,0.9624481201171875,0.2235565185546875
1757088104159259100,5.983259033203125,-0.1048736572265625,0.9587249755859375,0.22564697265625
1757088104169306000,5.99330615234375,-0.1127777099609375,0.9578399658203125,0.2263641357421875
1757088104179352000,6.00335205078125,-0.1197357177734375,0.96148681640625,0.2288055419921875
1757088104189399000,6.01339892578125,-0.124176025390625,0.9595489501953125,0.2280731201171875
1757088104199445000,6.023445068359375,-0.123382568359375,0.9580535888671875,0.225189208984375
1757088104209492000,6.033491943359375,-0.1204681396484375,0.9605255126953125,0.2250823974609375
1757088104219539000,6.0435390625,-0.1131591796875,0.965118408203125,0.223419189453125
1757088104229585000,6.0535849609375,-0.109527587890625,0.973388671875,0.2184295654296875
1757088104239632000,6.0636318359375,-0.1026458740234375,0.981781005859375,0.2159576416015625
1757088104249677800,6.073677734375,-0.087677001953125,0.9924774169921875,0.2086181640625
1757088104259725000,6.08372509765625,-0.067413330078125,0.998565673828125,0.199951171875
1757088104269772000,6.09377197265625,-0.033599853515625,1.002960205078125,0.208892822265625
1757088104279818000,6.10381787109375,0.00933837890625,1.0012359619140625,0.2233734130859375
1757088104289865000,6.113864990234375,0.0539093017578125,0.9879913330078125,0.2363128662109375
1757088104299912000,6.123911865234375,0.045745849609375,0.9967193603515625,0.2508087158203125
1757088104309958000,6.1339580078125,-0.0130157470703125,0.9974822998046875,0.2592315673828125
1757088104320004900,6.1440048828125,-0.0597991943359375,0.9891510009765625,0.275421142578125
1757088104330051000,6.154051025390625,-0.0937347412109375,0.9803619384765625,0.2974395751953125
1757088104340097800,6.164097900390625,-0.114837646484375,0.965545654296875,0.308349609375
1757088104350144800,6.174144775390625,-0.1195831298828125,0.9498748779296875,0.3161468505859375
1757088104360191000,6.18419091796875,-0.1266937255859375,0.9416656494140625,0.31683349609375
1757088104370238000,6.194238037109375,-0.121002197265625,0.9699554443359375,0.2967681884765625
1757088104380285000,6.204284912109375,-0.1044158935546875,0.9766693115234375,0.2857513427734375
1757088104390331100,6.2143310546875,-0.0845184326171875,0.9674224853515625,0.270477294921875
1757088104400378000,6.224378173828125,-0.049163818359375,0.984619140625,0.2534942626953125
1757088104410424000,6.234424072265625,-0.01214599609375,0.990478515625,0.235107421875
1757088104420471000,6.244470947265625,0.0214080810546875,0.9739227294921875,0.222259521484375
1757088104430518000,6.25451806640625,0.010498046875,0.9622955322265625,0.21173095703125
1757088104440564000,6.26456396484375,-0.014984130859375,0.9577484130859375,0.226593017578125
1757088104450611000,6.27461083984375,-0.0337677001953125,0.9501800537109375,0.2426300048828125
1757088104460657000,6.284656982421875,-0.0580902099609375,0.9308319091796875,0.2677459716796875
1757088104470704400,6.294704345703125,-0.065826416015625,0.9196319580078125,0.298248291015625
1757088104480751400,6.30475146484375,-0.067413330078125,0.9282684326171875,0.3217620849609375
1757088104490797300,6.31479736328125,-0.073089599609375,0.931060791015625,0.3413238525390625
1757088104500844300,6.32484423828125,-0.0657958984375,0.9327850341796875,0.3517303466796875
1757088104510891300,6.334891357421875,-0.05670166015625,0.9325408935546875,0.3502960205078125
1757088104520937200,6.344937255859375,-0.0334014892578125,0.944854736328125,0.3506011962890625
1757088104530984200,6.354984130859375,-0.015045166015625,0.9462890625,0.339202880859375
1757088104541030100,6.365030029296875,-0.0250396728515625,0.956207275390625,0.3219451904296875
1757088104551077400,6.375077392578125,0.008544921875,0.963775634765625,0.3106536865234375
1757088104561124400,6.385124267578125,0.0200042724609375,0.9478912353515625,0.2991943359375
1757088104571170300,6.39517041015625,0.008026123046875,0.9350128173828125,0.2959747314453125
1757088104581217300,6.40521728515625,-0.0033721923828125,0.9255523681640625,0.2894744873046875
1757088104591263200,6.41526318359375,-0.0144195556640625,0.9268951416015625,0.287384033203125
1757088104601310200,6.425310302734375,-0.014984130859375,0.93121337890625,0.288970947265625
1757088104611357200,6.435357177734375,-0.016448974609375,0.9339447021484375,0.2969970703125
1757088104621403100,6.445403076171875,-0.0186309814453125,0.939788818359375,0.3004913330078125
1757088104631450000,6.4554501953125,-0.025543212890625,0.947052001953125,0.2997589111328125
1757088104641497300,6.465497314453125,-0.0313262939453125,0.9485931396484375,0.2964630126953125
1757088104651543300,6.475543212890625,-0.0335693359375,0.9416046142578125,0.2911376953125
1757088104661590300,6.48559033203125,-0.0274505615234375,0.93475341796875,0.2923736572265625
1757088104671636200,6.49563623046875,-0.0167236328125,0.9365234375,0.2885589599609375
1757088104681683200,6.50568310546875,-0.0085601806640625,0.93670654296875,0.28900146484375
1757088104691730200,6.515730224609375,-0.0013885498046875,0.9340057373046875,0.2884368896484375
1757088104701776400,6.5257763671875,0.0056915283203125,0.9305877685546875,0.2905731201171875
1757088104711823000,6.535822998046875,0.003875732421875,0.9299163818359375,0.294708251953125
1757088104721870000,6.5458701171875,0.0006256103515625,0.9274444580078125,0.2997283935546875
1757088104731916300,6.555916259765625,-0.005126953125,0.9280242919921875,0.311309814453125
1757088104741963300,6.56596337890625,-0.0115509033203125,0.9344635009765625,0.327667236328125
1757088104752009200,6.57600927734375,-0.01812744140625,0.9410552978515625,0.336334228515625
1757088104762056400,6.586056396484375,-0.0285186767578125,0.9453887939453125,0.3383636474609375
1757088104772103400,6.596103515625,-0.0349273681640625,0.9457244873046875,0.3279571533203125
1757088104782149400,6.6061494140625,-0.040496826171875,0.954498291015625,0.30950927734375
1757088104792196400,6.6161962890625,-0.038787841796875,0.9949798583984375,0.292572021484375
1757088104802242300,6.6262421875,-0.0252532958984375,1.0631103515625,0.2909698486328125
1757088104812289300,6.636289306640625,-0.0212554931640625,1.131866455078125,0.298309326171875
1757088104822336300,6.646336181640625,-0.0357818603515625,1.1760711669921875,0.3158111572265625
1757088104832382200,6.65638232421875,-0.0789794921875,1.1703948974609375,0.347198486328125
1757088104842429200,6.66642919921875,-0.14044189453125,1.1194610595703125,0.3868865966796875
1757088104852476400,6.676476318359375,-0.2301177978515625,1.0629119873046875,0.4354400634765625
1757088104862522400,6.6865224609375,-0.26385498046875,1.03826904296875,0.422271728515625
1757088104872569300,6.6965693359375,-0.21630859375,1.097412109375,0.363616943359375
1757088104882615300,6.706615234375,-0.1286468505859375,1.2178955078125,0.319366455078125
1757088104892662300,6.716662353515625,-0.0324859619140625,1.3226318359375,0.2558746337890625
1757088104902709200,6.726709228515625,0.0439605712890625,1.3640289306640625,0.2176666259765625
1757088104912755200,6.736755126953125,0.084197998046875,1.3748016357421875,0.2454833984375
1757088104922802200,6.74680224609375,0.0504150390625,1.4010162353515625,0.300750732421875
1757088104932848000,6.75684814453125,0.0230255126953125,1.4031982421875,0.3284759521484375
1757088104942895000,6.76689501953125,0.03302001953125,1.3778076171875,0.3344268798828125
1757088104952942300,6.7769423828125,0.0509033203125,1.359375,0.3211822509765625
1757088104962988300,6.78698828125,0.0912933349609375,1.3271636962890625,0.291900634765625
1757088104973035300,6.79703515625,0.1602935791015625,1.3018798828125,0.2796478271484375
1757088104983082200,6.807082275390625,0.2040557861328125,1.2581634521484375,0.283111572265625
1757088104993128200,6.817128173828125,0.223724365234375,1.1907958984375,0.2871246337890625
1757088105003175200,6.827175048828125,0.2550201416015625,1.135498046875,0.295013427734375
1757088105013221400,6.837221435546875,0.289703369140625,1.1106109619140625,0.3185577392578125
1757088105023268000,6.84726806640625,0.3005218505859375,1.1228790283203125,0.3592376708984375
1757088105033315000,6.857315185546875,0.3084869384765625,1.14520263671875,0.3859710693359375
1757088105043361300,6.867361328125,0.29473876953125,1.18450927734375,0.4499664306640625
1757088105053408500,6.877408447265625,0.23162841796875,1.1776580810546875,0.5145721435546875
1757088105063455200,6.887455322265625,0.1501312255859375,1.1391143798828125,0.57568359375
1757088105073501400,6.89750146484375,0.0157623291015625,1.099945068359375,0.5980987548828125
1757088105083548400,6.90754833984375,-0.1271514892578125,1.0273590087890625,0.539703369140625
1757088105093594400,6.917594482421875,-0.0751495361328125,1.0295257568359375,0.50054931640625
1757088105103641300,6.927641357421875,-0.0932769775390625,1.0420379638671875,0.5075531005859375
1757088105113688300,6.937688232421875,-0.0270843505859375,1.011077880859375,0.4503936767578125
1757088105123734300,6.947734375,0.029937744140625,0.98199462890625,0.4658660888671875
1757088105133781200,6.95778125,0.1159820556640625,1.0267791748046875,0.5374908447265625
1757088105143827200,6.9678271484375,0.198089599609375,1.0709228515625,0.6192779541015625
1757088105153874200,6.977874267578125,0.20806884765625,1.11358642578125,0.609100341796875
1757088105163921400,6.98792138671875,0.15203857421875,1.1080780029296875,0.558349609375
1757088105173967400,6.99796728515625,0.0999298095703125,1.1125640869140625,0.485748291015625
1757088105184014300,7.008014404296875,0.1157989501953125,1.1198272705078125,0.4268646240234375
1757088105194061300,7.018061279296875,0.085968017578125,1.079803466796875,0.388946533203125
1757088105204107300,7.028107177734375,0.046966552734375,1.0283966064453125,0.3717041015625
1757088105214154200,7.038154296875,0.0598602294921875,0.99041748046875,0.386444091796875
1757088105224200200,7.0482001953125,0.0717315673828125,0.9949493408203125,0.398223876953125
1757088105234247200,7.0582470703125,0.098358154296875,0.983001708984375,0.3954620361328125
1757088105244294100,7.068294189453125,0.1055450439453125,0.9455413818359375,0.3955535888671875
1757088105254340000,7.078340087890625,0.11981201171875,0.8669586181640625,0.410308837890625
1757088105264387300,7.08838720703125,0.1167449951171875,0.8220062255859375,0.4096221923828125
1757088105274433300,7.098433349609375,0.1403045654296875,0.818878173828125,0.4119415283203125
1757088105284480300,7.108480224609375,0.1751708984375,0.7721710205078125,0.3885040283203125
1757088105294527200,7.11852734375,0.213043212890625,0.69219970703125,0.3291015625
1757088105304573200,7.1285732421875,0.2072296142578125,0.611572265625,0.2774810791015625
1757088105314620200,7.1386201171875,0.19708251953125,0.5471649169921875,0.26080322265625
1757088105324667100,7.148667236328125,0.1853485107421875,0.48974609375,0.2635650634765625
1757088105334713300,7.15871337890625,0.1959686279296875,0.417572021484375,0.26605224609375
1757088105344760000,7.168760009765625,0.20281982421875,0.3817291259765625,0.2635345458984375
1757088105354806300,7.17880615234375,0.20916748046875,0.36273193359375,0.2557220458984375
1757088105364853500,7.188853515625,0.2110748291015625,0.36151123046875,0.2419891357421875
1757088105374900200,7.198900146484375,0.233612060546875,0.37139892578125,0.2338104248046875
1757088105384946400,7.208946533203125,0.260589599609375,0.384490966796875,0.231109619140625
1757088105394993400,7.218993408203125,0.3050384521484375,0.3755645751953125,0.2189178466796875
1757088105405039400,7.229039306640625,0.355712890625,0.3358306884765625,0.195770263671875
1757088105415086300,7.23908642578125,0.37957763671875,0.3026580810546875,0.1774444580078125
1757088105425133300,7.24913330078125,0.389007568359375,0.2706451416015625,0.1533355712890625
1757088105435179300,7.25917919921875,0.37860107421875,0.2435150146484375,0.1475830078125
1757088105445226200,7.269226318359375,0.3902740478515625,0.2574005126953125,0.1545867919921875
1757088105455272200,7.279272216796875,0.3975372314453125,0.2852020263671875,0.1761474609375
1757088105465318100,7.289318115234375,0.4241943359375,0.3081817626953125,0.2118377685546875
1757088105475365000,7.299365234375,0.44610595703125,0.343597412109375,0.259674072265625
1757088105485411000,7.3094111328125,0.4685821533203125,0.357940673828125,0.30902099609375
1757088105495458000,7.3194580078125,0.479766845703125,0.347442626953125,0.337188720703125
1757088105505505000,7.329505126953125,0.4746856689453125,0.3236541748046875,0.3396759033203125
1757088105515551000,7.339551025390625,0.469146728515625,0.296417236328125,0.3507537841796875
1757088105525598000,7.349597900390625,0.470550537109375,0.271636962890625,0.3726959228515625
1757088105535644200,7.35964404296875,0.479827880859375,0.2635040283203125,0.393646240234375
1757088105545691100,7.369691162109375,0.485809326171875,0.2781219482421875,0.3964996337890625
1757088105555738000,7.379738037109375,0.50653076171875,0.301971435546875,0.404388427734375
1757088105565784300,7.389784423828125,0.5206298828125,0.33892822265625,0.41473388671875
1757088105575831300,7.399831298828125,0.5428466796875,0.3775787353515625,0.423248291015625
1757088105585877200,7.409877197265625,0.6196136474609375,0.412139892578125,0.4614105224609375
1757088105595924200,7.41992431640625,0.802215576171875,0.45465087890625,0.6014862060546875
1757088105605971200,7.42997119140625,0.9953765869140625,0.578216552734375,0.8674774169921875
1757088105616017200,7.44001708984375,1.140838623046875,0.9072113037109375,1.149627685546875
1757088105626064100,7.450064208984375,1.1906280517578125,1.356170654296875,1.18670654296875
1757088105636110000,7.460110107421875,1.030670166015625,1.764068603515625,1.169769287109375
1757088105646157000,7.470156982421875,0.3262176513671875,2.0364227294921875,1.025360107421875
1757088105656204300,7.480204345703125,0.1629638671875,1.75506591796875,0.7623291015625
1757088105666250200,7.490250244140625,0.452392578125,1.043212890625,0.5867919921875
1757088105676297200,7.500297119140625,0.6205902099609375,0.5877227783203125,0.4031524658203125
1757088105686344200,7.51034423828125,0.6182403564453125,0.372314453125,0.4133453369140625
1757088105696390100,7.52039013671875,0.35833740234375,0.3435516357421875,0.4297637939453125
1757088105706437000,7.53043701171875,0.1462249755859375,0.4209442138671875,0.39251708984375
1757088105716483000,7.540483154296875,0.173614501953125,0.48712158203125,0.3991851806640625
1757088105726530000,7.550530029296875,0.2446136474609375,0.6089935302734375,0.402130126953125
1757088105736577000,7.560576904296875,0.3284912109375,0.76116943359375,0.3915557861328125
1757088105746623000,7.570623046875,0.3963775634765625,0.95697021484375,0.3888092041015625
1757088105756670200,7.580670166015625,0.3993377685546875,1.117156982421875,0.354034423828125
1757088105766716200,7.590716064453125,0.4062652587890625,1.1619415283203125,0.3105010986328125
1757088105776763100,7.60076318359375,0.332550048828125,1.1065673828125,0.270477294921875
1757088105786810000,7.61081005859375,0.28741455078125,0.9981231689453125,0.2439117431640625
1757088105796856000,7.62085595703125,0.2625579833984375,0.9000396728515625,0.2337493896484375
1757088105806903000,7.630903076171875,0.2374267578125,0.8488616943359375,0.22137451171875
1757088105816949200,7.64094921875,0.1953125,0.847900390625,0.19952392578125
1757088105826996000,7.650995849609375,0.1583099365234375,0.89306640625,0.1869049072265625
1757088105837043000,7.66104296875,0.174407958984375,0.951141357421875,0.21240234375
1757088105847089200,7.671089111328125,0.19366455078125,1.00244140625,0.2482757568359375
1757088105857136000,7.68113623046875,0.1858673095703125,1.0298309326171875,0.296295166015625
1757088105867183000,7.69118310546875,0.1750335693359375,1.0440216064453125,0.33355712890625
1757088105877229300,7.701229248046875,0.1515045166015625,1.0377044677734375,0.370147705078125
1757088105887276300,7.7112763671875,0.1558074951171875,1.0008087158203125,0.399017333984375
1757088105897322200,7.721322265625,0.149932861328125,0.9633026123046875,0.4327545166015625
1757088105907369200,7.731369140625,0.147705078125,0.9279937744140625,0.4442138671875
1757088105917416200,7.741416259765625,0.130126953125,0.8842620849609375,0.466796875
1757088105927462100,7.751462158203125,0.13653564453125,0.8605804443359375,0.4707489013671875
1757088105937509000,7.761509033203125,0.112762451171875,0.850128173828125,0.47271728515625
1757088105947555000,7.77155517578125,0.078033447265625,0.855255126953125,0.461029052734375
1757088105957602000,7.78160205078125,0.0279693603515625,0.863189697265625,0.431732177734375
1757088105967649300,7.791649169921875,0.0112762451171875,0.8802032470703125,0.428558349609375
1757088105977695200,7.8016953125,0.01531982421875,0.903839111328125,0.440399169921875
1757088105987742200,7.8117421875,-0.02984619140625,0.91119384765625,0.439788818359375
1757088105997788200,7.8217880859375,-0.015167236328125,0.8900146484375,0.420745849609375
1757088106007835100,7.831835205078125,-0.0153656005859375,0.85870361328125,0.431854248046875
1757088106017882000,7.841882080078125,0.0157470703125,0.818634033203125,0.4327545166015625
1757088106027928000,7.851927978515625,0.0463409423828125,0.7460784912109375,0.43096923828125
1757088106037975000,7.86197509765625,0.089324951171875,0.70477294921875,0.428802490234375
1757088106048022000,7.87202197265625,0.104766845703125,0.7366790771484375,0.3959808349609375
1757088106058068000,7.88206787109375,0.1291656494140625,0.7570343017578125,0.3577880859375
1757088106068115200,7.892115234375,0.1391448974609375,0.77142333984375,0.345672607421875
1757088106078161200,7.9021611328125,0.1279754638671875,0.762542724609375,0.3226165771484375
1757088106088208100,7.9122080078125,0.0203704833984375,0.7783660888671875,0.32293701171875
1757088106098255000,7.922255126953125,-0.0370635986328125,0.860504150390625,0.258514404296875
1757088106108301000,7.932301025390625,0.061553955078125,0.9426727294921875,0.1309051513671875
1757088106118348000,7.94234814453125,0.212860107421875,1.03033447265625,0.047943115234375
1757088106128394200,7.952394287109375,0.2581024169921875,1.021240234375,-0.00921630859375
1757088106138441000,7.96244091796875,0.19085693359375,0.923736572265625,0.0648040771484375
1757088106148488000,7.972488037109375,0.1304779052734375,0.853790283203125,0.11090087890625
1757088106158534100,7.9825341796875,0.10235595703125,0.832916259765625,0.1563262939453125
1757088106168581000,7.9925810546875,0.0474090576171875,0.8279571533203125,0.2224578857421875
1757088106178627300,8.00262744140625,0.0126495361328125,0.8634185791015625,0.29248046875
1757088106188674300,8.01267431640625,-0.00006103515625,0.9373779296875,0.350341796875
1757088106198721300,8.02272119140625,0.0096282958984375,0.97039794921875,0.3744049072265625
1757088106208767200,8.032767333984374,0.0150909423828125,0.981475830078125,0.3617095947265625
1757088106218814200,8.042814208984375,0.0255279541015625,0.970001220703125,0.343963623046875
1757088106228860200,8.052860107421875,0.018829345703125,0.9588470458984375,0.325592041015625
1757088106238907100,8.0629072265625,0.018096923828125,0.9528961181640625,0.313323974609375
1757088106248954000,8.0729541015625,0.0025787353515625,0.9603424072265625,0.2935943603515625
1757088106259000000,8.083,-0.036041259765625,0.9778900146484375,0.259521484375
1757088106269047300,8.09304736328125,-0.0635986328125,1.01953125,0.2463836669921875
1757088106279094300,8.10309423828125,-0.0677337646484375,1.0394439697265625,0.2518310546875
1757088106289140200,8.11314013671875,-0.0532684326171875,1.0625457763671875,0.245697021484375
1757088106299187200,8.123187255859374,-0.055450439453125,1.1423797607421875,0.216552734375
1757088106309233200,8.133233154296875,-0.061920166015625,1.23095703125,0.1963348388671875
1757088106319280000,8.143280029296875,-0.0804290771484375,1.31866455078125,0.1910552978515625
1757088106329327000,8.1533271484375,-0.120208740234375,1.393829345703125,0.209869384765625
1757088106339373000,8.163373046875,-0.1800537109375,1.45916748046875,0.25823974609375
1757088106349420000,8.173419921875,-0.24847412109375,1.501312255859375,0.3273468017578125
1757088106359466000,8.183466064453125,-0.297149658203125,1.5184783935546875,0.3758392333984375
1757088106369513000,8.193512939453125,-0.288330078125,1.5157318115234375,0.344024658203125
1757088106379560200,8.203560302734376,-0.1870574951171875,1.48724365234375,0.27801513671875
1757088106389606100,8.213606201171874,-0.0405731201171875,1.4550933837890625,0.23004150390625
1757088106399653000,8.223653076171875,0.090484619140625,1.4378662109375,0.1950836181640625
1757088106409700000,8.2337001953125,0.1992645263671875,1.4082489013671875,0.1570587158203125
1757088106419746000,8.24374609375,0.31982421875,1.3572235107421875,0.1536865234375
1757088106429793000,8.25379296875,0.4210662841796875,1.2975616455078125,0.186492919921875
1757088106439839200,8.263839111328124,0.5099945068359375,1.225067138671875,0.2802734375
1757088106449886200,8.27388623046875,0.5635833740234375,1.1230621337890625,0.40911865234375
1757088106459933000,8.283932861328125,0.5850677490234375,1.1341552734375,0.51507568359375
1757088106469979400,8.2939794921875,0.542327880859375,1.2262115478515625,0.5883636474609375
1757088106480026400,8.3040263671875,0.456695556640625,1.30181884765625,0.64398193359375
1757088106490072600,8.314072509765625,0.3663787841796875,1.3844146728515625,0.6520233154296875
1757088106500119600,8.32411962890625,0.154144287109375,1.329498291015625,0.62579345703125
1757088106510166500,8.33416650390625,-0.09991455078125,1.252349853515625,0.54486083984375
1757088106520212500,8.34421240234375,-0.159088134765625,1.1469268798828125,0.4378662109375
1757088106530259500,8.354259521484375,-0.2336883544921875,1.1089324951171875,0.3821563720703125
1757088106540305400,8.364305419921875,-0.2280426025390625,1.16046142578125,0.3315582275390625
1757088106550352400,8.374352294921875,-0.165496826171875,1.1632232666015625,0.1316375732421875
1757088106560399400,8.3843994140625,-0.2378387451171875,1.13800048828125,-0.1207275390625
1757088106570445300,8.3944453125,-0.2053985595703125,1.12939453125,-0.0140838623046875
1757088106580492500,8.404492431640625,0.1015472412109375,1.1055908203125,0.228851318359375
1757088106590538500,8.41453857421875,0.4640045166015625,1.0140533447265625,0.4532012939453125
1757088106600585500,8.42458544921875,0.4616546630859375,1.098876953125,0.46160888671875
1757088106610632400,8.434632568359374,0.32293701171875,1.1367340087890625,0.4268951416015625
1757088106620678400,8.444678466796875,0.193267822265625,1.059326171875,0.3878326416015625
1757088106630725400,8.454725341796875,0.0512542724609375,1.03753662109375,0.37994384765625
1757088106640772400,8.4647724609375,-0.029541015625,1.0112457275390625,0.3739776611328125
1757088106650818300,8.474818359375,-0.0443878173828125,0.97784423828125,0.365386962890625
1757088106660865300,8.484865234375,-0.009674072265625,0.95989990234375,0.3260498046875
1757088106670911200,8.4949111328125,0.00286865234375,0.9691925048828125,0.29315185546875
1757088106680958500,8.50495849609375,0.007171630859375,0.97039794921875,0.3115386962890625
1757088106691005400,8.51500537109375,0.0105743408203125,0.935821533203125,0.375030517578125
1757088106701051400,8.525051513671874,0.0632476806640625,0.8308258056640625,0.42254638671875
1757088106711098400,8.535098388671875,0.1155853271484375,0.72210693359375,0.4100341796875
1757088106721144300,8.545144287109375,0.1464385986328125,0.6361236572265625,0.36688232421875
1757088106731191300,8.55519140625,0.1229400634765625,0.55340576171875,0.2855224609375
1757088106741238300,8.56523828125,0.14166259765625,0.4474029541015625,0.2354278564453125
1757088106751284500,8.575284423828125,0.1428680419921875,0.3602142333984375,0.1890106201171875
1757088106761331200,8.585331298828125,0.116546630859375,0.2918853759765625,0.1324920654296875
1757088106771377400,8.59537744140625,0.1125946044921875,0.2239532470703125,0.081146240234375
1757088106781424400,8.60542431640625,0.121337890625,0.1881561279296875,0.0402984619140625
1757088106791471400,8.615471435546874,0.1519927978515625,0.164154052734375,0.0101470947265625
1757088106801517600,8.625517578125,0.18829345703125,0.1694488525390625,-0.0117340087890625
1757088106811564500,8.635564453125,0.2049407958984375,0.1950225830078125,-0.0309600830078125
1757088106821610500,8.645610595703126,0.2153167724609375,0.251739501953125,-0.0203704833984375
1757088106831657500,8.655657470703124,0.2266845703125,0.2958526611328125,0.0251617431640625
1757088106841704400,8.665704345703125,0.222564697265625,0.354644775390625,0.1181793212890625
1757088106851750400,8.67575048828125,0.23779296875,0.3932952880859375,0.18896484375
1757088106861797400,8.68579736328125,0.2709808349609375,0.4037322998046875,0.223114013671875
1757088106871844400,8.69584423828125,0.3243865966796875,0.3854522705078125,0.21490478515625
1757088106881890300,8.705890380859374,0.391510009765625,0.3529510498046875,0.2022857666015625
1757088106891937500,8.7159375,0.4498443603515625,0.30999755859375,0.2010498046875
1757088106901983500,8.7259833984375,0.4810943603515625,0.2917022705078125,0.2374725341796875
1757088106912030500,8.736030517578126,0.4891357421875,0.2896881103515625,0.320587158203125
1757088106922077400,8.746077392578124,0.516815185546875,0.3038330078125,0.405303955078125
1757088106932123400,8.756123291015625,0.566619873046875,0.31512451171875,0.4681243896484375
1757088106942170400,8.76617041015625,0.5988922119140625,0.330352783203125,0.527618408203125
1757088106952216300,8.77621630859375,0.588348388671875,0.382476806640625,0.5695343017578125
1757088106962263300,8.78626318359375,0.6572723388671875,0.41510009765625,0.678253173828125
1757088106972310300,8.796310302734375,0.807586669921875,0.49432373046875,0.864105224609375
1757088106982356200,8.806356201171875,0.8455963134765625,0.7111358642578125,1.00445556640625
1757088106992403500,8.816403564453125,0.868194580078125,1.0238037109375,0.9378662109375
1757088107002449200,8.82644921875,0.95062255859375,1.3883819580078125,0.9736480712890625
1757088107012496400,8.836496337890624,0.5907440185546875,1.86663818359375,1.01690673828125
1757088107022543400,8.84654345703125,0.1934967041015625,2.164764404296875,1.042388916015625
1757088107032589300,8.85658935546875,0.0011749267578125,1.9797515869140625,0.9401092529296875
1757088107042636300,8.86663623046875,0.21417236328125,1.3111572265625,0.6008148193359375
1757088107052682500,8.8766826171875,0.39813232421875,0.7677154541015625,0.4017791748046875
1757088107062729500,8.8867294921875,0.3325653076171875,0.510009765625,0.2780914306640625
1757088107072776200,8.896776123046875,0.2664947509765625,0.404052734375,0.1857757568359375
1757088107082822400,8.906822509765625,0.242706298828125,0.445648193359375,0.1168365478515625
1757088107092869400,8.916869384765626,0.2585906982421875,0.5633087158203125,0.04119873046875
1757088107102915300,8.926915283203124,0.309967041015625,0.68133544921875,0.03387451171875
1757088107112962600,8.936962646484375,0.328887939453125,0.82806396484375,0.039215087890625
1757088107123009500,8.947009521484375,0.3066253662109375,1.018524169921875,0.05352783203125
1757088107133055500,8.957055419921875,0.310577392578125,1.2362823486328125,0.097686767578125
1757088107143102500,8.9671025390625,0.293243408203125,1.363037109375,0.1622161865234375
1757088107153149400,8.9771494140625,0.2029571533203125,1.357940673828125,0.204376220703125
1757088107163195400,8.9871953125,0.156158447265625,1.2845611572265625,0.2375030517578125
1757088107173242400,8.997242431640625,0.134521484375,1.1862945556640625,0.2694091796875
1757088107183288300,9.007288330078126,0.0995635986328125,1.0871124267578125,0.29437255859375
1757088107193335300,9.017335205078124,0.0580291748046875,1.0061492919921875,0.314117431640625
1757088107203382500,9.027382568359375,0.0550994873046875,0.946563720703125,0.3183135986328125
1757088107213428500,9.037428466796875,0.0638275146484375,0.907470703125,0.3282928466796875
1757088107223475500,9.047475341796876,0.074859619140625,0.8715972900390625,0.3438262939453125
1757088107233521400,9.057521484375,0.09075927734375,0.8526611328125,0.35955810546875
1757088107243568400,9.067568359375,0.0920257568359375,0.81512451171875,0.3567962646484375
1757088107253615400,9.077615478515625,0.0550689697265625,0.805755615234375,0.397857666015625
1757088107263661300,9.087661376953125,0.0523529052734375,0.833221435546875,0.455108642578125
1757088107273708300,9.097708251953126,0.049102783203125,0.8369140625,0.498779296875
1757088107283754200,9.107754150390624,0.041839599609375,0.8603057861328125,0.5441131591796875
1757088107293801200,9.11780126953125,0.034515380859375,0.868011474609375,0.588287353515625
1757088107303848400,9.127848388671875,0.034637451171875,0.8404693603515625,0.5593109130859375
1757088107313894400,9.137894287109376,0.0747528076171875,0.7833404541015625,0.510986328125
1757088107323941400,9.14794140625,0.0852813720703125,0.7222900390625,0.4589080810546875
1757088107333987600,9.157987548828125,0.0716705322265625,0.7018280029296875,0.425079345703125
1757088107344034600,9.16803466796875,0.080596923828125,0.6850738525390625,0.41448974609375
1757088107354081300,9.178081298828126,-0.009613037109375,0.7068328857421875,0.41180419921875
1757088107364127500,9.18812744140625,-0.058837890625,0.7243499755859375,0.4139251708984375
1757088107374174500,9.198174560546875,-0.0545806884765625,0.69659423828125,0.4021453857421875
1757088107384220400,9.208220458984375,-0.133056640625,0.673980712890625,0.4540863037109375
1757088107394267400,9.218267333984375,-0.233306884765625,0.7065582275390625,0.396148681640625
1757088107404314400,9.228314453125,-0.0258636474609375,0.861297607421875,0.1004180908203125
1757088107414360300,9.2383603515625,0.300750732421875,1.0329742431640625,-0.0704498291015625
1757088107424407600,9.248407470703125,0.346343994140625,1.1485137939453125,-0.141387939453125
1757088107434454500,9.25845458984375,0.2946319580078125,1.10894775390625,-0.1995849609375
1757088107444500500,9.26850048828125,0.19842529296875,0.999664306640625,-0.0933837890625
1757088107454547500,9.27854736328125,0.1552276611328125,0.9530792236328125,0.0428924560546875
1757088107464593400,9.288593505859374,0.1202545166015625,0.929962158203125,0.1597900390625
1757088107474641200,9.29864111328125,0.07464599609375,0.9373321533203125,0.2610626220703125
1757088107484688100,9.308688232421876,0.0404052734375,0.939453125,0.378997802734375
1757088107494734000,9.318734130859376,0.055145263671875,0.9552764892578125,0.4653778076171875
1757088107504781000,9.328781005859375,0.0876312255859375,0.984130859375,0.48114013671875
1757088107514827000,9.338826904296875,0.095123291015625,1.035003662109375,0.4640655517578125
1757088107524874000,9.3488740234375,0.1174774169921875,1.0278167724609375,0.41131591796875
1757088107534921000,9.3589208984375,0.1062164306640625,0.9915924072265625,0.3142852783203125
1757088107544967000,9.368966796875,0.07489013671875,0.9640045166015625,0.243072509765625
1757088107555014000,9.379013916015625,0.0254974365234375,0.95794677734375,0.21014404296875
1757088107565059800,9.389059814453125,-0.0321197509765625,0.9775390625,0.2014617919921875
1757088107575106800,9.39910693359375,-0.076995849609375,1.0218963623046875,0.210357666015625
1757088107585154000,9.409154052734374,-0.10504150390625,1.0672760009765625,0.2250213623046875
1757088107595200000,9.419199951171874,-0.12176513671875,1.1146697998046875,0.241790771484375
1757088107605247000,9.4292470703125,-0.1191558837890625,1.15216064453125,0.24383544921875
1757088107615293000,9.43929296875,-0.08270263671875,1.147735595703125,0.2412261962890625
1757088107625340000,9.44933984375,-0.0448760986328125,1.2049560546875,0.210968017578125
1757088107635387000,9.459386962890624,-0.0181732177734375,1.326141357421875,0.1807708740234375
1757088107645432800,9.469432861328125,-0.0223846435546875,1.474334716796875,0.157867431640625
1757088107655479800,9.479479736328125,-0.0747528076171875,1.564666748046875,0.137908935546875
1757088107665526000,9.489526123046875,-0.0803070068359375,1.520294189453125,0.1659088134765625
1757088107675573000,9.499572998046874,-0.0408477783203125,1.42852783203125,0.23724365234375
1757088107685620000,9.509619873046875,0.0278472900390625,1.430023193359375,0.2533111572265625
1757088107695666200,9.519666259765625,0.1044921875,1.46124267578125,0.2605133056640625
1757088107705713200,9.529713134765625,0.1631011962890625,1.464508056640625,0.2741851806640625
1757088107715759900,9.539759765625,0.2216949462890625,1.4143218994140625,0.288055419921875
1757088107725806000,9.54980615234375,0.2829742431640625,1.3566131591796875,0.2733154296875
1757088107735853000,9.55985302734375,0.3591461181640625,1.3131561279296875,0.2879638671875
1757088107745899000,9.56989892578125,0.4283294677734375,1.2648162841796875,0.3489532470703125
1757088107755946000,9.579946044921876,0.4890289306640625,1.229278564453125,0.43316650390625
1757088107765993000,9.589992919921874,0.5072174072265625,1.2118682861328125,0.5306549072265625
1757088107776039000,9.600038818359375,0.4934234619140625,1.17340087890625,0.616912841796875
1757088107786086100,9.610086181640625,0.4516143798828125,1.2655029296875,0.666290283203125
1757088107796132000,9.620132080078125,0.3273162841796875,1.2806243896484375,0.6566925048828125
1757088107806179000,9.630178955078126,0.16485595703125,1.254913330078125,0.579071044921875
1757088107816226000,9.64022607421875,0.0269775390625,1.2044525146484375,0.48358154296875
1757088107826272000,9.65027197265625,-0.0352020263671875,1.150482177734375,0.3715667724609375
1757088107836319000,9.660319091796875,-0.095611572265625,1.13897705078125,0.23602294921875
1757088107846365000,9.670364990234376,-0.1270294189453125,1.1475830078125,0.1054534912109375
1757088107856412000,9.680411865234374,-0.0803375244140625,1.152557373046875,0.034820556640625
1757088107866459000,9.690458984375,-0.1620025634765625,1.117919921875,-0.10211181640625
1757088107876504800,9.7005048828125,-0.2485809326171875,1.08929443359375,-0.177886962890625
1757088107886552000,9.710552001953126,-0.0689239501953125,1.11456298828125,-0.0281982421875
1757088107896597800,9.72059765625,0.1802520751953125,1.102508544921875,0.2336578369140625
1757088107906645000,9.73064501953125,0.4064178466796875,1.09783935546875,0.523101806640625
1757088107916692000,9.74069189453125,0.621734619140625,1.1083221435546875,0.626434326171875
1757088107926738000,9.750738037109375,0.4478607177734375,1.09405517578125,0.446746826171875
1757088107936785000,9.760784912109376,0.226043701171875,1.0836181640625,0.3130950927734375
1757088107946831000,9.7708310546875,0.054443359375,1.0825347900390625,0.2936248779296875
1757088107956877800,9.7808779296875,-0.03289794921875,1.050506591796875,0.2730712890625
1757088107966924800,9.7909248046875,-0.0383453369140625,0.974090576171875,0.273681640625
1757088107976971000,9.800970947265625,-0.02618408203125,0.8945159912109375,0.243316650390625
1757088107987018000,9.81101806640625,-0.031951904296875,0.8504180908203125,0.2191314697265625
1757088107997064000,9.82106396484375,-0.0388946533203125,0.837615966796875,0.2313385009765625
1757088108007111200,9.831111083984375,-0.0037689208984375,0.7801513671875,0.2778472900390625
1757088108017158100,9.841158203125,0.0662078857421875,0.6988983154296875,0.315521240234375
1757088108027204000,9.8512041015625,0.118896484375,0.61871337890625,0.3101806640625
1757088108037251000,9.8612509765625,0.1617431640625,0.54913330078125,0.3156890869140625
1757088108047297000,9.871297119140625,0.1563720703125,0.555328369140625,0.294677734375
1757088108057344000,9.881343994140625,0.1433563232421875,0.51025390625,0.2452239990234375
1757088108067391000,9.891390869140626,0.1570892333984375,0.4350738525390625,0.209075927734375
1757088108077437000,9.90143701171875,0.095703125,0.4024505615234375,0.12335205078125
1757088108087484000,9.91148388671875,0.1081695556640625,0.338958740234375,0.068511962890625
1757088108097531100,9.92153125,0.146514892578125,0.28375244140625,0.03021240234375
1757088108107577000,9.9315771484375,0.173248291015625,0.2504119873046875,-0.0030364990234375
1757088108117624000,9.9416240234375,0.2011871337890625,0.2496185302734375,-0.005401611328125
1757088108127670000,9.951669921875,0.22418212890625,0.2198486328125,-0.0089263916015625
1757088108137717000,9.961717041015625,0.247283935546875,0.195831298828125,-0.00958251953125
1757088108147763000,9.971762939453125,0.25201416015625,0.2056732177734375,-0.0005645751953125
1757088108157810000,9.981809814453126,0.254669189453125,0.21087646484375,0.0206451416015625
1757088108167857000,9.99185693359375,0.2569580078125,0.2198333740234375,0.0579071044921875
1757088108177902800,10.00190283203125,0.2671661376953125,0.23291015625,0.116485595703125
1757088108187949800,10.01194970703125,0.29791259765625,0.2377166748046875,0.1827392578125
1757088108197997000,10.0219970703125,0.3480987548828125,0.2361907958984375,0.266693115234375
1757088108208042800,10.032042724609376,0.395233154296875,0.251068115234375,0.3712310791015625
1757088108218090000,10.042090087890625,0.4181671142578125,0.3007354736328125,0.4588470458984375
1757088108228136000,10.052135986328125,0.410369873046875,0.3651885986328125,0.5135955810546875
1757088108238183000,10.062182861328125,0.4081573486328125,0.4254913330078125,0.5729522705078125
1757088108248230000,10.07222998046875,0.4497222900390625,0.48358154296875,0.654388427734375
1757088108258276000,10.082276123046874,0.459381103515625,0.561004638671875,0.7073974609375
1757088108268323000,10.092322998046875,0.497467041015625,0.63763427734375,0.727752685546875
1757088108278369000,10.102369140625,0.5573883056640625,0.7025909423828125,0.7609100341796875
1757088108288416000,10.112416015625,0.4873046875,0.756683349609375,0.7683563232421875
1757088108298463000,10.122462890625,0.4053497314453125,0.8577728271484375,0.65625
1757088108308509000,10.132509033203124,0.5718994140625,1.0010223388671875,0.4900054931640625
1757088108318556200,10.14255615234375,0.8798980712890625,1.219573974609375,0.531158447265625
1757088108328602000,10.15260205078125,1.0818328857421875,1.5412750244140625,0.7691497802734375
1757088108338649000,10.162649169921876,0.753021240234375,1.9533843994140625,1.105255126953125
1757088108348696000,10.172696044921874,-0.11187744140625,2.207305908203125,1.0789337158203125
1757088108358742000,10.182741943359375,-0.137664794921875,1.833526611328125,0.7894134521484375
1757088108368789000,10.1927890625,0.2853546142578125,1.1588897705078125,0.646240234375
1757088108378835000,10.2028349609375,0.45465087890625,0.781768798828125,0.5887451171875
1757088108388882000,10.2128818359375,0.2759857177734375,0.623809814453125,0.4339599609375
1757088108398929000,10.222928955078125,0.230560302734375,0.54962158203125,0.302154541015625
1757088108408974800,10.232974853515625,0.2788848876953125,0.563018798828125,0.2219390869140625
1757088108419022000,10.24302197265625,0.3083343505859375,0.6068267822265625,0.169921875
1757088108429068000,10.253068115234376,0.3053741455078125,0.7003326416015625,0.12152099609375
1757088108439115000,10.263114990234374,0.2794647216796875,0.8372039794921875,0.087249755859375
1757088108449162000,10.273161865234375,0.2526397705078125,0.995849609375,0.068756103515625
1757088108459208000,10.2832080078125,0.25103759765625,1.1590576171875,0.0675811767578125
1757088108469254400,10.29325439453125,0.2038726806640625,1.236358642578125,0.1168212890625
1757088108479300600,10.303300537109376,0.1565093994140625,1.1982269287109375,0.1790313720703125
1757088108489347600,10.31334765625,0.14154052734375,1.1313323974609375,0.2452850341796875
1757088108499394600,10.32339453125,0.1130218505859375,1.0390777587890625,0.316802978515625
1757088108509440800,10.333440673828125,0.0927734375,0.9605865478515625,0.3425750732421875
1757088108519487700,10.34348779296875,0.0906982421875,0.9284210205078125,0.348052978515625
1757088108529533700,10.35353369140625,0.0922393798828125,0.9049072265625,0.3197021484375
1757088108539580700,10.36358056640625,0.1026763916015625,0.89190673828125,0.292755126953125
1757088108549627600,10.373627685546875,0.052398681640625,0.8961334228515625,0.2818603515625
1757088108559673600,10.383673583984375,0.049285888671875,0.8919219970703125,0.2822113037109375
1757088108569720600,10.393720458984374,0.0363006591796875,0.930694580078125,0.3203277587890625
1757088108579766500,10.4037666015625,-0.0142059326171875,0.95867919921875,0.37933349609375
1757088108589813800,10.413813720703125,0.01751708984375,0.97344970703125,0.438018798828125
1757088108599860700,10.42386083984375,0.027679443359375,0.9760894775390625,0.4835662841796875
1757088108609906700,10.43390673828125,0.049591064453125,0.9497222900390625,0.5159149169921875
1757088108619953700,10.44395361328125,0.0851287841796875,0.880859375,0.497955322265625
1757088108629999600,10.45399951171875,0.08966064453125,0.8013916015625,0.4705810546875
1757088108640046600,10.464046630859375,0.0623779296875,0.7640533447265625,0.433380126953125
1757088108650093600,10.474093505859376,0.0550079345703125,0.7237548828125,0.361053466796875
1757088108660139500,10.484139404296876,0.0239105224609375,0.69317626953125,0.355621337890625
1757088108670186500,10.4941865234375,-0.0362701416015625,0.6707611083984375,0.40478515625
1757088108680232400,10.504232421875,-0.037261962890625,0.67620849609375,0.4135589599609375
1757088108690279400,10.514279541015625,-0.041259765625,0.7144775390625,0.4010467529296875
1757088108700326700,10.52432666015625,-0.088836669921875,0.7253265380859375,0.387115478515625
1757088108710372600,10.53437255859375,-0.1364898681640625,0.7404327392578125,0.3629913330078125
1757088108720419600,10.544419677734375,-0.0789337158203125,0.8247833251953125,0.2417144775390625
1757088108730465500,10.554465576171875,0.24371337890625,0.97491455078125,0.0162811279296875
1757088108740512500,10.564512451171876,0.4253997802734375,1.120697021484375,-0.0668792724609375
1757088108750559500,10.5745595703125,0.35003662109375,1.169830322265625,-0.1071624755859375
1757088108760605700,10.584605712890625,0.24993896484375,1.0780181884765625,-0.1235504150390625
1757088108770652400,10.59465234375,0.098236083984375,0.957061767578125,-0.037384033203125
1757088108780698600,10.60469873046875,0.0674285888671875,0.9263916015625,0.0366058349609375
1757088108790745600,10.61474560546875,0.0209808349609375,0.9099273681640625,0.120513916015625
1757088108800792600,10.62479248046875,-0.0295867919921875,0.8936004638671875,0.20489501953125
1757088108810838800,10.6348388671875,-0.03570556640625,0.8851165771484375,0.2836456298828125
1757088108820885800,10.6448857421875,-0.0269317626953125,0.89727783203125,0.3326568603515625
1757088108830931700,10.654931640625,-0.0321807861328125,0.9304351806640625,0.33612060546875
1757088108840978700,10.664978759765624,-0.0215911865234375,0.95233154296875,0.3256683349609375
1757088108851025700,10.675025634765625,-0.0262451171875,0.962646484375,0.3079833984375
1757088108861071600,10.685071533203125,-0.038299560546875,0.9480743408203125,0.2935943603515625
1757088108871118600,10.69511865234375,-0.0493621826171875,0.95123291015625,0.3141937255859375
1757088108881164500,10.70516455078125,-0.0246124267578125,0.94091796875,0.32025146484375
1757088108891211500,10.71521142578125,0.0135650634765625,0.9224395751953125,0.320709228515625
1757088108901258800,10.7252587890625,0.0466461181640625,0.9315032958984375,0.3312225341796875
1757088108911304700,10.7353046875,0.070892333984375,0.94696044921875,0.33587646484375
1757088108921351700,10.7453515625,0.080780029296875,0.9854888916015625,0.3377838134765625
1757088108931397600,10.755397705078124,0.057861328125,1.022308349609375,0.327178955078125
1757088108941444600,10.765444580078125,0.0224761962890625,1.028778076171875,0.3073272705078125
1757088108951491600,10.77549169921875,-0.0106353759765625,1.01806640625,0.2785186767578125
1757088108961537500,10.78553759765625,-0.037017822265625,1.0066375732421875,0.24798583984375
1757088108971584500,10.79558447265625,-0.0622100830078125,1.0081024169921875,0.216094970703125
1757088108981630500,10.80563037109375,-0.0845489501953125,1.02197265625,0.1971282958984375
1757088108991677400,10.815677490234375,-0.100006103515625,1.0472564697265625,0.18878173828125
1757088109001724700,10.825724609375,-0.117706298828125,1.0788726806640625,0.17340087890625
1757088109011770400,10.835770263671876,-0.126708984375,1.1253204345703125,0.1604766845703125
1757088109021817600,10.845817626953124,-0.130523681640625,1.2051239013671875,0.1621551513671875
1757088109031863800,10.85586376953125,-0.1519927978515625,1.317474365234375,0.183013916015625
1757088109041910500,10.86591064453125,-0.213714599609375,1.423736572265625,0.2216796875
1757088109051957500,10.87595751953125,-0.28948974609375,1.459991455078125,0.2698822021484375
1757088109062003700,10.886003662109376,-0.2952117919921875,1.398284912109375,0.2877044677734375
1757088109072050700,10.89605078125,-0.255706787109375,1.3290863037109375,0.2493133544921875
1757088109082096600,10.9060966796875,-0.164886474609375,1.2924652099609375,0.2241363525390625
1757088109092143600,10.9161435546875,-0.0401611328125,1.3162078857421875,0.172607421875
1757088109102190600,10.926190673828126,0.0523223876953125,1.3602447509765625,0.0271148681640625
1757088109112236500,10.936236572265624,0.140533447265625,1.4083251953125,-0.0473785400390625
1757088109122283800,10.94628369140625,0.20751953125,1.4195709228515625,-0.0723419189453125
1757088109132329700,10.956329833984375,0.2591400146484375,1.3846435546875,-0.0590057373046875
1757088109142376700,10.966376708984376,0.2768707275390625,1.33154296875,0.0091400146484375
1757088109152423700,10.976423583984374,0.2987823486328125,1.2433319091796875,0.1060333251953125
1757088109162469600,10.9864697265625,0.3166961669921875,1.1583099365234375,0.219512939453125
1757088109172516600,10.9965166015625,0.3223876953125,1.11700439453125,0.34393310546875
1757088109182562600,11.0065625,0.338623046875,1.1026153564453125,0.4521026611328125
1757088109192609500,11.016609619140626,0.349334716796875,1.1195068359375,0.5813446044921875
1757088109202656500,11.026656494140624,0.3406982421875,1.115386962890625,0.6896820068359375
1757088109212702500,11.036702392578125,0.3336334228515625,1.0762176513671875,0.777984619140625
1757088109222749700,11.046749755859375,0.2674560546875,1.0825347900390625,0.7724151611328125
1757088109232795600,11.056795654296875,0.12945556640625,1.1178741455078125,0.7136993408203125
1757088109242842600,11.066842529296874,0.0189208984375,1.113037109375,0.6635284423828125
1757088109252889600,11.0768896484375,-0.0688018798828125,1.0988311767578125,0.598052978515625
1757088109262935600,11.086935546875,-0.119720458984375,1.063446044921875,0.49371337890625
1757088109272982500,11.096982421875,-0.1406097412109375,1.02423095703125,0.3778533935546875
1757088109283028500,11.107028564453126,-0.1518096923828125,0.9957427978515625,0.2528228759765625
1757088109293075500,11.117075439453124,-0.1545562744140625,0.9615936279296875,0.16259765625
1757088109303122400,11.127122314453125,-0.1312103271484375,0.945037841796875,0.1275177001953125
1757088109313168600,11.137168701171875,-0.137298583984375,0.9440155029296875,0.13067626953125
1757088109323215400,11.14721533203125,-0.0554046630859375,0.97039794921875,0.24371337890625
1757088109333261600,11.157261474609374,0.228851318359375,1.0017242431640625,0.4551239013671875
1757088109343308800,11.167308837890625,0.3880157470703125,1.04620361328125,0.552093505859375
1757088109353355500,11.17735546875,0.46826171875,1.05419921875,0.531768798828125
1757088109363401700,11.187401611328125,0.4139251708984375,1.0554962158203125,0.421173095703125
1757088109373448700,11.19744873046875,0.2643890380859375,1.062164306640625,0.3416290283203125
1757088109383494700,11.20749462890625,0.1739349365234375,1.0360565185546875,0.2348175048828125
1757088109393541600,11.217541748046875,0.1252288818359375,0.986785888671875,0.1891021728515625
1757088109403588600,11.227588623046875,0.0956878662109375,0.960113525390625,0.184967041015625
1757088109413634600,11.237634521484376,0.0966644287109375,0.9008331298828125,0.15283203125
1757088109423681500,11.247681640625,0.0838165283203125,0.8658294677734375,0.1421966552734375
1757088109433727500,11.2577275390625,0.0777740478515625,0.8426666259765625,0.1519927978515625
1757088109443774700,11.267774658203125,0.0995941162109375,0.82098388671875,0.160919189453125
1757088109453821700,11.27782177734375,0.135345458984375,0.7795257568359375,0.164337158203125
1757088109463867600,11.28786767578125,0.2061920166015625,0.7657012939453125,0.2186737060546875
1757088109473914600,11.29791455078125,0.237335205078125,0.773834228515625,0.249847412109375
1757088109483960600,11.307960693359375,0.2306976318359375,0.76861572265625,0.296783447265625
1757088109494007800,11.3180078125,0.251739501953125,0.7776336669921875,0.3345794677734375
1757088109504054800,11.3280546875,0.254180908203125,0.7862091064453125,0.3481292724609375
1757088109514100700,11.338100830078124,0.2513427734375,0.7788238525390625,0.351959228515625
1757088109524147700,11.348147705078125,0.2486114501953125,0.7553558349609375,0.3390655517578125
1757088109534193700,11.358193603515625,0.2429962158203125,0.7485504150390625,0.3194580078125
1757088109544240600,11.36824072265625,0.2510223388671875,0.74700927734375,0.3323974609375
1757088109554287600,11.37828759765625,0.2508087158203125,0.717376708984375,0.3287506103515625
1757088109564333600,11.38833349609375,0.2536163330078125,0.7007904052734375,0.3299102783203125
1757088109574380500,11.398380615234375,0.2701416015625,0.643798828125,0.32086181640625
1757088109584426800,11.4084267578125,0.261199951171875,0.609527587890625,0.3051605224609375
1757088109594473700,11.4184736328125,0.2730255126953125,0.5695037841796875,0.2930450439453125
1757088109604520700,11.428520751953124,0.311859130859375,0.52557373046875,0.2829742431640625
1757088109614567000,11.43856689453125,0.285064697265625,0.516387939453125,0.2392425537109375
1757088109624614000,11.44861376953125,0.2984466552734375,0.5062255859375,0.2160491943359375
1757088109634659800,11.458659912109376,0.3298797607421875,0.4737091064453125,0.2240753173828125
1757088109644706800,11.468706787109374,0.33563232421875,0.459381103515625,0.2328338623046875
1757088109654753800,11.47875390625,0.3477020263671875,0.4544525146484375,0.25335693359375
1757088109664799700,11.4887998046875,0.37017822265625,0.4543304443359375,0.2835235595703125
1757088109674846700,11.4988466796875,0.3917083740234375,0.4528961181640625,0.30474853515625
1757088109684892700,11.508892578125,0.4167633056640625,0.452423095703125,0.31610107421875
1757088109694939600,11.518939697265624,0.43524169921875,0.4454345703125,0.3182830810546875
1757088109704987000,11.52898681640625,0.4414520263671875,0.4343719482421875,0.323577880859375
1757088109715032800,11.53903271484375,0.4389801025390625,0.4261322021484375,0.3272705078125
1757088109725079800,11.549079833984376,0.4316253662109375,0.416900634765625,0.340484619140625
1757088109735125800,11.559125732421874,0.427215576171875,0.4037933349609375,0.369476318359375
1757088109745172700,11.5691728515625,0.441131591796875,0.3922882080078125,0.4105072021484375
1757088109755218700,11.57921875,0.4651947021484375,0.3847198486328125,0.4501495361328125
1757088109765265700,11.589265625,0.4971923828125,0.3793792724609375,0.486480712890625
1757088109775312600,11.599312744140626,0.5075225830078125,0.376556396484375,0.524505615234375
1757088109785358600,11.609358642578124,0.5101318359375,0.377471923828125,0.564971923828125
1757088109795405600,11.619405517578125,0.50750732421875,0.3853759765625,0.6055755615234375
1757088109805451500,11.629451416015625,0.5024566650390625,0.40496826171875,0.6356048583984375
1757088109815498800,11.639498779296876,0.50433349609375,0.4313812255859375,0.64471435546875
1757088109825545700,11.649545654296874,0.507476806640625,0.4539794921875,0.6272430419921875
1757088109835591700,11.659591796875,0.51593017578125,0.471649169921875,0.5941619873046875
1757088109845638700,11.669638671875,0.54351806640625,0.4813690185546875,0.5673370361328125
1757088109855685600,11.679685546875,0.58514404296875,0.49127197265625,0.5769500732421875
1757088109865731800,11.68973193359375,0.7151641845703125,0.5214385986328125,0.6870880126953125
1757088109875778600,11.699778564453124,0.9201812744140625,0.6316680908203125,0.918792724609375
1757088109885824800,11.70982470703125,1.081573486328125,0.826873779296875,1.089691162109375
1757088109895871700,11.719871826171875,1.091522216796875,0.9800567626953125,1.0845794677734375
1757088109905917700,11.729917724609376,0.85723876953125,1.0513153076171875,0.9951324462890625
1757088109915965000,11.73996484375,0.482330322265625,1.0740509033203125,0.8567352294921875
1757088109926012000,11.750011962890625,0.222869873046875,0.998291015625,0.6136627197265625
1757088109936057900,11.760057861328125,0.3417816162109375,0.80267333984375,0.35784912109375
1757088109946104800,11.770104736328125,0.6342315673828125,0.6268310546875,0.2461395263671875
1757088109956150800,11.78015087890625,0.7489013671875,0.57635498046875,0.316497802734375
1757088109966197800,11.79019775390625,0.5789337158203125,0.630615234375,0.4347381591796875
1757088109976244700,11.80024462890625,0.291351318359375,0.7027435302734375,0.5467681884765625
1757088109986290700,11.810290771484375,0.15179443359375,0.7812652587890625,0.57537841796875
1757088109996337700,11.820337646484376,0.338226318359375,0.86444091796875,0.551849365234375
1757088110006383600,11.830383544921874,0.4909820556640625,1.002227783203125,0.493560791015625
1757088110016430600,11.8404306640625,0.43585205078125,1.10821533203125,0.4189453125
1757088110026477800,11.850477783203125,0.3276519775390625,1.12164306640625,0.3645172119140625
1757088110036523800,11.860523681640625,0.308319091796875,1.0764617919921875,0.3430938720703125
1757088110046570800,11.87057080078125,0.338470458984375,1.010711669921875,0.3515625
1757088110056616700,11.88061669921875,0.3240814208984375,0.946044921875,0.3636322021484375
1757088110066663700,11.89066357421875,0.285308837890625,0.8769073486328125,0.3341064453125
1757088110076710700,11.900710693359375,0.251617431640625,0.8378448486328125,0.28741455078125
1757088110086756600,11.910756591796876,0.2311248779296875,0.8320770263671875,0.2359619140625
1757088110096803600,11.920803466796874,0.22650146484375,0.8395233154296875,0.1866912841796875
1757088110106849800,11.930849853515625,0.2239227294921875,0.8645477294921875,0.1472625732421875
1757088110116896500,11.940896484375,0.2327423095703125,0.9023895263671875,0.141510009765625
1757088110126943700,11.95094384765625,0.2269439697265625,0.94097900390625,0.1562347412109375
1757088110136990000,11.960989990234374,0.20599365234375,0.969482421875,0.1840057373046875
1757088110147036700,11.97103662109375,0.18499755859375,0.9791259765625,0.2193450927734375
1757088110157083000,11.981082763671875,0.1766204833984375,0.964935302734375,0.269775390625
1757088110167129900,11.9911298828125,0.1684722900390625,0.9553070068359375,0.31695556640625
1757088110177176800,12.0011767578125,0.153289794921875,0.94482421875,0.349639892578125
1757088110187222800,12.011222900390624,0.1482696533203125,0.9384918212890625,0.36480712890625
1757088110197269800,12.021269775390625,0.139923095703125,0.91766357421875,0.385894775390625
1757088110207315700,12.031315673828125,0.1468048095703125,0.8900604248046875,0.376922607421875
1757088110217362700,12.04136279296875,0.1400604248046875,0.8624267578125,0.3544158935546875
1757088110227410000,12.051409912109374,0.13922119140625,0.8312530517578125,0.3361663818359375
1757088110237456000,12.061455810546875,0.1427154541015625,0.804840087890625,0.2984161376953125
1757088110247502800,12.0715029296875,0.116241455078125,0.7996673583984375,0.29241943359375
1757088110257548800,12.081548828125,0.1076812744140625,0.81414794921875,0.284637451171875
1757088110267595800,12.091595703125,0.1077880859375,0.8261871337890625,0.28692626953125
1757088110277641700,12.101641845703124,0.0908966064453125,0.8570556640625,0.3021087646484375
1757088110287688700,12.111688720703125,0.0799713134765625,0.89837646484375,0.3115692138671875
1757088110297735700,12.121735595703125,0.07537841796875,0.945587158203125,0.331390380859375
1757088110307781600,12.13178173828125,0.0841217041015625,0.9836883544921875,0.3719482421875
1757088110317828600,12.14182861328125,0.0795440673828125,1.0015411376953125,0.412933349609375
1757088110327874600,12.15187451171875,0.0585784912109375,1.0158233642578125,0.4539642333984375
1757088110337921500,12.161921630859375,0.0688018798828125,1.0132293701171875,0.5014495849609375
1757088110347968800,12.17196875,0.0616607666015625,0.9928131103515625,0.5137176513671875
1757088110358014700,12.1820146484375,0.0806732177734375,0.9621124267578125,0.504608154296875
1757088110368061700,12.192061767578124,0.11077880859375,0.9178009033203125,0.466339111328125
1757088110378108000,12.20210791015625,0.1037139892578125,0.902191162109375,0.433868408203125
1757088110388154600,12.212154541015625,0.0894317626953125,0.8906097412109375,0.4086151123046875
1757088110398201600,12.22220166015625,0.0836639404296875,0.85821533203125,0.393402099609375
1757088110408247800,12.232247802734374,0.0761260986328125,0.8473052978515625,0.358001708984375
1757088110418294800,12.242294677734375,0.06060791015625,0.8626556396484375,0.32855224609375
1757088110428340700,12.2523408203125,0.04034423828125,0.86376953125,0.3114013671875
1757088110438387700,12.2623876953125,0.022613525390625,0.8741607666015625,0.292572021484375
1757088110448435000,12.27243505859375,-0.0115966796875,0.8981781005859375,0.292266845703125
1757088110458481000,12.28248095703125,-0.0272369384765625,0.9282073974609375,0.28924560546875
1757088110468527900,12.29252783203125,-0.04278564453125,0.954681396484375,0.288116455078125
1757088110478574000,12.302573974609375,-0.0631103515625,0.9876251220703125,0.2811431884765625
1757088110488621000,12.31262109375,-0.068603515625,1.0118865966796875,0.2572479248046875
1757088110498668000,12.32266796875,-0.0746002197265625,1.01446533203125,0.2276458740234375
1757088110508714000,12.3327138671875,-0.0720062255859375,0.9994659423828125,0.192169189453125
1757088110518761000,12.342760986328125,-0.0479278564453125,0.9792327880859375,0.16204833984375
1757088110528807000,12.352806884765625,-0.024749755859375,0.959259033203125,0.1317291259765625
1757088110538854000,12.36285400390625,-0.000762939453125,0.9501953125,0.0998687744140625
1757088110548901000,12.372901123046875,0.0198822021484375,0.95147705078125,0.0701446533203125
1757088110558947000,12.382947021484375,0.0309295654296875,0.9472503662109375,0.0599365234375
1757088110568994000,12.392994140625,0.0569610595703125,0.9344635009765625,0.05718994140625
1757088110579040000,12.4030400390625,0.0878753662109375,0.944580078125,0.058319091796875
1757088110589087000,12.4130869140625,0.1183319091796875,0.973052978515625,0.0723724365234375
1757088110599134000,12.423134033203125,0.123077392578125,0.990509033203125,0.088531494140625
1757088110609180000,12.433179931640625,0.09552001953125,0.9990386962890625,0.1113433837890625
1757088110619227000,12.443226806640626,0.043243408203125,0.999786376953125,0.1440582275390625
1757088110629272800,12.45327294921875,0.011505126953125,0.982147216796875,0.182769775390625
1757088110639319800,12.46331982421875,-0.0061798095703125,0.9792022705078125,0.217987060546875
1757088110649367000,12.473366943359375,-0.0224151611328125,0.9803314208984375,0.2492523193359375
1757088110659412700,12.483412841796875,-0.0315399169921875,0.9810333251953125,0.27838134765625
1757088110669460000,12.4934599609375,-0.0408477783203125,0.971710205078125,0.30535888671875
1757088110679506200,12.503506103515624,-0.056610107421875,0.9542388916015625,0.3273468017578125
1757088110689553000,12.513552978515625,-0.074951171875,0.9404144287109375,0.3433990478515625
1757088110699600000,12.523599853515625,-0.0897369384765625,0.92987060546875,0.3526458740234375
1757088110709646000,12.53364599609375,-0.095489501953125,0.917572021484375,0.3567047119140625
1757088110719693000,12.543693115234374,-0.0953216552734375,0.91229248046875,0.355010986328125
1757088110729739000,12.553739013671875,-0.08367919921875,0.9087677001953125,0.34478759765625
1757088110739786000,12.563785888671875,-0.0676116943359375,0.9139556884765625,0.323699951171875
1757088110749833000,12.5738330078125,-0.047698974609375,0.9242706298828125,0.304840087890625
1757088110759879000,12.58387890625,-0.02093505859375,0.93218994140625,0.2812652587890625
1757088110769926100,12.593926025390624,0.0104827880859375,0.9472198486328125,0.261260986328125
1757088110779972000,12.60397216796875,0.04705810546875,0.973785400390625,0.2488861083984375
1757088110790019000,12.61401904296875,0.0655517578125,1.001861572265625,0.24554443359375
1757088110800066000,12.624066162109376,0.0587921142578125,1.034393310546875,0.247772216796875
1757088110810112000,12.634112060546874,0.0376129150390625,1.048187255859375,0.2509765625
1757088110820159000,12.644158935546875,0.0071258544921875,1.035125732421875,0.253021240234375
1757088110830205000,12.654204833984375,-0.0280609130859375,0.998504638671875,0.254608154296875
1757088110840252000,12.664251953125,-0.056610107421875,0.9682769775390625,0.26873779296875
1757088110850297900,12.6742978515625,-0.07293701171875,0.949676513671875,0.2894744873046875
1757088110860344800,12.6843447265625,-0.0839385986328125,0.945404052734375,0.3126373291015625
1757088110870392000,12.69439208984375,-0.094482421875,0.9461669921875,0.33526611328125
1757088110880438000,12.70443798828125,-0.10540771484375,0.9385223388671875,0.348846435546875
1757088110890485000,12.714485107421876,-0.1151885986328125,0.92864990234375,0.361297607421875
1757088110900531000,12.724531005859374,-0.121795654296875,0.911346435546875,0.3726043701171875
1757088110910578000,12.734577880859375,-0.1264190673828125,0.9019317626953125,0.3780670166015625
1757088110920625000,12.744625,-0.1333465576171875,0.9060821533203125,0.3876495361328125
1757088110930671000,12.754671142578125,-0.1421051025390625,0.9287109375,0.397705078125
1757088110940717800,12.7647177734375,-0.1516571044921875,0.9601287841796875,0.40069580078125
1757088110950764000,12.774763916015624,-0.1665496826171875,0.9846343994140625,0.39984130859375
1757088110960811000,12.78481103515625,-0.181976318359375,0.990753173828125,0.3899078369140625
1757088110970858000,12.79485791015625,-0.195953369140625,0.9676055908203125,0.3707427978515625
1757088110980904000,12.804904052734376,-0.2096710205078125,0.936248779296875,0.3463287353515625
1757088110990951200,12.814951171875,-0.2162933349609375,0.9276885986328125,0.3143310546875
1757088111000997000,12.8249970703125,-0.244049072265625,0.9562530517578125,0.2479400634765625
1757088111011044000,12.835044189453125,-0.269561767578125,0.9388275146484375,0.196136474609375
1757088111021091000,12.845091064453126,-0.1800079345703125,0.9390106201171875,0.1490020751953125
1757088111031137000,12.855136962890626,-0.1381988525390625,0.9871826171875,0.125335693359375
1757088111041184000,12.86518408203125,-0.08197021484375,0.99261474609375,0.1072235107421875
1757088111051230000,12.87522998046875,-0.005584716796875,0.9692535400390625,0.0909271240234375
1757088111061277000,12.88527685546875,0.1100006103515625,0.95849609375,0.080108642578125
1757088111071324000,12.895323974609376,0.2843780517578125,0.982574462890625,0.0894622802734375
1757088111081369900,12.905369873046874,0.245880126953125,1.0077667236328125,0.129364013671875
1757088111091417000,12.9154169921875,0.1598663330078125,0.98248291015625,0.1729583740234375
1757088111101463000,12.925463134765625,0.115386962890625,1.018829345703125,0.172882080078125
1757088111111510000,12.935510009765625,0.0619049072265625,1.073211669921875,0.199188232421875
1757088111121557000,12.945556884765624,0.0169830322265625,1.1077423095703125,0.2562408447265625
1757088111131603000,12.95560302734375,-0.0047760009765625,1.119476318359375,0.2940521240234375
1757088111141650000,12.96564990234375,0.0083465576171875,1.1104888916015625,0.34295654296875
1757088111151696000,12.97569580078125,0.0050506591796875,1.0814056396484375,0.3932342529296875
1757088111161742800,12.985742919921876,-0.00054931640625,1.0441131591796875,0.417938232421875
1757088111171789800,12.995789794921874,0.036102294921875,1.0086822509765625,0.4563751220703125
1757088111181835800,13.005835693359375,0.0765380859375,0.9962615966796875,0.49835205078125
1757088111191883000,13.015883056640625,0.0980072021484375,0.9669952392578125,0.470428466796875
1757088111201929200,13.02592919921875,0.05999755859375,0.9720306396484375,0.4500885009765625
1757088111211976000,13.035975830078126,0.032379150390625,0.96807861328125,0.4283294677734375
1757088111222022100,13.046022216796874,0.0116424560546875,0.98028564453125,0.3988037109375
1757088111232069000,13.056069091796875,0.0095977783203125,0.997589111328125,0.35736083984375
1757088111242116000,13.0661162109375,0.021453857421875,0.9632568359375,0.334197998046875
1757088111252162000,13.076162109375,0.037994384765625,0.947052001953125,0.291961669921875
1757088111262209000,13.086208984375,0.03765869140625,0.951263427734375,0.248291015625
1757088111272255000,13.0962548828125,0.0487060546875,0.9497833251953125,0.214935302734375
1757088111282302000,13.106302001953125,0.032135009765625,0.9563751220703125,0.1842193603515625
1757088111292349000,13.116348876953126,0.0092010498046875,0.9613189697265625,0.1524505615234375
