time,seconds_elapsed,z,y,x
1757088098196578800,0.020578857421875,-0.6013683950692414,0.11088964769244193,-0.02007891143262386
1757088098206625800,0.030625732421875,-0.2945055088996887,0.04790215338170528,0.051182015302591026
1757088098216672800,0.0406728515625,0.2368973695397377,-0.010696750581264495,0.16225978771196678
1757088098226718700,0.05071875,0.4672925175786018,-0.18748619983457027,0.08621590101653709
1757088098236766000,0.060765869140625,0.2359516131222248,-0.5171886212565004,-0.19022347931135444
1757088098246812000,0.07081201171875,0.28856442841291424,-0.15323957377448677,-0.7428076409347355
1757088098256859000,0.08085888671875,0.8597627261459827,0.599702946075052,-0.8100489932976662
1757088098266905900,0.09090576171875,1.1212386566251515,0.7649041758000851,-0.5823136390525847
1757088098276951800,0.100951904296875,0.7931617175132035,0.6727621909365058,-0.4942886610537767
1757088098286998800,0.110998779296875,0.19518062679469583,0.6517812160976231,-0.47047691976837813
1757088098297045800,0.121045654296875,-0.13362462659180163,0.7311416069298983,-0.24656974550932645
1757088098307091700,0.131091796875,-0.46763972358107564,0.8256566045351326,0.06380524043440819
1757088098317138700,0.141138671875,-0.7134171496689319,0.8295642794981598,0.3283247033279389
1757088098327186000,0.15118603515625,-0.5119283626407385,0.5864338607877493,0.6148991269674152
1757088098337232000,0.16123193359375,0.0780693281084299,0.12116174312084912,1.056656221273169
1757088098347278800,0.17127880859375,0.6804004307299852,-0.07442395734339952,1.3840559187106787
1757088098357325800,0.181325927734375,1.3016747187525033,0.03182254071831703,1.350082337438315
1757088098367371800,0.191371826171875,1.7826561544656752,0.1362970606714487,0.9534256369665265
1757088098377418800,0.201418701171875,1.9615788894206285,0.05670329947471618,0.056897068481147284
1757088098387465700,0.2114658203125,1.9152859248012304,-0.21647388245314358,-0.8553232823938131
1757088098397511700,0.22151171875,1.8133049752295016,-0.36622166858911515,-1.1935573122523724
1757088098407558700,0.23155859375,1.6596008526831865,-0.13723638734817503,-1.124669215595722
1757088098417604600,0.2416044921875,1.4114555284202097,0.13394728267490863,-0.8028354086570442
1757088098427651800,0.25165185546875,0.9841776258438825,0.37691111264675853,-0.08230024367645382
1757088098437698800,0.26169873046875,0.5293938767045736,0.6431736928805708,0.4232132834859192
1757088098447744800,0.271744873046875,0.23117373119592666,0.6410366808518767,0.401896646951884
1757088098457791700,0.281791748046875,0.153503047016263,0.5351698297575116,0.3190370158270001
1757088098467838000,0.291837890625,0.007304185533523559,0.3051584203392267,0.4738645894452929
1757088098477884200,0.30188427734375,0.19537410354018211,0.014229893143475055,1.1234596936754881
1757088098487931100,0.31193115234375,0.5548264241248368,0.14694617271870375,1.5963145215563475
1757088098497978000,0.32197802734375,1.0969564482837915,0.28742081133574243,1.3509104588255285
1757088098508024300,0.3320244140625,1.4988281069248914,0.23584084622412918,0.8586280230276286
1757088098518071300,0.3420712890625,1.8754624484568834,0.41216158198714253,0.5026658826462924
1757088098528118000,0.352117919921875,1.8642630090504884,0.7141060087159276,-0.13445567058846353
1757088098538164200,0.362164306640625,1.0311720167309044,0.7200210779786109,-2.3711237130381164
1757088098548211200,0.372211181640625,1.0388158094823359,0.7409446235418319,-1.9081134028233586
1757088098558258200,0.382258056640625,1.0273848994076251,1.5719976802930236,-0.6260771582596004
1757088098568304000,0.39230419921875,1.2938216671645641,1.6593915938466786,-0.0032151626542210577
1757088098578351400,0.402351318359375,1.6536118414014578,1.6533229414574802,0.1700534920617938
1757088098588397000,0.41239697265625,2.120060309371352,1.7534749220363794,-0.2284656412810087
1757088098598444300,0.4224443359375,1.7327601969182491,1.4100652431055902,-0.661030836610496
1757088098608491300,0.4324912109375,1.8635516459107397,1.5686054075062275,-0.613870441506803
1757088098618537200,0.442537109375,2.0538860017180443,2.125451208629459,-0.33308249231427906
1757088098628584200,0.452584228515625,2.1959715826630593,2.1379840885967014,-0.2623170574784279
1757088098638631200,0.462631103515625,2.518358785700798,1.8534905628845095,-0.6348226286426186
1757088098648677000,0.472677001953125,2.9769156236380336,1.9100527003228662,-1.0270353553175926
1757088098658724000,0.48272412109375,3.518549973234534,2.2751341128356755,-1.5128510793194174
1757088098668771000,0.49277099609375,4.002532344329357,2.6493407888293263,-2.017111683811247
1757088098678817000,0.502817138671875,4.380840756553411,3.0420214252769946,-2.6188193938374518
1757088098688864300,0.5128642578125,4.463833512538671,3.1936931652128693,-2.7973253646850584
1757088098698911200,0.5229111328125,4.499592808184027,2.957269550664723,-2.6591578339666126
1757088098708957200,0.532957275390625,4.568379344162345,3.060170245429873,-2.642577286043763
1757088098719004200,0.543004150390625,4.323119219946861,3.4303026577219367,-2.5787124243766066
1757088098729051100,0.553051025390625,3.5919688451886174,3.928564021798968,-2.9541297913342714
1757088098739097000,0.56309716796875,2.498690793156624,4.645847199246287,-3.423278165912628
1757088098749144000,0.57314404296875,1.3260066114544868,5.394255582797527,-4.000577118608355
1757088098759191000,0.58319091796875,0.5464911419779062,5.663326206189394,-4.998977915593981
1757088098769237000,0.593237060546875,0.5493956312477588,5.549986827257276,-4.9078141281127925
1757088098779284200,0.6032841796875,0.747813340267539,5.1110056274056435,-3.037801761755347
1757088098789331200,0.613331298828125,1.2061539051055907,4.340851860514283,-0.24126842423081396
1757088098799377200,0.623377197265625,1.7978011166274546,3.345987128700316,3.2096383378416298
1757088098809424100,0.633424072265625,1.9583903225123882,1.5919380600377917,7.006242451390624
1757088098819470000,0.643469970703125,1.2563327712476253,-0.4837221857886761,10.604808795148134
1757088098829517000,0.65351708984375,-0.2757008551865816,-2.0773479797177017,13.189583296042679
1757088098839564000,0.66356396484375,-3.0060008483469485,-2.722049174426496,13.888148913538455
1757088098849610000,0.67360986328125,-6.649672992765903,-2.6642718159794807,13.187814532804488
1757088098859657000,0.683656982421875,-8.92466959682703,-2.360339722564816,11.864947972941398
1757088098869704200,0.6937041015625,-8.98125248479247,-2.0769594187915326,10.481522607219219
1757088098879750100,0.703750244140625,-7.77004363438487,-1.9220774846374988,9.340149509581924
1757088098889797000,0.713797119140625,-5.976091009879112,-2.0890819643922147,8.222152026835083
1757088098899844000,0.723843994140625,-4.285609865763783,-2.522082774659991,7.030722228130697
1757088098909890000,0.73389013671875,-3.1626188125133514,-2.9303397504240274,6.084553722685575
1757088098919937000,0.74393701171875,-2.461590019774437,-3.260377175953984,5.219881597188115
1757088098929984000,0.75398388671875,-1.9858815560281275,-3.322155294474959,4.354986184328794
1757088098940030200,0.7640302734375,-1.8710685974121093,-2.892993185587227,3.4320103384226557
1757088098950077200,0.7740771484375,-1.9259926122546196,-2.2155960283264515,2.3636475319385526
1757088098960124200,0.784124267578125,-2.00997262571156,-1.4289185582660138,1.0674351702451705
1757088098970170400,0.79417041015625,-2.0047318024486303,-0.5765304525412619,-0.18861410788595676
1757088098980217300,0.80421728515625,-1.7876228369623421,-0.17348799655511973,-1.2670821287989615
1757088098990264000,0.81426416015625,-1.5588532442986964,-0.13672259260714054,-1.813776099872589
1757088099000310300,0.824310302734375,-0.8345885374009608,-0.13072247540950774,-2.0532009420633317
1757088099010357200,0.834357177734375,0.028850831431150435,0.018207126211374998,-2.364479306587577
1757088099020403200,0.8444033203125,0.7440233003348111,0.19021993564739823,-2.8844828391343356
1757088099030450200,0.8544501953125,1.460825416266918,0.4431840583689511,-3.4996716697633263
1757088099040497200,0.8644970703125,2.002248168939352,0.8848480675637721,-4.149840628358722
1757088099050543000,0.874543212890625,2.3634224910110233,1.3546318174362182,-4.703350709187984
1757088099060590000,0.884590087890625,2.439547114792466,1.7665651436254382,-5.1580128777742384
1757088099070637300,0.89463720703125,2.230702119782567,2.124587577537447,-5.6492123406410215
1757088099080683300,0.904683349609375,1.8332488621056078,2.5333576173901555,-6.056169339722395
1757088099090730200,0.914730224609375,1.5099600340530275,2.8892794257611034,-5.995034779801965
1757088099100777200,0.924777099609375,1.2107137603670357,2.9404268446743487,-5.833288220575452
1757088099110823200,0.9348232421875,1.0579068789213895,2.707830387198925,-5.763076620230079
1757088099120870100,0.9448701171875,0.8313689908325672,2.5076938915625213,-5.4920168688476085
1757088099130917000,0.954917236328125,0.7737909543499351,2.378385959126055,-5.146214887952804
1757088099140963000,0.964963134765625,0.9013453211173414,2.1292948784455654,-4.555865899547935
1757088099151010000,0.975010009765625,0.9322355494216084,1.8466408431202173,-3.7363638721197843
1757088099161057300,0.985057373046875,0.7874328184723853,1.5769401051312684,-3.0318571741372344
1757088099171103200,0.995103271484375,0.5025923790186644,1.3700199407041072,-2.482630469715595
1757088099181150200,1.005150146484375,0.28162440001666544,1.3407494225561618,-2.090399330601096
1757088099191196200,1.015196044921875,0.131588298458606,1.3936308256551622,-1.9203449617564676
1757088099201243100,1.0252431640625,-0.07142141452655196,1.3629521942749618,-1.427591255185008
1757088099211290000,1.0352900390625,-0.2641278332274407,1.3683485003605484,-1.054565751799941
1757088099221336000,1.045336181640625,-0.3954010013222694,1.2543328296020626,-0.9843833775490521
1757088099231383000,1.055383056640625,-0.6105372054308652,0.8979729220747947,-0.046996728974580765
1757088099241430000,1.065429931640625,-0.9634130702346563,0.5246294387817383,1.0983826816946267
1757088099251476000,1.07547607421875,-1.1783424266595393,0.1829220337241888,2.0672499256819483
1757088099261523200,1.085523193359375,-1.2627478989869356,-0.20387714346945285,3.197843855151534
1757088099271570200,1.095570068359375,-1.2119131992846726,-0.37678631722331046,3.722613579186797
1757088099281616100,1.1056162109375,-0.9806775087684393,-0.359595528447628,3.8737306078493594
1757088099291663000,1.1156630859375,-0.4283253658026457,-0.274872003147006,3.7350112884670494
1757088099301710000,1.1257099609375,0.10190781127028167,-0.15152794755101204,3.6400294040024277
1757088099311756000,1.135756103515625,0.49169981360435483,-0.1551636737048626,3.9703994224876165
1757088099321803000,1.145802978515625,0.6543406913220882,-0.17965280279517173,4.640535648834705
1757088099331850000,1.15585009765625,0.8704086233228444,-0.26072774246037006,5.9865019292563195
1757088099341896000,1.16589599609375,1.3017150507628916,0.016892098090052602,7.163228664347529
1757088099351943200,1.175943115234375,1.416460789361596,0.8399562019139528,7.395016143527626
1757088099361990100,1.185990234375,0.5633388164043426,1.5235077901512384,6.779225839874148
1757088099372036000,1.1960361328125,-0.9835176275651901,1.8614450290203093,5.620604670315981
1757088099382083000,1.2060830078125,-1.3400526724636554,1.8222639422327278,4.842797173801064
1757088099392129300,1.21612939453125,-0.9797552793569863,1.6594938851773737,4.617094567492604
1757088099402176300,1.22617626953125,-0.6552252190716564,1.7822715390622614,4.280408789989352
1757088099412223000,1.236222900390625,-0.26445640759468075,1.787190290763974,4.198255991959572
1757088099422269200,1.246269287109375,0.4029612074434757,1.5292314284950494,4.1485254541069265
1757088099432316200,1.256316162109375,0.8957049771428107,1.2251567117393016,3.6449645223170517
1757088099442363100,1.266363037109375,1.2808926274865864,0.9206032715559005,3.0701620626121757
1757088099452409000,1.2764091796875,1.7149750955112277,0.6407546490401029,2.5809265932947394
1757088099462457000,1.28645703125,2.0028549026608466,0.3828659293979406,2.4477076248943805
1757088099472504000,1.296504150390625,2.0966724195212123,0.2875941220760345,2.80690918558836
1757088099482550300,1.30655029296875,1.9469497678264975,0.5167974299818278,3.20236513196826
1757088099492597200,1.31659716796875,1.6188628918424248,0.84572426392138,3.2891157791823145
1757088099502644200,1.326644287109375,1.2215784148611128,0.8253431546717882,3.1238486446142195
1757088099512690400,1.3366904296875,1.2129957338243722,0.4725684121549129,3.194714324954152
1757088099522737200,1.346737060546875,1.2343573785439133,0.30335517030954356,3.213757463598251
1757088099532784000,1.3567841796875,1.1440873250320553,0.4711217204779386,2.9564643717616796
1757088099542830300,1.366830322265625,1.3372598268747329,0.8038134599089622,2.3727204807102678
1757088099552877300,1.376877197265625,1.8965259870126843,0.5275339280515909,2.2902269064188
1757088099562924000,1.386924072265625,2.318641099998355,-0.5430027153402567,3.1782921824634074
1757088099572970200,1.39697021484375,3.580426875954866,-2.1503122397720813,0.02512625795006752
1757088099583017200,1.407017333984375,3.4201702630251645,-2.1624901688218117,-5.724887467089295
1757088099593063200,1.417063232421875,1.2575813100039959,0.21875088747441768,-3.6073458625406025
1757088099603110400,1.4271103515625,-0.99934479983747,2.1545833412200213,0.3849702082008123
1757088099613157400,1.437157470703125,-1.1585776226773858,1.5270260274052618,0.437970561504364
1757088099623203300,1.447203369140625,-0.9275137815967202,-0.8258890981167555,-0.9651678049474954
1757088099633250300,1.457250244140625,-0.4700380168944597,-2.0795418365001677,-1.1879349423259495
1757088099643297300,1.46729736328125,0.20129706384837626,-1.419627728959918,-1.011626189261675
1757088099653343200,1.47734326171875,-0.032597909004986284,-0.1487321793526411,-0.9423574227243662
1757088099663390200,1.48739013671875,-0.020744097343087194,0.6161129597365855,-0.7752841155171394
1757088099673437200,1.497437255859375,0.49152241121083495,-0.07762041529715061,-2.91009892642796
1757088099683483100,1.507483154296875,0.4287690179169178,-0.5943816049218178,-3.4439971288144586
1757088099693530400,1.5175302734375,0.5896499002248048,-0.7304658996254205,-2.861940752458572
1757088099703577300,1.527577392578125,0.8493319330245256,-0.9750438867956399,-1.7824544944137333
1757088099713623300,1.537623291015625,0.6435758439406752,-0.9866109904706477,-0.13234393913149833
1757088099723670300,1.547670166015625,-0.4499190657123923,-0.020189386069774627,1.6199802054345607
1757088099733717200,1.55771728515625,-1.5774676361367106,1.712155800306797,2.5320453657478095
1757088099743763200,1.56776318359375,-2.791300697568059,1.7878847027689218,4.401335847571492
1757088099753810200,1.57781005859375,-2.4748896463304755,0.628527620151639,4.918801386073231
1757088099763857200,1.587857177734375,-0.7907190005362034,-0.5984820259779692,1.3502432270884512
1757088099773903000,1.597903076171875,-0.6496779602080583,-0.6665969463050365,0.3700754214078188
1757088099783950300,1.607950439453125,-0.29690906291007996,0.00749240158200264,0.2989589811772108
1757088099793996300,1.617996337890625,0.2719710210084915,0.2899614357292652,0.157415836545825
1757088099804043300,1.628043212890625,1.2345868033856153,-1.0109370379537344,-1.479071267053485
1757088099814090200,1.63809033203125,3.651666650304198,-2.6161832001149654,-2.2058406502485273
1757088099824136200,1.64813623046875,3.87868969156146,-1.9779659605979918,-0.02999474076926708
1757088099834183200,1.65818310546875,3.1085745031148195,-2.0258564235419034,1.3152940787822007
1757088099844230100,1.668230224609375,2.2588760748654604,-3.249012316852808,1.6628683300465343
1757088099854276000,1.678276123046875,1.5559022855386138,-3.9865515158653255,2.0724106694459916
1757088099864323000,1.688322998046875,1.3476251535445452,-3.973297482016682,1.7381430590003728
1757088099874370300,1.698370361328125,0.7873805037632584,-3.966356869098544,1.233884208074212
1757088099884416300,1.708416259765625,-0.15956833840459583,-3.7820465958863494,0.6432037957578897
1757088099894463200,1.718463134765625,-1.1402917321413755,-3.1403783391326665,-0.496302338963747
1757088099904510200,1.72851025390625,-2.0950392653614283,-2.1288450888514516,-1.3275029874920845
1757088099914556200,1.73855615234375,-3.2314632161587475,-1.552128904479742,-2.083840410476923
1757088099924603100,1.74860302734375,-3.9336002624005078,-1.530142113599181,-3.0531665041476486
1757088099934650000,1.758650146484375,-3.9035950002372264,-0.23726912546157836,-6.5125348050951954
1757088099944696000,1.768696044921875,-2.451613984683156,2.8010984534829855,-8.020202636557817
1757088099954743000,1.778742919921875,1.6630448556572197,4.5384699435889715,-7.899319418117403
1757088099964790300,1.788790283203125,2.668204186992347,3.3976223311305045,-6.001927461925149
1757088099974836200,1.798836181640625,1.401609549449384,1.6547148342072964,-4.0306928554087875
1757088099984883200,1.80888330078125,0.7869337829090655,0.36396833670437334,-2.6674498614937066
1757088099994929400,1.818929443359375,1.7363228578358887,0.06385024861991405,-0.9390782549232244
1757088100004976400,1.828976318359375,1.9326668293215332,0.36185002937614913,0.00025075989067554474
1757088100015023000,1.839023193359375,1.7118858973242341,0.8845037841707467,0.4413064279288053
1757088100025069300,1.8490693359375,1.2084253571689128,1.2390180638313293,1.114299797272682
1757088100035116300,1.8591162109375,-0.3673796064525842,-0.32966508508622644,1.0438806916564702
1757088100045163300,1.869163330078125,-1.6746458616018294,-1.9112112227082252,0.8436345981657505
1757088100055209200,1.879209228515625,-1.5630750997774303,-1.9925953744530676,0.866923703816533
1757088100065256200,1.889256103515625,-0.5648572581432759,-2.1923376100748775,1.2979822939753531
1757088100075303400,1.899303466796875,0.3210457253009081,-2.1584709963083264,2.1910469857424495
1757088100085349400,1.909349365234375,0.5750526350736618,-1.4218015658676624,2.282572007751465
1757088100095396400,1.919396240234375,0.2921908022165298,-0.7510814021527766,1.795006517472863
1757088100105443300,1.929443359375,-0.059505935805290934,-0.5796580830425023,0.9537649519234895
1757088100115489300,1.9394892578125,-0.4570587083339691,-0.7789724486410617,0.20736790819466114
1757088100125536300,1.949536376953125,-0.3701449795126915,-0.8879688299328088,-0.21354513552486895
1757088100135583200,1.959583251953125,-0.4874081808250397,-0.23111995518207548,-0.49248248841464515
1757088100145629200,1.969629150390625,-0.4437374544680118,-0.28613047926425933,-0.5629769973546266
1757088100155676200,1.97967626953125,-0.17430848262514917,-0.5541103848099708,-0.4118056081563234
1757088100165722000,1.98972216796875,0.157061634546984,0.10383622204959392,-0.6652338412582874
1757088100175769300,1.999769287109375,0.5541308430761098,0.6936614788413047,-1.560176601856947
1757088100185816300,2.00981640625,1.4288392094194888,0.11675766294300556,-2.8615573060989377
1757088100195862300,2.0198623046875,5.363541295582055,-5.524678782999516,-6.0325400423318145
1757088100205909200,2.0299091796875,7.454217105036974,-17.50610092576742,-10.459480286759138
1757088100215956200,2.039956298828125,1.9774702860355375,-3.5199235996752973,-1.8399574198335409
1757088100226002200,2.050002197265625,-3.1668425676882266,8.208330422231555,4.8788054757714265
1757088100236049200,2.060049072265625,-8.299702299505471,9.043979282340407,6.421931574106216
1757088100246096100,2.07009619140625,-11.926846502971648,5.401154110139608,4.387312582916021
1757088100256142000,2.08014208984375,-12.096650111925602,0.11171733068823814,0.2459767480522394
1757088100266189300,2.090189208984375,-8.966059591835737,-0.11816928330659866,-1.4855810873389244
1757088100276236300,2.100236328125,-3.8384360071063037,1.8909429261833428,-0.38542145909965037
1757088100286282200,2.1102822265625,8.901530713301897,4.135048132896423,1.9452631299138068
1757088100296329200,2.1203291015625,16.087330690419673,2.6466432203084227,-0.40470074458718297
1757088100306376200,2.130376220703125,9.22344328456521,-0.3879728971481323,-3.0043203479140996
1757088100316422100,2.140422119140625,2.781974650818109,3.0858173123836514,-0.33803543854653834
1757088100326469000,2.15046923828125,-1.5745429808616638,6.062403850197792,3.1567712555289265
1757088100336515000,2.16051513671875,-0.8068027048528194,5.51853428889513,2.4275766910135745
1757088100346562000,2.17056201171875,0.13863750458406285,3.1699457944005727,1.127892269295454
1757088100356609300,2.180609375,0.3620832536101341,1.2305658773064612,0.20154080947637557
1757088100366655200,2.1906552734375,0.6890595380038023,0.08303834869265556,-0.14779635980725286
1757088100376702200,2.2007021484375,0.9344149392873048,-0.856252087676525,-0.4787924012362957
1757088100386749200,2.210749267578125,0.2619295559981838,-0.6490092671662568,-0.1151432134836912
1757088100396795400,2.22079541015625,-1.1063649126201867,0.20629589504897594,0.48293841499984264
1757088100406842000,2.230842041015625,-1.5367513026058672,1.0787678806424141,1.1407353842556476
1757088100416889000,2.24088916015625,-0.8087199366509914,0.6451946773141622,1.2570990794450043
1757088100426935300,2.250935302734375,-0.9379219975601881,-1.8827116889327764,0.3346820364654064
1757088100436982300,2.260982177734375,-1.3514642933160066,-3.8043998819917437,-0.312601137560606
1757088100447029000,2.271029052734375,-1.0343393947206436,-3.7382770122647284,-0.8945020310938357
1757088100457075200,2.2810751953125,-1.0933159728895872,-4.140341563129425,-1.3938836313724516
1757088100467121400,2.291121337890625,-1.2801403478145599,-3.849560627710819,-0.8896551755845546
1757088100477168600,2.301168701171875,-0.7420663210481405,-2.5470962198853493,-0.6755068134695291
1757088100487214600,2.311214599609375,-0.8976309037040918,-1.1987187866687774,-0.20192250227034092
1757088100497261600,2.321261474609375,-0.823206142643094,0.47200960922837254,0.8415753275483846
1757088100507307500,2.3313076171875,0.06909048736095429,1.346752462363243,0.7636421930402517
1757088100517354500,2.3413544921875,0.5749024129480124,2.198186920624971,0.10597381860017775
1757088100527401500,2.3514013671875,0.970879168331623,2.536176766464114,-0.3848497966915369
1757088100537447400,2.361447509765625,1.2136603352129458,2.3537597596526143,-0.49583881310522554
1757088100547494400,2.371494384765625,1.0286743546962738,2.0937410422444342,-0.44910278089344496
1757088100557541400,2.381541259765625,0.3726479387769475,1.6581833871006966,-0.5461579645007848
1757088100567587300,2.39158740234375,-0.31241876673102376,1.0661182424277067,-0.930173648455739
1757088100577634600,2.401634521484375,-0.502104303240776,0.44135611228942867,-0.9898211846888064
1757088100587681500,2.411681640625,-0.2904863546525128,-0.04776771334707737,-0.3717693658441305
1757088100597727500,2.4217275390625,-0.04997428804722149,0.04890636198818683,0.10770751052498817
1757088100607774500,2.4317744140625,-0.19586334836184977,-0.12581658318936825,0.8025169903576373
1757088100617821400,2.441821533203125,-0.5162216759204864,-0.06237783797979354,0.792746706971526
1757088100627867400,2.451867431640625,-0.14402736266255378,0.17889993860125541,0.6074573595941066
1757088100637914400,2.461914306640625,0.31656828762590883,0.07942951054573058,0.4462397926777601
1757088100647960300,2.471960205078125,0.6864706905543804,-0.05129588747322559,-0.1187117196202278
1757088100658007300,2.48200732421875,0.6274351487398148,-0.5795481929272412,-0.6223118143767118
1757088100668054500,2.492054443359375,0.1339180565804243,-1.234600247389078,-0.8110831586509942
1757088100678100500,2.5021005859375,-0.5686188026338815,-1.307837333035469,-1.0522598129451275
1757088100688147500,2.5121474609375,-0.8347375904828309,-1.0304074620991945,-0.6852303351044654
1757088100698194400,2.5221943359375,-0.8028922534108162,-1.2887427564650773,0.22082301757335662
1757088100708240400,2.532240478515625,-0.6415653809010982,-1.596137557554245,0.9206652308762073
1757088100718287400,2.542287353515625,-0.37631402353644366,-1.3279144909024239,0.9399468544512987
1757088100728334300,2.552334228515625,-0.08116437151432036,-1.324411451217532,0.5323381134629249
1757088100738380500,2.562380615234375,0.1072924999833107,-1.4392986441135405,0.032200141859054565
1757088100748427300,2.57242724609375,0.30770518221259113,-1.0199497809708118,-0.17652210355401038
1757088100758474500,2.582474609375,0.4573416169285774,-0.49600364827811716,-0.21504326512813568
1757088100768520700,2.592520751953125,0.5392635288119316,-0.03058686144351959,-0.4496563231229782
1757088100778567700,2.602567626953125,0.43463531613443046,0.8035697142809629,-0.1053881276667118
1757088100788613600,2.612613525390625,0.1340705802610144,1.0579770215481519,0.35352819123268125
1757088100798660600,2.62266064453125,-0.20178517615888267,1.0033815080076456,0.2730950566023588
1757088100808707600,2.63270751953125,-0.36109895528052,0.965731868571043,-0.14079086495935916
1757088100818753500,2.64275341796875,-0.42247371716499327,0.9962561861723661,-0.5930623390167952
1757088100828800500,2.652800537109375,-0.5424246231913566,1.3847609982401132,-0.7819967648983002
1757088100838847500,2.662847412109375,-0.7167267126083373,1.740117573943734,-0.7587935839653015
1757088100848893400,2.6728935546875,-0.7332441321671008,1.7547832281559705,-0.8141524830937386
1757088100858940400,2.6829404296875,-0.4541372679293155,1.5067729284495115,-0.6916051308333874
1757088100868987600,2.692987548828125,-0.04748306031995453,1.0823632747858762,-0.4954793321430683
1757088100879033600,2.70303369140625,0.3616834406375885,0.7258774027913808,-0.2020627875238657
1757088100889080600,2.71308056640625,0.4929898534148931,0.5544967537790536,0.1988029089450836
1757088100899127600,2.72312744140625,0.35701311073899267,0.4174912525773048,0.3781348092228174
1757088100909173500,2.733173583984375,0.16399872206747532,0.3082610625296831,0.2344616668254137
1757088100919220500,2.743220458984375,-0.0034118542701005936,0.18855448665320873,0.02139993090331554
1757088100929266400,2.753266357421875,-0.05636073311474174,0.02135609176158905,-0.11027063901126384
1757088100939313400,2.7633134765625,-0.1632768375337124,-0.0010597381860017775,-0.20354045886099337
1757088100949360400,2.7733603515625,-0.23504618871510027,0.00011982698738574981,-0.27008769147992134
1757088100959406300,2.78340625,0.006402852779626846,0.41545886996686454,-0.02966974659860134
1757088100969453600,2.79345361328125,0.5792676589528098,1.051134023785591,0.01883504885137081
1757088100979500500,2.80350048828125,0.41762156442608683,-0.3504845857530832,-0.37841245712041854
1757088100989546500,2.81354638671875,-0.15231237592697142,-0.7727998974859714,-0.01357435184419155
1757088100999593500,2.823593505859375,-0.3217459825247526,-1.6853543026208877,-0.43528760603070255
1757088101009640400,2.833640380859375,-0.4463087662607431,-2.2584505429297685,-0.8181400914251804
1757088101019686400,2.843686279296875,-0.34845220314264297,-0.6721177555531263,-0.368987626171112
1757088101029733400,2.8537333984375,-0.06157646760218776,0.04241524640321731,-0.15875965237021444
1757088101039779300,2.863779296875,0.16383973211348055,-0.11903496022522449,-0.033657354930043216
1757088101049826300,2.873826416015625,0.28242694857120515,0.08636778537631035,0.2311228777915239
1757088101059873500,2.88387353515625,0.3125239806711674,0.1494984875500202,0.24928631099164483
1757088101069919500,2.89391943359375,0.30053308035982773,0.026740707409381864,0.25717618745863435
1757088101079966500,2.903966552734375,0.25921441528797146,-0.26149521970152856,-0.2783890713572502
1757088101090013400,2.914013427734375,0.083923296567332,-0.46820437172651286,-0.7640694785416126
1757088101100059400,2.924059326171875,-0.2396890826174989,-0.8968348579555749,-1.3710557134926318
1757088101110106400,2.9341064453125,-0.5634113336512818,-1.5215391204267739,-2.0619167479604483
1757088101120153300,2.9441533203125,-0.7528384749531746,-1.9548931280463933,-2.364395135435462
1757088101130199600,2.954199462890625,-0.8546504976987839,-2.1696067228287457,-2.3592782308131457
1757088101140246300,2.964246337890625,-0.7919570178985595,-2.2649212002485988,-1.7899936577469109
1757088101150293500,2.97429345703125,-1.0554115549743175,-1.999674519059062,-1.3835180124416946
1757088101160339700,2.984339599609375,-1.2168331200301647,-1.774491552710533,-1.1156342607468366
1757088101170386400,2.994386474609375,-1.2314555196225643,-1.8318349036544561,-0.9110743957102299
1757088101180432600,3.0044326171875,-1.1109060631811618,-1.1735767466276883,-0.43871611917465925
1757088101190479600,3.014479736328125,-0.8861293395459652,-0.02025894417464733,0.16706921555399895
1757088101200526600,3.024526611328125,-0.7691846295982598,0.7453986803412437,0.614284575265646
1757088101210572500,3.034572509765625,-0.5141308411210775,0.878701235371828,0.9754705877751111
1757088101220619500,3.04461962890625,0.2830541405588388,-1.4787375050544738,-0.13317922091186046
1757088101230666500,3.05466650390625,0.8082505655735731,-2.7264702057391403,-0.30906361108422276
1757088101240712400,3.06471240234375,1.4812011186890304,-3.1577801403105257,-0.22573592405617235
1757088101250759400,3.074759521484375,1.6554665293574333,-3.956524041870236,-0.24680004713386297
1757088101260806700,3.084806640625,1.1091589272528886,-2.6504560565948485,0.10350567492097616
1757088101270852600,3.0948525390625,0.7009084542948752,-1.71731595954895,0.01466097803711891
1757088101280899600,3.104899658203125,-0.06945237947590649,-1.4202005604118109,-0.2905062101304531
1757088101290945500,3.114945556640625,-0.7654121983874589,-0.4293780897259712,-0.4260939534887671
1757088101300992500,3.124992431640625,-0.8937432486157864,0.42380642707347865,-0.6687617231234908
1757088101311039500,3.13503955078125,-0.4477132992964238,0.763915749284625,-0.9816722188942134
1757088101321085400,3.14508544921875,0.3954192676313221,-0.482879962810874,-1.2502305088497698
1757088101331132400,3.15513232421875,0.7776561784107238,-1.1306757625341415,-1.2122642046794294
1757088101341179400,3.165179443359375,0.9911241570461541,-0.9915472778290509,-1.2824009862229226
1757088101351225300,3.175225341796875,1.1327257538665085,-1.1618237649917602,-1.0909721131771801
1757088101361272600,3.1852724609375,1.4414450084924697,-1.6622534130185842,-0.9914901408143341
1757088101371319600,3.195319580078125,3.4906998432785272,7.2306065025717015,4.9857338186174625
1757088101381365500,3.205365478515625,-6.082144323456287,16.126156972420215,10.013194316852092
1757088101391412500,3.21541259765625,-2.3257348576515913,16.34108567125797,1.8705941117681562
1757088101401458400,3.22545849609375,0.4624585580835119,7.202751111918688,-0.9193163004852831
1757088101411505400,3.23550537109375,-0.31135142976045604,1.6309510967820882,-0.6693342623144388
1757088101421552400,3.245552490234375,-0.3306997253635898,0.6471212614625692,0.8398908815927802
1757088101431598300,3.255598388671875,-0.7448392928928136,-2.893243653216958,0.13416209446936844
1757088101441645300,3.265645263671875,-0.6008779812037944,-1.0787573592483997,1.5275792773738504
1757088101451692500,3.275692626953125,-0.4134574670165777,1.780918370887637,-0.01851195437684655
1757088101461739000,3.285739013671875,1.0432727888911961,1.475980899822712,-1.0922335114151238
1757088101471786000,3.295785888671875,1.0624556282669304,0.6791571526706218,-0.7601980439357459
1757088101481833200,3.305833251953125,0.9450403781980276,-0.02695581146478653,-0.8916571630567312
1757088101491879000,3.31587890625,1.1842138759762049,-0.3713905956596136,-1.2966041374899446
1757088101501926100,3.325926025390625,0.8027940537333488,-0.5009317523300647,-1.0336373839311301
1757088101511972000,3.33597216796875,0.5659405233353376,-0.44685295614004134,-0.9877530001126229
1757088101522019000,3.34601904296875,0.2337772282252088,-0.6379185488313436,-0.6677344259023666
1757088101532066000,3.356066162109375,-0.22297347360551356,-0.7455746214300394,-0.4001771296828985
1757088101542112000,3.366112060546875,-0.8530775492936372,-0.35527883429229257,-0.12395458870977162
1757088101552159000,3.376158935546875,-1.2198311328023672,-0.04801496610641479,0.012094196289032697
1757088101562206000,3.3862060546875,-1.3449948050409555,0.05309446132779121,-0.007100187394022941
1757088101572252200,3.396252197265625,-1.4904413868516682,0.09448796346783638,0.034854894151538605
1757088101582299000,3.406298828125,-1.4172685986131428,-0.15529986730515957,0.1287920918688178
1757088101592346000,3.41634619140625,-1.2842372617393731,-0.3222130155146122,0.14789149074479938
1757088101602392300,3.426392333984375,-1.0225579176425934,-0.5173492186456918,0.2312204929471016
1757088101612439000,3.43643896484375,-0.7109218257218599,-0.4953653503745794,0.057874681341648096
1757088101622486000,3.446486083984375,-0.3816161850651726,-0.3443973747938871,-0.19324410577416418
1757088101632532200,3.4565322265625,-0.21549740210380403,-0.1787736818730831,-0.3594030746154487
1757088101642579200,3.4665791015625,-0.10638239940106868,-0.08490764969587325,-0.47781624968051906
1757088101652625200,3.476625244140625,-0.0400928678702563,0.07861936320662498,-0.5789237774185836
1757088101662672100,3.486672119140625,0.1908557493329048,0.24568156449794767,-0.6107799281455576
1757088101672719000,3.496718994140625,0.3122264590293169,0.4362701873272657,-0.6181714997015894
1757088101682765000,3.50676513671875,0.3911959873804822,0.528796495333314,-0.589324175401777
1757088101692812300,3.516812255859375,0.41691432947218415,0.6002449439972639,-0.44234848432764406
1757088101702859300,3.526859375,0.5107634470472112,0.6085995153665542,-0.22984102128744124
1757088101712905200,3.5369052734375,0.5549339761525393,0.4653279395073652,0.005693535466492176
1757088101722952200,3.5469521484375,0.6230319453448057,0.19037819494903085,0.30488866348713634
1757088101732998100,3.556998046875,0.6450866138298064,0.06904781726300716,0.4670381044261157
1757088101743045000,3.567045166015625,0.5490864191681146,-0.012290157252550124,0.5925204872250557
1757088101753092000,3.577092041015625,0.5729255599170923,-0.12034253569245337,0.6636692222900689
1757088101763138000,3.587137939453125,0.4456775556851178,-0.14979133301675318,0.6491543747253715
1757088101773185000,3.59718505859375,0.2673182632992044,-0.14074877938330171,0.6205896667592227
1757088101783232300,3.607232177734375,0.11672544117383658,-0.10885960316956042,0.4921041566215455
1757088101793278200,3.6172783203125,-0.06702895172126591,-0.09845277544558048,0.35347704556733367
1757088101803325200,3.6273251953125,-0.18011395403351635,-0.10687632039785384,0.2309175644777715
1757088101813372200,3.6373720703125,-0.22670739943683146,-0.10840250705182551,0.13875380617380143
1757088101823418000,3.647418212890625,-0.28130934271812436,-0.10395195738375186,0.026039427272230384
1757088101833465000,3.657465087890625,-0.31763628218360246,-0.07790040128231047,-0.043103228667378424
1757088101843511000,3.667510986328125,-0.3289595671653747,-0.028579028752446174,-0.14228738712742925
1757088101853558000,3.67755810546875,-0.3627397447574883,0.04578443057537079,-0.2203023547001183
1757088101863605000,3.68760498046875,-0.39437571339514105,0.06602116291821003,-0.2876204255610704
1757088101873651000,3.69765087890625,-0.45772794936504213,0.0749456431299448,-0.38022798210978503
1757088101883698000,3.707697998046875,-0.4908685869446024,0.05431903468668461,-0.44550475640147924
1757088101893745200,3.7177451171875,-0.49450613972935825,0.03869242648780346,-0.4996925659239292
1757088101903791000,3.727791015625,-0.4517781375825405,0.025910686326026916,-0.5170305080853402
1757088101913838000,3.737838134765625,-0.3580892155379057,-0.007303016489744186,-0.5411090105481445
1757088101923885000,3.747885009765625,-0.2678209155917167,-0.03745148651599884,-0.5634937147051096
1757088101933931000,3.757930908203125,-0.1814016557564959,-0.05829670614600181,-0.5399148323275148
1757088101943978000,3.76797802734375,-0.10663199024796485,-0.050158992397785186,-0.5141467693425714
1757088101954024200,3.778024169921875,-0.06751753895580768,0.0425771589666605,-0.5257281938038766
1757088101964071000,3.78807080078125,-0.05295008442103862,0.15988953318297863,-0.47960927057713265
1757088101974118000,3.798117919921875,-0.02703764452934265,0.23765023373365401,-0.4131098226226866
1757088101984164000,3.8081640625,-0.034730610184744,0.278510651910305,-0.3514176288194954
1757088101994211000,3.818211181640625,-0.002614639477804303,0.28780162734687326,-0.2719682445295155
1757088102004258000,3.828258056640625,0.013927987587451934,0.2566086167037487,-0.1655899367816746
1757088102014304300,3.83830419921875,-0.008714709918573498,0.164165310806036,-0.060217883466929197
1757088102024351200,3.848351318359375,-0.049721770024299616,0.020068390038609503,0.018091683138161896
1757088102034398000,3.85839794921875,-0.09374339217822998,-0.16078677428364752,0.09194412420392035
1757088102044444200,3.868444091796875,-0.17020170489344744,-0.29294015927910805,0.1643053037986159
1757088102054491100,3.8784912109375,-0.22953652191553264,-0.3300210589170456,0.25990692759677764
1757088102064537000,3.888537109375,-0.29555059750583024,-0.29370296034514903,0.3730534143052995
1757088102074584000,3.898583984375,-0.32530802238788453,-0.2131166809797287,0.4839025838568806
1757088102084631300,3.90863134765625,-0.30642792881838976,-0.18374445602297781,0.5443585138633847
1757088102094677200,3.91867724609375,-0.2747492535501718,-0.15292144773602484,0.5861519751064479
1757088102104724200,3.92872412109375,-0.1922545102149248,-0.16780980478823185,0.5875641799919307
1757088102114771200,3.938771240234375,-0.07943418672084808,-0.17400106064379214,0.5312850972786546
1757088102124817200,3.948817138671875,-0.019544731490686536,-0.23032091375887392,0.45983723313659425
1757088102134864100,3.958864013671875,0.022008418190479277,-0.2410229250371456,0.38677696536183354
1757088102144910000,3.96891015625,0.04210954145491123,-0.215786776971817,0.3363637059420347
1757088102154957000,3.97895703125,0.03071019556224346,-0.14584697930514812,0.26165596322119233
1757088102165004000,3.989004150390625,-0.004722936868667602,-0.06724690532088279,0.08721563437730073
1757088102175050000,3.999050048828125,-0.018156345872208476,0.014825228688120841,-0.1461385095976293
1757088102185097200,4.00909716796875,-0.006254895676299929,0.13034896592199802,-0.3959796779930591
1757088102195144200,4.019144287109375,0.07435644506514072,0.21482991463840007,-0.6150178579762577
1757088102205190100,4.029190185546875,0.12990823641717433,0.24537235241830346,-0.7628637560136616
1757088102215237000,4.039237060546875,0.16892390350997447,0.2662111423075199,-0.7507857802070677
1757088102225284000,4.0492841796875,0.22629414246082305,0.2692664382249117,-0.6424085537269711
1757088102235330000,4.059330078125,0.2244704341650009,0.22652093695402145,-0.5764988883592188
1757088102245377000,4.069376953125,0.15648118604421615,0.16665537405610084,-0.5578666686035693
1757088102255423000,4.079423095703125,0.05442194707188755,0.06419570105671882,-0.5024443488501013
1757088102265470000,4.089469970703125,-0.03725855775978416,0.09494973576068877,-0.5026229202874004
1757088102275517000,4.099516845703125,-0.1645908062091097,0.09077508042454718,-0.47573695918843145
1757088102285563000,4.10956298828125,-0.26929979250524194,0.023556232154369354,-0.3087770492278039
1757088102295610000,4.119610107421875,-0.2791454792151227,0.023373861324787137,-0.1267680386953056
1757088102305657000,4.129656982421875,-0.3229273377964273,-0.05054010066986084,-0.04575067443624139
1757088102315703000,4.139703125,-0.3810702781528234,-0.05567220286130905,0.004428630097210407
1757088102325750000,4.14975,-0.3636047275563702,-0.07841478054523468,0.03358721230328083
1757088102335796200,4.159796142578125,-0.34520229796860363,-0.0940811362326145,0.09486848721802234
1757088102345843200,4.16984326171875,-0.29704938469622283,-0.06563713203668593,0.12279255919307469
1757088102355890000,4.179889892578125,-0.22800682813022286,-0.040568157231807705,0.11592734959870576
1757088102365936000,4.18993603515625,-0.16403843302335588,-0.020394553253054618,0.075384472938627
1757088102375983000,4.199983154296875,-0.0855283754101023,0.0034890111595392223,0.05272197475358843
1757088102386030000,4.210030029296875,0.011097184608317911,0.03434533719420433,0.06646890668570996
1757088102396076300,4.220076171875,0.08738602250814437,0.017865911558270452,0.07990706492960453
1757088102406123300,4.230123291015625,0.12344170728418975,-0.047643210184574125,0.11288418251052498
1757088102416169200,4.240169189453125,0.11250939438138156,-0.06254208863079548,0.1778014758400619
1757088102426216200,4.25021630859375,0.07640870141983032,-0.09081950408816337,0.22391455384790895
1757088102436263200,4.26026318359375,0.015433167986012995,-0.1332002636998892,0.21104981157779693
1757088102446309000,4.27030908203125,-0.03414305608775466,-0.12602116585075854,0.20132205215916035
1757088102456356000,4.280356201171875,-0.06400865405201911,-0.1072311251848936,0.18039836046546698
1757088102466402800,4.29040283203125,-0.07163787028882652,-0.07803367227315902,0.12969386301413177
1757088102476448800,4.30044873046875,-0.06226034907996654,-0.09632336220145225,0.09329071650728583
1757088102486495700,4.310495849609375,-0.06806753752138466,-0.0805313343077898,0.06878858180493116
1757088102496542700,4.320542724609375,-0.06757365305721759,-0.09483633851408958,0.0392428999774158
1757088102506588700,4.330588623046875,-0.08742284738719462,-0.10234569123089313,0.01156973402351141
1757088102516635600,4.3406357421875,-0.09456281880233436,-0.05700199016034603,0.012165361829102038
1757088102526681600,4.350681640625,-0.11618015531599521,-0.014796002593636512,0.014167787692695855
1757088102536728600,4.360728515625,-0.1209083894142881,0.03222118464708328,0.011931699203699827
1757088102546775800,4.37077587890625,-0.09942655238118023,0.04003974944353103,-0.06889744900688528
1757088102556821800,4.38082177734375,-0.0989005192130804,0.03923018662631511,-0.17794293013736603
1757088102566868700,4.39086865234375,-0.06480480939839035,0.04156125992238521,-0.26096549673900005
1757088102576915700,4.400915771484375,-0.010458850172162056,0.040142625296115876,-0.36569852149784565
1757088102586961700,4.410961669921875,0.021959866341017185,0.04677051900327205,-0.4556289677917957
1757088102597008600,4.421008544921875,0.04592237774133682,0.09868366159200667,-0.5066361014515162
1757088102607054600,4.4310546875,0.06087269411385059,0.13008183941841125,-0.518343928771466
1757088102617101600,4.4411015625,0.09523553043212742,0.1980231567442417,-0.47688379113599655
1757088102627148500,4.4511484375,0.11012571411523968,0.252725053268671,-0.4335558138020336
1757088102637194800,4.46119482421875,0.12964169443547724,0.21081717186570167,-0.35736250869855285
1757088102647241700,4.47124169921875,0.13281860743854193,0.12902853097319603,-0.21976211034357546
1757088102657288700,4.481288818359375,0.11703297275304794,-0.019780805268883705,-0.05159574720263481
1757088102667335000,4.4913349609375,0.0069219082176685326,-0.2205272494971752,0.2771747271314263
1757088102677381600,4.501381591796875,-0.12300152576863765,-0.3183177616417408,0.6324268195472658
1757088102687427800,4.511427734375,-0.25943361099660395,-0.38656770652532574,0.7773007160365581
1757088102697474800,4.521474853515625,-0.35450964001808316,-0.26659166605770585,0.7132242574453354
1757088102707521800,4.531521728515625,-0.5324298833996057,-0.1352554426640272,0.537606701515615
1757088102717567700,4.541567626953125,-0.6744055742293595,-0.09294774828851222,0.2648306477345526
1757088102727614700,4.55161474609375,-0.6575988163352012,0.046966333836317056,0.016974807937443256
1757088102737662000,4.561661865234375,-0.5467343030840158,0.11428396630585193,-0.18398498678058384
1757088102747708000,4.5717080078125,-0.3477688970535993,0.11462649613320827,-0.2654785902492702
1757088102757755000,4.5817548828125,-0.09937339742183685,0.1089046113550663,-0.2617310742840171
1757088102767801900,4.5918017578125,0.13805880964696407,0.015666940209269523,-0.27546836160495874
1757088102777847800,4.601847900390625,0.312076784892939,0.02048164701461792,-0.32554142928496
1757088102787894800,4.611894775390625,0.4287052319657057,0.032900983604788776,-0.3948999199323356
1757088102797940700,4.621940673828125,0.48566579413712024,0.07583060927093029,-0.39832974825054407
1757088102807987700,4.63198779296875,0.5207043742924928,0.17466040133535862,-0.41059477106183767
1757088102818034700,4.64203466796875,0.49028578208796675,0.2216822647511959,-0.45909050642251964
1757088102828080600,4.65208056640625,0.43260877874288706,0.2253074695110321,-0.4974019707687199
1757088102838127600,4.662127685546875,0.3196242045978084,0.20448504623472688,-0.469174824193865
1757088102848174800,4.6721748046875,0.16636314964387564,0.13852175098359584,-0.3661379358284175
1757088102858220800,4.682220703125,0.012142821203730999,0.030244916138052937,-0.22430063055604696
1757088102868267800,4.692267822265625,-0.14753160792384296,-0.07647124526202678,-0.09660495562180876
1757088102878313700,4.702313720703125,-0.3270914352059364,-0.15788813023269174,0.030244916138052937
1757088102888360700,4.712360595703125,-0.4674754363974556,-0.1717062277048826,0.10065744588300585
1757088102898407700,4.72240771484375,-0.5524041654139756,-0.13297054659724233,0.10025690225809812
1757088102908453600,4.73245361328125,-0.5955874735802412,-0.11052841316461562,0.07098185406550765
1757088102918500600,4.74250048828125,-0.5806616705944762,-0.04536299029290676,-0.006690583679825067
1757088102928547600,4.752547607421875,-0.4903595049113035,-0.005011106160283088,-0.08785100967139005
1757088102938593500,4.762593505859375,-0.3605372297445312,-0.006457213315367698,-0.1831988048389554
1757088102948640800,4.772640869140625,-0.2193991587826982,-0.0177811558842659,-0.2525800918400288
1757088102958686700,4.782686767578125,-0.09341357570197432,-0.014796002593636512,-0.2993497340604663
1757088102968733700,4.792733642578125,0.027278467547893523,0.0042442134410142895,-0.3503460540652275
1757088102978780700,4.80278076171875,0.13583536144383251,0.027881694138050077,-0.35344153586253524
1757088102988826600,4.81282666015625,0.19419106776807457,0.059841597500443454,-0.3362415408670902
1757088102998873600,4.82287353515625,0.24655370768997817,0.0891623845309019,-0.31246991239637134
1757088103008920600,4.832920654296875,0.2799761213529855,0.12156769357323646,-0.25478710036501284
1757088103018966800,4.842966796875,0.29239425236675887,0.14467325935065745,-0.2342775424301624
1757088103029013800,4.853013671875,0.27126784117519853,0.1409247204720974,-0.20780629961192607
1757088103039059700,4.863059814453125,0.21511340775489807,0.11002455529570579,-0.150204736123234
1757088103049107000,4.87310693359375,0.11166939989328384,0.08474924426376819,-0.12444880196750163
1757088103059154000,4.88315380859375,0.009759140937589108,0.006598083090782165,-0.10352160314247011
1757088103069200000,4.893199951171875,-0.06381872097048909,-0.05494096597731113,-0.07282967388927936
1757088103079246800,4.903246826171875,-0.14018533681426196,-0.10894202075600623,-0.055070145314931866
1757088103089293800,4.9132939453125,-0.1995049197345972,-0.11277414626479149,-0.012617197249829768
1757088103099339800,4.92333984375,-0.2399474412927404,-0.10892682318687438,0.0224986859254539
1757088103109386800,4.93338671875,-0.2634083963790908,-0.10272796854674815,0.054314358511567115
1757088103119432700,4.9434326171875,-0.29496845023632046,-0.06368307535946369,0.07476385682225227
1757088103129479700,4.953479736328125,-0.30943014284167436,-0.006456044271588325,0.07104732051715254
1757088103139527000,4.96352685546875,-0.29408227851893753,0.008819266271591186,0.08141410849168897
1757088103149572600,4.973572509765625,-0.30050149791147557,0.008626374047994613,0.0978473568983376
1757088103159619800,4.983619873046875,-0.2683943680981174,-0.005399228695034981,0.07670709984451532
1757088103169666800,4.993666748046875,-0.17672380013857036,-0.03795242177546024,0.05583236185908317
1757088103179712800,5.003712646484375,-0.09801902367081493,-0.046079029607772826,0.05174933032914996
1757088103189759700,5.013759765625,-0.0005575973501428962,-0.02859481084346771,0.038438451726734636
1757088103199806700,5.023806640625,0.08096095789670944,-0.01575286492705345,0.049154783791303634
1757088103209852700,5.033852783203125,0.14680033450722693,-0.02175824282169342,0.07355886494666337
1757088103219899600,5.043899658203125,0.17668343159556388,-0.012495908957719803,0.08243146884068846
1757088103229945600,5.053945556640625,0.16474223391115664,-0.008177461236715316,0.09549845568463206
1757088103239992600,5.06399267578125,0.12105974405109882,-0.028262217888236043,0.10413593564853071
1757088103250039800,5.074039794921875,0.05808507268931716,-0.05341594836711883,0.05643661136254668
1757088103260085800,5.084085693359375,-0.012335749959945679,-0.04071253413856029,0.03252235955074429
1757088103270132700,5.0941328125,-0.09052494158837944,-0.01204115092754364,-0.010661679267883301
1757088103280178700,5.1041787109375,-0.1585620839715004,0.0043897593915462494,-0.06690612905919552
1757088103290225700,5.1142255859375,-0.1983019736856222,0.029034371304512023,-0.11045052562281489
1757088103300272600,5.124272705078125,-0.2646241653770208,0.03078326079845428,-0.14363748656213282
1757088103310318600,5.134318603515625,-0.2818973717391491,0.018017887249588964,-0.14798735233470797
1757088103320365600,5.144365478515625,-0.3004529825946316,-0.009284545695781707,-0.14029884365871548
1757088103330412500,5.15441259765625,-0.27583354165554047,-0.05661912832260132,-0.14144216847494243
1757088103340458800,5.164458740234375,-0.2387222834119573,-0.06800152308046817,-0.12899316739886998
1757088103350505700,5.174505615234375,-0.16831077658031135,-0.06892448314428329,-0.11341595129966735
1757088103360552700,5.184552734375,-0.08263269050121307,-0.03545592878460884,-0.10904095108583568
1757088103370599000,5.194598876953125,-0.0017032602539286017,-0.01593055958151817,-0.09127323920503258
1757088103380645600,5.204645751953125,0.025496844828128813,0.05384381839036941,-0.06231412509381771
1757088103390691800,5.21469189453125,0.07658639607429504,0.08475801209211349,-0.07832184156477451
1757088103400738800,5.22473876953125,0.09022446080446243,0.11137246277332305,-0.06923048035353421
1757088103410785800,5.234785888671875,0.10307806062605232,0.10374679020047187,-0.09698679454624652
1757088103420831700,5.244831787109375,0.09687631990909576,0.06980301954448223,-0.1275277710214257
1757088103430878700,5.254878662109375,0.06671615944504737,0.04061374993920326,-0.14465572369396687
1757088103440924700,5.264924560546875,0.0336059170037508,0.029043723654747007,-0.1508707988165319
1757088103450972000,5.274971923828125,-0.010472878697514534,0.042918519750237465,-0.16515665993094444
1757088103461019000,5.285018798828125,-0.060198740375041956,0.023012042275071143,-0.19214710431769488
1757088103471065000,5.295065185546875,-0.1234832083383575,0.018411855003237724,-0.2274697621114552
1757088103481112000,5.305112060546875,-0.18982761186156422,0.012890461233258247,-0.2669555309340358
1757088103491159000,5.315158935546875,-0.23224928800556807,-0.011191840621829032,-0.3017655630305409
1757088103501205000,5.325205078125,-0.266095406973362,-0.012363807010650634,-0.28390286634266376
1757088103511252000,5.335251953125,-0.31416184753868726,0.028508886125683783,-0.26276436285451055
1757088103521298000,5.3452978515625,-0.3341109585791826,0.07128361349105834,-0.2165780734799802
1757088103531345000,5.355344970703125,-0.28981588977873324,0.07756313215196133,-0.1725377100929618
1757088103541392100,5.36539208984375,-0.2502512835662812,0.029057167658209797,-0.14413622986450791
1757088103551438000,5.37543798828125,-0.17714699398670344,-0.03938508492708206,-0.12866598127111792
1757088103561485000,5.385485107421875,-0.09319967722296714,-0.08771744641959667,-0.0999083810813725
1757088103571532000,5.395531982421875,-0.01798051438126713,-0.10079963083267211,-0.05583016990199685
1757088103581578000,5.405577880859375,0.025209260058403012,-0.098477909886837,-0.008051496769487857
1757088103591625000,5.415625,0.061885634016059336,-0.08028992676734924,0.0280789702758193
1757088103601671000,5.4256708984375,0.05891220769584179,-0.05740297217667102,0.0750455963730812
1757088103611718000,5.4357177734375,0.052750177934765816,-0.04439151491224765,0.11820157814100384
1757088103621764900,5.445764892578125,0.07395663209259509,-0.06233575240373611,0.13908771430328487
1757088103631810800,5.455810791015625,0.100691457750462,-0.04843640638887882,0.13985694511011243
1757088103641857800,5.46585791015625,0.11408292730841785,-0.03586626315116882,0.1464227333664894
1757088103651905000,5.475905029296875,0.11528178170416503,-0.022571897292137145,0.1331815589994192
1757088103661951000,5.485950927734375,0.09709726918339728,-0.014393267011642456,0.09697408119514583
1757088103671998000,5.495998046875,0.07396894358489663,-0.012024199792742728,0.06810615249872207
1757088103682044000,5.5060439453125,0.03344637906048447,-0.0015606734454631805,0.01473725814372301
1757088103692091000,5.5160908203125,-0.003370901205204427,-0.027242227190732955,-0.0306463365457952
1757088103702137900,5.526137939453125,-0.005631283885240554,-0.02752688935101032,-0.04220920243710279
1757088103712184000,5.53618408203125,-0.0040630116552114485,-0.015594459494948386,-0.03549202301129699
1757088103722230800,5.546230712890625,-0.03313713044822216,0.022301263657212255,-0.051977001605182885
1757088103732277800,5.55627783203125,-0.03957797715067863,0.039784313377737995,-0.05801423594281077
1757088103742324000,5.566323974609375,-0.04693476965427398,0.042677112209796905,-0.061177668409794564
1757088103752371200,5.57637109375,-0.03613576427493244,0.040536008527874944,-0.04046601203158497
1757088103762417200,5.586417236328125,-0.028146446021459996,0.0442284333050251,-0.06301058292537927
1757088103772464000,5.596464111328125,-0.011570720404200254,0.0105178868830204,-0.06886939195618033
1757088103782511000,5.606510986328125,0.020050854381918906,-0.00802782363295555,-0.07753755931928753
1757088103792557000,5.61655712890625,0.03117784960661083,-0.03143734079301357,-0.08461436583772301
1757088103802604000,5.62660400390625,0.050248460779525335,-0.010445990690588951,-0.09708499422371387
1757088103812650000,5.63664990234375,0.07074000813364982,-0.024227847805619238,-0.12415756393596529
1757088103822697000,5.646697021484375,0.07957684659454971,-0.011948211947083473,-0.15486366784498096
1757088103832744000,5.656743896484375,0.08779811044037342,-0.013792378509044646,-0.18572057840153575
1757088103842790000,5.666789794921875,0.10576744584050028,-0.009014496582746506,-0.20380568566843865
1757088103852837000,5.676837158203125,0.12801727157142012,0.0048883565634489055,-0.23377850686684248
1757088103862884000,5.686884033203125,0.16227496701478958,-0.0223299052298069,-0.2530981243647635
1757088103872930000,5.696929931640625,0.1632195909211412,-0.014411971712112425,-0.24845716669112441
1757088103882977000,5.70697705078125,0.18182660317029803,-0.0014981296032667158,-0.23032807415202258
1757088103893023000,5.71702294921875,0.1665436938425526,0.035545360633730885,-0.2090175750978291
1757088103903070000,5.727070068359375,0.1358352883785963,0.04854746554791927,-0.21150310830324887
1757088103913117000,5.737116943359375,0.10458967076539993,0.040701428222656245,-0.1940793875545263
1757088103923163000,5.747162841796875,0.04991002260539681,-0.02629647077322006,-0.18188202315196395
1757088103933209900,5.7572099609375,0.03065700407028198,-0.07988719118535519,-0.16701266306117177
1757088103943257000,5.767257080078125,-0.015860453487373888,-0.1002203696399927,-0.1368437347687781
1757088103953302800,5.777302734375,-0.0032873511075973507,-0.08411796062290668,-0.11599150087609886
1757088103963350000,5.78735009765625,0.024535890841484068,-0.03896422916650772,-0.0878540784113109
1757088103973396000,5.79739599609375,-0.0021480814119800924,-0.030554712739586827,-0.09666925302967429
1757088103983443000,5.80744287109375,0.04158697888553142,0.01910509796440601,-0.10009513582512736
1757088103993490000,5.817489990234375,0.034547581768035886,0.07129530392885208,-0.1179366435945034
1757088104003536000,5.827535888671875,0.01962882957756519,0.08960077594816684,-0.15293357656523585
1757088104013582800,5.837582763671875,0.029707155999541282,0.11291969221532344,-0.13493863179981708
1757088104023629800,5.8476298828125,0.022970541220903397,0.1197182663142681,-0.13917875358760357
1757088104033676000,5.857676025390625,-0.009380955274961888,0.128284434607625,-0.13979527805075048
1757088104043722800,5.86772265625,-0.058034255817532535,0.11408289077579975,-0.1825419483654201
1757088104053769000,5.87776904296875,-0.09301496830582619,0.021959318351745603,-0.2570812026515603
1757088104063816200,5.887816162109375,-0.1423965100577101,-0.10538345149159431,-0.31835882430449125
1757088104073863000,5.89786279296875,-0.17796236549019812,-0.1649275273501873,-0.35965105802714825
1757088104083909000,5.9079091796875,-0.21463873944785444,-0.1662169826388359,-0.36352541524246335
1757088104093956000,5.9179560546875,-0.2456283730059862,-0.1340875679284334,-0.3299861337341368
1757088104104002000,5.928001953125,-0.2832896663477644,-0.07674187889695167,-0.253378694871813
1757088104114049000,5.938049072265625,-0.32888186228666455,-0.03799216926395893,-0.15257292655929922
1757088104124096000,5.948095947265625,-0.3905535978237167,0.01211129355430603,-0.07411006908863782
1757088104134142000,5.958141845703125,-0.4387158634463325,0.0010462941825389862,-0.020167904890328645
1757088104144189000,5.96818896484375,-0.4997399121969938,-0.0854722978413105,0.02909720740765333
1757088104154236200,5.978236083984375,-0.5768809830119833,-0.15437924532890318,0.06005173311978578
1757088104164282000,5.9882822265625,-0.6535176845014095,-0.16518530150353908,0.07188450199365616
1757088104174329000,5.9983291015625,-0.7314286071777343,-0.13723755639195442,0.06801467482298612
1757088104184375000,6.008375,-0.7943962277442217,-0.1335954004973173,0.08223346205055714
1757088104194422000,6.018422119140625,-0.8043044582962989,-0.155567578330636,0.04898322661668062
1757088104204469000,6.028468994140625,-0.7825485535621642,-0.14363281038701534,0.016549568262696265
1757088104214515000,6.038514892578125,-0.714895990049839,-0.111243867957592,0.003386427567899227
1757088104224562000,6.04856201171875,-0.6370259839057922,-0.04876490769088268,-0.041331688950210804
1757088104234609000,6.05860888671875,-0.5875321043532341,0.04250000207722187,-0.08785042514950037
1757088104244654800,6.06865478515625,-0.4525584012400359,0.1509060162603855,-0.13623247100263833
1757088104254702000,6.0787021484375,-0.23875490703992544,0.2373012741655111,-0.260487211702764
1757088104264747800,6.088747802734375,-0.004166435497067868,0.2927063505232334,-0.2638755389668047
1757088104274795000,6.098794921875,0.4529501405039802,0.3179740627706051,-0.16715557866320013
1757088104284842000,6.108842041015625,0.8589566704601049,0.22736031038761137,-0.022162731969356534
1757088104294888000,6.118887939453125,1.1422639820624143,0.19498481196165085,0.1177057574480772
1757088104304935000,6.128934814453125,0.7034732632815838,0.2749129196792841,0.18825243496671318
1757088104314980900,6.13898095703125,0.11905077884886413,0.2309369998306036,0.3245477420724928
1757088104325027800,6.14902783203125,-0.25325872175395486,0.14045534939467907,0.4724278346404433
1757088104335074800,6.15907470703125,-0.5664754339296371,0.03281155175566673,0.6531476821452379
1757088104345121000,6.16912109375,-0.665299892231822,-0.11146773984134196,0.7061633791483938
1757088104355167700,6.179167724609375,-0.7205770313609391,-0.26617665551602837,0.7578501656353474
1757088104365215000,6.189215087890625,-0.7369938400894404,-0.1601519835114479,0.6121557465434074
1757088104375261200,6.19926123046875,-0.5970487783044577,0.12037877604961394,0.4097812627218663
1757088104385308000,6.209307861328125,-0.43949729614760724,0.02695756503045559,0.2835305258989334
1757088104395354000,6.21935400390625,-0.12136427995562553,0.09303250396251678,0.06284077931642532
1757088104405401000,6.229401123046875,0.25502985961232333,0.2619844645231962,-0.13443477393090725
1757088104415448000,6.239447998046875,0.6583296148277819,0.19699732082784174,-0.3238417857602238
1757088104425494000,6.249493896484375,0.788722273761034,0.04421791191101074,-0.49462329983562225
1757088104435541000,6.259541015625,0.5751578490138054,-0.01202069266140461,-0.49755496937334537
1757088104445588000,6.269587890625,0.37286012022290377,-0.05914075575470924,-0.33589550390839573
1757088104455634000,6.279634033203125,0.18026545480079947,-0.2016962922990322,-0.15722966632395982
1757088104465681400,6.289681396484375,-0.012810308669134974,-0.36963001572787757,0.1245923020914197
1757088104475727400,6.299727294921875,-0.003185717364028096,-0.3647229544639587,0.40217385645806786
1757088104485774300,6.3097744140625,-0.05089307882599532,-0.29806349364221096,0.5890481349393725
1757088104495821300,6.3198212890625,-0.0438706328433007,-0.271378900334239,0.7503411051794886
1757088104505867300,6.3298671875,0.068772580518201,-0.28957506676018235,0.7841621262386441
1757088104515914200,6.339914306640625,0.20834289070665835,-0.2109025120615959,0.760709938980639
1757088104525960200,6.349960205078125,0.5284370143711566,-0.12048574355542659,0.72866703350991
1757088104536007200,6.360007080078125,0.4977882666725665,-0.1071048684567213,0.551396449676156
1757088104546054400,6.370054443359375,0.6417413950551301,0.04450491215884685,0.4259513301476836
1757088104556100400,6.380100341796875,0.961498176524043,-0.014645195946097374,0.29129414563775063
1757088104566147300,6.390147216796875,0.9246808962583541,-0.1743073501139879,0.22561522028595207
1757088104576194300,6.4001943359375,0.8220909479428082,-0.2728641704559326,0.19312018713355064
1757088104586240300,6.410240234375,0.7044068178046494,-0.3420791609793901,0.1354059570506215
1757088104596287200,6.420287353515625,0.6545113717138766,-0.27726971193850036,0.14035656519532203
1757088104606333200,6.430333251953125,0.6544406445652247,-0.26377427054941655,0.19377397486716508
1757088104616380200,6.440380126953125,0.6387099914699792,-0.20855156502127647,0.2770563614487648
1757088104626427100,6.45042724609375,0.6254536195337772,-0.15164952810406684,0.2780859967574477
1757088104636473000,6.46047314453125,0.5463748951870948,-0.10235095192790031,0.27534546587765213
1757088104646520300,6.470520263671875,0.5107236630260944,-0.1274737027466297,0.23897183772623537
1757088104656567300,6.4805673828125,0.5307266596782952,-0.21394319493174552,0.21741116330325602
1757088104666613200,6.49061328125,0.6289817936599255,-0.23757833754122257,0.21661679805517195
1757088104676660200,6.50066015625,0.722889326891303,-0.218349320936203,0.2080617356777191
1757088104686706400,6.51070654296875,0.7960077545940876,-0.2366612226963043,0.22875030344128608
1757088104696753200,6.520753173828125,0.8646049054801463,-0.2764765157341957,0.23220248972177504
1757088104706800000,6.530800048828125,0.8937363074183463,-0.3000584668517113,0.29187077648192644
1757088104716846300,6.540846435546875,0.860808435806632,-0.3229793237119913,0.3401268578678369
1757088104726893300,6.550893310546875,0.820215217198804,-0.33816286431849,0.4270692282617092
1757088104736939300,6.560939208984375,0.7511785058517009,-0.29825054064691064,0.5945017241701483
1757088104746986200,6.570986328125,0.6982915497947484,-0.24968963109552858,0.7403092482477426
1757088104757033500,6.581033447265625,0.6142735424149781,-0.18748013541996478,0.8149117770284414
1757088104767079400,6.591079345703125,0.5391419482588767,-0.1714794332116842,0.7970224845945835
1757088104777126400,6.60112646484375,0.4840718760091811,-0.16673896068632602,0.664512833507359
1757088104787173400,6.61117333984375,0.46753743225038047,0.05723813700377941,0.4926875094674527
1757088104797219300,6.62121923828125,0.5637001239974051,0.6149246267348527,0.4283857176877558
1757088104807266300,6.631266357421875,0.6699293055981397,1.3129776185333728,0.4828815702460706
1757088104817312300,6.641312255859375,0.6360744553346187,1.880218703073263,0.613670827281475
1757088104827359200,6.651359130859375,0.3324445597369224,2.1045517745941877,0.878873815459758
1757088104837406200,6.66140625,-0.2046638368677348,1.7741759108901023,1.2246462779991327
1757088104847452200,6.6714521484375,-0.9915057767748832,1.204152502155304,1.7106163157798349
1757088104857499400,6.68149951171875,-1.743502540206909,0.7401362297683953,1.950670395784825
1757088104867545300,6.69154541015625,-1.6071598868280648,0.8690671455860137,1.4985470980264246
1757088104877592300,6.70159228515625,-0.8750129022479057,1.8532798427432775,0.9892397315390408
1757088104887639300,6.711639404296875,0.09667173724770545,3.0290806951612232,0.4641406294189393
1757088104897685200,6.721685302734375,0.9611744244623929,3.7875937086194753,-0.13478650997802613
1757088104907732200,6.731732177734375,1.614776207050681,3.954000660872459,-0.1766653114169836
1757088104917779200,6.741779296875,1.6073014872558413,4.132506047198176,0.3039263943262398
1757088104927825200,6.7518251953125,1.1454940500248223,4.322812345954776,0.7722193211190402
1757088104937872100,6.7618720703125,1.0773931582231073,4.160801582834124,0.9034118982583283
1757088104947918000,6.77191796875,1.1762808179546147,3.9375077912330627,0.9049502137415111
1757088104957965300,6.78196533203125,1.3800865766882895,3.6882735026896,0.6421911115840077
1757088104968012300,6.79201220703125,1.9025538690000772,3.3905466936558484,0.4260898618355393
1757088104978058200,6.802058349609375,2.4087363814651965,3.0936668568402528,0.38997546914219855
1757088104988105200,6.812105224609375,2.6094951006531715,2.5088386776834724,0.4400792242214083
1757088104998152200,6.822152099609375,2.686886383369565,1.874288143980503,0.4518623087346553
1757088105008198100,6.8321982421875,2.9452076492100954,1.4582126034200191,0.5865409744240343
1757088105018245000,6.8422451171875,3.0113959853887557,1.4217121340185404,0.9108430711723864
1757088105028291300,6.852291259765625,2.947560349816084,1.5926006155997514,1.2089492349125444
1757088105038338300,6.86233837890625,2.779022815275192,1.9461416663140056,1.6208534811377524
1757088105048385300,6.87238525390625,2.227646823865175,2.177056454312801,2.2368574275419113
1757088105058431500,6.882431396484375,1.312552086597681,1.921060416549444,2.827816656799614
1757088105068478500,6.892478515625,0.18546762655377386,1.564277607434988,3.1537711969301103
1757088105078524400,6.9025244140625,-1.8643677845992146,1.0574170495778321,3.0324349740251897
1757088105088571400,6.9125712890625,-1.9543746571302414,0.6740180362164974,2.0872782759711144
1757088105098618400,6.922618408203125,-2.0533423963606356,0.9323813876330852,2.043731395189464
1757088105108664300,6.932664306640625,-1.9333401985384522,0.9062152652412653,1.5803165958270429
1757088105118711300,6.942711181640625,-1.3747921235419809,0.5838093575030565,1.0645271738439799
1757088105128758300,6.95275830078125,-0.818419639018923,0.7154103693127631,1.4404633039787411
1757088105138804200,6.96280419921875,-0.021923077994585035,1.3468816417008638,2.1242691592380405
1757088105148851200,6.972851318359375,0.2838882532954216,1.8568822511494159,2.3978069911718367
1757088105158897200,6.982897216796875,-0.11441899086236954,2.1549960136741397,1.8287600262537598
1757088105168944400,6.9929443359375,-0.9683797527313232,2.166161550810933,1.064788162867725
1757088105178991400,7.002991455078125,-1.2752858935207128,2.4518156447350976,0.21813626270741224
1757088105189037300,7.013037353515625,-1.3824384005114436,2.385415711632371,-0.3567641044139862
1757088105199084300,7.023084228515625,-2.0996680942058563,2.0310943241953847,-0.816872555707395
1757088105209130200,7.033130126953125,-2.287328846889734,1.670032814848423,-0.9216562877401709
1757088105219177200,7.04317724609375,-2.370784251950681,1.6732734042048454,-0.862056097780168
1757088105229224200,7.05322412109375,-2.2853125386312603,1.8312912982970475,-0.9732640176415442
1757088105239270100,7.063270263671875,-2.2988936124771833,1.7221785971492527,-1.1253028373241425
1757088105249317000,7.073317138671875,-2.3819319611698386,1.2803092746406792,-1.1667582987844944
1757088105259364400,7.0833642578125,-2.4851430370584127,0.745864544287324,-1.143317801964283
1757088105269410300,7.093410400390625,-2.5798472736254334,0.6958171955704688,-1.2690092974692582
1757088105279457300,7.103457275390625,-2.449746437245607,0.7152630697965622,-1.4333639933675526
1757088105289503200,7.113503173828125,-2.2292314627081153,0.1802373246848583,-1.8897481634408235
1757088105299550200,7.12355029296875,-2.233275769662857,-0.4973316820114851,-2.578917007037997
1757088105309597200,7.13359716796875,-2.5394077112093565,-1.041040499794483,-2.941060466402769
1757088105319643100,7.14364306640625,-2.8197195673227307,-1.498646320617199,-3.025913755562901
1757088105329690000,7.153690185546875,-3.0918951709926126,-1.9604630371332168,-2.8918589208602903
1757088105339736300,7.163736328125,-3.1174381930500266,-2.471031801858544,-2.936697595018148
1757088105349783300,7.173783203125,-3.283542362964153,-2.518996499082446,-2.9025644392699
1757088105359830300,7.183830322265625,-3.4133646746635433,-2.5442291400164363,-2.9992122111201285
1757088105369876500,7.19387646484375,-3.482766127669811,-2.377517067337036,-3.0749785229831934
1757088105379923500,7.20392333984375,-3.3656314481079574,-2.1328104853510856,-3.050593438789248
1757088105389969400,7.213969482421875,-3.173143713659048,-1.9835639267355203,-3.067671414840221
1757088105400016400,7.224016357421875,-2.7714965114235874,-2.17103470980525,-3.204429078760743
1757088105410063400,7.2340634765625,-2.5155273616671563,-2.4898908161073923,-3.375498762127757
1757088105420109300,7.244109375,-2.425705051922798,-2.729018721178174,-3.5597248641878365
1757088105430156300,7.25415625,-2.5151462533950806,-3.003340689226985,-3.660122343960404
1757088105440203300,7.264203369140625,-2.590575880649686,-3.0943460712760684,-3.6457203091204162
1757088105450249200,7.274249267578125,-2.5147365035504103,-2.790225761812925,-3.443420205709338
1757088105460296200,7.284296142578125,-2.3500486301749945,-2.5969395704627036,-3.1579899836689234
1757088105470341000,7.294341064453125,-2.12239547432065,-2.2936171333789823,-2.7404244968116283
1757088105480388000,7.30438818359375,-1.8680600632458924,-2.0336410860687493,-2.224235554116964
1757088105490435000,7.31443505859375,-1.669510252279043,-2.06549343740344,-1.8212205706596374
1757088105500481000,7.32448095703125,-1.60187230181396,-2.2714526478439567,-1.705320401328802
1757088105510528000,7.334528076171875,-1.63902334407866,-2.588203306299448,-1.662763116106391
1757088105520574200,7.34457421875,-1.61554251524806,-2.8978689749300477,-1.5144927090466023
1757088105530621000,7.354620849609375,-1.477002644085884,-3.150830759564042,-1.2805144418239593
1757088105540668200,7.364668212890625,-1.3141630289256572,-3.1719863603174683,-1.2068635146796702
1757088105550714400,7.37471435546875,-1.0587935986280441,-3.065850044631958,-1.2162345696151255
1757088105560761000,7.384760986328125,-0.7510457463175058,-2.850471263939142,-1.1602391261488199
1757088105570807300,7.394807373046875,-0.4414741857111454,-2.571111886245012,-1.1155611955106257
1757088105580854300,7.404854248046875,0.05644026462435722,-2.3105659300923347,-1.0162672930657863
1757088105590901200,7.4149013671875,1.601674733415246,-2.0926608457922935,-0.2376163314640522
1757088105600947200,7.424947265625,3.6309342433989045,-1.517601780977845,1.7014368378937244
1757088105610994200,7.434994140625,5.648143250104785,0.5238467639714479,4.693974978077412
1757088105621041200,7.445041259765625,6.518235062563419,4.580923768436908,6.265166310423612
1757088105631087000,7.455087158203125,6.775652657562494,8.827454254221916,6.0848103277951475
1757088105641134300,7.46513427734375,1.907766927473247,12.423559176301955,5.6845116175591945
1757088105651180000,7.475179931640625,-3.5315202217057347,12.863294993913174,3.263324335321784
1757088105661227300,7.485227294921875,-1.7386279199078678,6.960666695129871,1.4140946447521447
1757088105671274200,7.495274169921875,0.69694327699095,0.7066214981794356,-0.4882692546337843
1757088105681320200,7.5053203125,1.7598557091146707,-2.470248542526364,-1.3206225803285836
1757088105691367200,7.5153671875,0.4956643333211541,-3.7695056787431236,-0.8304676580786704
1757088105701413000,7.5254130859375,-2.2330302704691887,-3.441957731941342,-1.0348714557707308
1757088105711460000,7.535460205078125,-2.8669197099149226,-2.8241017279297114,-1.194998889362812
1757088105721507000,7.545507080078125,-2.0216355909764765,-2.084617824590206,-1.0252221684157847
1757088105731553000,7.555552978515625,-1.1893857256561517,-0.810623139923811,-1.0672118828833101
1757088105741600000,7.56560009765625,-0.14101882849633693,0.7890911070734262,-1.068543716008961
1757088105751646000,7.57564599609375,0.2105176043972373,2.5979507933318615,-1.1516983845576643
1757088105761693200,7.585693115234375,0.4546683060660958,3.5236201161056755,-1.521100436748564
1757088105771740200,7.595740234375,0.24484540593475101,3.3394355150997637,-1.8639295393124222
1757088105781786000,7.6057861328125,-0.3665808572903275,2.386595861327648,-2.16316470708251
1757088105791833000,7.6158330078125,-0.48821957027316093,1.2191016494840383,-2.268533545526862
1757088105801880000,7.625880126953125,-0.6369114176154136,0.39653614283204075,-2.3292092557638884
1757088105811926000,7.635926025390625,-0.7774190817192196,0.06665303108096123,-2.4455258969411253
1757088105821973000,7.645972900390625,-1.1439324267312885,0.25304946291744707,-2.6302631633937357
1757088105832019200,7.656019287109375,-1.0874784258425234,0.7110965977668762,-2.508535310822725
1757088105842066200,7.666066162109375,-0.7040297281205654,1.209786708649993,-2.1405334808185694
1757088105852113200,7.676113037109375,-0.4816001521334052,1.5132500155091284,-1.666583843438327
1757088105862159400,7.686159423828125,-0.5197944198407233,1.6493606136977672,-1.1437304744184016
1757088105872206300,7.696206298828125,-0.5046364520668983,1.6224387045025825,-0.7337763393476605
1757088105882252300,7.706252197265625,-0.5484378921315074,1.3465461261361837,-0.3277218420639634
1757088105892299300,7.71629931640625,-0.3961304846405983,0.8786836997151374,0.08318798629641533
1757088105902346200,7.72634619140625,-0.33956396328806876,0.47125206885933874,0.3996311862379312
1757088105912392200,7.73639208984375,-0.36744916455745696,0.0005681552767753601,0.6623010026767849
1757088105922439200,7.746439208984375,-0.3923636794529855,-0.39079730691909786,0.9053598174557089
1757088105932485000,7.756485107421875,-0.3054183864496648,-0.609709522435069,1.0650146650999783
1757088105942532000,7.766531982421875,-0.6442658720314502,-0.714953857716918,1.114805700968206
1757088105952579300,7.776579345703125,-0.9852993233501911,-0.6357815368026495,1.0566028105854988
1757088105962625000,7.786625,-1.3490813437022269,-0.6290162804514169,0.9032795040503143
1757088105972672300,7.79667236328125,-1.2126806765258311,-0.397149306294322,1.1459840985640883
1757088105982719200,7.80671923828125,-1.5067092155635355,-0.29941490825116635,1.2858332987591623
1757088105992765200,7.81676513671875,-1.618626598868519,-0.3726929104298353,1.2902981692135334
1757088106002812200,7.826812255859375,-1.4156089948378503,-0.7316700147181749,1.2250094122231006
1757088106012858000,7.836858154296875,-1.2648280662618576,-1.053871924316883,1.4884788546070455
1757088106022905000,7.846905029296875,-0.7839582742296158,-1.650453669631481,1.4569590962275862
1757088106032952000,7.8569521484375,-0.43621356176920234,-2.3612603445410727,1.5396063997760414
1757088106042998000,7.866998046875,0.10235789312534034,-2.3618571413904426,1.4031211230561136
1757088106053045000,7.877044921875,0.2672656197965145,-2.045971575331688,1.016836617386341
1757088106063091000,7.887091064453125,0.623005714925006,-1.9232658176392317,0.812142896836996
1757088106073138200,7.89713818359375,0.6809363642375916,-1.8815414761096239,0.7212459435984492
1757088106083185200,7.90718505859375,0.319490276019834,-1.9663924271821975,0.45726504456102846
1757088106093231000,7.917231201171875,-0.7875251729309558,-1.4365513912320136,0.4104398727610707
1757088106103278000,7.927278076171875,-0.3311363266825676,-0.579306200864911,-0.8180033133029937
1757088106113324300,7.93732421875,1.1830278810620307,0.23906536122858524,-1.7699685223281383
1757088106123371000,7.94737109375,2.454846975255012,0.8241530681043863,-2.6384225044518708
1757088106133418000,7.95741796875,2.2742729659616945,0.09261690889894962,-2.4308459219425913
1757088106143464200,7.967464111328125,1.6520394775182008,-0.798360455200076,-1.6114429709747433
1757088106153511200,7.97751123046875,1.3362380826115607,-1.2663327717363833,-1.2358216058775782
1757088106163558100,7.98755810546875,1.0107610968649388,-1.3482044147372245,-0.5804552247695625
1757088106173604400,7.997604248046875,0.5918102931290865,-1.3133365149736405,0.15196137053221465
1757088106183651300,8.0076513671875,0.408214305666089,-0.6487409716188908,0.8890393817737698
1757088106193697300,8.017697265625,0.5077712794939055,-0.15677753864228725,1.3282730950817465
1757088106203744300,8.027744140625,0.6191939746171236,0.06541618276238441,1.4505334470942615
1757088106213791200,8.037791259765624,0.7855547496408224,0.0309872589379549,1.3265337040685117
1757088106223837200,8.047837158203125,0.8595219031274318,-0.11024492004811763,1.2243407191812992
1757088106233884200,8.05788427734375,0.8574936852354555,-0.21539573182761668,1.1145941040441394
1757088106243930000,8.06793017578125,0.8712818990260363,-0.21309037749469278,1.0797007775783538
1757088106253977000,8.07797705078125,0.6209937175154686,-0.11319734011292457,0.8362586625702678
1757088106264024300,8.0880244140625,0.296118204793334,0.17188509140312672,0.6683310766212642
1757088106274070000,8.098070068359375,0.1743564499527216,0.549518380844593,0.6763114078506827
1757088106284117200,8.1081171875,0.29722229357771573,0.6067489190638065,0.7969364137463271
1757088106294163200,8.1181630859375,0.40056810176186264,1.1412468409091234,0.6111091600999236
1757088106304210200,8.128210205078124,0.37927272721156474,2.0278759466707705,0.3697454588010907
1757088106314257200,8.138257080078125,0.29621304346993566,2.8796406598001716,0.2632110837087035
1757088106324303000,8.14830322265625,0.00030789690539240834,3.6959202180504795,0.33309652083963154
1757088106334350000,8.15835009765625,-0.4791413608044386,4.365591164973378,0.6789644065774977
1757088106344397000,8.16839697265625,-1.1834107428997753,4.917742232409119,1.2821572405949235
1757088106354443000,8.178443115234375,-1.7840718664824962,5.196153515598177,1.9885441993661224
1757088106364490000,8.188489990234375,-2.0895371608138085,5.263378209087253,2.0467877140201627
1757088106374536000,8.198535888671875,-1.541319341173768,5.1135301774472,1.490330035431683
1757088106384583200,8.208583251953126,-0.2607254774380475,4.772199204486609,0.8727427653588354
1757088106394630100,8.218630126953125,1.1549883660137652,4.537707727044821,0.4693183243177831
1757088106404676000,8.228676025390625,2.2546242626398802,4.3641812981754535,0.0792027160525322
1757088106414723000,8.23872314453125,3.3791859262079,3.9515234571039675,-0.22290742263197896
1757088106424769300,8.248769287109376,4.400955323821306,3.379683354336023,-0.15718670396506784
1757088106434816000,8.25881591796875,5.29152586068511,2.7942741604208945,0.4484783653847873
1757088106444863000,8.268863037109375,5.844829020765423,1.9333856451153755,1.4569339617863297
1757088106454909200,8.2789091796875,6.072886665767431,1.176346795862913,2.675194192010164
1757088106464956200,8.2889560546875,5.829963460066915,2.073377468651533,3.387326562565565
1757088106475002400,8.29900244140625,4.8742707549512385,2.7569465925455092,3.9972441747933622
1757088106485049600,8.309049560546875,3.881818052715063,3.730671797958016,4.242928077378869
1757088106495096300,8.319096435546875,2.296469600200653,3.8871617518305777,4.006788248208165
1757088106505142500,8.329142578125,-0.5386848521411418,3.1880010910511016,3.4061940523818133
1757088106515189500,8.339189453125,-2.2416578135609626,2.3338638035714623,2.2902935419142243
1757088106525235500,8.3492353515625,-2.8794810853242874,1.5546142915546892,1.2935302830025552
1757088106535282400,8.359282470703125,-3.5190053157866,1.7112041986703872,0.6829840174823999
1757088106545329400,8.369329345703125,-3.062854954469204,2.2851070791870356,-0.45767391762286425
1757088106555375400,8.379375244140626,-3.182181591117382,2.0887521479159594,-3.262930952090025
1757088106565422300,8.38942236328125,-3.8917376814439892,1.863717065605521,-4.38832205221951
1757088106575469600,8.399469482421875,-2.210824430010468,2.0105244143754244,-2.2598691775560376
1757088106585515500,8.409515625,1.3482899010635911,1.258053019168973,0.039003976655006406
1757088106595562500,8.4195625,3.384009985363483,1.2174018598288296,1.0620552307724953
1757088106605608400,8.4296083984375,1.797708762168884,2.3502093736946583,0.607885521878302
1757088106615655400,8.439655517578124,0.47177609273344273,2.039188198801875,0.03971183266341686
1757088106625702400,8.449702392578125,-1.2542714548036455,1.615740668168664,-0.3054159022316336
1757088106635748400,8.459748291015625,-2.5033085160851476,1.6065034687459467,-0.5430085605591535
1757088106645795300,8.46979541015625,-3.1830981214404104,1.3994997176885604,-0.7401262928962707
1757088106655841300,8.47984130859375,-3.0740824509263036,1.2526491142988205,-1.1276768729791045
1757088106665888300,8.48988818359375,-2.960085192607343,1.3675403988480568,-1.7278107578173278
1757088106675935500,8.499935546875,-3.058995940953493,1.6096224775493144,-1.9865122551470993
1757088106685981400,8.5099814453125,-3.179896402789652,1.676181400606036,-1.728560407140851
1757088106696028400,8.5200283203125,-3.1508737219229337,1.1484171709299087,-1.1517857705801724
1757088106706074400,8.530074462890624,-2.812249669833481,0.19182722471356392,-1.1723738005787134
1757088106716121300,8.540121337890625,-2.596253926286101,-0.5332400307387113,-1.5300766471475362
1757088106726168300,8.550168212890625,-2.805692503274977,-1.1462661303758621,-2.2664959022194147
1757088106736214300,8.56021435546875,-3.18956994780302,-1.9259364981532097,-2.9657202758848666
1757088106746261200,8.57026123046875,-3.118446785570681,-2.762251128694415,-3.3895816480159757
1757088106756308200,8.58030810546875,-3.6139459914579986,-3.3425188680678604,-3.8809441924899812
1757088106766354400,8.5903544921875,-3.9711324129372834,-3.9288007531642912,-4.359430888777971
1757088106776401400,8.6004013671875,-4.164757626983523,-4.319015291759372,-4.7322091394037
1757088106786447400,8.610447265625,-4.164655335652828,-4.521964798989892,-5.01822855950892
1757088106796494600,8.62049462890625,-3.958942793449759,-4.569293536397814,-5.1432449322313065
1757088106806541600,8.63054150390625,-3.8355560677558183,-4.328281717276573,-5.279454899141192
1757088106816587500,8.64058740234375,-3.857296774920821,-3.89914912674427,-5.250318821027875
1757088106826634500,8.650634521484376,-3.810964062812924,-3.3392519752264023,-4.923495681369304
1757088106836680400,8.660680419921874,-3.8919618455886837,-2.8327041365802286,-4.114903755012154
1757088106846727400,8.6707275390625,-3.8881653759151695,-2.287739181256294,-3.1699776508435606
1757088106856774400,8.6807744140625,-3.7001293601781127,-2.057784178200364,-2.6592025498911736
1757088106866820400,8.6908203125,-3.24195830668807,-2.1214900499135254,-2.5257225924670696
1757088106876867300,8.700867431640624,-2.6200316922366618,-2.4016297643303868,-2.687978854781389
1757088106886913300,8.710913330078125,-1.8814368466913698,-2.8362831641107795,-2.8176576663568613
1757088106896960500,8.72096044921875,-1.3276970487594604,-3.21765739364624,-2.7234017580792305
1757088106907007500,8.731007568359376,-1.0273773006230593,-3.3921021064043044,-2.223447034087777
1757088106917053400,8.741053466796876,-0.7247405077159405,-3.376773604369163,-1.415959269580245
1757088106927100400,8.751100341796874,-0.11211422105133532,-3.3555455229014157,-0.804354727178812
1757088106937146400,8.761146484375,0.53009062679708,-3.300868760818243,-0.2822580217450857
1757088106947193300,8.771193359375,0.7957318602621555,-3.153598470711708,0.11814356434345245
1757088106957240300,8.781240234375,1.091422195032239,-2.729814839991927,0.7197814240038395
1757088106967286300,8.791286376953124,2.529953946426511,-2.505167880216241,2.2030559879660605
1757088106977333200,8.801333251953125,3.835554314190149,-1.192807516798377,4.113557016578317
1757088106987379200,8.811379150390625,3.7074253624051807,1.452723942875862,4.386314804050326
1757088106997426400,8.821426513671875,5.000316470721364,4.5782630247950555,3.919226284611225
1757088107007473400,8.831473388671874,3.7484219741821287,8.744560282436012,4.771914542326331
1757088107017519400,8.841519287109374,-0.4974290049061179,12.92406305860877,4.934639006674289
1757088107027566300,8.85156640625,-3.408171197673678,13.644375228488444,5.167805957514047
1757088107037613300,8.86161328125,-3.2438948277086017,8.874204314959048,2.601015441599488
1757088107047659500,8.871659423828126,-0.36525136225223537,2.1346663423508403,-0.1724973780825734
1757088107057706200,8.881706298828124,0.06987900739014148,-1.6811960138976574,-1.499306245830655
1757088107067752400,8.89175244140625,-0.6319234000697732,-3.499187685638666,-2.607125156651437
1757088107077799400,8.90179931640625,-0.9080831049397587,-3.8866029489040375,-3.243951818592846
1757088107087846400,8.911846435546876,-0.832699070392549,-3.0433751779735085,-4.008855702131986
1757088107097892400,8.921892333984376,-0.3040525049239397,-1.9433575885534284,-4.355231975783408
1757088107107939600,8.931939697265625,0.26311288403123617,-0.8045821061939,-4.240634413483739
1757088107117985500,8.941985595703125,0.3127268097668886,0.7469482478708028,-4.060007212698459
1757088107128032500,8.952032470703125,0.3079208707898855,2.7515637304633853,-3.7348885388702153
1757088107138079500,8.96207958984375,0.5269882768675684,4.491980579614639,-3.024967122362554
1757088107148125400,8.97212548828125,-0.01619841673746705,4.9564551171630615,-2.3685808966875075
1757088107158172400,8.98217236328125,-0.6442728862941265,4.410281955093145,-1.9346371064811945
1757088107168218400,8.99221826171875,-0.8100516236461699,3.4464351696163416,-1.4726751362755894
1757088107178265300,9.002265380859376,-0.9818510825924575,2.371455575340986,-1.0959952020362018
1757088107188312300,9.012312255859374,-1.3019665413059294,1.4021832576841116,-0.7331769121497869
1757088107198358300,9.022358154296874,-1.4504995448246598,0.6388572909861803,-0.4748506778731942
1757088107208405500,9.032405517578125,-1.3328785430505872,0.08856500315964222,-0.32321459377259015
1757088107218451500,9.042451416015625,-1.084740671441704,-0.3253659265875816,0.0006952887877821922
1757088107228498400,9.05249853515625,-0.9384827732481061,-0.7087333757668733,0.29171500139832496
1757088107238545400,9.06254541015625,-0.6500166906431317,-0.948105610987544,0.5035527484834194
1757088107248591400,9.07259130859375,-0.868065275067091,-1.4047721051335333,0.7324526895284652
1757088107258638300,9.082638427734375,-0.9875146613121032,-1.2411889781296253,1.4448495562389492
1757088107268685300,9.092685302734376,-0.9389071361400186,-1.1347259147077797,2.0852198821365833
1757088107278731300,9.102731201171874,-0.9320797743380069,-1.1017179635971783,2.5922674869984386
1757088107288778200,9.1127783203125,-0.9557293838642537,-0.8567956930339335,3.208060128739476
1757088107298824200,9.12282421875,-1.0001483713053165,-1.0687018291801214,3.378624785193801
1757088107308871400,9.132871337890625,-0.7700000376343726,-1.4306038810044526,3.0699966429173946
1757088107318918400,9.14291845703125,-0.27617380646057427,-2.1889041284948587,2.585478265249729
1757088107328964400,9.15296435546875,-0.5002889243818819,-2.5040286470532416,2.2171873891711233
1757088107339011300,9.16301123046875,-0.2872562684237957,-2.791144045701623,2.045491682860255
1757088107349057500,9.1730576171875,-0.6026864919304847,-2.7453531853854654,2.0245713521674276
1757088107359104500,9.1831044921875,-1.4362696516811846,-2.4923645127445457,2.1029056148223577
1757088107369151200,9.193151123046874,-1.3793465719759463,-2.5728309651225802,2.001862092231214
1757088107379197400,9.203197509765625,-1.555847632741928,-2.8957828163057564,2.1836809870190916
1757088107389244400,9.213244384765625,-2.5275299341499804,-2.9245991609454154,2.494346041950583
1757088107399290400,9.223290283203125,-2.2883470840215683,-1.9902046799242494,0.46135421357080336
1757088107409337300,9.23333740234375,1.4448410806715488,-0.24717267983853816,-2.231406030268222
1757088107419384600,9.243384521484375,3.2763048129260537,1.234579789122939,-3.169064919912815
1757088107429430500,9.253430419921875,3.231892839747667,1.7335703442573547,-3.8759211036309598
1757088107439477500,9.2634775390625,2.4383979447573423,0.6646458122372627,-3.677085169199109
1757088107449523500,9.2735234375,1.789232610246539,-0.0574041412204504,-2.2173354193396864
1757088107459570400,9.2835703125,1.563898837250471,-0.43068566519320006,-0.9624617608591913
1757088107469618200,9.2936181640625,1.1363064618974923,-0.4535515769958496,0.15333850410431624
1757088107479664000,9.3036640625,0.822264477878809,-0.4362216720104217,1.246164282324165
1757088107489711000,9.313711181640626,0.687103727760911,-0.36037703421413897,2.388453471893072
1757088107499757000,9.323757080078124,1.0394932703524828,-0.1389975518018007,2.93454947707355
1757088107509804000,9.333803955078125,1.2828203806787728,0.2667512405335903,2.89506677699089
1757088107519851000,9.34385107421875,1.4365671733230352,0.5510287854075432,2.6525480604380367
1757088107529897000,9.35389697265625,1.5623498542428016,0.2537637486666441,1.8845133315272629
1757088107539944000,9.36394384765625,1.3683949698507785,-0.0829319657087326,1.0304130150571464
1757088107549990000,9.373989990234374,0.9896141908746212,-0.27831717516481874,0.5850631569564342
1757088107560036900,9.384036865234375,0.46949207344949245,-0.20710195073485374,0.4304067021213472
1757088107570084000,9.394083984375,-0.04310903735365718,0.11101415085494518,0.4963137371405959
1757088107580129800,9.4041298828125,-0.3786766610145569,0.5680553235322237,0.6486622072942555
1757088107590177000,9.414177001953124,-0.5849333930969238,0.9980816480338572,0.8650925428666174
1757088107600224000,9.42422412109375,-0.6631190410614013,1.5067068774759769,0.9673008714534341
1757088107610270000,9.43427001953125,-0.44567919965293257,1.5526438682645558,1.0150959111988545
1757088107620317000,9.44431689453125,-0.027803368204832077,1.7503268332689998,0.8611519885472952
1757088107630363000,9.45436279296875,0.3159475619116798,2.6592081028491257,0.5289302047155797
1757088107640409900,9.464409912109375,0.46688159869015217,4.059245580676198,0.2844742364898324
1757088107650456800,9.474456787109375,0.14905067071728406,5.344415154829621,0.03557297929301858
1757088107660502800,9.484502685546875,-0.24293723422586916,5.612428962644934,-0.03284326206818223
1757088107670549800,9.4945498046875,-0.07206804186701775,4.697454636886715,0.6205160170011222
1757088107680596000,9.504595947265624,0.4066810316842049,4.221834435945749,1.0148187016926706
1757088107690643200,9.514643310546875,1.1632166806548834,4.5051112793445585,1.086920938090235
1757088107700690000,9.52468994140625,1.7624714445710181,4.725269695529342,1.1173853421978652
1757088107710736100,9.534736083984376,2.2780478083252906,4.484247355014086,1.2906250630803406
1757088107720783000,9.544783203125,2.817449284303188,3.8781495933353898,1.2128260763458907
1757088107730829000,9.5548291015625,3.3932729037493465,3.417715271088481,1.1028969442486762
1757088107740876000,9.5648759765625,4.063471673938632,2.989084784859419,1.4455489366799592
1757088107750923000,9.574923095703125,4.5856578112214805,2.531311206254363,2.0815365174487233
1757088107760969000,9.584968994140626,4.876792382383346,2.342553305983543,2.9494033473342656
1757088107771016000,9.595015869140624,4.662517179018259,1.9638783985346555,3.773963827195763
1757088107781062000,9.605061767578125,4.275082042008638,2.3490040895581243,4.363982852993905
1757088107791109000,9.615109130859375,3.3473522795736788,3.0056875446140765,4.485128229501843
1757088107801156000,9.625156005859376,1.5682956109046935,2.952982959386706,3.90369115408808
1757088107811202000,9.6352021484375,-0.09878902166262268,2.6380069093883036,2.806934612290561
1757088107821249000,9.6452490234375,-1.2355007033601402,2.0915560994207856,1.741605766674876
1757088107831295000,9.655294921875,-1.9597196714200078,1.851094899919629,0.3909995514929294
1757088107841342000,9.665342041015625,-2.6654280002772808,1.9135083937346935,-1.2999468720465899
1757088107851389000,9.675388916015624,-2.5352456230938434,2.1137240920871494,-2.2727044014707207
1757088107861435000,9.685434814453124,-2.610085467761755,1.9950567961305379,-3.3620483289241787
1757088107871481900,9.69548193359375,-3.936193786025047,1.6684703878372906,-4.846680152714252
1757088107881529000,9.705529052734375,-3.570598724901676,1.6840250998437403,-4.5344344044625755
1757088107891574800,9.71557470703125,-1.1151369787491858,1.9142787935853003,-2.4458313096284865
1757088107901622000,9.7256220703125,0.8345335923433304,1.739996577912569,0.2871384872630238
1757088107911668000,9.73566796875,3.607387655855715,1.9571680872410535,2.3722435108482838
1757088107921715000,9.74571484375,3.367666753327846,2.0056383958995343,1.6528201065018773
1757088107931762000,9.755761962890626,1.07371629634127,1.9777023412257433,-0.4439604495689273
1757088107941807900,9.765807861328126,-1.1980582769334316,2.054240221983194,-1.1559262313857674
1757088107951854800,9.775854736328125,-2.5565584602355957,2.0804490144729613,-1.4977815204814076
1757088107961901000,9.785901123046875,-3.172474436095357,1.5896557943195104,-1.7016332372486591
1757088107971948000,9.795947998046875,-3.1177295772120353,0.9428782317280768,-2.031741389927268
1757088107981994800,9.805994873046876,-3.219035988523066,0.3907300869017839,-2.395266366778314
1757088107992041000,9.816041015625,-3.5100776207044717,0.3135486475437879,-2.6835212908506394
1757088108002088200,9.826088134765625,-3.5544203280389306,0.2046674170643091,-2.423245383810997
1757088108012134100,9.836134033203125,-3.1478496979266404,-0.4504214622765779,-2.0899124238669873
1757088108022181000,9.84618115234375,-2.696712780857086,-1.0338853673428297,-2.018335380387306
1757088108032228000,9.85622802734375,-2.4321944139420983,-1.6980518716305493,-2.2040935143202542
1757088108042274000,9.866274169921875,-2.364903669479489,-1.8636849169015883,-2.2249860802233217
1757088108052321000,9.876321044921875,-2.825888026824593,-1.6895307115226983,-2.7189590994566677
1757088108062367000,9.886366943359375,-2.8598230296522376,-2.347553890749812,-3.098060707885027
1757088108072414000,9.8964140625,-3.4146979690939188,-2.6597680748194454,-3.7128169923156498
1757088108082461000,9.9064609375,-3.9090067961528896,-3.003661007222533,-4.476290843051672
1757088108092507000,9.9165068359375,-3.727106214430928,-3.507671436345577,-4.8443338818490504
1757088108102554000,9.92655419921875,-3.5649861457169054,-3.869855227720737,-5.214238038343191
1757088108112600000,9.93660009765625,-3.4412019451379776,-3.9060178434699773,-5.360659602665901
1757088108122647000,9.94664697265625,-3.311469649809599,-3.9439007071405645,-5.295062802639603
1757088108132694000,9.956694091796875,-3.180603382015228,-4.237572103303671,-5.305837294632196
1757088108142740000,9.966739990234375,-3.1086791325330734,-4.246594198670983,-5.222237220403552
1757088108152787000,9.976786865234375,-3.1723861732900143,-4.11627445884347,-5.056164614671468
1757088108162833000,9.9868330078125,-3.140671769121289,-4.065394166433811,-4.7272348581224675
1757088108172880000,9.9968798828125,-3.1287422618746756,-3.9510517479389904,-4.238607291570306
1757088108182926800,10.0069267578125,-2.9178251367658374,-3.8904724838137623,-3.5972991003006696
1757088108192972800,10.016972900390625,-2.485345573893189,-3.922399069428444,-2.877071686094999
1757088108203019800,10.027019775390626,-1.9109452652484178,-3.9270699838489294,-1.944915923911333
1757088108213066000,10.03706591796875,-1.4618740485370159,-3.675186057579517,-0.9747130474060773
1757088108223113000,10.047113037109375,-1.272051733905077,-3.149346073964238,-0.338280353218317
1757088108233160000,10.057159912109375,-1.2885656463325024,-2.5893156514555216,0.1237140579521656
1757088108243206100,10.0672060546875,-0.8864496575415134,-2.148742213976383,0.812818019619584
1757088108253252900,10.0772529296875,-0.42473932400941844,-1.5572528233647345,1.502812208124995
1757088108263299000,10.087299072265624,-0.12843377995043992,-0.8873311165511608,1.7634382437765597
1757088108273346000,10.097345947265625,0.7099485967755317,-0.3002273936778307,1.9884569594740866
1757088108283393000,10.10739306640625,0.9082067313194274,0.13958324273526668,2.283558096179366
1757088108293439000,10.11743896484375,0.06845452754497527,0.7332827106118202,1.8491881895154714
1757088108303486000,10.12748583984375,0.3356204863592982,1.865203504770994,0.22407705093324184
1757088108313532000,10.137531982421875,3.4017332735806702,3.4029747980743643,-0.5364473023474217
1757088108323579100,10.1475791015625,6.057496204411983,5.968019931626319,0.9408844275623559
1757088108333626000,10.157626220703126,6.645256345367431,9.517401680976151,4.192307312688231
1757088108343672000,10.167672119140626,-0.5570610513091087,13.317683606255054,6.140705818018317
1757088108353719000,10.177718994140625,-5.59723665421009,12.87672730693817,4.146204317682981
1757088108363765000,10.187764892578125,-2.3682801601752637,6.748249686852097,1.6310598178535698
1757088108373812000,10.19781201171875,1.342103175252676,1.1547393596887587,1.1515396868646144
1757088108383859000,10.20785888671875,0.8597066120445728,-1.1539338885247707,0.04707914656102657
1757088108393905000,10.21790478515625,-0.42740795869678255,-2.4126328043818472,-1.4172171606868504
1757088108403951900,10.227951904296875,-0.06772416744381189,-2.714150822392106,-2.3628461524277924
1757088108413997800,10.237997802734375,0.4463280554831028,-2.4866946504145857,-2.884966238737106
1757088108424045000,10.248045166015626,0.6757616650134325,-1.9446125570505857,-3.2621669819802044
1757088108434092000,10.258092041015624,0.6322222368858754,-0.8646072435677051,-3.5835207503169775
1757088108444138000,10.268137939453124,0.377301865530014,0.4888794954866171,-3.6780475844904776
1757088108454185000,10.27818505859375,0.4117940638490021,2.043323106649518,-3.704108200681209
1757088108464231000,10.28823095703125,0.2653226690351963,3.2663743705421684,-3.3081071876391768
1757088108474277400,10.29827734375,-0.17985154023766517,3.3108418733000753,-2.6430238607674834
1757088108484324600,10.30832470703125,-0.4441872440621257,2.6862533461630345,-1.858992959693074
1757088108494370800,10.318370849609375,-0.5501097708664834,1.7844482985794543,-1.07528822183311
1757088108504417500,10.32841748046875,-0.8087525237463414,0.879533010020852,-0.39537878949046135
1757088108514463700,10.338463623046875,-0.8349556171476841,0.224697813180089,-0.15512918691337108
1757088108524510700,10.3485107421875,-0.8656218274377286,-0.009821721312403678,-0.09236790257394313
1757088108534557700,10.3585576171875,-0.5873873621203005,-0.345861602127552,-0.31873949418514963
1757088108544603600,10.368603759765625,-0.828868406188488,-0.3773848676383495,-0.25944851630479093
1757088108554650600,10.378650634765625,-1.1165279947161675,-0.487771826505661,-0.26073534124493597
1757088108564697600,10.388697509765626,-0.9625777884542942,-0.37637598285675045,0.10570260044336319
1757088108574743600,10.39874365234375,-1.3828560414016247,-0.023052374285459518,0.7330559161186218
1757088108584790800,10.408790771484375,-1.4106031493745743,0.12002104865312575,1.4724766910940408
1757088108594836700,10.418836669921875,-1.0510346550643443,0.1721820285230875,2.056459651598334
1757088108604883700,10.4288837890625,-0.9882792159438133,0.06499532700181007,2.5868466309934854
1757088108614929700,10.4389296875,-0.5973464460767806,-0.43710137745440003,2.726331089529395
1757088108624976600,10.4489765625,-0.3467221644796431,-1.2628659724086522,2.5303870771467682
1757088108635023600,10.459023681640625,-0.4619229533694684,-1.851544397252798,2.2984993524625894
1757088108645069600,10.469069580078125,-0.6294144129235297,-2.2009002712368964,1.7768639809302984
1757088108655116500,10.479116455078126,-0.6124151281319559,-2.5903800658166407,1.2770888512894512
1757088108665162500,10.48916259765625,-1.1382009704072027,-2.833457000774145,1.6557893315710126
1757088108675209500,10.49920947265625,-1.3405705588579178,-2.999267740699649,1.930321435239166
1757088108685256700,10.509256591796875,-1.2179507258832454,-2.7100392954200503,1.9290413323007523
1757088108695302400,10.519302490234375,-1.3102350418269633,-2.429157822725177,1.6550766532570123
1757088108705349600,10.529349609375,-1.8368693906903266,-2.402124269849062,1.5913852484606206
1757088108715396600,10.539396728515625,-1.7129226930260657,-1.9527093542665241,0.849097101355344
1757088108725442600,10.549442626953125,0.173880064612627,-0.7370984695076942,-1.0374757930502294
1757088108735489500,10.559489501953125,3.7311259714663025,0.8396668635785579,-2.81151521807909
1757088108745535500,10.569535400390626,3.810423380064964,1.8536837473690508,-3.1961528333246707
1757088108755582500,10.57958251953125,3.048458764848113,1.6893249598175286,-3.5971477091312405
1757088108765629400,10.58962939453125,1.7377420769840477,0.32217677515745163,-3.2027456557184455
1757088108775675600,10.599675537109375,0.8350614156097174,-0.3521738540142774,-2.263814700311422
1757088108785722400,10.609722412109376,0.6643085431069136,-0.5458692106872797,-1.4959231792636214
1757088108795768600,10.6197685546875,0.12745090639293194,-0.7194529227018356,-0.6103957511335611
1757088108805815800,10.62981591796875,-0.0964034417003393,-0.8571686179995537,0.26865210571885106
1757088108815862500,10.639862548828125,0.07495152488145977,-0.8725251770853996,0.941704073382169
1757088108825908700,10.64990869140625,0.04656480383072048,-0.614696663197875,1.2591289778374135
1757088108835955700,10.659955810546874,0.18711192316208033,-0.34069618218839165,1.234693040239066
1757088108846001700,10.670001708984374,0.2446084188411012,-0.1715805554986,1.1417374009050427
1757088108856048600,10.680048583984375,0.24432605823576448,-0.2616805131405592,1.000305899954587
1757088108866095600,10.690095703125,0.0251970216313377,-0.2809206356614828,1.0791912206210195
1757088108876141600,10.7001416015625,0.21990582966320216,-0.347631534409523,1.3610373005643486
1757088108886188500,10.7101884765625,0.5051198516696691,-0.4751186811596155,1.3277144382856785
1757088108896234500,10.720234375,0.9576034341078251,-0.5874222873032092,1.4721560808375478
1757088108906281700,10.73028173828125,1.2269862652540207,-0.42890930317044257,1.5591633331611752
1757088108916328700,10.74032861328125,1.4617355168491601,-0.19454115984737871,1.6344827780395745
1757088108926374700,10.750374755859376,1.4218372217029331,0.24439853895008562,1.6255052524663507
1757088108936421600,10.760421630859375,1.127303144295886,0.4396311881929636,1.5007894701257347
1757088108946467600,10.770467529296875,0.8035896610904485,0.40381285583674903,1.3022773608207703
1757088108956514600,10.7805146484375,0.535084343431145,0.2624029821962118,1.0378517867557704
1757088108966561500,10.7905615234375,0.3006757219672203,0.21042554219961165,0.7561167659714818
1757088108976607500,10.800607421875,0.0597791267234832,0.2797521764039993,0.5424250615827739
1757088108986654500,10.810654541015625,-0.11730353332273662,0.46407881622910496,0.438196186953783
1757088108996700400,10.820700439453125,-0.2775209832858294,0.7435942612677812,0.36719533592686054
1757088109006747400,10.830747314453125,-0.43212475808560846,1.1086878026098013,0.22328809251263737
1757088109016794600,10.840794677734374,-0.4566203169167041,1.7039146261841058,0.16938479901999234
1757088109026840600,10.850840576171874,-0.5586438635211438,2.6684593307971953,0.2794800814643502
1757088109036887600,10.860887451171875,-0.9319131855994462,3.809381177535653,0.5839981580734253
1757088109046933800,10.870933837890625,-1.7229384756058455,4.59380721540749,1.0135442978426814
1757088109056980700,10.880980712890626,-2.159374082627892,4.427721750193834,1.4284402732297776
1757088109067027500,10.89102734375,-1.9619184966385363,3.621680677363276,1.2609190761245785
1757088109077073700,10.90107373046875,-1.4007096780002117,3.166906865096092,0.910401757145673
1757088109087120600,10.91112060546875,-0.20273608367554843,3.0125808112591503,0.6415928534299135
1757088109097166600,10.92116650390625,0.8347657205987721,3.466900450018048,-0.3856158126279712
1757088109107213600,10.931213623046874,1.7456237701445816,3.8972885935693977,-1.6491802886947988
1757088109117260800,10.9412607421875,2.529326754438877,4.272979516771436,-2.0568613642670215
1757088109127306800,10.951306640625,3.0736849760413167,4.11694548997283,-2.1707672910407183
1757088109137353700,10.961353759765625,3.416157520252466,3.671203125423193,-1.7856169039674101
1757088109147399700,10.971399658203126,3.427959017205238,3.001915624859929,-0.9487081069253385
1757088109157446700,10.98144677734375,3.577096270227432,2.045747118926048,0.05217457000389695
1757088109167493600,10.99149365234375,3.5206010605454443,1.4604700269579887,1.226546558662504
1757088109177539600,11.00153955078125,3.463879056370258,1.145456567558646,2.2755913550838827
1757088109187586600,11.011586669921876,3.4610973166972396,1.231722646126151,3.4701191198036074
1757088109197632500,11.021632568359376,3.250533242809772,1.3100818970918655,4.572262907597422
1757088109207679500,11.031679443359375,3.0324060401916504,1.1552975780934094,5.550169782608747
1757088109217726700,11.041726806640625,2.580387079590559,0.8220634023487567,5.944620351338386
1757088109227772700,11.051772705078125,1.3027590068578718,1.256598144185543,5.446932110974192
1757088109237819600,11.061819580078126,-0.18543365121893585,1.3631634989380836,4.77614034332782
1757088109247865600,11.071865478515624,-1.3108067042350768,1.3636603425443172,4.173009614761173
1757088109257912600,11.08191259765625,-2.227867627009004,1.1212146912276744,3.1973487651109695
1757088109267959600,11.09195947265625,-2.689460033249855,0.8111252442270517,1.9709021596916019
1757088109278005500,11.102005615234376,-2.979781534463167,0.522889901638031,0.6280635097712278
1757088109288052500,11.112052490234374,-3.1835505413830276,0.3023725890129804,-0.5731345264926553
1757088109298098700,11.1220986328125,-3.1160546297371385,0.023279753300547597,-1.3536682331010699
1757088109308145400,11.1321455078125,-3.038148383235931,0.008098550781607627,-1.5219459476619959
1757088109318192600,11.142192626953126,-2.997812865716219,0.12114742233455181,-1.220577274994552
1757088109328238600,11.152238525390626,-1.0481741510666907,0.4785813888341188,0.5726145942717791
1757088109338285600,11.16228564453125,1.396874337621033,0.876577082824707,2.1663065122395753
1757088109348331800,11.172331787109375,2.4055646195612845,1.2224456992149353,2.390253214791417
1757088109358378800,11.182378662109375,2.5146333354368804,1.2575935849636792,1.5416951887488364
1757088109368425700,11.19242578125,1.2563899082623422,1.3886217653214932,0.40423517290204763
1757088109378471700,11.2024716796875,-0.11957812719121574,1.4385738369703291,-0.5340832035645843
1757088109388518700,11.2125185546875,-0.9132442870952189,1.0264444036871194,-1.6331822168350218
1757088109398564600,11.222564697265625,-1.3485446064770221,0.8063695741325616,-1.7597995950132608
1757088109408611600,11.232611572265625,-1.6423916514679788,0.44450376266539093,-2.128645182365179
1757088109418658600,11.242658447265624,-1.7287421934485434,0.03107785983085632,-2.4702611097469926
1757088109428704500,11.25270458984375,-2.026611918084323,-0.13718378037810325,-2.5766715661987663
1757088109438751700,11.262751708984375,-2.013790722694993,-0.2925263177812099,-2.555966924083233
1757088109448797700,11.272797607421875,-1.8370535150855778,-0.4548030383616686,-2.738970790871978
1757088109458844700,11.2828447265625,-1.4732994056537747,-0.6998118181645869,-2.4344942153170703
1757088109468890600,11.292890625,-0.9086611970886588,-0.5547375767976045,-2.2164617052450777
1757088109478937600,11.3029375,-1.062391330859065,-0.41015608738362785,-1.9484271469026804
1757088109488984800,11.31298486328125,-1.0878387835875154,-0.2985159135848284,-1.6232348233163356
1757088109499030800,11.32303076171875,-1.0427008342221378,-0.04819441432654857,-1.5319091232717037
1757088109509077800,11.333077880859374,-1.225209903231263,0.12184592599272727,-1.5343196915447712
1757088109519124700,11.343124755859375,-1.3433031986922024,0.04748538927435875,-1.7109411638200283
1757088109529170700,11.353170654296875,-1.5490610413417218,0.015358897173404693,-1.9788292994290588
1757088109539217700,11.3632177734375,-1.6629577618956566,0.15404899046123027,-2.087528743600845
1757088109549263600,11.373263671875,-1.7494813223555683,0.1104249527901411,-2.0437579909354446
1757088109559310600,11.383310546875,-1.9350638074606656,0.037214170628786084,-2.151869990608096
1757088109569356800,11.393356689453125,-1.9178186581492422,-0.2609416774719953,-2.180143898934126
1757088109579403500,11.403403564453125,-2.0455437053084373,-0.5948650045245886,-2.3504794228076933
1757088109589450800,11.41345068359375,-2.222268053436279,-0.8268301783591508,-2.4762065741479393
1757088109599497000,11.4234970703125,-2.060283593800664,-1.1533932057768106,-2.589820093846321
1757088109609543700,11.433543701171875,-2.0915829874277114,-1.357010237005353,-2.8070196602255106
1757088109619590000,11.44358984375,-2.415246201750636,-1.2809639391571284,-3.2559359786361455
1757088109629636900,11.453636962890625,-2.161117126902938,-1.4334107551187276,-3.260112387537956
1757088109639683800,11.463683837890626,-2.089435454005003,-1.6363070708572864,-3.1714579525291917
1757088109649729800,11.473729736328124,-2.1090391491413114,-1.6539976258486508,-3.0137282277286053
1757088109659776800,11.48377685546875,-1.9767951632529497,-1.636658368512988,-2.7481185584455727
1757088109669822700,11.49382275390625,-1.7985089726358652,-1.6154203501731157,-2.454642977115512
1757088109679869700,11.50386962890625,-1.6020219394177198,-1.6037813503056764,-2.298142501848936
1757088109689916700,11.513916748046874,-1.3957318895876407,-1.620656497260928,-2.226204808363318
1757088109699962600,11.523962646484375,-1.2848176919758318,-1.7166852604299783,-2.1861253114312884
1757088109710009900,11.534009765625,-1.280507427561283,-1.8158727798908947,-2.143199192896485
1757088109720055800,11.544055908203125,-1.3147890518695116,-1.8923720822036265,-2.075391731083393
1757088109730102800,11.554102783203126,-1.3794950405359268,-2.0298340950012204,-1.8757161309570074
1757088109740149800,11.564149658203124,-1.3100655304789541,-2.157452174654603,-1.529032691052556
1757088109750195700,11.57419580078125,-1.0956886203050613,-2.2810884911954403,-1.1354711801171302
1757088109760242700,11.58424267578125,-0.760588650688529,-2.354105212089419,-0.7820125469893217
1757088109770288600,11.59428857421875,-0.488633411771059,-2.4283172802478075,-0.4327519500732422
1757088109780335600,11.604335693359374,-0.4042652757793665,-2.4566385348469018,-0.06489946541190147
1757088109790382600,11.614382568359375,-0.3526818035364151,-2.466733227881789,0.334434783706069
1757088109800428500,11.624428466796875,-0.34151918900907036,-2.354042083725333,0.676853551903367
1757088109810475800,11.634475830078125,-0.3091425215393305,-2.156121802833676,0.8808084367841482
1757088109820521700,11.644521728515626,-0.21635668581426143,-1.9541127913236618,0.8216495608508586
1757088109830568700,11.654568603515624,-0.12648293814361095,-1.802852554798126,0.5646463918715715
1757088109840615700,11.66461572265625,0.10532149217128753,-1.7229139256864785,0.23841069671213624
1757088109850661600,11.67466162109375,0.47381052117049693,-1.6869102998912333,0.11976795067489146
1757088109860708600,11.68470849609375,1.2397019544422625,-1.5811872411817312,0.603504822576046
1757088109870754800,11.6947548828125,3.107928021904826,-1.0121288780868052,2.395195347368717
1757088109880801800,11.7048017578125,5.008732416889071,0.5706336495876312,4.615298331725597
1757088109890848500,11.7148486328125,6.047147828876972,2.4507921469062564,5.4024441499501465
1757088109900894700,11.724894775390625,4.903789110380411,3.5254870790213344,4.795253332337737
1757088109910942000,11.73494189453125,1.7040742006599903,3.9888083548814057,3.7590865760594605
1757088109920988000,11.74498779296875,-1.8772803115338086,3.824030465134978,1.8827035056263208
1757088109931035000,11.755034912109375,-2.6014672770202156,2.3668127179712055,-0.690469989323616
1757088109941081900,11.765081787109375,-0.14632628725469113,0.2828945660829544,-2.613234871703386
1757088109951127800,11.7751279296875,2.315606554608047,-0.9769248782366514,-2.6167905183583495
1757088109961174800,11.7851748046875,1.9105834461987017,-0.9255629397898912,-1.5115204152375459
1757088109971220700,11.795220703125,-0.492673042550683,-0.3372796517431736,-0.2309223867833614
1757088109981267700,11.805267822265625,-2.914750843887031,0.32666356518268586,0.5366887098878622
1757088109991313700,11.815313720703125,-2.457752925829589,0.9777624981045723,0.548755579778552
1757088110001360600,11.825360595703126,-0.1281675302296877,1.9553250897228716,0.17206512414515018
1757088110011407600,11.83540771484375,0.3423579779207706,3.206227068093419,-0.4845131169706583
1757088110021453600,11.84545361328125,-0.5453343731582164,3.6912580714583396,-1.1047048704534768
1757088110031500800,11.855500732421875,-1.1507575965762138,3.375998528343439,-1.4378148352965712
1757088110041547800,11.8655478515625,-0.8208154481142759,2.704340206995606,-1.4317884146139024
1757088110051593700,11.87559375,-0.5822708958894014,1.952663177037239,-1.2435992541417478
1757088110061640700,11.885640625,-0.7995303757622838,1.2023515902131796,-1.2208844412475823
1757088110071686700,11.895686767578125,-1.0513596492350101,0.5525830291122198,-1.6006044738352299
1757088110081733600,11.905733642578125,-1.1973074585661292,0.26131401791572567,-2.042692992052436
1757088110091779600,11.915779541015626,-1.1842539157256484,0.19886311469972132,-2.4909146061971783
1757088110101826600,11.92582666015625,-1.0836264265894888,0.26534488086700436,-2.888077941016853
1757088110111873500,11.93587353515625,-0.893850873708725,0.5059715000629424,-3.091856884808838
1757088110121919700,11.945919677734375,-0.7120660273209214,0.8125251741528511,-2.9699077907025813
1757088110131966700,11.955966796875,-0.7066200368747114,1.069614267849922,-2.7054011142253875
1757088110142013000,11.966012939453124,-0.7787585136294365,1.1819827559232712,-2.325032554601133
1757088110152060000,11.976059814453125,-0.7661889549136162,1.0631862806290386,-1.8639768855854868
1757088110162107000,11.98610693359375,-0.6802978471383452,0.844305044773221,-1.2456141010954975
1757088110172152800,11.99615283203125,-0.6567068359315394,0.6778197665870189,-0.8005082808837294
1757088110182199800,12.00619970703125,-0.6362908014990389,0.5178846406966447,-0.4608516708761453
1757088110192245800,12.016245849609374,-0.5323325605049729,0.33999884757399557,-0.19933453160375356
1757088110202292700,12.026292724609375,-0.43642289367094633,-0.014179332000017164,-0.013213994099199771
1757088110212339700,12.036339599609375,-0.2771476929940283,-0.30430151124894617,-0.10839753861576318
1757088110222385700,12.0463857421875,-0.2914168952345848,-0.7210714638143777,-0.17029197699278592
1757088110232433000,12.056432861328124,-0.08702478798031807,-1.0087725533962248,-0.32776948059797284
1757088110242478600,12.066478515625,-0.161400376137346,-1.315974462261796,-0.46371261326521634
1757088110252525800,12.07652587890625,-0.33725977799892426,-1.2294167072713373,-0.3287330649331212
1757088110262572800,12.08657275390625,-0.27038126759901643,-1.210437281513214,-0.28694150338619945
1757088110272618800,12.09661865234375,-0.3465980997085571,-1.0346423231899737,-0.03471358598470688
1757088110282665700,12.106665771484375,-0.4702351469017565,-0.6982108127087354,0.23145722431242466
1757088110292711700,12.116711669921875,-0.5337887506626546,-0.3166092041581869,0.4321843793183565
1757088110302758700,12.126758544921875,-0.5392027385354041,0.12691723790764808,0.8798626803666353
1757088110312805600,12.1368056640625,-0.4374373314104974,0.3118517804980278,1.3894634768426417
1757088110322851600,12.1468515625,-0.6128032506667077,0.48973582005500793,1.8666893594145775
1757088110332898600,12.156898681640625,-0.6366296780645847,0.5370528670251369,2.396580956508219
1757088110342944500,12.166944580078125,-0.5550057262144983,0.3745148651599884,2.7812434139341113
1757088110352991700,12.17699169921875,-0.580013910742849,0.14186346262693406,2.7788018660008906
1757088110363038700,12.187038818359374,-0.21429493097886443,-0.2780488796174526,2.605622058612108
1757088110373084700,12.197084716796875,-0.10214286213517189,-0.6044494099497795,2.1877269014090297
1757088110383131600,12.207131591796875,-0.21200258225798604,-0.6703273650050163,1.963303667386621
1757088110393177900,12.217177734375,-0.29571883021220563,-0.9213608119249344,1.783958469235897
1757088110403224800,12.227224853515626,-0.30611046036705375,-1.1959282791674137,1.5652981826543808
1757088110413271600,12.237271484375,-0.366785147690773,-1.12603465873003,1.1815410035051406
1757088110423317800,12.24731787109375,-0.558392665239051,-1.0279197369366884,0.985514865797013
1757088110433364700,12.25736474609375,-0.6827448018990456,-1.011122331392765,0.765219233098626
1757088110443410700,12.26741064453125,-0.9258066854178905,-0.8312532554984092,0.6515814557418227
1757088110453458000,12.2774580078125,-1.1406009442210197,-0.5461714085042476,0.609163286729157
1757088110463505000,12.2875048828125,-1.2202045692246406,-0.26528818224370476,0.5489838355764747
1757088110473551000,12.297551025390625,-1.3519991308450698,0.017620412364602087,0.4995891055494547
1757088110483598000,12.30759814453125,-1.4507926825523376,0.3491255723595619,0.30768428555503485
1757088110493644000,12.31764404296875,-1.3655799124300478,0.4619166697591543,0.008300795355439186
1757088110503691000,12.32769091796875,-1.3830442574501036,0.4185018909245729,-0.3759044198222458
1757088110513738000,12.337738037109375,-1.1156816070199012,0.22462007176876067,-0.7392603237167
1757088110523784000,12.347783935546875,-0.7766998275339603,0.034385669204592705,-1.0747782264843582
1757088110533831000,12.357830810546876,-0.44405072166826576,-0.12304419586658477,-1.4128814695701002
1757088110543876900,12.367876953125,-0.09721883147014304,-0.13581249202489853,-1.7783663483172654
1757088110553924000,12.377924072265625,0.1414472830414772,-0.12438742716908455,-2.0062831235438585
1757088110563971000,12.38797119140625,0.4289432054400444,-0.21131752260327338,-2.0871958583846686
1757088110574017000,12.39801708984375,0.7865595427691936,-0.26535131060779094,-2.108316095563769
1757088110584064000,12.40806396484375,1.2001555414736271,-0.035541853502392765,-2.047962749148905
1757088110594110000,12.41810986328125,1.440012345340848,0.22275953859388828,-1.884247227936983
1757088110604157000,12.428156982421875,1.3771160364449024,0.32297464753687377,-1.6884712655976413
1757088110614203000,12.438202880859375,0.9615320787936449,0.3820341547489166,-1.4043968420803545
1757088110624249900,12.448249755859376,0.5321592497646809,0.2781219448536634,-1.0188342209443448
1757088110634296800,12.458296875,0.34198687958605584,0.13851006054580212,-0.6210875332787632
1757088110644342800,12.4683427734375,0.2008867660144344,0.16057926901280878,-0.26921003186255693
1757088110654389800,12.4783896484375,0.09496087820921092,0.1441746621787548,0.045670156545937056
1757088110664436000,12.48843603515625,0.04894556148741394,0.12328794149458408,0.3636737376719713
1757088110674483000,12.49848291015625,-0.05870645599067211,-0.035163667839765544,0.6317126799285412
1757088110684530000,12.508530029296875,-0.19136837503015994,-0.20735037253797053,0.8387117548108101
1757088110694576000,12.518576171875,-0.33002569855954494,-0.3093301530659199,0.9914093306630849
1757088110704623000,12.528623046875,-0.3944586424382403,-0.43404315892755985,1.0623502681963146
1757088110714669000,12.5386689453125,-0.37343284207694233,-0.5196376218438148,1.104829665876925
