time,seconds_elapsed,gyro_x,gyro_y,gyro_z,acc_x,acc_y,acc_z,grav_x,grav_y,grav_z
1757088098196578800,0.020578857421875,0.1672659516334533,0.7006117701530457,0.6476203203201294,-0.6013683950692414,0.1108896476924419,-0.0200789114326238,-9.768367907878757,-0.7555284446895122,-0.4225491204887628
1757088098206625800,0.030625732421875,0.2539254128932953,1.0014667510986328,0.8583790063858032,-0.2945055088996887,0.0479021533817052,0.051182015302591,-9.765630591869352,-0.8290104450076818,-0.3399825905589386
1757088098216672800,0.0406728515625,0.3147067427635193,1.2187455892562866,1.014630913734436,0.2368973695397377,-0.0106967505812644,0.1622597877119667,-9.76058207630813,-0.9203484200119972,-0.2331880118940957
1757088098226718700,0.05071875,0.2184017598628997,1.514833927154541,1.1942654848098757,0.4672925175786018,-0.1874861998345702,0.086215901016537,-9.7521561932683,-1.0271222298834473,-0.1041724043345544
1757088098236766000,0.060765869140625,-0.0457204282283782,1.782942295074463,1.4884958267211914,0.2359516131222248,-0.5171886212565004,-0.1902234793113544,-9.737789229741692,-1.1586028301838784,0.0589912871143082
1757088098246812000,0.07081201171875,-0.2337332218885421,1.726959228515625,1.6697475910186768,0.2885644284129142,-0.1532395737744867,-0.7428076409347355,-9.715434190070628,-1.3138074934862554,0.2337405312103219
1757088098256859000,0.08085888671875,-0.3192052245140075,1.5110127925872805,1.673750400543213,0.8597627261459827,0.599702946075052,-0.8100489932976662,-9.686735334330796,-1.4767289417110383,0.3960017802270129
1757088098266905900,0.09090576171875,-0.3879117965698242,1.298664689064026,1.617754578590393,1.1212386566251515,0.7649041758000851,-0.5823136390525847,-9.654472648629543,-1.6347475664556026,0.5377216331321746
1757088098276951800,0.100951904296875,-0.5326700806617737,1.1174472570419312,1.6431641578674316,0.7931617175132035,0.6727621909365058,-0.4942886610537767,-9.619235915553569,-1.7893578440614044,0.662481254614517
1757088098286998800,0.110998779296875,-0.7086345553398132,0.8815234899520874,1.7240736484527588,0.1951806267946958,0.6517812160976231,-0.4704769197683781,-9.580451134607197,-1.9470443142421543,0.7709492281179875
1757088098297045800,0.121045654296875,-0.894023597240448,0.679740309715271,1.8322789669036863,-0.1336246265918016,0.7311416069298983,-0.2465697455093264,-9.53790203269124,-2.111099442671984,0.8614305862929672
1757088098307091700,0.131091796875,-1.0036388635635376,0.6464098691940308,1.9417519569396973,-0.4676397235810756,0.8256566045351326,0.0638052404344081,-9.490293893820049,-2.2828275899477304,0.9452011217176912
1757088098317138700,0.141138671875,-0.982636332511902,0.6476463675498962,2.0265414714813232,-0.7134171496689319,0.8295642794981598,0.3283247033279389,-9.436501513355967,-2.461811261309683,1.0306840140182525
1757088098327186000,0.15118603515625,-0.801774263381958,0.6543009877204895,2.045831680297852,-0.5119283626407385,0.5864338607877493,0.6148991269674152,-9.377022319427132,-2.645148013314605,1.1158094711832702
1757088098337232000,0.16123193359375,-0.4184161722660064,0.577152669429779,1.9086493253707888,0.0780693281084299,0.1211617431208491,1.056656221273169,-9.31519860819876,-2.824813967852294,1.190750949594751
1757088098347278800,0.17127880859375,0.0322490930557251,0.5658156871795654,1.619274377822876,0.6804004307299852,-0.0744239573433995,1.384055918710679,-9.256580415013431,-2.9876103283926843,1.2491169946499168
1757088098357325800,0.181325927734375,0.366952508687973,0.5694215893745422,1.2661043405532837,1.3016747187525033,0.031822540718317,1.350082337438315,-9.204934398928284,-3.124233260017633,1.2956601346381007
1757088098367371800,0.191371826171875,0.4753897190093994,0.5394670963287354,0.8848735094070435,1.7826561544656752,0.1362970606714487,0.9534256369665264,-9.163231684708595,-3.229455967989564,1.3327376732751726
1757088098377418800,0.201418701171875,0.3523061275482178,0.5547890663146973,0.5050660371780396,1.9615788894206283,0.0567032994747161,0.0568970684811472,-9.133110687211156,-3.299050897741317,1.36855074493438
1757088098387465700,0.2114658203125,0.1168837994337081,0.6105616092681885,0.1560957431793213,1.9152859248012304,-0.2164738824531435,-0.8553232823938131,-9.114051181954144,-3.332331236052513,1.4142195863060651
1757088098397511700,0.22151171875,-0.1083016470074653,0.6137967705726624,-0.1319307088851928,1.8133049752295016,-0.3662216685891151,-1.1935573122523724,-9.10484613123536,-3.333119463820755,1.4705365168116986
1757088098407558700,0.23155859375,-0.2940201461315155,0.5420952439308167,-0.3612372279167175,1.6596008526831865,-0.137236387348175,-1.124669215595722,-9.104370914939045,-3.30712197599411,1.5309353098034857
1757088098417604600,0.2416044921875,-0.4181346595287323,0.4111795723438263,-0.529914140701294,1.4114555284202095,0.1339472826749086,-0.8028354086570442,-9.111656980293988,-3.260325738027692,1.586936452358216
1757088098427651800,0.25165185546875,-0.493687242269516,0.2784710526466369,-0.6254897117614746,0.9841776258438824,0.3769111126467585,-0.0823002436764538,-9.12506182079017,-3.1995252323672174,1.6329947314389048
1757088098437698800,0.26169873046875,-0.5387119650840759,0.1931180655956268,-0.6301124095916748,0.5293938767045736,0.6431736928805708,0.4232132834859192,-9.141337248286604,-3.132844144235551,1.670815343528241
1757088098447744800,0.271744873046875,-0.5457626581192017,0.1910350322723388,-0.5627538561820984,0.2311737311959266,0.6410366808518767,0.401896646951884,-9.156907157862186,-3.0684578890427945,1.7047015387780964
1757088098457791700,0.281791748046875,-0.5042269229888916,0.3524020612239837,-0.4699935615062713,0.153503047016263,0.5351698297575116,0.3190370158270001,-9.168121210315824,-3.0116721719816324,1.7452137280389666
1757088098467838000,0.291837890625,-0.3157291412353515,0.4844077825546264,-0.3753645420074463,0.0073041855335235,0.3051584203392267,0.4738645894452929,-9.173205966234208,-2.9652661023765803,1.7971851766861977
1757088098477884200,0.30188427734375,-0.0223713088780641,0.5537482500076294,-0.310651034116745,0.1953741035401821,0.014229893143475,1.123459693675488,-9.173779966729878,-2.9308164280250666,1.8499891306348144
1757088098487931100,0.31193115234375,0.2595149576663971,0.6511780619621277,-0.3259124457836151,0.5548264241248368,0.1469461727187037,1.5963145215563477,-9.17155819902718,-2.9043182971999046,1.9020630167432129
1757088098497978000,0.32197802734375,0.4298653900623321,0.6401839852333069,-0.4031238853931427,1.0969564482837917,0.2874208113357424,1.3509104588255283,-9.169306036186216,-2.87794671536386,1.952339498040825
1757088098508024300,0.3320244140625,0.4874245524406433,0.5521244406700134,-0.5375097393989563,1.4988281069248914,0.2358408462241291,0.8586280230276286,-9.170897689291834,-2.8441739173606035,1.9939136174447836
1757088098518071300,0.3420712890625,0.4411734342575073,0.4981988966464996,-0.711988627910614,1.8754624484568836,0.4121615819871425,0.5026658826462924,-9.178076787140965,-2.796187885087728,2.028454331080616
1757088098528118000,0.352117919921875,0.2720202505588531,0.656712532043457,-0.7980939149856567,1.8642630090504884,0.7141060087159276,-0.1344556705884635,-9.187976249864697,-2.7327172834351656,2.0697188000135123
1757088098538164200,0.362164306640625,-0.1248176321387291,0.730601966381073,-0.6995076537132263,1.0311720167309044,0.7200210779786109,-2.3711237130381164,-9.193603442096707,-2.66471108417958,2.132451588910818
1757088098548211200,0.372211181640625,-0.4296295940876007,0.9872670769691468,-0.5582144856452942,1.038815809482336,0.7409446235418319,-1.9081134028233584,-9.191670428207516,-2.6006404708072544,2.2181623716831207
1757088098558258200,0.382258056640625,-0.5389219522476196,1.2458535432815552,-0.4657484591007232,1.0273848994076251,1.5719976802930236,-0.6260771582596004,-9.179192639428376,-2.542098265467584,2.334639171858132
1757088098568304000,0.39230419921875,-0.5294381380081177,1.4558837413787842,-0.3702345788478851,1.293821667164564,1.6593915938466786,-0.003215162654221,-9.157127522614598,-2.490628190471232,2.4726842452406883
1757088098578351400,0.402351318359375,-0.5620415806770325,1.690280795097351,-0.3091025352478027,1.6536118414014578,1.6533229414574802,0.1700534920617938,-9.125167034730314,-2.4461029661767184,2.63026462469846
1757088098588397000,0.41239697265625,-0.6759342551231384,1.9095110893249512,-0.2530269026756286,2.120060309371352,1.7534749220363794,-0.2284656412810087,-9.082847065395116,-2.403350889034569,2.8100132890835403
1757088098598444300,0.4224443359375,-0.8019180297851562,2.022874116897583,-0.1566774547100067,1.7327601969182491,1.4100652431055902,-0.661030836610496,-9.030137219470738,-2.362807866244018,3.0073484635636207
1757088098608491300,0.4324912109375,-0.9124430418014526,2.0908117294311523,-0.0498826801776886,1.86355164591074,1.5686054075062277,-0.613870441506803,-8.96834507242441,-2.3266695081532,3.2133748940214515
1757088098618537200,0.442537109375,-0.965459644794464,2.177534341812134,0.0260211378335952,2.0538860017180443,2.125451208629459,-0.333082492314279,-8.897412172067165,-2.2943920632742345,3.4266903124436734
1757088098628584200,0.452584228515625,-0.9966397881507874,2.23465895652771,0.0754006132483482,2.1959715826630597,2.1379840885967014,-0.2623170574784279,-8.817734824240206,-2.264128588566184,3.645772916090488
1757088098638631200,0.462631103515625,-1.0667030811309814,2.23999547958374,0.1090320795774459,2.518358785700798,1.8534905628845093,-0.6348226286426186,-8.731162456202506,-2.2334204388305543,3.866396319438517
1757088098648677000,0.472677001953125,-1.1769859790802002,2.2875406742095947,0.1347019225358963,2.9769156236380336,1.9100527003228664,-1.0270353553175926,-8.638304724285007,-2.1993021883904933,4.088171815431118
1757088098658724000,0.48272412109375,-1.3140772581100464,2.454695701599121,0.1471197009086609,3.518549973234534,2.2751341128356755,-1.5128510793194174,-8.535300276884437,-2.159015332318097,4.319453975437582
1757088098668771000,0.49277099609375,-1.4808520078659058,2.687643051147461,0.1387429684400558,4.002532344329357,2.6493407888293263,-2.017111683811247,-8.417439621135593,-2.1089994016528126,4.568283190311491
1757088098678817000,0.502817138671875,-1.6763675212860107,2.94986343383789,0.1192848533391952,4.380840756553411,3.0420214252769946,-2.618819393837452,-8.281743448966742,-2.045285200502724,4.837346507179737
1757088098688864300,0.5128642578125,-1.882466435432434,3.29733681678772,0.0977562814950943,4.463833512538671,3.1936931652128693,-2.7973253646850584,-8.123221112483739,-1.9651684383451935,5.130474882507324
1757088098698911200,0.5229111328125,-2.061267614364624,3.624117851257324,0.033298198133707,4.499592808184027,2.957269550664723,-2.6591578339666126,-7.937816029772162,-1.8658128688409923,5.4479538552373645
1757088098708957200,0.532957275390625,-2.221324920654297,3.939706325531006,-0.050315398722887,4.568379344162345,3.060170245429873,-2.642577286043763,-7.72468532026708,-1.7442573040969669,5.784218776980042
1757088098719004200,0.543004150390625,-2.392077684402466,4.322650909423828,-0.0971691906452179,4.323119219946861,3.4303026577219367,-2.578712424376606,-7.478826061114669,-1.600234763740003,6.138142105010152
1757088098729051100,0.553051025390625,-2.628380060195923,4.725957870483398,-0.0429418496787548,3.5919688451886174,3.928564021798968,-2.9541297913342714,-7.192398644730448,-1.435302414084226,6.509968169477582
1757088098739097000,0.56309716796875,-2.9659173488616943,5.0746169090271,0.1719536781311035,2.498690793156624,4.645847199246287,-3.423278165912628,-6.861224908646941,-1.251018736618012,6.894122385120392
1757088098749144000,0.57314404296875,-3.417057752609253,5.3179240226745605,0.5681626200675964,1.3260066114544868,5.394255582797527,-4.000577118608355,-6.4868573430031535,-1.048181165329367,7.2795859297961
1757088098759191000,0.58319091796875,-3.929405927658081,5.507811546325684,1.0469098091125488,0.5464911419779062,5.663326206189394,-4.998977915593981,-6.07260784882605,-0.8234474771182984,7.6560922610342494
1757088098769237000,0.593237060546875,-4.391488552093506,5.5669121742248535,1.4336895942687988,0.5493956312477588,5.549986827257276,-4.9078141281127925,-5.6270484396278855,-0.5687003799701109,8.01144766769409
1757088098779284200,0.6032841796875,-4.712135314941406,5.304635047912598,1.5511245727539062,0.747813340267539,5.111005627405644,-3.037801761755347,-5.171998148506879,-0.2760650305901654,8.327340832537413
1757088098789331200,0.613331298828125,-4.818036079406738,4.522708892822266,1.269155502319336,1.2061539051055907,4.340851860514283,-0.2412684242308139,-4.74987163734436,0.0586433687257813,8.579374980932474
1757088098799377200,0.623377197265625,-4.666749954223633,3.311702013015747,0.6539831757545471,1.7978011166274546,3.345987128700316,3.2096383378416298,-4.409725782515109,0.4280228391921147,8.748800404223799
1757088098809424100,0.633424072265625,-4.219335079193115,2.0666980743408203,-0.2118771523237228,1.958390322512388,1.5919380600377917,7.006242451390624,-4.174223958986997,0.8124388841088861,8.83663884667456
1757088098819470000,0.643469970703125,-3.4405174255371094,1.0363805294036863,-1.136286973953247,1.256332771247625,-0.4837221857886761,10.604808795148134,-4.030464599610865,1.1826793598853051,8.861547077959775
1757088098829517000,0.65351708984375,-2.481684446334839,0.229292631149292,-1.88252592086792,-0.2757008551865816,-2.0773479797177017,13.18958329604268,-3.955003115913272,1.5076777683347462,8.846199871224165
1757088098839564000,0.66356396484375,-1.5674011707305908,-0.2489394545555114,-2.3004517555236816,-3.0060008483469485,-2.722049174426496,13.888148913538457,-3.922370135594904,1.7702043769106268,8.812025214421748
1757088098849610000,0.67360986328125,-0.903396487236023,-0.6822014451026917,-2.2794930934906006,-6.649672992765903,-2.6642718159794807,13.187814532804488,-3.918483649550378,1.9689058713078496,8.771504987984896
1757088098859657000,0.683656982421875,-0.5091285705566406,-1.4871400594711304,-1.9394952058792116,-8.92466959682703,-2.360339722564816,11.864947972941398,-3.968105758592486,2.1137369515687228,8.715310222554207
1757088098869704200,0.6937041015625,-0.267009824514389,-2.474189043045044,-1.5470457077026367,-8.98125248479247,-2.076959418791533,10.48152260721922,-4.10335857090801,2.217469128721952,8.626450620362162
1757088098879750100,0.703750244140625,-0.0744054764509201,-3.1568691730499268,-1.3052808046340942,-7.77004363438487,-1.9220774846374988,9.340149509581924,-4.315735831697285,2.29183200352788,8.50248814060688
1757088098889797000,0.713797119140625,0.0671528279781341,-3.4902000427246094,-1.2331050634384155,-5.976091009879112,-2.0890819643922147,8.222152026835083,-4.569469769747555,2.3482541479736567,8.353205341634153
1757088098899844000,0.723843994140625,0.2023703157901764,-3.5182971954345703,-1.2676424980163574,-4.285609865763783,-2.522082774659991,7.030722228130697,-4.832557519337534,2.3960879122942687,8.18996649802327
1757088098909890000,0.73389013671875,0.3765785694122314,-3.30435848236084,-1.3186267614364624,-3.1626188125133514,-2.9303397504240274,6.084553722685575,-5.080018952989578,2.4372838460356,8.026421949464082
1757088098919937000,0.74393701171875,0.5877400636672974,-2.94865083694458,-1.3280823230743408,-2.461590019774437,-3.260377175953984,5.219881597188115,-5.2974184258550405,2.468046064046025,7.875054745432734
1757088098929984000,0.75398388671875,0.8036857843399048,-2.5221657752990723,-1.2785768508911133,-1.9858815560281275,-3.322155294474959,4.354986184328794,-5.479987408357858,2.484184421159327,7.7439622676670545
1757088098940030200,0.7640302734375,1.0065361261367798,-2.0045695304870605,-1.1664133071899414,-1.8710685974121093,-2.892993185587227,3.432010338422656,-5.62457883464396,2.48253723847419,7.640124876573681
1757088098950077200,0.7740771484375,1.12664532661438,-1.546393632888794,-0.9919265508651732,-1.92599261225462,-2.2155960283264515,2.3636475319385526,-5.732609585773944,2.4623484369263053,7.566004578351974
1757088098960124200,0.784124267578125,1.1109774112701416,-1.210227131843567,-0.7622933387756348,-2.00997262571156,-1.4289185582660138,1.0674351702451703,-5.814876365572214,2.4280486924394964,7.514131183251738
1757088098970170400,0.79417041015625,0.9697782397270204,-0.9892059564590454,-0.5149453282356262,-2.0047318024486303,-0.5765304525412619,-0.1886141078859567,-5.881767881584167,2.3866962529622016,7.4752160539239645
1757088098980217300,0.80421728515625,0.7563714385032654,-0.7811843156814575,-0.270752876996994,-1.787622836962342,-0.1734879965551197,-1.2670821287989615,-5.938765195569395,2.345178539920598,7.443224586379528
1757088098990264000,0.81426416015625,0.5452984571456909,-0.6101664900779724,-0.032087430357933,-1.5588532442986964,-0.1367225926071405,-1.813776099872589,-5.987071253576874,2.3057195129744708,7.416805950531363
1757088099000310300,0.824310302734375,0.3674370944499969,-0.3671373128890991,0.1932082772254943,-0.8345885374009608,-0.1307224754095077,-2.053200942063332,-6.025995735254884,2.266948906683921,7.39720868513584
1757088099010357200,0.834357177734375,0.2255513072013855,0.0638695284724235,0.40157550573349,0.0288508314311504,0.0182071262113749,-2.364479306587577,-6.044881637510657,2.2269554806001484,7.393948806557058
1757088099020403200,0.8444033203125,0.0945323035120964,0.6084548234939575,0.5835990905761719,0.7440233003348111,0.1902199356473982,-2.884482839134336,-6.03101853185296,2.184977602700889,7.417753460514545
1757088099030450200,0.8544501953125,-0.0606425702571868,1.2294223308563232,0.7324536442756653,1.460825416266918,0.4431840583689511,-3.4996716697633263,-5.9771881574660535,2.143750835429877,7.473148600000143
1757088099040497200,0.8644970703125,-0.2282962799072265,1.912825584411621,0.8451301455497742,2.002248168939352,0.8848480675637721,-4.149840628358722,-5.875168629449606,2.107455094820261,7.563822558137774
1757088099050543000,0.874543212890625,-0.4288442432880401,2.500777244567871,0.9263460636138916,2.3634224910110238,1.3546318174362182,-4.703350709187984,-5.724134018373489,2.0805987982071934,7.686078233975172
1757088099060590000,0.884590087890625,-0.7058513164520264,2.955298662185669,0.989662766456604,2.439547114792466,1.7665651436254382,-5.1580128777742384,-5.530910370865464,2.0701430167749524,7.829044104886054
1757088099070637300,0.89463720703125,-1.0571361780166626,3.2971770763397217,1.0555421113967896,2.230702119782567,2.124587577537447,-5.6492123406410215,-5.303510312989354,2.084269157283008,7.981164757633208
1757088099080683300,0.904683349609375,-1.424988865852356,3.549165725708008,1.149614334106445,1.833248862105608,2.5333576173901555,-6.056169339722395,-5.049110019984841,2.127554464519024,8.133288332989812
1757088099090730200,0.914730224609375,-1.777338981628418,3.7255699634552,1.2761671543121338,1.5099600340530277,2.8892794257611034,-5.995034779801965,-4.775351238776743,2.2000449695818123,8.278055115842818
1757088099100777200,0.924777099609375,-2.0810256004333496,3.885130643844605,1.4116839170455933,1.2107137603670357,2.9404268446743487,-5.833288220575452,-4.48672952721864,2.2995826176546514,8.411394495752454
1757088099110823200,0.9348232421875,-2.3301303386688232,4.059671401977539,1.552578687667847,1.0579068789213897,2.707830387198925,-5.763076620230079,-4.183836129201948,2.423093115858733,8.531970840200781
1757088099120870100,0.9448701171875,-2.53413724899292,4.225330352783203,1.6874533891677856,0.8313689908325672,2.5076938915625213,-5.4920168688476085,-3.8667677830994127,2.5677143527612087,8.638596400707959
1757088099130917000,0.954917236328125,-2.7000997066497803,4.316441059112549,1.7835166454315186,0.7737909543499351,2.378385959126055,-5.146214887952804,-3.540290680399537,2.7317382092699405,8.727790349420905
1757088099140963000,0.964963134765625,-2.8066935539245605,4.40375566482544,1.827582836151123,0.9013453211173414,2.1292948784455654,-4.555865899547935,-3.2080083985522387,2.91349207599759,8.797193555992841
1757088099151010000,0.975010009765625,-2.8438560962677,4.4357428550720215,1.833849310874939,0.9322355494216084,1.8466408431202173,-3.736363872119784,-2.871388964283466,3.1084584755197167,8.84663709359765
1757088099161057300,0.985057373046875,-2.8413431644439697,4.403485298156738,1.815256953239441,0.7874328184723853,1.5769401051312684,-3.0318571741372344,-2.536397423477471,3.3121690302506086,8.875055963352322
1757088099171103200,0.995103271484375,-2.8383097648620605,4.267885208129883,1.7686998844146729,0.5025923790186644,1.3700199407041072,-2.482630469715595,-2.2105558422021567,3.522681081689894,8.881134406483174
1757088099181150200,1.005150146484375,-2.878690242767334,4.044568538665772,1.672122836112976,0.2816244000166654,1.3407494225561618,-2.090399330601096,-1.9026487076766787,3.741691789144277,8.862847639164329
1757088099191196200,1.015196044921875,-2.9570536613464355,3.776600360870361,1.5301318168640137,0.131588298458606,1.3936308256551622,-1.920344961756468,-1.616891007247567,3.972373352909088,8.819086823371052
1757088099201243100,1.0252431640625,-3.084660768508911,3.450955867767334,1.3786165714263916,-0.0714214145265519,1.3629521942749618,-1.427591255185008,-1.3573184261716902,4.217183395269513,8.74890970981717
1757088099211290000,1.0352900390625,-3.226845026016236,3.0474300384521484,1.2651516199111938,-0.2641278332274407,1.3683485003605484,-1.054565751799941,-1.1307939090210943,4.476645940099656,8.651666310161351
1757088099221336000,1.045336181640625,-3.319538354873657,2.6964962482452397,1.2114503383636477,-0.3954010013222694,1.2543328296020626,-0.984383377549052,-0.9402644690331072,4.746883269183337,8.529560271927714
1757088099231383000,1.055383056640625,-3.3201711177825928,2.4010660648345947,1.1973344087600708,-0.6105372054308652,0.8979729220747947,-0.0469967289745807,-0.7831875821180642,5.019146843397617,8.388395312958956
1757088099241430000,1.065429931640625,-3.267872095108032,2.1639976501464844,1.2391278743743896,-0.9634130702346564,0.5246294387817383,1.0983826816946267,-0.655216743504256,5.285948352813721,8.234065751990675
1757088099251476000,1.07547607421875,-3.0882463455200195,1.840973138809204,1.329696536064148,-1.1783424266595393,0.1829220337241888,2.0672499256819483,-0.5605964223610237,5.539070880967378,8.073093099746108
1757088099261523200,1.085523193359375,-2.8603997230529785,1.4459832906723022,1.3962494134902954,-1.2627478989869356,-0.2038771434694528,3.197843855151534,-0.5061181419920175,5.770844916144013,7.912748224011063
1757088099271570200,1.095570068359375,-2.6120588779449463,1.0465739965438845,1.364768624305725,-1.2119131992846726,-0.3767863172233104,3.722613579186797,-0.4902147626783698,5.979516892674565,7.757284106054902
1757088099281616100,1.1056162109375,-2.3515284061431885,0.6886979341506958,1.207589864730835,-0.9806775087684392,-0.359595528447628,3.87373060784936,-0.5023807820945978,6.164636728703975,7.610207292693853
1757088099291663000,1.1156630859375,-2.143913984298706,0.3110326528549194,0.9431915879249572,-0.4283253658026457,-0.274872003147006,3.7350112884670494,-0.532348196465522,6.329059813663363,7.471947407516836
1757088099301710000,1.1257099609375,-1.999183177947998,-0.1384077668190002,0.6079568266868591,0.1019078112702816,-0.151527947551012,3.640029404002428,-0.5761097063785419,6.4788055539727205,7.339182028102874
1757088099311756000,1.135756103515625,-1.8865214586257932,-0.6321859955787659,0.2492865920066833,0.4916998136043548,-0.1551636737048626,3.970399422487617,-0.6328080739498138,6.618311055296659,7.208876316800713
1757088099321803000,1.145802978515625,-1.7307182550430298,-1.0660070180892944,-0.0778534561395645,0.6543406913220882,-0.1796528027951717,4.640535648834705,-0.6998303767345845,6.7479948353081936,7.081326041686535
1757088099331850000,1.15585009765625,-1.4755809307098389,-1.446680784225464,-0.3616088926792145,0.8704086233228444,-0.26072774246037,5.98650192925632,-0.7735929475598037,6.863187733152508,6.961939199283719
1757088099341896000,1.16589599609375,-1.182474970817566,-1.7101041078567505,-0.6114754676818848,1.3017150507628916,0.0168920980900526,7.163228664347529,-0.8499591980773955,6.959212404668331,6.856916397798061
1757088099351943200,1.175943115234375,-0.9538617134094238,-1.861372470855713,-0.8320061564445496,1.416460789361596,0.8399562019139528,7.395016143527626,-0.9222078572083264,7.0384630515158175,6.766087541359663
1757088099361990100,1.185990234375,-0.8118206858634949,-1.6814881563186646,-0.9214297533035278,0.5633388164043426,1.5235077901512384,6.779225839874148,-0.9799301975324748,7.1062424562782045,6.68666212246716
1757088099372036000,1.1960361328125,-0.793587863445282,-1.484893560409546,-0.7412076592445374,-0.98351762756519,1.8614450290203093,5.620604670315981,-1.0240202452801168,7.167837034925818,6.613914866164326
1757088099382083000,1.2060830078125,-0.8585546016693115,-1.507527232170105,-0.3774736523628235,-1.3400526724636554,1.822263942232728,4.842797173801064,-1.081083683304116,7.228267245969175,6.538638968166708
1757088099392129300,1.21612939453125,-0.928924024105072,-1.5081108808517456,0.0087742414325475,-0.9797552793569864,1.6594938851773735,4.617094567492604,-1.1672454247143118,7.28868518205285,6.456238332855701
1757088099402176300,1.22617626953125,-0.9394972920417786,-1.2265108823776243,0.3619498908519745,-0.6552252190716564,1.7822715390622614,4.280408789989352,-1.2701618285052478,7.346819975635409,6.370347517341375
1757088099412223000,1.236222900390625,-0.8604105710983276,-0.9511078596115112,0.6639460921287537,-0.2644564075946807,1.787190290763974,4.198255991959572,-1.3769186141766607,7.397416190406679,6.289095467543602
1757088099422269200,1.246269287109375,-0.7546135783195496,-0.8313087821006775,0.9103161692619324,0.4029612074434757,1.5292314284950494,4.148525454106927,-1.491724266269058,7.436604875978827,6.216272807916998
1757088099432316200,1.256316162109375,-0.6799356937408447,-0.7072787284851074,1.0665820837020874,0.8957049771428107,1.2251567117393016,3.644964522317052,-1.6139654751896857,7.465496039420365,6.150761932608485
1757088099442363100,1.266363037109375,-0.6271235942840576,-0.6606374382972717,1.1346611976623535,1.2808926274865864,0.9206032715559004,3.070162062612176,-1.7387836949914692,7.48708477089405,6.090203126749396
1757088099452409000,1.2764091796875,-0.5779199004173279,-0.6340621709823608,1.1411471366882324,1.7149750955112275,0.6407546490401029,2.5809265932947394,-1.8641634941987693,7.503121713459492,6.033111120218038
1757088099462457000,1.28645703125,-0.5439521074295044,-0.6440567374229431,1.1041609048843384,2.002854902660846,0.3828659293979406,2.4477076248943805,-1.9874423756040631,7.515157019168138,5.978535480421781
1757088099472504000,1.296504150390625,-0.481840968132019,-0.6248005628585815,1.0455210208892822,2.0966724195212123,0.2875941220760345,2.80690918558836,-2.106697846712172,7.52408734459877,5.926240645039082
1757088099482550300,1.30655029296875,-0.3032240867614746,-0.6291681528091431,0.9886284470558168,1.946949767826497,0.5167974299818278,3.20236513196826,-2.2204874536298216,7.525626390734314,5.88258328962028
1757088099492597200,1.31659716796875,-0.0736821666359901,-0.6376500129699707,0.9571880102157592,1.6188628918424248,0.84572426392138,3.2891157791823145,-2.331137593477964,7.514527489092946,5.853890863621235
1757088099502644200,1.326644287109375,0.1243406310677528,-0.728563129901886,0.9508182406425476,1.2215784148611128,0.8253431546717882,3.1238486446142195,-2.442471477806568,7.490017317214607,5.839892148885131
1757088099512690400,1.3366904296875,0.3096738457679748,-0.8854226469993591,0.971791446208954,1.2129957338243722,0.4725684121549129,3.194714324954152,-2.562128369322419,7.453285961666703,5.835615786740184
1757088099522737200,1.346737060546875,0.5058382749557495,-0.8715766072273254,1.034209370613098,1.2343573785439133,0.3033551703095435,3.213757463598251,-2.68898423243165,7.402831201192736,5.842758644232154
1757088099532784000,1.3567841796875,0.631591260433197,-0.7701628804206848,1.123786211013794,1.1440873250320551,0.4711217204779386,2.95646437176168,-2.817184788148105,7.339212423241138,5.862576858901977
1757088099542830300,1.366830322265625,0.6659039258956909,-0.7673695087432861,1.146562576293945,1.3372598268747329,0.8038134599089622,2.372720480710268,-2.9455650843456387,7.267489249289035,5.888772207388281
1757088099552877300,1.376877197265625,0.5336661338806152,-0.9681275486946106,1.051585078239441,1.8965259870126845,0.5275339280515909,2.2902269064188,-3.0768671132087704,7.197657003650069,5.90736935583055
1757088099562924000,1.386924072265625,0.2882481515407562,-1.2927697896957395,0.5913516879081726,2.318641099998355,-0.5430027153402567,3.1782921824634074,-3.2055431774824856,7.144714518013596,5.903213989716768
1757088099572970200,1.39697021484375,-0.2103370428085327,-1.5393133163452148,-0.1942852288484573,3.580426875954866,-2.1503122397720813,0.0251262579500675,-3.302250570565462,7.136386834651232,5.859821422713995
1757088099583017200,1.407017333984375,-0.90488201379776,-1.661598563194275,-0.4812856018543243,3.4201702630251645,-2.162490168821812,-5.724887467089295,-3.3706399239197373,7.183430325376987,5.762596143236756
1757088099593063200,1.417063232421875,-0.9459331035614014,-1.2405259609222412,-0.344876766204834,1.257581310003996,0.2187508874744176,-3.6073458625406025,-3.425381567932665,7.252954527980089,5.641968360862135
1757088099603110400,1.4271103515625,-0.671369194984436,-0.2318374663591385,0.0780558362603187,-0.99934479983747,2.1545833412200213,0.3849702082008123,-3.456563472659885,7.304159230038524,5.556241211476921
1757088099613157400,1.437157470703125,-0.5074180364608765,0.9056825637817384,0.6208167672157288,-1.1585776226773858,1.5270260274052618,0.437970561504364,-3.464027817191184,7.323889181903004,5.5255374456554645
1757088099623203300,1.447203369140625,-0.4960492849349975,2.015469551086426,0.9735583066940308,-0.9275137815967202,-0.8258890981167555,-0.9651678049474954,-3.442204107917845,7.323902625906467,5.539141023594141
1757088099633250300,1.457250244140625,-0.4057204127311706,2.6887693405151367,1.1495667695999146,-0.4700380168944597,-2.079541836500168,-1.1879349423259495,-3.3870211498782035,7.312368839979172,5.5881783184856175
1757088099643297300,1.46729736328125,-0.4639357924461365,2.804927349090576,1.2125269174575806,0.2012970638483762,-1.419627728959918,-1.011626189261675,-3.317649799749255,7.296345341417193,5.650391905814409
1757088099653343200,1.47734326171875,-0.4647934436798095,2.6297664642333984,1.1710503101348877,-0.0325979090049862,-0.1487321793526411,-0.9423574227243662,-3.2491049635723237,7.284201314637064,5.705622210127115
1757088099663390200,1.48739013671875,-0.506172776222229,2.1985604763031006,1.0885980129241943,-0.0207440973430871,0.6161129597365855,-0.7752841155171394,-3.19242416819036,7.2747267993271345,5.749537339699268
1757088099673437200,1.497437255859375,-0.65776526927948,1.7521663904190063,0.9925675988197328,0.4915224112108349,-0.0776204152971506,-2.91009892642796,-3.154472623197734,7.275338209223746,5.769672949755192
1757088099683483100,1.507483154296875,-0.7699152231216431,1.444204568862915,0.9164421558380128,0.4287690179169178,-0.5943816049218178,-3.443997128814458,-3.132121967440844,7.286773795473575,5.76742020239234
1757088099693530400,1.5175302734375,-0.7732046842575073,1.2199809551239014,0.8445932269096375,0.5896499002248048,-0.7304658996254205,-2.861940752458572,-3.1197225045949217,7.304345107999444,5.751891793870926
1757088099703577300,1.527577392578125,-0.6768819093704224,1.0420498847961426,0.7668140530586243,0.8493319330245256,-0.97504388679564,-1.7824544944137333,-3.113798082982004,7.321324299851059,5.733485784086585
1757088099713623300,1.537623291015625,-0.4793228805065155,0.8432965874671936,0.7140879034996033,0.6435758439406752,-0.9866109904706476,-0.1323439391314983,-3.113643476942181,7.331843355777859,5.720110754206776
1757088099723670300,1.547670166015625,-0.1727309674024582,0.5047784447669983,0.8290930390357971,-0.4499190657123923,-0.0201893860697746,1.619980205434561,-3.128963503409922,7.327591543552279,5.717199835196137
1757088099733717200,1.55771728515625,-0.0447060503065586,-0.0678310096263885,0.8865159749984741,-1.5774676361367106,1.712155800306797,2.532045365747809,-3.1780154113486407,7.306352356168627,5.717325507402419
1757088099743763200,1.56776318359375,0.1817726343870163,-0.7865068316459656,1.0410711765289309,-2.791300697568059,1.7878847027689218,4.401335847571492,-3.2738106580227613,7.271475104054808,5.707731165105104
1757088099753810200,1.57781005859375,0.2775084674358368,-1.3655976057052612,1.0099525451660156,-2.4748896463304755,0.628527620151639,4.918801386073231,-3.411105497559905,7.221461073085665,5.69080399570167
1757088099763857200,1.587857177734375,0.0473690032958984,-1.848085641860962,0.9043262004852296,-0.7907190005362034,-0.5984820259779692,1.3502432270884512,-3.571666061872244,7.178945288917422,5.64591388361752
1757088099773903000,1.597903076171875,-0.2202698737382888,-2.103262186050415,0.8981866240501404,-0.6496779602080583,-0.6665969463050365,0.3700754214078188,-3.7487694724455474,7.15084323002696,5.566197957345843
1757088099783950300,1.607950439453125,-0.3271829783916473,-2.038907289505005,0.9731977581977844,-0.2969090629100799,0.0074924015820026,0.2989589811772108,-3.9318490348190074,7.130370935362577,5.465230568730831
1757088099793996300,1.617996337890625,-0.38888880610466,-1.4870094060897827,1.0424872636795044,0.2719710210084915,0.2899614357292652,0.157415836545825,-4.101346646563709,7.108869882172345,5.367803044679761
1757088099804043300,1.628043212890625,-0.58139967918396,-0.6162386536598206,0.9932804107666016,1.234586803385615,-1.0109370379537344,-1.479071267053485,-4.232426557108759,7.090862516316771,5.289293571588397
1757088099814090200,1.63809033203125,-0.6751822829246521,0.2565396726131439,0.7539767622947693,3.651666650304198,-2.6161832001149654,-2.2058406502485277,-4.303637689885496,7.088102988475561,5.235253938364982
1757088099824136200,1.64813623046875,-0.483796626329422,1.1794596910476685,0.637892484664917,3.87868969156146,-1.977965960597992,-0.029994740769267,-4.315332511593401,7.089137007698416,5.224214657956361
1757088099834183200,1.65818310546875,-0.1797441393136978,2.0152909755706787,0.5780871510505676,3.1085745031148195,-2.0258564235419034,1.3152940787822007,-4.2735032483845945,7.080614678546786,5.269957587477564
1757088099844230100,1.668230224609375,0.1761417984962463,2.530738592147827,0.4897642731666565,2.2588760748654604,-3.249012316852808,1.6628683300465343,-4.189051525762677,7.0581871581614015,5.366956656983494
1757088099854276000,1.678276123046875,0.595973789691925,2.762134790420532,0.3847084641456604,1.5559022855386138,-3.9865515158653255,2.072410669445992,-4.074601847501099,7.018807333931327,5.50493772521913
1757088099864323000,1.688322998046875,0.9642530083656312,2.7435574531555176,0.2191597074270248,1.3476251535445452,-3.973297482016682,1.7381430590003728,-3.9406948968365785,6.96245825472176,5.671462166371941
1757088099874370300,1.698370361328125,1.2628873586654663,2.504833221435547,0.030146786943078,0.7873805037632584,-3.966356869098544,1.233884208074212,-3.796891990579665,6.892818901306391,5.85175502063632
1757088099884416300,1.708416259765625,1.4672143459320068,2.158712387084961,-0.1391109377145767,-0.1595683384045958,-3.782046595886349,0.6432037957578897,-3.6536467182055112,6.813105897644162,6.033475861877203
1757088099894463200,1.718463134765625,1.578850507736206,1.814209580421448,-0.2569252550601959,-1.1402917321413757,-3.1403783391326665,-0.496302338963747,-3.5180768027648326,6.726742788442969,6.20841858728528
1757088099904510200,1.72851025390625,1.6901583671569824,1.652280330657959,-0.2906754910945892,-2.0950392653614283,-2.128845088851452,-1.3275029874920845,-3.390974563679099,6.632637686812878,6.378071389591693
1757088099914556200,1.73855615234375,1.7910481691360474,1.755517601966858,-0.1589212864637375,-3.2314632161587475,-1.552128904479742,-2.083840410476923,-3.2652029886752367,6.527728867095709,6.549625057083368
1757088099924603100,1.74860302734375,1.6799672842025757,1.9499845504760744,0.0868895500898361,-3.933600262400508,-1.530142113599181,-3.053166504147649,-3.1394699921160933,6.411469801324605,6.723627286770939
1757088099934650000,1.758650146484375,1.3298006057739258,2.159096956253052,0.3948611319065094,-3.9035950002372255,-0.2372691254615783,-6.5125348050951954,-3.01310395835042,6.301033742618561,6.883935337626934
1757088099944696000,1.768696044921875,0.9036365747451782,2.199148178100586,0.3828377723693847,-2.451613984683156,2.801098453482985,-8.020202636557817,-2.886408546499908,6.21037732013762,7.019276705008744
1757088099954743000,1.778742919921875,0.4883854985237121,2.0157527923583984,0.0715302154421806,1.6630448556572195,4.538469943588972,-7.899319418117403,-2.7506106675222517,6.155380824580789,7.121503153774142
1757088099964790300,1.788790283203125,0.3730240166187286,1.8353546857833865,-0.1028722152113914,2.668204186992347,3.3976223311305045,-6.001927461925149,-2.609994866868853,6.126361650845408,7.199027707481384
1757088099974836200,1.798836181640625,0.3772664666175842,1.7238112688064575,-0.0032493288163095,1.401609549449384,1.6547148342072964,-4.030692855408788,-2.4776532658249137,6.101300859346986,7.266755089795589
1757088099984883200,1.80888330078125,0.5472970008850098,1.690837264060974,0.1444658190011978,0.7869337829090655,0.3639683367043733,-2.6674498614937066,-2.356632100218534,6.066109134456515,7.336142514276504
1757088099994929400,1.818929443359375,0.8568035960197449,1.5861241817474363,0.2357818335294723,1.736322857835889,0.063850248619914,-0.9390782549232244,-2.246736724260449,6.010089725592732,7.416291571268439
1757088100004976400,1.828976318359375,1.173962116241455,1.4479862451553345,0.2825536131858825,1.9326668293215328,0.3618500293761491,0.0002507598906755,-2.1484439616821707,5.927717731854319,7.51110745151639
1757088100015023000,1.839023193359375,1.3236933946609497,1.2162635326385498,0.2957201600074768,1.711885897324234,0.8845037841707467,0.4413064279288053,-2.0641325243137776,5.825545059102773,7.613984473145008
1757088100025069300,1.8490693359375,1.256585717201233,0.8597086668014526,0.2064059972763061,1.2084253571689128,1.2390180638313293,1.114299797272682,-1.998362413547188,5.71987869901657,7.711026797270774
1757088100035116300,1.8591162109375,1.0231456756591797,0.4946509897708893,0.1667597889900207,-0.3673796064525842,-0.3296650850862264,1.0438806916564702,-1.9561928124681116,5.627135533389449,7.789675971093773
1757088100045163300,1.869163330078125,0.8340370059013367,0.3291485905647278,0.1883252710103988,-1.6746458616018294,-1.9112112227082247,0.8436345981657505,-1.9353614752329884,5.551444624850154,7.848963441842794
1757088100055209200,1.879209228515625,0.7068825960159302,0.2380247116088867,0.1506778746843338,-1.5630750997774303,-1.992595374453068,0.866923703816533,-1.9218347619228064,5.486932697451114,7.897499801474809
1757088100065256200,1.889256103515625,0.5317935943603516,0.2101581841707229,0.0874498933553695,-0.5648572581432759,-2.192337610074877,1.2979822939753531,-1.9111960251390931,5.435283174234629,7.935704736706614
1757088100075303400,1.899303466796875,0.3781576454639435,0.4563440382480621,-0.1204191520810127,0.3210457253009081,-2.1584709963083264,2.191046985742449,-1.885656364082545,5.39947185614109,7.966203919866681
1757088100085349400,1.909349365234375,0.3042280375957489,0.8881082534790039,-0.3733339607715606,0.5750526350736618,-1.4218015658676624,2.282572007751465,-1.8185414145782588,5.377022708445787,7.996932820129394
1757088100095396400,1.919396240234375,0.2404639720916748,1.3053516149520874,-0.5501098036766052,0.2921908022165298,-0.7510814021527766,1.795006517472863,-1.704769635578245,5.363361262840033,8.031096371015906
1757088100105443300,1.929443359375,0.206431433558464,1.6277589797973633,-0.6748610734939575,-0.0595059358052909,-0.5796580830425023,0.9537649519234896,-1.5525401156291363,5.355491260117292,8.06713740621209
1757088100115489300,1.9394892578125,0.1355088651180267,1.895361423492432,-0.7811895608901978,-0.4570587083339691,-0.7789724486410617,0.2073679081946611,-1.370016141311824,5.351748566457629,8.102606779000162
1757088100125536300,1.949536376953125,0.0320695675909519,2.0650713443756104,-0.936577558517456,-0.3701449795126915,-0.8879688299328088,-0.2135451355248689,-1.1618446616493163,5.3558484029918905,8.132367126491665
1757088100135583200,1.959583251953125,-0.0046077514998614,2.038250684738159,-1.0522011518478394,-0.4874081808250397,-0.2311199551820754,-0.4924824884146451,-0.9393863710243254,5.365784690594673,8.154525766807794
1757088100145629200,1.969629150390625,0.0942756831645965,2.0099384784698486,-1.1239423751831057,-0.4437374544680118,-0.2861304792642593,-0.5629769973546266,-0.715205494390428,5.371864302769303,8.173245664846897
1757088100155676200,1.97967626953125,0.3310364186763763,2.0569097995758057,-1.1559982299804688,-0.1743084826251491,-0.5541103848099708,-0.4118056081563234,-0.4860423723645508,5.36196600908935,8.19655172163248
1757088100165722000,1.98972216796875,0.6385116577148438,2.0552053451538086,-1.1700130701065063,0.157061634546984,0.1038362220495939,-0.6652338412582874,-0.2540270027127116,5.325913283455372,8.230461590018868
1757088100175769300,1.999769287109375,0.83343505859375,1.987247347831726,-1.2309170961380005,0.5541308430761098,0.6936614788413047,-1.560176601856947,-0.0220197752681327,5.265805143973231,8.272918337476254
1757088100185816300,2.00981640625,0.7520102262496948,1.7367419004440308,-1.5039355754852295,1.4288392094194888,0.1167576629430055,-2.8615573060989377,0.2055021325890906,5.196124874025583,8.314350418061018
1757088100195862300,2.0198623046875,-0.437060683965683,0.933344066143036,-2.440507650375366,5.363541295582055,-5.524678782999516,-6.032540042331815,0.4198021964007988,5.166595412680507,8.324688272202014
1757088100205909200,2.0299091796875,-1.6707477569580078,0.4074717760086059,-3.103651523590088,7.454217105036974,-17.50610092576742,-10.459480286759138,0.6218740805465728,5.250630955716967,8.259208376553655
1757088100215956200,2.039956298828125,-1.2221261262893677,-0.6556822061538696,-3.1524224281311035,1.977470286035537,-3.5199235996752973,-1.8399574198335409,0.779004085888341,5.353433743065596,8.17950530976355
1757088100226002200,2.050002197265625,-0.3158096075057983,-0.8776543140411377,-2.835078239440918,-3.1668425676882266,8.208330422231555,4.8788054757714265,0.8715512174867093,5.391333557870984,8.145202642667293
1757088100236049200,2.060049072265625,0.4789039492607116,-0.313639223575592,-2.048890352249145,-8.299702299505471,9.043979282340407,6.421931574106216,0.9563868979249148,5.359987402492761,8.156364088150859
1757088100246096100,2.07009619140625,0.9452074766159058,-0.1560924798250198,-0.8059633374214172,-11.926846502971648,5.401154110139608,4.387312582916021,1.018265188884735,5.285066309282184,8.197659975135325
1757088100256142000,2.08014208984375,0.7697567343711853,-0.0262506138533353,0.4383567571640014,-12.096650111925602,0.1117173306882381,0.2459767480522394,1.0164346124567092,5.208797308593988,8.246556400251388
1757088100266189300,2.090189208984375,0.1699409335851669,-0.0006816031527705,1.152055740356445,-8.966059591835737,-0.1181692833065986,-1.4855810873389244,0.9754120625209064,5.177715357109904,8.271047282907366
1757088100276236300,2.100236328125,-0.1812832057476043,-0.9721078276634216,1.1525583267211914,-3.838436007106304,1.8909429261833428,-0.3854214590996503,0.8801001423843204,5.191703550451994,8.272968021836876
1757088100286282200,2.1102822265625,-0.410539299249649,-3.020066738128662,-0.4520363807678222,8.901530713301897,4.135048132896423,1.9452631299138068,0.6882944719154387,5.2183489807933565,8.274385487419366
1757088100296329200,2.1203291015625,-1.086419701576233,-3.919405460357666,-1.9097261428833008,16.087330690419673,2.6466432203084227,-0.4047007445871829,0.4598946624122559,5.272028548532724,8.256184644818305
1757088100306376200,2.130376220703125,-1.6628190279006958,-3.8722825050354,-2.400660514831543,9.22344328456521,-0.3879728971481323,-3.0043203479141,0.2522081897877156,5.380481908988952,8.194949547132849
1757088100316422100,2.140422119140625,-1.4668588638305664,-3.081634283065796,-1.9264581203460691,2.781974650818109,3.0858173123836514,-0.3380354385465383,0.0855307774297427,5.507421943250298,8.113655411759018
1757088100326469000,2.15046923828125,-1.0859296321868896,-2.011594533920288,-0.9777432084083556,-1.5745429808616638,6.062403850197792,3.1567712555289265,-0.0388498318394878,5.610825619101524,8.04285519787073
1757088100336515000,2.16051513671875,-0.7931395173072815,-1.1313629150390625,-0.1791756153106689,-0.8068027048528194,5.51853428889513,2.4275766910135745,-0.1333706061649602,5.686029620906711,7.98884654430747
1757088100346562000,2.17056201171875,-0.6950587630271912,-0.5122073292732239,0.1912389248609542,0.1386375045840628,3.1699457944005727,1.127892269295454,-0.1987916020997799,5.744713865065575,7.945383250156045
1757088100356609300,2.180609375,-0.6859607696533203,-0.3060932755470276,0.2533611953258514,0.3620832536101341,1.2305658773064612,0.2015408094763755,-0.2435701253019273,5.798959834516048,7.904627461397648
1757088100366655200,2.1906552734375,-0.7174468040466309,-0.3881268799304962,0.1167162731289863,0.6890595380038023,0.0830383486926555,-0.1477963598072528,-0.2814465957643464,5.853832995954155,7.862810765409469
1757088100376702200,2.2007021484375,-0.7508376836776733,-0.628488302230835,-0.0570214800536632,0.9344149392873048,-0.856252087676525,-0.4787924012362957,-0.3214993873525411,5.912207443511486,7.817468233382701
1757088100386749200,2.210749267578125,-0.6071739792823792,-1.0458565950393677,-0.0651571676135063,0.2619295559981838,-0.6490092671662568,-0.1151432134836912,-0.3823876443617046,5.966380932247638,7.773444967260956
1757088100396795400,2.22079541015625,-0.4514962434768677,-1.582946538925171,0.0743705332279205,-1.1063649126201869,0.2062958950489759,0.4829384149998426,-0.4841334334706887,6.007255378949642,7.736205662190914
1757088100406842000,2.230842041015625,-0.3168332278728485,-2.026008129119873,0.1900995373725891,-1.5367513026058672,1.078767880642414,1.1407353842556476,-0.6338920697942376,6.036500178134441,7.70254889178276
1757088100416889000,2.24088916015625,-0.2417402118444442,-2.041525363922119,0.2532416880130768,-0.8087199366509914,0.6451946773141622,1.2570990794450043,-0.8075161138191819,6.055876494255662,7.671028548881411
1757088100426935300,2.250935302734375,-0.4439396560192108,-0.98295921087265,0.0930283218622207,-0.937921997560188,-1.8827116889327764,0.3346820364654064,-0.9362889895308762,6.08109335309863,7.636362893691658
1757088100436982300,2.260982177734375,-0.5256117582321167,-0.003436507191509,-0.1315738707780838,-1.3514642933160066,-3.804399881991744,-0.312601137560606,-0.9709113170355558,6.118545424136519,7.602047367113828
1757088100447029000,2.271029052734375,-0.6541401743888855,0.4176430702209472,-0.3404785990715027,-1.0343393947206436,-3.738277012264728,-0.8945020310938357,-0.9380338604368268,6.165099670040607,7.568487627339363
1757088100457075200,2.2810751953125,-1.1479430198669434,0.541074275970459,-0.4220144748687744,-1.0933159728895872,-4.140341563129425,-1.3938836313724516,-0.8760646032579242,6.237811270508169,7.516155382555723
1757088100467121400,2.291121337890625,-1.4204493761062622,0.5833234190940857,-0.4466399252414703,-1.28014034781456,-3.849560627710819,-0.8896551755845546,-0.8070046571657061,6.33863311317265,7.439144623589515
1757088100477168600,2.301168701171875,-1.547737956047058,0.7779539823532104,-0.4407379329204559,-0.7420663210481405,-2.5470962198853493,-0.6755068134695291,-0.7284221188381313,6.453086590826511,7.348296477928757
1757088100487214600,2.311214599609375,-1.5878396034240725,0.893203616142273,-0.3571192026138305,-0.8976309037040918,-1.1987187866687774,-0.2019225022703409,-0.6421398928534239,6.571007452329993,7.25119979326725
1757088100497261600,2.321261474609375,-1.589943289756775,1.598889708518982,-0.2832480669021606,-0.823206142643094,0.4720096092283725,0.8415753275483846,-0.531463047661446,6.687849870947003,7.152664015713333
1757088100507307500,2.3313076171875,-1.511042833328247,2.185688734054565,-0.2589182257652282,0.0690904873609542,1.346752462363243,0.7636421930402517,-0.3770444567028433,6.800267458859086,7.05582042903006
1757088100517354500,2.3413544921875,-1.3391320705413818,2.4940781593322754,-0.2100012600421905,0.5749024129480124,2.198186920624971,0.1059738186001777,-0.1945234780602157,6.901725261339545,6.964104268363117
1757088100527401500,2.3514013671875,-1.1288245916366575,2.436223268508911,-0.0823034942150116,0.970879168331623,2.536176766464114,-0.3848497966915369,-0.0109536627931578,6.987658746951818,6.880618760424852
1757088100537447400,2.361447509765625,-0.9147438406944276,2.0636467933654785,0.1527000367641449,1.2136603352129458,2.3537597596526143,-0.4958388131052255,0.1432529259576462,7.057846381899714,6.8071034423589705
1757088100547494400,2.371494384765625,-0.7148085832595825,1.4656327962875366,0.486303299665451,1.0286743546962738,2.0937410422444342,-0.4491027808934449,0.2411501498796976,7.113909045383334,6.745702924978732
1757088100557541400,2.381541259765625,-0.5461783409118652,0.9351587295532228,0.819013774394989,0.3726479387769475,1.6581833871006966,-0.5461579645007848,0.2745345878861844,7.157866260531544,6.697760439586639
1757088100567587300,2.39158740234375,-0.5251151323318481,0.5366592407226562,1.0195984840393066,-0.3124187667310237,1.0661182424277067,-0.930173648455739,0.2566034290719777,7.195522914230823,6.658001845172048
1757088100577634600,2.401634521484375,-0.6288197636604309,0.0771432667970657,1.009793400764465,-0.502104303240776,0.4413561122894286,-0.9898211846888064,0.2028296254442073,7.236100423812866,6.615746173244714
1757088100587681500,2.411681640625,-0.8260025978088379,-0.3550603687763214,0.7918366193771362,-0.2904863546525128,-0.0477677133470773,-0.3717693658441305,0.1263342595210764,7.285139472270012,6.563623187297583
1757088100597727500,2.4217275390625,-1.0334714651107788,-0.4865585267543793,0.4534289836883545,-0.0499742880472214,0.0489063619881868,0.1077075105249881,0.0513206109225284,7.347381116649508,6.4949015332490205
1757088100607774500,2.4317744140625,-1.0401126146316528,-0.335986316204071,0.2301524877548217,-0.1958633483618497,-0.1258165831893682,0.8025169903576373,-0.0004612229835545,7.415262812742591,6.417497391051054
1757088100617821400,2.441821533203125,-0.9328409433364868,-0.0673903003334999,0.1513565331697464,-0.5162216759204864,-0.0623778379797935,0.792746706971526,-0.0278605463187443,7.479017199772596,6.343022288042307
1757088100627867400,2.451867431640625,-0.6818912625312805,0.3656143844127655,0.1634376943111419,-0.1440273626625537,0.1788999386012554,0.6074573595941066,-0.030300365802471,7.530579044705629,6.281707695379853
1757088100637914400,2.461914306640625,-0.3687148094177246,0.7335524559020996,0.2387775927782058,0.3165682876259088,0.0794295105457305,0.4462397926777601,-0.0096618009182915,7.563609792169928,6.241961960446834
1757088100647960300,2.471960205078125,-0.0864849835634231,0.6231210231781006,0.3082546591758728,0.6864706905543804,-0.0512958874732255,-0.1187117196202278,0.0141330371813673,7.5774682216525076,6.225121884804964
1757088100658007300,2.48200732421875,0.1289361119270324,0.147412821650505,0.2776693701744079,0.6274351487398148,-0.5795481929272412,-0.6223118143767118,0.0151088690767355,7.576303269526362,6.226539350387454
1757088100668054500,2.492054443359375,0.2843754887580871,-0.2608281970024109,0.0500987842679023,0.1339180565804243,-1.234600247389078,-0.8110831586509942,-0.0008903061822726,7.562325597578287,6.243526725545525
1757088100678100500,2.5021005859375,0.2292638421058654,-0.4997736811637878,-0.189720019698143,-0.5686188026338815,-1.307837333035469,-1.0522598129451275,-0.0211030097663751,7.545480845761299,6.263838861212134
1757088100688147500,2.5121474609375,0.0083913877606391,-0.4297437369823456,-0.4580934345722198,-0.8347375904828309,-1.0304074620991943,-0.6852303351044654,-0.0270255065669771,7.537848743447661,6.272998319223523
1757088100698194400,2.5221943359375,-0.1545326560735702,-0.11302200704813,-0.6648626923561096,-0.8028922534108162,-1.2887427564650773,0.2208230175733566,-0.0011108387563988,7.542996043208241,6.266864931035041
1757088100708240400,2.532240478515625,-0.217853844165802,-0.0335740596055984,-0.7446661591529846,-0.6415653809010982,-1.596137557554245,0.9206652308762072,0.0498983093347167,7.554855407828092,6.252362358430028
1757088100718287400,2.542287353515625,-0.2452045232057571,-0.2253084331750869,-0.7220548391342163,-0.3763140235364436,-1.327914490902424,0.9399468544512988,0.0979879800785798,7.568701562350988,6.235027192747593
1757088100728334300,2.552334228515625,-0.3446871638298034,-0.327463835477829,-0.7208982110023499,-0.0811643715143203,-1.324411451217532,0.5323381134629249,0.1342856569169555,7.585847342941165,6.2134747016310685
1757088100738380500,2.562380615234375,-0.5046814680099487,-0.2340825200080871,-0.7776824831962585,0.1072924999833107,-1.4392986441135405,0.0322001418590545,0.173577866795659,7.611251248788833,6.181351716661453
1757088100748427300,2.57242724609375,-0.5724416375160217,-0.1841517090797424,-0.8214078545570374,0.3077051822125911,-1.0199497809708118,-0.1765221035540103,0.222461067103967,7.643359036189318,6.14002952619195
1757088100758474500,2.582474609375,-0.5974181890487671,-0.2119633108377456,-0.8362268209457397,0.4573416169285774,-0.4960036482781171,-0.2150432651281356,0.2745353550711646,7.677112252709269,6.095651455283164
1757088100768520700,2.592520751953125,-0.583006739616394,-0.3550688028335571,-0.7591226696968079,0.5392635288119316,-0.0305868614435195,-0.4496563231229782,0.3201048277216032,7.71103614962101,6.050442194247245
1757088100778567700,2.602567626953125,-0.5194194316864014,-0.4844456017017364,-0.5887861847877502,0.4346353161344304,0.8035697142809629,-0.1053881276667118,0.3466222477691247,7.742085367879271,6.009190730926394
1757088100788613600,2.612613525390625,-0.5130835175514221,-0.4777360260486603,-0.3941288292407989,0.1340705802610144,1.057977021548152,0.3535281912326812,0.3556929315185174,7.771239566171169,5.970904547151923
1757088100798660600,2.62266064453125,-0.4956764876842499,-0.3202255070209503,-0.1520828455686569,-0.2017851761588826,1.0033815080076456,0.2730950566023588,0.353069231951423,7.800695962280034,5.932525424396991
1757088100808707600,2.63270751953125,-0.4571322798728943,-0.0911670252680778,0.1086249053478241,-0.36109895528052,0.965731868571043,-0.1407908649593591,0.3425437828164547,7.828918432679772,5.895852521038055
1757088100818753500,2.64275341796875,-0.4557643532752991,0.0337162017822265,0.3187162578105926,-0.4224737171649932,0.996256186172366,-0.5930623390167952,0.324161738429591,7.856454089859127,5.860156353756785
1757088100828800500,2.652800537109375,-0.4317796528339386,-0.0367891229689121,0.448361873626709,-0.5424246231913566,1.3847609982401132,-0.7819967648983002,0.2938768921399489,7.883792178639769,5.824933649206161
1757088100838847500,2.662847412109375,-0.403702050447464,-0.2518633008003235,0.4733782112598419,-0.7167267126083373,1.740117573943734,-0.7587935839653015,0.248809487260133,7.909562579712271,5.792004024028778
1757088100848893400,2.6728935546875,-0.3463934957981109,-0.4792924523353576,0.4319401979446411,-0.7332441321671008,1.7547832281559703,-0.8141524830937386,0.1909580406635999,7.932455379521846,5.762817092511058
1757088100858940400,2.6829404296875,-0.2845038771629333,-0.5934011340141296,0.3438651859760284,-0.4541372679293155,1.5067729284495115,-0.6916051308333874,0.1283762319437693,7.951370507872104,5.738432008317113
1757088100868987600,2.692987548828125,-0.2191214114427566,-0.6328697204589844,0.2546631097793579,-0.0474830603199545,1.0823632747858762,-0.4954793321430683,0.0691806863950565,7.9660718179196115,5.719028219667076
1757088100879033600,2.70303369140625,-0.1774084866046905,-0.6685664057731628,0.218913048505783,0.3616834406375885,0.7258774027913808,-0.2020627875238657,0.0133085165403259,7.977494544687866,5.703489289751649
1757088100889080600,2.71308056640625,-0.142310693860054,-0.6973311901092529,0.2293640971183776,0.4929898534148931,0.5544967537790536,0.1988029089450836,-0.0437774792337091,7.986668615746497,5.690484846749902
1757088100899127600,2.72312744140625,-0.1098145022988319,-0.6670545339584351,0.2415830492973327,0.3570131107389926,0.4174912525773048,0.3781348092228174,-0.1018808045323472,7.993638454759121,5.679942994469404
1757088100909173500,2.733173583984375,-0.1034945547580719,-0.5588551163673401,0.2522372901439667,0.1639987220674753,0.3082610625296831,0.2344616668254137,-0.1568161170870065,7.999318838483095,5.670687090346217
1757088100919220500,2.743220458984375,-0.1131245121359825,-0.4679929912090301,0.2441479563713073,-0.0034118542701005,0.1885544866532087,0.0213999309033155,-0.2059311533898115,8.005002144816517,5.661088071873784
1757088100929266400,2.753266357421875,-0.1389718204736709,-0.4436788558959961,0.1906650215387344,-0.0563607331147417,0.021356091761589,-0.1102706390112638,-0.2493490009643137,8.011488584226369,5.650152836361527
1757088100939313400,2.7633134765625,-0.1952484846115112,-0.3999216556549072,0.1266385316848755,-0.1632768375337124,-0.0010597381860017,-0.2035404588609933,-0.2863838877697475,8.02043878340125,5.635685335069894
1757088100949360400,2.7733603515625,-0.2406511157751083,-0.2556009888648987,0.0739825069904327,-0.2350461887151002,0.0001198269873857,-0.2700876914799213,-0.3132256991997361,8.032575795918703,5.616937964501977
1757088100959406300,2.78340625,0.0770283043384552,-0.1596141755580902,-0.0081708719953894,0.0064028527796268,0.4154588699668645,-0.0296697465986013,-0.3273753301812335,8.039813930478692,5.605765413102508
1757088100969453600,2.79345361328125,0.2367263585329055,-0.1213845089077949,-0.087837740778923,0.5792676589528098,1.051134023785591,0.0188350488513708,-0.3311685119191184,8.029324685168266,5.620556739521026
1757088100979500500,2.80350048828125,0.0961943939328193,-0.0008388087153434,-0.0613580755889415,0.4176215644260868,-0.3504845857530832,-0.3784124571204185,-0.3282880976445972,8.01971222269237,5.634433873704076
1757088100989546500,2.81354638671875,-0.1635484993457794,0.1950329691171646,-0.0147080197930336,-0.1523123759269714,-0.7727998974859714,-0.0135743518441915,-0.3208416175635531,8.021394476690888,5.632466373023391
1757088100999593500,2.823593505859375,-0.4850674271583557,0.6134405136108398,-0.1542708724737167,-0.3217459825247526,-1.6853543026208877,-0.4352876060307025,-0.2929652754540555,8.039715730801225,5.607810655194521
1757088101009640400,2.833640380859375,-0.6511262059211731,0.8958543539047241,-0.3069312572479248,-0.4463087662607431,-2.2584505429297685,-0.8181400914251804,-0.2294547619162127,8.07366651571989,5.561801768213511
1757088101019686400,2.843686279296875,-0.5391366481781006,0.799058198928833,-0.2767284214496612,-0.3484522031426429,-0.6721177555531263,-0.368987626171112,-0.1576218805119395,8.10760970185399,5.514724959740042
1757088101029733400,2.8537333984375,-0.5059971213340759,0.7149829864501953,-0.2854795753955841,-0.0615764676021877,0.0424152464032173,-0.1587596523702144,-0.0935978827603161,8.136328431338072,5.473738284835219
1757088101039779300,2.863779296875,-0.4827329516410827,0.7747504711151123,-0.2929695844650268,0.1638397321134805,-0.1190349602252244,-0.0336573549300432,-0.0288664651084109,8.163851813557743,5.433330286601185
1757088101049826300,2.873826416015625,-0.4265474677085876,0.8449852466583252,-0.2361052334308624,0.2824269485712051,0.0863677853763103,0.2311228777915239,0.0364505544287036,8.188741340142489,5.395699936386943
1757088101059873500,2.88387353515625,-0.3611440360546112,0.9102919697761536,-0.1341731995344162,0.3125239806711674,0.1494984875500202,0.2492863109916448,0.099278156886436,8.209855439841746,5.362721795892715
1757088101069919500,2.89391943359375,-0.3507097661495209,1.0453866720199585,-0.0433088168501853,0.3005330803598277,0.0267407074093818,0.2571761874586343,0.1587052005029283,8.228466032287479,5.33268555406928
1757088101079966500,2.903966552734375,-0.3489818572998047,1.2860851287841797,0.0484013259410858,0.2592144152879714,-0.2614952197015285,-0.2783890713572502,0.2211223658461123,8.24720521954894,5.301424738886952
1757088101090013400,2.914013427734375,-0.3932673037052154,1.400652289390564,0.1723142117261886,0.083923296567332,-0.4682043717265128,-0.7640694785416126,0.2837368438596837,8.266866782352327,5.267711854377389
1757088101100059400,2.924059326171875,-0.5362899303436279,1.3575410842895508,0.2439055144786834,-0.2396890826174989,-0.8968348579555749,-1.3710557134926318,0.3390487437749281,8.291775013637542,5.225121251407265
1757088101110106400,2.9341064453125,-0.7374160885810852,1.2423263788223269,0.2977652847766876,-0.5634113336512818,-1.521539120426774,-2.0619167479604483,0.3847441808925941,8.326009291672706,5.167195716661214
1757088101120153300,2.9441533203125,-0.9699758887290956,0.8956447839736938,0.3405839800834656,-0.7528384749531746,-1.9548931280463933,-2.364395135435462,0.4136103925559669,8.371203355139494,5.091390241831541
1757088101130199600,2.954199462890625,-1.1985033750534058,0.4348031878471374,0.3314554691314697,-0.8546504976987839,-2.1696067228287457,-2.3592782308131457,0.4189056494198739,8.427751756313443,4.996791219204664
1757088101140246300,2.964246337890625,-1.3368219137191772,-0.0839242935180664,0.3019828498363495,-0.7919570178985595,-2.2649212002485988,-1.7899936577469109,0.4003554088592529,8.492240887358784,4.887941552907228
1757088101150293500,2.97429345703125,-1.4106789827346802,-0.3618730902671814,0.3671879768371582,-1.0554115549743175,-1.999674519059062,-1.3835180124416946,0.3607934695279226,8.560235980698465,4.771014086355269
1757088101160339700,2.984339599609375,-1.548088312149048,-0.6174768805503845,0.4877545237541199,-1.2168331200301647,-1.774491552710533,-1.1156342607468366,0.3006023279374465,8.631334885272382,4.645435403575003
1757088101170386400,2.994386474609375,-1.7057857513427734,-0.8287203907966614,0.5894494652748108,-1.2314555196225645,-1.831834903654456,-0.91107439571023,0.2197556075375527,8.707682796415686,4.5053696380198
1757088101180432600,3.0044326171875,-1.7960221767425537,-1.107230544090271,0.6341538429260254,-1.1109060631811618,-1.1735767466276883,-0.4387161191746592,0.1228492304169107,8.786838750717044,4.352786920718849
1757088101190479600,3.014479736328125,-1.8767067193984983,-1.38841712474823,0.615959644317627,-0.8861293395459652,-0.0202589441746473,0.1670692155539989,0.012843694915506,8.865787784269452,4.191425853678584
1757088101200526600,3.024526611328125,-1.9623793363571167,-1.4732362031936646,0.4718877971172333,-0.7691846295982598,0.7453986803412437,0.614284575265646,-0.0952720904496964,8.945134292706847,4.018196946451067
1757088101210572500,3.034572509765625,-1.9365779161453247,-1.724034309387207,0.4224869608879089,-0.5141308411210775,0.878701235371828,0.9754705877751112,-0.1970966530164703,9.021472266978025,3.8398675012141466
1757088101220619500,3.04461962890625,-2.007391929626465,-1.874069333076477,0.4086006581783294,0.2830541405588388,-1.4787375050544738,-0.1331792209118604,-0.3052003780511207,9.094394295325875,3.656396601435542
1757088101230666500,3.05466650390625,-2.076918125152588,-1.7936818599700928,0.3002073466777801,0.8082505655735731,-2.7264702057391403,-0.3090636110842227,-0.403480847403407,9.166274121144411,3.462227197510004
1757088101240712400,3.06471240234375,-1.9965347051620483,-1.6764451265335083,0.1474387049674987,1.4812011186890304,-3.1577801403105257,-0.2257359240561723,-0.4825198242615908,9.234564982560276,3.265026170803606
1757088101250759400,3.074759521484375,-1.7366846799850464,-1.7759472131729126,0.1451555788516998,1.655466529357433,-3.956524041870236,-0.2468000471338629,-0.5526374627131968,9.293497648522257,3.0815342282369733
1757088101260806700,3.084806640625,-1.4045835733413696,-1.5229610204696655,-0.0293720532208681,1.1091589272528886,-2.6504560565948485,0.1035056749209761,-0.6093694402931258,9.34060368309021,2.924411237157881
1757088101270852600,3.0948525390625,-1.1329669952392578,-1.2046130895614624,-0.2013430148363113,0.7009084542948752,-1.71731595954895,0.0146609780371189,-0.6370130513589829,9.377563002175092,2.7974782171592114
1757088101280899600,3.104899658203125,-0.9934333562850952,-0.8853386640548706,-0.2310602664947509,-0.0694523794759064,-1.4202005604118109,-0.2905062101304531,-0.6440196421854197,9.408155708837509,2.6911425795093176
1757088101290945500,3.114945556640625,-0.9943771958351136,-0.670642077922821,-0.0464323721826076,-0.7654121983874589,-0.4293780897259712,-0.4260939534887671,-0.650459027583152,9.435318441051244,2.592697110587358
1757088101300992500,3.124992431640625,-1.1045572757720947,-0.5107137560844421,0.193389430642128,-0.8937432486157864,0.4238064270734786,-0.6687617231234908,-0.672962608879432,9.461403314900398,2.489851068618893
1757088101311039500,3.13503955078125,-1.3692944049835205,-0.2573510110378265,0.2413923740386963,-0.4477132992964238,0.763915749284625,-0.9816722188942134,-0.70539407527633,9.489701188623904,2.3703088895238933
1757088101321085400,3.14508544921875,-1.6647719144821167,0.1425086110830307,0.1641979813575744,0.3954192676313221,-0.482879962810874,-1.2502305088497698,-0.7259686612714081,9.523384262517094,2.224520362407714
1757088101331132400,3.15513232421875,-1.952113389968872,0.5309463143348694,0.0869359448552131,0.7776561784107238,-1.1306757625341417,-1.2122642046794294,-0.7309693921681493,9.561108136233686,2.0545742762431503
1757088101341179400,3.165179443359375,-2.2028937339782715,0.8044264912605286,0.0370821207761764,0.991124157046154,-0.9915472778290508,-1.2824009862229226,-0.7229734980434179,9.601694413644076,1.85880503590554
1757088101351225300,3.175225341796875,-2.3871378898620605,0.9040108919143676,0.0406385064125061,1.1327257538665083,-1.1618237649917602,-1.09097211317718,-0.7116452446255832,9.641786185535787,1.6431347249202428
1757088101361272600,3.1852724609375,-2.4886257648468018,0.7017679214477539,-0.2575233876705169,1.4414450084924697,-1.6622534130185842,-0.991490140814334,-0.6926582931481301,9.680284550756216,1.4080812296815215
1757088101371319600,3.195319580078125,-0.780337929725647,0.8465480208396912,-0.4942065179347992,3.4906998432785272,7.230606502571701,4.985733818617463,-0.6390562476243823,9.707771108096836,1.2333541928507388
1757088101381365500,3.205365478515625,0.8442369103431702,1.9705320596694944,0.0559934824705123,-6.082144323456287,16.126156972420215,10.013194316852092,-0.6089012017268687,9.707575877785684,1.2500279720149934
1757088101391412500,3.21541259765625,1.230260968208313,1.5985476970672607,-0.2801448404788971,-2.3257348576515917,16.34108567125797,1.870594111768156,-0.5758879168540239,9.69316449059546,1.371603995025158
1757088101401458400,3.22545849609375,0.5688100457191467,0.4680362343788147,-0.5973619818687439,0.4624585580835119,7.202751111918688,-0.9193163004852832,-0.5173753394676373,9.682355511811377,1.4678876097381115
1757088101411505400,3.23550537109375,0.2497753351926803,-0.1282851994037628,-0.6250264048576355,-0.311351429760456,1.6309510967820882,-0.6693342623144388,-0.453895531595312,9.679856096211076,1.50491064170897
1757088101421552400,3.245552490234375,-0.0782991424202919,-0.361115962266922,-0.1180976182222366,-0.3306997253635898,0.6471212614625692,0.8398908815927802,-0.4183864478513598,9.679819271332024,1.5154052938468754
1757088101431598300,3.255598388671875,-0.6764203310012817,-0.6825717687606812,0.3038349747657776,-0.7448392928928136,-2.893243653216958,0.1341620944693684,-0.4375969058863818,9.68529448787272,1.4744421459481118
1757088101441645300,3.265645263671875,-0.6790007948875427,-0.7801417112350464,0.4679337441921234,-0.6008779812037944,-1.0787573592483997,1.5275792773738504,-0.4872868194676935,9.693692898383736,1.4018760914310813
1757088101451692500,3.275692626953125,-0.4973090291023254,-0.8816494345664978,0.3653594553470611,-0.4134574670165777,1.780918370887637,-0.0185119543768465,-0.5406320041535422,9.6995778647691,1.3402610545173286
1757088101461739000,3.285739013671875,-0.3146820068359375,-0.9535908102989196,0.1585832983255386,1.043272788891196,1.475980899822712,-1.0922335114151238,-0.5787975937556475,9.703444477069375,1.2955910149246457
1757088101471786000,3.295785888671875,-0.1283363550901413,-0.6294257640838623,-0.0415918789803981,1.0624556282669304,0.6791571526706218,-0.7601980439357459,-0.5948379703871906,9.70599182346463,1.2689657505884766
1757088101481833200,3.305833251953125,0.0501143410801887,-0.0547326579689979,-0.2295279502868652,0.9450403781980276,-0.0269558114647865,-0.8916571630567312,-0.5863590054532513,9.707162036287784,1.2639553750805557
1757088101491879000,3.31587890625,0.198320060968399,0.5394688844680786,-0.4286075234413147,1.1842138759762049,-0.3713905956596136,-1.2966041374899446,-0.5509476829953491,9.70742974731326,1.2777496532857415
1757088101501926100,3.325926025390625,0.3273646831512451,0.881299614906311,-0.5708239674568176,0.8027940537333488,-0.5009317523300647,-1.03363738393113,-0.4925953742045909,9.706487498027084,1.3083720244340598
1757088101511972000,3.33597216796875,0.2904476821422577,0.9289584755897522,-0.6525760889053345,0.5659405233353376,-0.4468529561400413,-0.9877530001126228,-0.4201935703385621,9.7050811383605,1.3435912218533457
1757088101522019000,3.34601904296875,0.1409367322921753,0.7678887844085693,-0.6675493717193604,0.2337772282252088,-0.6379185488313436,-0.6677344259023666,-0.3437609035212546,9.704610598239302,1.3684871781788766
1757088101532066000,3.356066162109375,-0.0536026656627655,0.4191762804985046,-0.6118903756141663,-0.2229734736055135,-0.7455746214300394,-0.4001771296828985,-0.2726264527099207,9.706024556690451,1.3744675677627325
1757088101542112000,3.366112060546875,-0.1684661209583282,0.0613305307924747,-0.4842175841331482,-0.8530775492936372,-0.3552788342922925,-0.1239545887097716,-0.215634308090154,9.7089746386677,1.3637019897289573
1757088101552159000,3.376158935546875,-0.1539236754179,-0.1892039477825164,-0.3286274671554565,-1.2198311328023672,-0.0480149661064147,0.0120941962890326,-0.1768864616206847,9.712060329723355,1.3472136501342058
1757088101562206000,3.3862060546875,-0.0825885087251663,-0.3176276981830597,-0.1517434865236282,-1.3449948050409557,0.0530944613277912,-0.0071001873940229,-0.1569179517599754,9.71405179580152,1.335283704496175
1757088101572252200,3.396252197265625,-0.0243904534727334,-0.3744561076164245,0.0313488245010376,-1.4904413868516682,0.0944879634678363,0.0348548941515386,-0.1558717671752907,9.714855513399838,1.3295407769300045
1757088101582299000,3.406298828125,0.0293114650994539,-0.3583678007125854,0.1965701133012771,-1.4172685986131428,-0.1552998673051595,0.1287920918688178,-0.1720324274519458,9.714598908290268,1.3294262106396255
1757088101592346000,3.41634619140625,0.0679070577025413,-0.2199246883392334,0.3428138792514801,-1.2842372617393731,-0.3222130155146122,0.1478914907447993,-0.2025622066796757,9.713469027477505,1.333371002742648
1757088101602392300,3.426392333984375,0.1062305718660354,-0.0528808273375034,0.4468899071216583,-1.0225579176425934,-0.5173492186456918,0.2312204929471016,-0.2430769166911952,9.7113834533751,1.3417699977755546
1757088101612439000,3.43643896484375,0.140309989452362,0.1303755491971969,0.5210978388786316,-0.7109218257218599,-0.4953653503745794,0.057874681341648,-0.2900042702239938,9.70840356078148,1.353956256262213
1757088101622486000,3.446486083984375,0.1985682994127273,0.2837332487106323,0.5606687068939209,-0.3816161850651726,-0.3443973747938871,-0.1932441057741641,-0.3400859413355588,9.704378543049096,1.371041538836807
1757088101632532200,3.4565322265625,0.2800613045692444,0.3852388262748718,0.5518181920051575,-0.215497402103804,-0.1787736818730831,-0.3594030746154487,-0.3899363792408257,9.699016139233112,1.395493550787121
1757088101642579200,3.4665791015625,0.3377441465854645,0.4456739425659179,0.5114278793334961,-0.1063823994010686,-0.0849076496958732,-0.477816249680519,-0.4359042035590857,9.692389414569735,1.427565974613279
1757088101652625200,3.476625244140625,0.3584901690483093,0.498086005449295,0.4518915712833404,-0.0400928678702563,0.0786193632066249,-0.5789237774185836,-0.4760068987036123,9.685083475470542,1.463880419923365
1757088101662672100,3.486672119140625,0.3373826742172241,0.4578467011451721,0.3674534261226654,0.1908557493329048,0.2456815644979476,-0.6107799281455576,-0.5086862754469738,9.67783481951654,1.5003754824973643
1757088101672719000,3.496718994140625,0.2918037176132202,0.3830031156539917,0.2853588163852691,0.3122264590293169,0.4362701873272657,-0.6181714997015894,-0.533989533931762,9.671301033833622,1.5333550842963155
1757088101682765000,3.50676513671875,0.2303837239742279,0.2954058945178985,0.2186719328165054,0.3911959873804822,0.528796495333314,-0.589324175401777,-0.5531039111811668,9.665863226693869,1.5606217152759432
1757088101692812300,3.516812255859375,0.1482102870941162,0.2068028151988983,0.1686492562294006,0.4169143294721841,0.6002449439972639,-0.442348484327644,-0.5678987081984058,9.661752284243702,1.580641736128181
1757088101702859300,3.526859375,0.0633131265640258,0.1001386567950248,0.1272902190685272,0.5107634470472112,0.6085995153665542,-0.2298410212874412,-0.579746345847845,9.659233579421045,1.5916927069745956
1757088101712905200,3.5369052734375,-0.0076593197882175,0.0816328823566436,0.1191103234887123,0.5549339761525393,0.4653279395073652,0.0056935354664921,-0.5902483775746077,9.658105452173947,1.5946804906137286
1757088101722952200,3.5469521484375,-0.0401222221553325,0.081902801990509,0.1004868149757385,0.6230319453448057,0.1903781949490308,0.3048886634871363,-0.5998380436968058,9.657871058896184,1.5925160060562191
1757088101732998100,3.556998046875,-0.0413976088166236,0.1216004118323326,0.0742815732955932,0.6450866138298064,0.0690478172630071,0.4670381044261157,-0.6067790950063615,9.657993808493018,1.5891320627063512
1757088101743045000,3.567045166015625,-0.028587382286787,0.202637180685997,0.0328077748417854,0.5490864191681146,-0.0122901572525501,0.5925204872250557,-0.6095401937501504,9.658229370814562,1.586651790197939
1757088101753092000,3.577092041015625,-0.0141642354428768,0.2538841068744659,-0.0264259874820709,0.5729255599170923,-0.1203425356924533,0.6636692222900689,-0.6062945263598114,9.658542674547434,1.585982366503775
1757088101763138000,3.587137939453125,0.0042509986087679,0.2493763715028762,-0.0839897617697715,0.4456775556851178,-0.1497913330167531,0.6491543747253715,-0.5968117181455717,9.658961192220447,1.587029829730093
1757088101773185000,3.59718505859375,0.0264082327485084,0.1831800490617752,-0.1298033148050308,0.2673182632992044,-0.1407487793833017,0.6205896667592227,-0.5829037139002233,9.659345807623865,1.5898568698495623
1757088101783232300,3.607232177734375,0.0425742827355861,0.1021875068545341,-0.1565805673599243,0.1167254411738365,-0.1088596031695604,0.4921041566215455,-0.5666858983425423,9.65963046978414,1.5939939696542915
1757088101793278200,3.6172783203125,0.0634201765060424,0.0311820358037948,-0.1650592684745788,-0.0670289517212659,-0.0984527754455804,0.3534770455673336,-0.5499271443085745,9.659698274323343,1.5994436133623122
1757088101803325200,3.6273251953125,0.0809420123696327,-0.0313222594559192,-0.1686269044876098,-0.1801139540335163,-0.1068763203978538,0.2309175644777715,-0.5336572332374752,9.65944108469188,1.6064825720883904
1757088101813372200,3.6373720703125,0.0952706187963485,-0.082926332950592,-0.1652862429618835,-0.2267073994368314,-0.1084025070518255,0.1387538061738014,-0.5184878672868013,9.658872929415104,1.614849272286892
1757088101823418000,3.647418212890625,0.0963264480233192,-0.1114607900381088,-0.160492941737175,-0.2813093427181243,-0.1039519573837518,0.0260394272722303,-0.5042881135532632,9.658163319841028,1.6235655165754257
1757088101833465000,3.657465087890625,0.0892791897058487,-0.1063605695962905,-0.1476799398660659,-0.3176362821836024,-0.0779004012823104,-0.0431032286673784,-0.4911548565400764,9.657401687818766,1.632105089122802
1757088101843511000,3.667510986328125,0.0773423537611961,-0.0841357037425041,-0.1303690373897552,-0.3289595671653747,-0.0285790287524461,-0.1422873871274292,-0.4792328750127926,9.656711367467045,1.6397108879514035
1757088101853558000,3.67755810546875,0.0623506195843219,-0.0457291975617408,-0.1051544919610023,-0.3627397447574883,0.0457844305753707,-0.2203023547001183,-0.468796346270293,9.656120415836572,1.6461992270573973
1757088101863605000,3.68760498046875,0.047488447278738,-0.0004016257007606,-0.0759696662425994,-0.394375713395141,0.06602116291821,-0.2876204255610704,-0.4603541696827858,9.655634093624354,1.6514172539666294
1757088101873651000,3.69765087890625,0.0322533026337623,0.0398219600319862,-0.0446093529462814,-0.4577279493650421,0.0749456431299448,-0.380227982109785,-0.4541637175448239,9.655238372305035,1.6554394952200353
1757088101883698000,3.707697998046875,0.0201784949749708,0.0586370602250099,-0.0137177677825093,-0.4908685869446024,0.0543190346866846,-0.4455047564014792,-0.4505012495145201,9.654916885265708,1.6583172426134347
1757088101893745200,3.7177451171875,0.0100528905168175,0.0448056682944297,0.0094205737113952,-0.4945061397293582,0.0386924264878034,-0.4996925659239292,-0.4494080839829519,9.654683076509832,1.659982691607624
1757088101903791000,3.727791015625,0.0101844668388366,0.0065497439354658,0.0234576743096113,-0.4517781375825405,0.0259106863260269,-0.5170305080853402,-0.4506859949642792,9.65444459157884,1.6610101349592208
1757088101913838000,3.737838134765625,0.0142905274406075,-0.0407820865511894,0.0242648776620626,-0.3580892155379057,-0.0073030164897441,-0.5411090105481445,-0.4533956923143938,9.654140055674311,1.662044300312549
1757088101923885000,3.747885009765625,0.0174969658255577,-0.0829939097166061,0.0204587653279304,-0.2678209155917167,-0.0374514865159988,-0.5634937147051096,-0.4567243618130683,9.653762454533576,1.663330248469859
1757088101933931000,3.757930908203125,0.0198029968887567,-0.1226100251078605,0.0138413421809673,-0.1814016557564959,-0.0582967061460018,-0.5399148323275148,-0.4600944958332926,9.653359134429692,1.6647404075287282
1757088101943978000,3.76797802734375,0.0166079029440879,-0.1534010618925094,0.007524917833507,-0.1066319902479648,-0.0501589923977851,-0.5141467693425714,-0.4633376424729823,9.653002576076984,1.665907259351015
1757088101954024200,3.778024169921875,0.0101691763848066,-0.170805349946022,-0.000980420038104,-0.0675175389558076,0.0425771589666605,-0.5257281938038766,-0.4663896504547447,9.652742463836072,1.6665652848683297
1757088101964071000,3.78807080078125,0.005911499261856,-0.1687010079622268,-0.0059459139592945,-0.0529500844210386,0.1598895331829786,-0.4796092705771326,-0.4689856582973152,9.652595748841762,1.6666843812033534
1757088101974118000,3.798117919921875,-0.0082040540874004,-0.1572105288505554,-0.0146363414824008,-0.0270376445293426,0.237650233733654,-0.4131098226226866,-0.4708069554403424,9.652647186768055,1.6658759874299167
1757088101984164000,3.8081640625,-0.0168665722012519,-0.1276072561740875,-0.0254031661897897,-0.034730610184744,0.278510651910305,-0.3514176288194954,-0.471343656132929,9.65293827866912,1.6640391273915769
1757088101994211000,3.818211181640625,-0.0170031916350126,-0.079469546675682,-0.0427648462355136,-0.0026146394778043,0.2878016273468732,-0.2719682445295155,-0.4697911294613033,9.653373747476936,1.6619522381149232
1757088102004258000,3.828258056640625,-0.019555052742362,-0.0343755856156349,-0.054621148854494,0.0139279875874519,0.2566086167037487,-0.1655899367816746,-0.4659831520130857,9.653890464827418,1.6600206855304538
1757088102014304300,3.83830419921875,-0.0179230663925409,0.0017917403019964,-0.0594811476767063,-0.0087147099185734,0.164165310806036,-0.0602178834669291,-0.4606987818693742,9.654456282016634,1.6581978540174662
1757088102024351200,3.848351318359375,-0.0190630815923213,0.0207984335720539,-0.0549126714468002,-0.0497217700242996,0.0200683900386095,0.0180916831381618,-0.4548560837231576,9.655050740778446,1.6563531029336154
1757088102034398000,3.85839794921875,-0.0180018115788698,0.0270323604345321,-0.0449607037007808,-0.0937433921782299,-0.1607867742836475,0.0919441242039203,-0.4495908201387152,9.655594346135857,1.6546265714019537
1757088102044444200,3.868444091796875,-0.0167196281254291,0.0237015075981616,-0.0344002433121204,-0.1702017048934474,-0.292940159279108,0.1643053037986159,-0.445257942033559,9.65606547077894,1.6530435399942098
1757088102054491100,3.8784912109375,-0.0179303027689456,0.0173282977193593,-0.0221758000552654,-0.2295365219155326,-0.3300210589170456,0.2599069275967776,-0.4421865717642009,9.656485157495736,1.6514144774876534
1757088102064537000,3.888537109375,-0.0141683751717209,0.0153448954224586,-0.0104785952717065,-0.2955505975058302,-0.293702960345149,0.3730534143052995,-0.4403669185889884,9.656825933757425,1.6498972047924994
1757088102074584000,3.898583984375,-0.0084756016731262,0.0175350792706012,0.0080213192850351,-0.3253080223878845,-0.2131166809797287,0.4839025838568806,-0.4399386101743206,9.657044544944169,1.6487323987968263
1757088102084631300,3.90863134765625,0.0009680847870185,0.0211026016622781,0.0310145709663629,-0.3064279288183897,-0.1837444560229778,0.5443585138633847,-0.4414604859793558,9.65700012128055,1.6485801308445631
1757088102094677200,3.91867724609375,0.0106041999533772,0.0264307875186204,0.0570451021194458,-0.2747492535501718,-0.1529214477360248,0.5861519751064479,-0.4453071149375289,9.65670493772626,1.6492841874606907
1757088102104724200,3.92872412109375,0.0159069653600454,0.038803718984127,0.0761345252394676,-0.1922545102149248,-0.1678098047882318,0.5875641799919307,-0.4513369331536814,9.65618062159121,1.6507152431771157
1757088102114771200,3.938771240234375,0.0225158669054508,0.0574679523706436,0.082661934196949,-0.079434186720848,-0.1740010606437921,0.5312850972786546,-0.4583636169200762,9.65548854767382,1.6528253671988844
1757088102124817200,3.948817138671875,0.0317334197461605,0.0952440723776817,0.0782648846507072,-0.0195447314906865,-0.2303209137588739,0.4598372331365942,-0.4649819390812888,9.654648005196451,1.6558891386836767
1757088102134864100,3.958864013671875,0.0451014228165149,0.143385499715805,0.0652156621217727,0.0220084181904792,-0.2410229250371456,0.3867769653618335,-0.4700236595755442,9.653677114337682,1.660115670337528
1757088102144910000,3.96891015625,0.060803297907114,0.184397280216217,0.0519218407571315,0.0421095414549112,-0.215786776971817,0.3363637059420347,-0.4729163488097488,9.652532620477675,1.665937069967389
1757088102154957000,3.97895703125,0.0786387547850608,0.1893936395645141,0.0490650683641433,0.0307101955622434,-0.1458469793051481,0.2616559632211923,-0.474535255248472,9.65112626081109,1.6736071662038563
1757088102165004000,3.989004150390625,0.0908632725477218,0.153159886598587,0.055252768099308,-0.0047229368686676,-0.0672469053208827,0.0872156343773007,-0.4766610517634078,9.649440499681234,1.6826980890236791
1757088102175050000,3.999050048828125,0.0952020958065986,0.0872945860028266,0.0618318393826484,-0.0181563458722084,0.0148252286881208,-0.1461385095976293,-0.4802862199906259,9.647572952243683,1.6923438692472874
1757088102185097200,4.00909716796875,0.0959855839610099,-0.0079868519678711,0.0629342049360275,-0.0062548956762999,0.130348965921998,-0.3959796779930591,-0.4857534724205732,9.64562415626347,1.7018666076131164
1757088102195144200,4.019144287109375,0.0912182629108429,-0.1099260002374649,0.045387964695692,0.0743564450651407,0.2148299146384,-0.6150178579762577,-0.4921444886319339,9.643744333866238,1.7106643927052616
1757088102205190100,4.029190185546875,0.0841074138879776,-0.1628040671348571,0.0151833090931177,0.1299082364171743,0.2453723524183034,-0.7628637560136616,-0.4975679749853908,9.64208136909008,1.7184493474930524
1757088102215237000,4.039237060546875,0.0795555412769317,-0.1515306383371353,-0.0231931060552597,0.1689239035099744,0.2662111423075199,-0.7507857802070677,-0.4999220638308674,9.640696052211522,1.725525131098181
1757088102225284000,4.0492841796875,0.0718939825892448,-0.1022661328315734,-0.0588984191417694,0.226294142460823,0.2692664382249117,-0.6424085537269711,-0.4981854127639904,9.639586045143009,1.7322193680398166
1757088102235330000,4.059330078125,0.0594668760895729,-0.0318196676671505,-0.0806058496236801,0.2244704341650009,0.2265209369540214,-0.5764988883592188,-0.4924716382270678,9.638787003719806,1.7382850978195663
1757088102245377000,4.069376953125,0.0369738489389419,0.0378045178949832,-0.0858047008514404,0.1564811860442161,0.1666553740561008,-0.5578666686035693,-0.4843369566861539,9.638348612302542,1.742996490380913
1757088102255423000,4.079423095703125,0.0152818700298666,0.0806843489408493,-0.0823748186230659,0.0544219470718875,0.0641957010567188,-0.5024443488501013,-0.4750532147079706,9.638305942204594,1.7457831984899936
1757088102265470000,4.089469970703125,0.0013751176884397,0.0792576149106025,-0.0769769325852394,-0.0372585577597841,0.0949497357606887,-0.5026229202874004,-0.4659724114233627,9.638526891478897,1.747009087023139
1757088102275517000,4.099516845703125,-0.0098399855196475,0.0910551473498344,-0.0740647688508033,-0.1645908062091097,0.0907750804245471,-0.4757369591884314,-0.4573030019512399,9.638960022199154,1.7469084031276405
1757088102285563000,4.10956298828125,-0.0204018373042345,0.0929888561367988,-0.0743224769830703,-0.2692997925052419,0.0235562321543693,-0.3087770492278039,-0.4483624473875388,9.639592474883797,1.7457471042633057
1757088102295610000,4.119610107421875,-0.0131881311535835,0.0549890138208866,-0.0668006464838981,-0.2791454792151227,0.0233738613247871,-0.1267680386953056,-0.4401626647211611,9.640223758524655,1.7443506814688443
1757088102305657000,4.129656982421875,-0.0057600233703851,0.0426639132201671,-0.049504566937685,-0.3229273377964273,-0.0505401006698608,-0.0457506744362413,-0.433640496410802,9.640665657073258,1.7435392189554868
1757088102315703000,4.139703125,0.0020142765715718,0.0097211468964815,-0.0258218739181756,-0.3810702781528234,-0.055672202861309,0.0044286300972104,-0.4295164752833545,9.640857964774966,1.7434882194206118
1757088102325750000,4.14975,0.0075344489887356,-0.0452365837991237,-0.0060892812907695,-0.3636047275563702,-0.0784147805452346,0.0335872123032808,-0.4282771427467465,9.640855042165516,1.7438079528942705
1757088102335796200,4.159796142578125,0.0136890141293406,-0.0753066018223762,0.004815031774342,-0.3452022979686036,-0.0940811362326145,0.0948684872180223,-0.4293219390919431,9.64066214994192,1.7446265758007764
1757088102345843200,4.16984326171875,0.0194155350327491,-0.0978658646345138,0.004315048456192,-0.2970493846962228,-0.0656371320366859,0.1227925591930746,-0.4312368328025564,9.640349430730938,1.7458821288198232
1757088102355890000,4.179889892578125,0.0210485849529504,-0.1209783777594566,0.0074759544804692,-0.2280068281302228,-0.0405681572318077,0.1159273495987057,-0.433690765293315,9.63997066054642,1.7473602385483682
1757088102365936000,4.18993603515625,0.0185970999300479,-0.119171105325222,0.0188401862978935,-0.1640384330233558,-0.0203945532530546,0.075384472938627,-0.4370557116817682,9.639548051220178,1.7488472622357307
1757088102375983000,4.199983154296875,0.0139285782352089,-0.0993428081274032,0.0253454893827438,-0.0855283754101023,0.0034890111595392,0.0527219747535884,-0.4411961724873632,9.639157006075978,1.749962237740308
1757088102386030000,4.210030029296875,0.0102099701762199,-0.0801218375563621,0.0273593515157699,0.0110971846083179,0.0343453371942043,0.0664689066857099,-0.4453452184582129,9.638826751208304,1.7507298611119388
1757088102396076300,4.220076171875,0.0094839930534362,-0.0460216589272022,0.020838601514697,0.0873860225081443,0.0178659115582704,0.0799070649296045,-0.4489105462569743,9.638547934266924,1.7513580760128795
1757088102406123300,4.230123291015625,0.0052966848015785,0.0064681670628488,0.0076347384601831,0.1234417072841897,-0.0476432101845741,0.1128841825105249,-0.4506991467067971,9.638366147959232,1.7518994894132016
1757088102416169200,4.240169189453125,0.0033067709300667,0.0442624166607856,-0.0078211827203631,0.1125093943813815,-0.0625420886307954,0.1778014758400619,-0.4502415756650268,9.638301266029476,1.75237368279621
1757088102426216200,4.25021630859375,0.0013611594913527,0.0754862874746322,-0.0153304794803261,0.0764087014198303,-0.0908195040881633,0.2239145538479089,-0.4481082899633795,9.638297174376248,1.752947975552827
1757088102436263200,4.26026318359375,0.0026578530669212,0.0925251916050911,-0.016382161527872,0.0154331679860129,-0.1332002636998892,0.2110498115777969,-0.4450429475760087,9.63833049212396,1.753541995923221
1757088102446309000,4.27030908203125,0.0051825097762048,0.0857421085238456,-0.0140033364295959,-0.0341430560877546,-0.1260211658507585,0.2013220521591603,-0.4420035433474928,9.63833283021152,1.7542917913772165
1757088102456356000,4.280356201171875,0.0114950006827712,0.0781100243330001,-0.0148262530565261,-0.0640086540520191,-0.1072311251848936,0.1803983604654669,-0.4392228265877813,9.638248659059403,1.7554636116355655
1757088102466402800,4.29040283203125,0.0156332030892372,0.0635283291339874,-0.0177365858107805,-0.0716378702888265,-0.078033672273159,0.1296938630141317,-0.4363820136712864,9.638082070320843,1.757086828923225
1757088102476448800,4.30044873046875,0.0212844312191009,0.0508527494966983,-0.0187280811369419,-0.0622603490799665,-0.0963233622014522,0.0932907165072858,-0.4336388524429872,9.637814943817258,1.7592228180386125
1757088102486495700,4.310495849609375,0.0296697150915861,0.037395142018795,-0.014026871882379,-0.0680675375213846,-0.0805313343077898,0.0687885818049311,-0.4312732558228075,9.63743500458896,1.7618777164615689
1757088102496542700,4.320542724609375,0.0330340862274169,0.0389823839068412,-0.0088765854015946,-0.0675736530572175,-0.0948363385140895,0.0392428999774158,-0.4295224666327238,9.636927639588713,1.765087326157838
1757088102506588700,4.330588623046875,0.0339954420924186,0.0422738343477249,-0.0033406810835003,-0.0874228473871946,-0.1023456912308931,0.0115697340235114,-0.428228115973249,9.6363559771806,1.7685192003026604
1757088102516635600,4.3406357421875,0.0336854495108127,0.0523280650377273,0.0041268225759267,-0.0945628188023343,-0.057001990160346,0.012165361829102,-0.4275226345850154,9.635755088678,1.7719639339290558
1757088102526681600,4.350681640625,0.0315789170563221,0.0794752016663551,0.0113318376243114,-0.1161801553159952,-0.0147960025936365,0.0141677876926958,-0.4271540570009499,9.635147185912729,1.7753481695398687
1757088102536728600,4.360728515625,0.0315679982304573,0.090575523674488,0.0184976048767566,-0.1209083894142881,0.0322211846470832,0.0119316992036998,-0.4270646982170641,9.634518824881315,1.7787816511198875
1757088102546775800,4.37077587890625,0.0308973994106054,0.0914246886968612,0.0260081402957439,-0.0994265523811802,0.040039749443531,-0.0688974490068852,-0.4275970515280962,9.633881111499669,1.7820982283219695
1757088102556821800,4.38082177734375,0.0308907385915517,0.0890358313918113,0.0310321934521198,-0.0989005192130804,0.0392301866263151,-0.177942930137366,-0.428871345780231,9.633194882801174,1.785499707328528
1757088102566868700,4.39086865234375,0.0303516052663326,0.0602329224348068,0.0317916013300418,-0.0648048093983903,0.0415612599223852,-0.260965496739,-0.4306454062480479,9.632510407668352,1.7887654311262071
1757088102576915700,4.400915771484375,0.0296495966613292,0.0306057911366224,0.0268053635954856,-0.010458850172162,0.0401426252961158,-0.3656985214978456,-0.4327676956316456,9.631833531320094,1.7918945229321717
1757088102586961700,4.410961669921875,0.0302071347832679,-0.0021987985819578,0.0203234553337097,0.0219598663410171,0.046770519003272,-0.4556289677917957,-0.4346602679125964,9.631192310807108,1.7948856675721705
1757088102597008600,4.421008544921875,0.0255516618490219,-0.037668377161026,0.0130647448822855,0.0459223777413368,0.0986836615920066,-0.5066361014515162,-0.436626234223321,9.630603697264194,1.7975595629565415
1757088102607054600,4.4310546875,0.0161890052258968,-0.0539796575903892,0.0049623344093561,0.0608726941138505,0.1300818394184112,-0.518343928771466,-0.4384086241280659,9.63018050341606,1.799391308428347
1757088102617101600,4.4411015625,-0.0001090072328224,-0.0561394803225994,-0.0062684826552867,0.0952355304321274,0.1980231567442417,-0.4768837911359965,-0.4394020921448245,9.630026189637183,1.799979775840789
1757088102627148500,4.4511484375,-0.0187051445245742,-0.0395778976380825,-0.0155629450455307,0.1101257141152396,0.252725053268671,-0.4335558138020336,-0.4393281501257792,9.63023954012692,1.7988491643756628
1757088102637194800,4.46119482421875,-0.039148099720478,0.0052257915958762,-0.0236853193491697,0.1296416944354772,0.2108171718657016,-0.3573625086985528,-0.4377455571094527,9.630848027414084,1.7959784312449394
1757088102647241700,4.47124169921875,-0.0532272532582283,0.0646714568138122,-0.0366378985345363,0.1328186074385419,0.129028530973196,-0.2197621103435754,-0.4341885952802374,9.631831777754426,1.7915552079752086
1757088102657288700,4.481288818359375,-0.0665198862552642,0.167139247059822,-0.0464316755533218,0.1170329727530479,-0.0197808052688837,-0.0515957472026348,-0.428129331773892,9.633099021211263,1.7861948499858378
1757088102667335000,4.4913349609375,-0.0695220008492469,0.3171614110469818,-0.0498507991433143,0.0069219082176685,-0.2205272494971752,0.2771747271314263,-0.4190236863089725,9.63452817723155,1.780641453642398
1757088102677381600,4.501381591796875,-0.0647962167859077,0.4527301490306854,-0.0384982749819755,-0.1230015257686376,-0.3183177616417408,0.6324268195472658,-0.4077629817020148,9.635951488032935,1.77554135402441
1757088102687427800,4.511427734375,-0.0403762683272361,0.5288622379302979,-0.0151165695860981,-0.2594336109966039,-0.3865677065253257,0.7773007160365581,-0.3962784052113071,9.637014733350275,1.7723742682956158
1757088102697474800,4.521474853515625,-0.0094330003485083,0.4795843958854675,0.010362958535552,-0.3545096400180831,-0.2665916660577058,0.7132242574453354,-0.3869447231441736,9.637498132953048,1.7718075743235646
1757088102707521800,4.531521728515625,0.0233725346624851,0.3743020892143249,0.0393037647008895,-0.5324298833996057,-0.1352554426640272,0.537606701515615,-0.3818559486377984,9.637242696887254,1.7742944227032362
1757088102717567700,4.541567626953125,0.0501735247671604,0.23843614757061,0.065567061305046,-0.6744055742293595,-0.0929477482885122,0.2648306477345526,-0.3812878298936411,9.636386372318864,1.7790696742810308
1757088102727614700,4.55161474609375,0.0682149603962898,0.0266153458505868,0.0891928821802139,-0.6575988163352012,0.046966333836317,0.0169748079374432,-0.3864225624335929,9.635036711275577,1.7852606378756462
1757088102737662000,4.561661865234375,0.0852453410625457,-0.1688697338104248,0.1054658591747284,-0.5467343030840158,0.1142839663058519,-0.1839849867805838,-0.3973291563732549,9.63325918020904,1.7924395895943044
1757088102747708000,4.5717080078125,0.1011706888675689,-0.2865930795669555,0.1083867996931076,-0.3477688970535993,0.1146264961332082,-0.2654785902492702,-0.4119411441694945,9.631120999136566,1.8006106210902333
1757088102757755000,4.5817548828125,0.1067848950624466,-0.3335243761539459,0.1062674522399902,-0.0993733974218368,0.1089046113550663,-0.2617310742840171,-0.4280989001030102,9.628761868789791,1.8094328099712729
1757088102767801900,4.5918017578125,0.1037766933441162,-0.3200657069683075,0.0993096232414245,0.138058809646964,0.0156669402092695,-0.2754683616049587,-0.444067782400921,9.626381695654988,1.8182320563681424
1757088102777847800,4.601847900390625,0.0969129279255867,-0.2632026970386505,0.0804866626858711,0.312076784892939,0.0204816470146179,-0.32554142928496,-0.45827272376623,9.624111997157335,1.8267061624638732
1757088102787894800,4.611894775390625,0.0808161571621894,-0.1755060404539108,0.0499151498079299,0.4287052319657057,0.0329009836047887,-0.3948999199323356,-0.4688084385668858,9.622167292830348,1.8342641766279932
1757088102797940700,4.621940673828125,0.0638654008507728,-0.0812820717692375,0.0078832805156707,0.4856657941371202,0.0758306092709302,-0.398329748250544,-0.4739939149133861,9.620686698883771,1.8406867570213967
1757088102807987700,4.63198779296875,0.0468712039291858,0.0085435574874281,-0.0368935354053974,0.5207043742924928,0.1746604013353586,-0.4105947710618376,-0.4732691808354109,9.61971989967823,1.8459188124559816
1757088102818034700,4.64203466796875,0.0309633407741785,0.0778912007808685,-0.0695952847599983,0.4902857820879667,0.2216822647511959,-0.4590905064225196,-0.4672416276415809,9.61923533103168,1.8499723256304856
1757088102828080600,4.65208056640625,0.0119791012257337,0.1171787902712822,-0.086896039545536,0.432608778742887,0.2253074695110321,-0.4974019707687199,-0.4577476404462009,9.619200844240188,1.852519964286685
1757088102838127600,4.662127685546875,-0.0002149812644347,0.1315132528543472,-0.0997657626867294,0.3196242045978084,0.2044850462347268,-0.469174824193865,-0.4463671453844756,9.619522331279516,1.8536219341792168
1757088102848174800,4.6721748046875,-0.0093146888539195,0.1402473151683807,-0.1122535839676857,0.1663631496438756,0.1385217509835958,-0.3661379358284175,-0.4336156907631084,9.62009340916574,1.8536852086737752
1757088102858220800,4.682220703125,-0.0080382358282804,0.1489843428134918,-0.1260135918855667,0.0121428212037309,0.0302449161380529,-0.2243006305560469,-0.419306667968817,9.62078256047368,1.853405368819088
1757088102868267800,4.692267822265625,-0.0029637515544891,0.1531558483839035,-0.1245734989643096,-0.1475316079238429,-0.0764712452620267,-0.0966049556218087,-0.4043319112747907,9.621406245329975,1.8535004997566344
1757088102878313700,4.702313720703125,0.0050672772340476,0.1463927626609802,-0.1106408983469009,-0.3270914352059364,-0.1578881302326917,0.0302449161380529,-0.3901213073536753,9.621868602144716,1.8541414280086757
1757088102888360700,4.712360595703125,0.0128594748675823,0.127180591225624,-0.0807403251528739,-0.4674754363974556,-0.1717062277048826,0.1006574458830058,-0.3782760077917948,9.62206850863099,1.855554801937937
1757088102898407700,4.72240771484375,0.0259875282645225,0.0976147130131721,-0.0450723469257354,-0.5524041654139756,-0.1329705465972423,0.1002569022580981,-0.3699622433569282,9.62193991381526,1.8579009266726672
1757088102908453600,4.73245361328125,0.0328607894480228,0.0540898591279983,-0.0057973302900791,-0.5955874735802412,-0.1105284131646156,0.0709818540655076,-0.3659835489843041,9.62149450813532,1.8609892480768264
1757088102918500600,4.74250048828125,0.0332101956009864,0.0034594379831105,0.032998003065586,-0.5806616705944762,-0.0453629902929067,-0.006690583679825,-0.3668433441514149,9.62082230796218,1.8642915044926105
1757088102928547600,4.752547607421875,0.0358798392117023,-0.0362336337566375,0.0655577629804611,-0.4903595049113035,-0.005011106160283,-0.08785100967139,-0.3720020786214619,9.619975335744025,1.8676408149205148
1757088102938593500,4.762593505859375,0.0339357294142246,-0.0565740577876567,0.0882987603545188,-0.3605372297445312,-0.0064572133153676,-0.1831988048389554,-0.3804685128673911,9.61902841028273,1.8708118461720644
1757088102948640800,4.772640869140625,0.0305998958647251,-0.0623943731188774,0.0959660932421684,-0.2193991587826982,-0.0177811558842659,-0.2525800918400288,-0.3905238237399607,9.618081484821438,1.8736045456305144
1757088102958686700,4.782686767578125,0.0248519945889711,-0.0552768073976039,0.0989272594451904,-0.0934135757019743,-0.0147960025936365,-0.2993497340604663,-0.4011388508545234,9.617190088939664,1.875931235012412
1757088102968733700,4.792733642578125,0.0171550158411264,-0.0461919568479061,0.095179870724678,0.0272784675478935,0.0042442134410142,-0.3503460540652275,-0.4115478340029716,9.616406245085596,1.877697075641155
1757088102978780700,4.80278076171875,0.0101154828444123,-0.0318351201713085,0.0782373771071434,0.1358353614438325,0.02788169413805,-0.3534415358625352,-0.4207453224698081,9.615811201801897,1.878697338724881
1757088102988826600,4.81282666015625,0.0012858667178079,-0.006669676862657,0.0529847666621208,0.1941910677680745,0.0598415975004434,-0.3362415408670902,-0.4274761285621672,9.615426001876592,1.879154727103561
1757088102998873600,4.82287353515625,-0.0056098564527928,0.0167834516614675,0.0257187932729721,0.2465537076899781,0.0891623845309019,-0.3124699123963713,-0.4312063645990565,9.6152839630574,1.8790255477659403
1757088103008920600,4.832920654296875,-0.0092921620234847,0.0344910249114036,0.0017945620929822,0.2799761213529855,0.1215676935732364,-0.2547871003650128,-0.4320078537076711,9.615349429509044,1.87850415424034
1757088103018966800,4.842966796875,-0.0107779391109943,0.0417539998888969,-0.0141894640401005,0.2923942523667588,0.1446732593506574,-0.2342775424301624,-0.4306595443712547,9.615587914440034,1.877597414658964
1757088103029013800,4.853013671875,-0.0106613049283623,0.0434684567153453,-0.0304368641227483,0.2712678411751985,0.1409247204720974,-0.207806299611926,-0.4276393562998622,9.6158959574759,1.876714494344592
1757088103039059700,4.863059814453125,-0.0102559719234704,0.0315747782588005,-0.0476233102381229,0.215113407754898,0.1100245552957057,-0.150204736123234,-0.4231099692419171,9.61626946696341,1.8758254365503784
1757088103049107000,4.87310693359375,-0.0118229752406477,0.0120482174679636,-0.0631484687328338,0.1116693998932838,0.0847492442637681,-0.1244488019675016,-0.4172293502381071,9.616706104815004,1.874909636879712
1757088103059154000,4.88315380859375,-0.0110565181821584,-0.0102006290107965,-0.0746285617351532,0.0097591409375891,0.0065980830907821,-0.1035216031424701,-0.4104888995345682,9.617195934158564,1.8738845316156745
1757088103069200000,4.893199951171875,-0.0052672368474304,-0.0341000072658062,-0.081971488893032,-0.063818720970489,-0.0549409659773111,-0.0728296738892793,-0.4032005326246842,9.617682840892671,1.872970485510677
1757088103079246800,4.903246826171875,-0.0054528592154383,-0.0540902242064476,-0.0798406898975372,-0.1401853368142619,-0.1089420207560062,-0.0550701453149318,-0.3961155793324112,9.618113633525372,1.8722697898954157
1757088103089293800,4.9132939453125,-0.0047025373205542,-0.0656136944890022,-0.0717466846108436,-0.1995049197345972,-0.1127741462647914,-0.0126171972498297,-0.389917747605592,9.618502925103902,1.871565148757398
1757088103099339800,4.92333984375,-0.002750173676759,-0.0661175623536109,-0.0595025382936,-0.2399474412927404,-0.1089268231868743,0.0224986859254539,-0.3847892986759543,9.618846623975038,1.8708662067078048
1757088103109386800,4.93338671875,-0.0007432429119944,-0.0542203709483146,-0.0461064055562019,-0.2634083963790908,-0.1027279685467481,0.0543143585115671,-0.3807815974045545,9.619081601774692,1.8704744309112429
1757088103119432700,4.9434326171875,-0.0003474971745163,-0.0401564836502075,-0.0298384837806224,-0.2949684502363204,-0.0636830753594636,0.0747638568222522,-0.3779517442734912,9.619241176250576,1.8702258629776536
1757088103129479700,4.953479736328125,0.0005783196538686,-0.0273641571402549,-0.0089468443766236,-0.3094301428416743,-0.0064560442715883,0.0710473205171525,-0.3766583434620872,9.61932651644647,1.8700521138459445
1757088103139527000,4.96352685546875,0.0007532893214374,-0.020545931532979,0.0117496456950902,-0.2940822785189375,0.0088192662715911,0.0814141084916889,-0.3771921946104615,9.619312487921118,1.8700098821394144
1757088103149572600,4.973572509765625,0.0027520186267793,-0.0200378615409135,0.0325394459068775,-0.3005014979114755,0.0086263740479946,0.0978473568983376,-0.3797508295847103,9.619206689459086,1.87003677014634
1757088103159619800,4.983619873046875,0.0017661167075857,-0.0236997082829475,0.0497035160660743,-0.2683943680981174,-0.0053992286950349,0.0767070998445153,-0.3843250056324526,9.619017304366826,1.87007841733098
1757088103169666800,4.993666748046875,0.0002208959776908,-0.0271526426076889,0.0575252920389175,-0.1767238001385703,-0.0379524217754602,0.0558323618590831,-0.3901036986317485,9.618799862223865,1.8700040369205173
1757088103179712800,5.003712646484375,0.0021455623209476,-0.0258988253772258,0.0551643967628479,-0.0980190236708149,-0.0460790296077728,0.0517493303291499,-0.3960844900744035,9.61854559520185,1.8700462686270476
1757088103189759700,5.013759765625,0.0043636001646518,-0.0245393067598342,0.0441238693892955,-0.0005575973501428,-0.0285948108434677,0.0384384517267346,-0.4013687506202608,9.618269116348028,1.8703386757023632
1757088103199806700,5.023806640625,0.0077484780922532,-0.0219962541013956,0.031386237591505,0.0809609578967094,-0.0157528649270534,0.0491547837913036,-0.4055246647233143,9.617997898191213,1.870845310050249
1757088103209852700,5.033852783203125,0.0117805376648902,-0.0130708031356334,0.0155042298138141,0.1468003345072269,-0.0217582428216934,0.0735588649466633,-0.4080676272043958,9.617718496727942,1.8717298377998173
1757088103219899600,5.043899658203125,0.0152189461514353,0.0002774932072497,-0.0031168586574494,0.1766834315955638,-0.0124959089577198,0.0824314688406884,-0.4087715011574327,9.617434419089555,1.8730327370919289
1757088103229945600,5.053945556640625,0.0189240295439958,0.0132280820980668,-0.0243334434926509,0.1647422339111566,-0.0081774612367153,0.095498455684632,-0.4073047165405005,9.617156186670064,1.8747797268897293
1757088103239992600,5.06399267578125,0.0214218068867921,0.0284776091575622,-0.0406261309981346,0.1210597440510988,-0.028262217888236,0.1041359356485307,-0.4037253602163866,9.616890229210258,1.8769161543965336
1757088103250039800,5.074039794921875,0.024320550262928,0.0395038686692714,-0.0494722165167331,0.0580850726893171,-0.0534159483671188,0.0564366113625466,-0.3988101156460121,9.61660673609376,1.8794253607384857
1757088103260085800,5.084085693359375,0.0246992520987987,0.0429928787052631,-0.0543676391243934,-0.0123357499599456,-0.0407125341385602,0.0325223595507442,-0.3930323724947869,9.616322073933482,1.8820907805554568
1757088103270132700,5.0941328125,0.0233145598322153,0.0385737121105194,-0.0534117594361305,-0.0905249415883794,-0.0120411509275436,-0.0106616792678833,-0.3869685058785602,9.6160830044806,1.8845735372819008
1757088103280178700,5.1041787109375,0.0252844989299774,0.0246850624680519,-0.0483104772865772,-0.1585620839715004,0.0043897593915462,-0.0669061290591955,-0.3813304634589701,9.615812370845674,1.8870980873234569
1757088103290225700,5.1142255859375,0.0202211998403072,0.0046309870667755,-0.0399389676749706,-0.1983019736856222,0.029034371304512,-0.1104505256228148,-0.3766057364920154,9.61555810382366,1.8893425052493809
1757088103300272600,5.124272705078125,0.0176421962678432,-0.0140263205394148,-0.0244638696312904,-0.2646241653770208,0.0307832607984542,-0.1436374865621328,-0.3734305039893835,9.615305590367315,1.891255207002908
1757088103310318600,5.134318603515625,0.0132627794519066,-0.0280957166105508,-0.0058581586927175,-0.2818973717391491,0.0180178872495889,-0.1479873523347079,-0.3723181223006919,9.615052492389085,1.8927619583040476
1757088103320365600,5.144365478515625,0.0096848225221037,-0.0376354269683361,0.0128300413489341,-0.3004529825946316,-0.0092845456957817,-0.1402988436587154,-0.3732152538035064,9.614821021720768,1.8937521383851763
1757088103330412500,5.15441259765625,0.0064366869628429,-0.0363330319523811,0.0327319614589214,-0.2758335416555404,-0.0566191283226013,-0.1414421684749424,-0.376137388327904,9.61457201539576,1.894446842651069
1757088103340458800,5.164458740234375,0.0061985999345779,-0.0306740794330835,0.0452634654939174,-0.2387222834119573,-0.0680015230804681,-0.1289931673988699,-0.3806276124192401,9.614283261582257,1.895016605363041
1757088103350505700,5.174505615234375,0.0031322636641561,-0.0221735965460538,0.0530410595238208,-0.1683107765803113,-0.0689244831442832,-0.1134159512996673,-0.3860965818822384,9.614009120815991,1.8953009752623733
1757088103360552700,5.184552734375,0.002523198723793,-0.0120831448584795,0.0523398481309413,-0.082632690501213,-0.0354559287846088,-0.1090409510858356,-0.3917183307541534,9.613758945447206,1.89541481090039
1757088103370599000,5.194598876953125,-0.0003829249180853,-0.0079643847420811,0.0483368225395679,-0.0017032602539286,-0.0159305595815181,-0.0912732392050325,-0.3969313892273232,9.613536242607235,1.895453681606054
1757088103380645600,5.204645751953125,0.0021598611492663,0.0021452410146594,0.037896167486906,0.0254968448281288,0.0538438183903694,-0.0623141250938177,-0.4012368313362822,9.613343934905528,1.895524262624234
1757088103390691800,5.21469189453125,0.0082597574219107,0.0106956949457526,0.0241157971322536,0.076586396074295,0.0847580120921134,-0.0783218415647745,-0.4041430376391857,9.613105449974537,1.8961193059079349
1757088103400738800,5.22473876953125,0.0121024325489997,0.0079816672950983,0.0112388813868165,0.0902244608044624,0.111372462773323,-0.0692304803535342,-0.4056608217909931,9.612827217555044,1.8972035940133036
1757088103410785800,5.234785888671875,0.0180430226027965,0.0029265752527862,-0.001832682872191,0.1030780606260523,0.1037467902004718,-0.0969867945462465,-0.4062436266476288,9.612523266172408,1.8986238360747691
1757088103420831700,5.244831787109375,0.0202196240425109,-0.0106390351429581,-0.0192188639193773,0.0968763199090957,0.0698030195444822,-0.1275277710214257,-0.4054288031334057,9.612198856523632,1.9004341003671288
1757088103430878700,5.254878662109375,0.0220797546207904,-0.0302835516631603,-0.0307046435773372,0.0667161594450473,0.0406137499392032,-0.1446557236939668,-0.4035503324430435,9.611908933666347,1.9022988713257012
1757088103440924700,5.264924560546875,0.023529578000307,-0.0452521108090877,-0.0469416715204715,0.0336059170037508,0.029043723654747,-0.1508707988165319,-0.4006668859612196,9.611657589253785,1.904174748200178
1757088103450972000,5.274971923828125,0.0267638713121414,-0.0594160892069339,-0.0577104799449443,-0.0104728786975145,0.0429185197502374,-0.1651566599309444,-0.3965415496595204,9.61140039962232,1.906339817279577
1757088103461019000,5.285018798828125,0.0305093396455049,-0.0790089592337608,-0.0647556036710739,-0.0601987403750419,0.0230120422750711,-0.1921471043176948,-0.3918567528441548,9.61110521606803,1.908789694649726
1757088103471065000,5.295065185546875,0.031971238553524,-0.0998101010918617,-0.07082499563694,-0.1234832083383575,0.0184118550032377,-0.2274697621114552,-0.3869305850209668,9.61076853145957,1.9114916470848025
1757088103481112000,5.305112060546875,0.0300495028495788,-0.1231039762496948,-0.0708122178912162,-0.1898276118615642,0.0128904612332582,-0.2669555309340358,-0.3822367281163111,9.610454643204807,1.914017073909193
1757088103491159000,5.315158935546875,0.0302956867963075,-0.1371212303638458,-0.0640487223863601,-0.232249288005568,-0.011191840621829,-0.3017655630305409,-0.3782720622690394,9.610146015647054,1.9163555998593569
1757088103501205000,5.325205078125,0.026502015069127,-0.1430848389863968,-0.0502237193286418,-0.266095406973362,-0.0123638070106506,-0.2839028663426637,-0.375400927279517,9.609820436954498,1.9185440498143436
1757088103511252000,5.335251953125,0.022232100367546,-0.1390179395675659,-0.0367257967591285,-0.3141618475386872,0.0285088861256837,-0.2627643628545105,-0.3738720737444236,9.60950070348084,1.9204498834356665
1757088103521298000,5.3452978515625,0.0171718262135982,-0.129352793097496,-0.0175877846777439,-0.3341109585791826,0.0712836134910583,-0.2165780734799802,-0.3738246544061228,9.60922188653946,1.9218482059262687
1757088103531345000,5.355344970703125,0.0154978381469845,-0.1139640882611274,0.0016717708203941,-0.2898158897787332,0.0775631321519613,-0.1725377100929618,-0.375472677341476,9.608927287507056,1.9229983988747
1757088103541392100,5.36539208984375,0.0103992158547043,-0.0967219844460487,0.016882149502635,-0.2502512835662812,0.0290571676582097,-0.1441362298645079,-0.3785257813017815,9.608650224131344,1.923775959118456
1757088103551438000,5.37543798828125,0.0042417091317474,-0.0800240486860275,0.0305329896509647,-0.1771469939867034,-0.039385084927082,-0.1286659812711179,-0.3826472451459616,9.608411154678464,1.9241678810454903
1757088103561485000,5.385485107421875,-0.0012960680760443,-0.0666051805019378,0.0355807431042194,-0.0931996772229671,-0.0877174464195966,-0.0999083810813725,-0.3872867415148764,9.608260348030925,1.9239907709129156
1757088103571532000,5.395531982421875,-0.0045355018228292,-0.056115124374628,0.0355589278042316,-0.0179805143812671,-0.1007996308326721,-0.0558301699019968,-0.3920268487140536,9.60817559235692,1.923457248558104
1757088103581578000,5.405577880859375,-0.0023823361843824,-0.0467045791447162,0.0323932282626628,0.025209260058403,-0.098477909886837,-0.0080514967694878,-0.396310261654295,9.608097266423702,1.9229639120832085
1757088103591625000,5.415625,0.0003390733618289,-0.0440271906554698,0.0269546788185834,0.0618856340160593,-0.0802899267673492,0.0280789702758193,-0.4000668377088383,9.608016017881036,1.9225969784669577
1757088103601671000,5.4256708984375,0.003023806028068,-0.0445893853902816,0.0227096006274223,0.0589122076958417,-0.057402972176671,0.0750455963730812,-0.4033781907465308,9.607873394539952,1.9226164138197896
1757088103611718000,5.4357177734375,0.0028517507016658,-0.0483088791370391,0.0208668485283851,0.0527501779347658,-0.0443915149122476,0.1182015781410038,-0.4063437260212376,9.607730771198868,1.922705845668912
1757088103621764900,5.445764892578125,0.0032371100969612,-0.0485229939222335,0.0175200551748275,0.073956632092595,-0.0623357524037361,0.1390877143032848,-0.4091450106449425,9.607569443157317,1.9229186116367576
1757088103631810800,5.455810791015625,0.0019545315299183,-0.0383084416389465,0.016028419137001,0.100691457750462,-0.0484364063888788,0.1398569451101124,-0.4116385810263455,9.607437341210243,1.9230474987134336
1757088103641857800,5.46585791015625,0.0055543263442814,-0.026435537263751,0.0110387206077575,0.1140829273084178,-0.0358662631511688,0.1464227333664894,-0.4136571177745238,9.607285365518926,1.923364455708116
1757088103651905000,5.475905029296875,0.0036906111054122,-0.0070957951247692,0.0054929335601627,0.115281781704165,-0.0225718972921371,0.1331815589994192,-0.414855972170271,9.607158524268865,1.9237367961518463
1757088103661951000,5.485950927734375,0.0058815940283238,0.0132036181166768,0.0007098962087184,0.0970972691833972,-0.0143932670116424,0.0969740811951458,-0.4150771771728992,9.607061493635175,1.9241811789184808
1757088103671998000,5.495998046875,0.007331343833357,0.026098221540451,-0.0028953333385288,0.0739689435848966,-0.0120241997927427,0.068106152498722,-0.4145440932095051,9.606935821428896,1.9249166535861788
1757088103682044000,5.5060439453125,0.0078674387186765,0.0321116372942924,0.0013119282666593,0.0334463790604844,-0.0015606734454631,0.014737258143723,-0.4138249486221,9.606797874262927,1.925763041282445
1757088103692091000,5.5160908203125,0.0112288407981395,0.0373748168349266,0.0083625596016645,-0.0033709012052044,-0.0272422271907329,-0.0306463365457952,-0.4135195359347388,9.60659212255776,1.9268539052590727
1757088103702137900,5.526137939453125,0.0163413099944591,0.0380411408841609,0.0112374415621161,-0.0056312838852405,-0.0275268893510103,-0.0422092024371027,-0.4136533183822408,9.606278818824888,1.928391343959421
1757088103712184000,5.53618408203125,0.0199261102825403,0.0403308421373367,0.0132736647501587,-0.0040630116552114,-0.0155944594949483,-0.0354920230112969,-0.4140242705864831,9.605868484458329,1.9303531455516811
1757088103722230800,5.546230712890625,0.0223136339336633,0.0389582477509975,0.0185504518449306,-0.0331371304482221,0.0223012636572122,-0.0519770016051828,-0.4147283637352287,9.605382746767996,1.9326225517883893
1757088103732277800,5.55627783203125,0.0265321470797061,0.0381502099335193,0.0230548419058322,-0.0395779771506786,0.0397843133777379,-0.0580142359428107,-0.4159190713571384,9.604808161750436,1.9352179751090703
1757088103742324000,5.566323974609375,0.0293103568255901,0.0389680676162242,0.0275976620614528,-0.0469347696542739,0.0426771122097969,-0.0611776684097945,-0.4175405716117471,9.604159926974772,1.9380819862380625
1757088103752371200,5.57637109375,0.030515868216753,0.0390694364905357,0.0272323377430439,-0.0361357642749324,0.0405360085278749,-0.0404660120315849,-0.4193612477002665,9.60345908522904,1.941163147249073
1757088103762417200,5.586417236328125,0.0306215956807136,0.0339676178991794,0.0241260267794132,-0.0281464460214599,0.0442284333050251,-0.0630105829253792,-0.4210657865958288,9.602758243483304,1.9442545373931528
1757088103772464000,5.596464111328125,0.0329444855451583,0.0261012576520442,0.0192857608199119,-0.0115707204042002,0.0105178868830204,-0.0688693919561803,-0.4225282968964427,9.602053894606232,1.947420454078168
1757088103782511000,5.606510986328125,0.0382865220308303,0.0186108518391847,0.0179443266242742,0.0200508543819189,-0.0080278236329555,-0.0775375593192875,-0.4239226738642901,9.60129460067153,1.9508508669182656
1757088103792557000,5.61655712890625,0.0414574667811393,0.0093355095013976,0.018357353284955,0.0311778496066108,-0.0314373407930135,-0.084614365837723,-0.425323151779361,9.600462241500615,1.9546353538930412
1757088103802604000,5.62660400390625,0.0471587590873241,0.0049311742186546,0.019988540560007,0.0502484607795253,-0.0104459906905889,-0.0970849942237138,-0.4270358009161427,9.599522330302,1.9588759140722447
1757088103812650000,5.63664990234375,0.0504118949174881,-0.0004411363042891,0.0203326493501663,0.0707400081336498,-0.0242278478056192,-0.1241575639359652,-0.4289724315345287,9.598490649166704,1.9635031354814767
1757088103822697000,5.646697021484375,0.0513791553676128,-0.0050361542962491,0.0241944976150989,0.0795768465945497,-0.0119482119470834,-0.1548636678449809,-0.4312251058321446,9.59743324906826,1.9681720040753483
1757088103832744000,5.656743896484375,0.0543118268251419,-0.0038960552774369,0.0306494683027267,0.0877981104403734,-0.0137923785090446,-0.1857205784015357,-0.4340593794099986,9.596285248076915,1.9731419014424083
1757088103842790000,5.666789794921875,0.0540377870202064,-0.0007159744855016,0.0345509983599185,0.1057674458405002,-0.0090144965827465,-0.2038056856684386,-0.4372145189726725,9.59509983768463,1.978208683312684
1757088103852837000,5.676837158203125,0.0498058199882507,0.0046402094885706,0.0346980057656765,0.1280172715714201,0.0048883565634489,-0.2337785068668424,-0.4406100066298619,9.593916180858017,1.983192316944152
1757088103862884000,5.686884033203125,0.0414658635854721,0.0205728374421596,0.0281612779945135,0.1622749670147895,-0.0223299052298069,-0.2530981243647635,-0.4434438052836805,9.592851766496896,1.987697081017494
1757088103872930000,5.696929931640625,0.0363231040537357,0.041905291378498,0.0221215318888425,0.1632195909211412,-0.0144119717121124,-0.2484571666911244,-0.4451368364045396,9.59196680035591,1.9915854667581616
1757088103882977000,5.70697705078125,0.0329893603920936,0.0598510019481182,0.0224552266299724,0.181826603170298,-0.0014981296032667,-0.2303280741520225,-0.4462364682095125,9.591174773195386,1.9951541190251707
1757088103893023000,5.71702294921875,0.0239111464470624,0.0794199705123901,0.0249883271753788,0.1665436938425526,0.0355453606337308,-0.2090175750978291,-0.447114164359495,9.59049322067201,1.9982346955142916
1757088103903070000,5.727070068359375,0.0222219042479991,0.0940420553088188,0.024501234292984,0.1358352883785963,0.0485474655479192,-0.2115031083032488,-0.4478298018155619,9.589909867826105,2.000869574062526
1757088103913117000,5.737116943359375,0.0216234438121318,0.1021857857704162,0.0219469889998435,0.1045896707653999,0.0407014282226562,-0.1940793875545263,-0.4481574628673493,9.58937619934082,2.003347654613852
1757088103923163000,5.747162841796875,0.0183126032352447,0.0972301736474037,0.0209690742194652,0.0499100226053968,-0.02629647077322,-0.1818820231519639,-0.4482451046181842,9.588886954519152,2.005664991645515
1757088103933209900,5.7572099609375,0.0155095243826508,0.091565802693367,0.0209547542035579,0.0306570040702819,-0.0798871911853551,-0.1670126630611717,-0.4482954465659335,9.588459084495902,2.007704680779576
1757088103943257000,5.767257080078125,0.0200691204518079,0.0867058038711547,0.0238059349358081,-0.0158604534873738,-0.1002203696399927,-0.1368437347687781,-0.4486146685829386,9.587993805071712,2.0098580594211817
1757088103953302800,5.777302734375,0.0223812088370323,0.0519230477511882,0.0265039429068565,-0.0032873511075973,-0.0841179606229066,-0.1159915008760988,-0.4496655658753588,9.587451953279972,2.012199215719849
