time,seconds_elapsed,z,y,x
1757088059034849500,0.016849609375,-0.909820556640625,-0.03057861328125,-0.2560882568359375
1757088059044896500,0.026896484375,-0.92987060546875,-0.030517578125,-0.2743072509765625
1757088059054942700,0.036942626953125,-0.9539642333984375,-0.0328369140625,-0.3017120361328125
1757088059064989400,0.046989501953125,-0.9759063720703125,-0.03656005859375,-0.3213348388671875
1757088059075036700,0.05703662109375,-0.99462890625,-0.0374755859375,-0.3317108154296875
1757088059085083600,0.067083740234375,-1.0064544677734375,-0.0360107421875,-0.346710205078125
1757088059095129900,0.0771298828125,-0.9965667724609375,-0.0333404541015625,-0.3443603515625
1757088059105176600,0.087176513671875,-0.97296142578125,-0.031585693359375,-0.3280487060546875
1757088059115223600,0.0972236328125,-0.9530029296875,-0.0417633056640625,-0.3097381591796875
1757088059125269800,0.107269775390625,-0.94451904296875,-0.046630859375,-0.2884063720703125
1757088059135316700,0.117316650390625,-0.934173583984375,-0.047515869140625,-0.275604248046875
1757088059145363500,0.127363525390625,-0.9260711669921875,-0.05126953125,-0.2728271484375
1757088059155410700,0.13741064453125,-0.93341064453125,-0.0547332763671875,-0.2674102783203125
1757088059165457000,0.147456787109375,-0.9488372802734375,-0.0516510009765625,-0.2608642578125
1757088059175503600,0.157503662109375,-0.9644927978515625,-0.0384979248046875,-0.2544403076171875
1757088059185550600,0.167550537109375,-0.9762420654296875,-0.0279083251953125,-0.241424560546875
1757088059195596800,0.1775966796875,-0.9826202392578125,-0.0155181884765625,-0.2266998291015625
1757088059205643800,0.187643798828125,-0.9872283935546875,-0.0050506591796875,-0.2138824462890625
1757088059215690500,0.1976904296875,-0.99786376953125,0.002044677734375,-0.2068939208984375
1757088059225737500,0.207737548828125,-1.017822265625,0.0059661865234375,-0.211151123046875
1757088059235783700,0.21778369140625,-1.03802490234375,0.02056884765625,-0.225006103515625
1757088059245830700,0.22783056640625,-1.04638671875,0.0174560546875,-0.2428436279296875
1757088059255877600,0.237877685546875,-1.0510101318359375,0.01397705078125,-0.232574462890625
1757088059265923800,0.247923828125,-1.04388427734375,0.0107269287109375,-0.2306060791015625
1757088059275970800,0.257970703125,-1.0439300537109375,0.0049896240234375,-0.236358642578125
1757088059286017500,0.268017578125,-1.049072265625,0.0025634765625,-0.2460479736328125
1757088059296064500,0.278064453125,-1.0449981689453125,0.0032958984375,-0.2535400390625
1757088059306110700,0.28811083984375,-1.0399017333984375,0.00494384765625,-0.258697509765625
1757088059316157700,0.29815771484375,-1.02056884765625,0.0023193359375,-0.25604248046875
1757088059326204700,0.30820458984375,-0.989044189453125,0.000213623046875,-0.2463836669921875
1757088059336251000,0.3182509765625,-0.9514617919921875,-0.0047454833984375,-0.2346038818359375
1757088059346297900,0.3282978515625,-0.920166015625,-0.0149078369140625,-0.228729248046875
1757088059356344600,0.338344482421875,-0.9075927734375,-0.036285400390625,-0.2309722900390625
1757088059366391600,0.3483916015625,-0.9110565185546875,-0.0615081787109375,-0.2350311279296875
1757088059376437800,0.358437744140625,-0.910980224609375,-0.067840576171875,-0.2403717041015625
1757088059386484700,0.368484619140625,-0.90777587890625,-0.062591552734375,-0.2436676025390625
1757088059396531500,0.378531494140625,-0.9101715087890625,-0.0547027587890625,-0.243072509765625
1757088059406577700,0.38857763671875,-0.908721923828125,-0.044769287109375,-0.236236572265625
1757088059416625000,0.398625,-0.92010498046875,-0.0359039306640625,-0.227142333984375
1757088059426672400,0.40867236328125,-0.9420623779296875,-0.032745361328125,-0.2283477783203125
1757088059436719400,0.41871923828125,-0.955169677734375,-0.0351409912109375,-0.23321533203125
1757088059446765300,0.428765380859375,-0.973846435546875,-0.0411224365234375,-0.2436676025390625
1757088059456812500,0.4388125,-0.976806640625,-0.0432586669921875,-0.2505340576171875
1757088059466859500,0.448859619140625,-0.9747314453125,-0.0408935546875,-0.2538299560546875
1757088059476905500,0.458905517578125,-0.9932098388671875,-0.037017822265625,-0.2572174072265625
1757088059486952400,0.468952392578125,-1.018310546875,-0.0392303466796875,-0.260162353515625
1757088059496999400,0.47899951171875,-1.006927490234375,-0.04901123046875,-0.26055908203125
1757088059507045600,0.489045654296875,-0.943878173828125,-0.0631256103515625,-0.2713775634765625
1757088059517092400,0.49909228515625,-0.8602752685546875,-0.0718231201171875,-0.2544708251953125
1757088059527139300,0.509139404296875,-0.8542633056640625,-0.0628662109375,-0.219268798828125
1757088059537186300,0.519186279296875,-0.84820556640625,-0.0337371826171875,-0.19842529296875
1757088059547232500,0.529232421875,-0.8207244873046875,0.00946044921875,-0.2107086181640625
1757088059557279500,0.539279541015625,-0.817596435546875,-0.01715087890625,-0.3148040771484375
1757088059567326500,0.549326416015625,-0.8220977783203125,-0.1060333251953125,-0.3354034423828125
1757088059577372700,0.55937255859375,-0.7295074462890625,-0.11175537109375,-0.303466796875
1757088059587419400,0.56941943359375,-0.6279296875,-0.102752685546875,-0.26824951171875
1757088059597466400,0.57946630859375,-0.568878173828125,-0.07244873046875,-0.2274169921875
1757088059607513300,0.589513427734375,-0.4765625,-0.049072265625,-0.17095947265625
1757088059617559600,0.5995595703125,-0.399139404296875,-0.057708740234375,-0.1124725341796875
1757088059627606300,0.609606201171875,-0.457427978515625,-0.113128662109375,-0.106292724609375
1757088059637653500,0.619653564453125,-0.542510986328125,-0.1498260498046875,-0.189605712890625
1757088059647699700,0.62969970703125,-0.6041259765625,-0.109619140625,-0.30487060546875
1757088059657746400,0.639746337890625,-0.663543701171875,-0.0074005126953125,-0.3812408447265625
1757088059667793400,0.64979345703125,-0.8037109375,0.1293792724609375,-0.3308868408203125
1757088059677840400,0.65984033203125,-0.99615478515625,0.1784210205078125,-0.3309173583984375
1757088059687886600,0.669886474609375,-0.939544677734375,0.2028961181640625,-0.3373565673828125
1757088059697933300,0.679933349609375,-0.806976318359375,0.20050048828125,-0.406036376953125
1757088059707980300,0.689980224609375,-0.7015228271484375,0.1865692138671875,-0.5054931640625
1757088059718026500,0.700026611328125,-0.599609375,0.1947479248046875,-0.54034423828125
1757088059728073500,0.710073486328125,-0.561004638671875,0.2234344482421875,-0.54046630859375
1757088059738120400,0.720120361328125,-0.54400634765625,0.2071990966796875,-0.549163818359375
1757088059748166700,0.730166748046875,-0.481597900390625,0.1455078125,-0.623626708984375
1757088059758213600,0.740213623046875,-0.356292724609375,0.136993408203125,-0.7138824462890625
1757088059768260400,0.75026025390625,-0.26263427734375,0.163360595703125,-0.8361053466796875
1757088059778307300,0.760307373046875,-0.38720703125,0.1529998779296875,-0.9016571044921875
1757088059788353500,0.770353515625,-0.585723876953125,0.1627044677734375,-0.8869476318359375
1757088059798400500,0.780400390625,-0.6812896728515625,0.2375946044921875,-0.9114227294921875
1757088059808447500,0.790447509765625,-0.755859375,0.2833709716796875,-0.884429931640625
1757088059818493700,0.80049365234375,-0.7697296142578125,0.3284759521484375,-0.8120880126953125
1757088059828540700,0.810540771484375,-0.7718048095703125,0.3821258544921875,-0.740631103515625
1757088059838587600,0.820587646484375,-0.7779388427734375,0.446044921875,-0.67877197265625
1757088059848634400,0.83063427734375,-0.7365264892578125,0.483856201171875,-0.594146728515625
1757088059858680600,0.8406806640625,-0.6147613525390625,0.510833740234375,-0.5346221923828125
1757088059868727600,0.8507275390625,-0.5142669677734375,0.534088134765625,-0.5638885498046875
1757088059878774500,0.8607744140625,-0.4745941162109375,0.520843505859375,-0.6655120849609375
1757088059888820500,0.870820556640625,-0.4493255615234375,0.4842987060546875,-0.8153839111328125
1757088059898867700,0.88086767578125,-0.4580535888671875,0.44720458984375,-0.9910888671875
1757088059908914700,0.890914794921875,-0.4523468017578125,0.4442291259765625,-1.165863037109375
1757088059918960600,0.900960693359375,-0.450408935546875,0.447418212890625,-1.330902099609375
1757088059929007600,0.911007568359375,-0.4880523681640625,0.4425048828125,-1.42242431640625
1757088059939054600,0.9210546875,-0.5163726806640625,0.4179229736328125,-1.48992919921875
1757088059949101600,0.9311015625,-0.524627685546875,0.3880767822265625,-1.5285491943359375
1757088059959147500,0.9411474609375,-0.5016326904296875,0.3680419921875,-1.5222015380859375
1757088059969194500,0.951194580078125,-0.4073333740234375,0.3417205810546875,-1.5070343017578125
1757088059979241700,0.96124169921875,-0.294036865234375,0.331329345703125,-1.4844970703125
1757088059989287700,0.97128759765625,-0.2267608642578125,0.3354949951171875,-1.4795074462890625
1757088059999334700,0.981334716796875,-0.2040252685546875,0.3323974609375,-1.506072998046875
1757088060009381600,0.991381591796875,-0.202178955078125,0.330078125,-1.5216217041015625
1757088060019428600,1.0014287109375,-0.1713409423828125,0.2958984375,-1.5523223876953125
1757088060029474600,1.011474609375,-0.1117095947265625,0.221527099609375,-1.6422271728515625
1757088060039521500,1.021521484375,0.0146026611328125,0.10015869140625,-1.7179107666015625
1757088060049568500,1.031568603515625,0.118316650390625,0.00653076171875,-1.7748565673828125
1757088060059614500,1.041614501953125,0.1389923095703125,-0.0673370361328125,-1.776397705078125
1757088060069661700,1.05166162109375,0.1382598876953125,-0.06036376953125,-1.674407958984375
1757088060079708700,1.061708740234375,0.1206512451171875,0.0188140869140625,-1.496917724609375
1757088060089754600,1.071754638671875,0.0638580322265625,0.1097412109375,-1.3265380859375
1757088060099801600,1.081801513671875,0.07684326171875,0.116943359375,-1.165985107421875
1757088060109848600,1.0918486328125,0.1013641357421875,0.0807952880859375,-0.989898681640625
1757088060119895600,1.1018955078125,0.10064697265625,-0.0028076171875,-0.952545166015625
1757088060129941500,1.11194140625,0.07958984375,-0.0512847900390625,-1.0620574951171875
1757088060139988500,1.121988525390625,0.1128997802734375,-0.0655059814453125,-1.0337982177734375
1757088060150035700,1.13203564453125,0.108642578125,-0.0337982177734375,-0.9665069580078125
1757088060160081400,1.142081298828125,0.1027374267578125,0.015472412109375,-0.937042236328125
1757088060170128600,1.152128662109375,0.04974365234375,0.0717926025390625,-0.8318939208984375
1757088060180175600,1.162175537109375,-0.055389404296875,0.11492919921875,-0.7718353271484375
1757088060190221600,1.1722216796875,-0.0794525146484375,0.1421661376953125,-0.79913330078125
1757088060200268500,1.1822685546875,-0.0800323486328125,0.156951904296875,-0.8267669677734375
1757088060210315500,1.1923154296875,-0.04290771484375,0.159454345703125,-0.83990478515625
1757088060220362500,1.202362548828125,0.0395050048828125,0.169189453125,-0.8432159423828125
1757088060230408400,1.212408447265625,0.0849456787109375,0.16644287109375,-0.8165435791015625
1757088060240455400,1.222455322265625,0.0837554931640625,0.1651611328125,-0.8294219970703125
1757088060250502700,1.232502685546875,0.0719451904296875,0.19720458984375,-0.87030029296875
1757088060260548600,1.242548583984375,0.0526123046875,0.2852630615234375,-0.822967529296875
1757088060270595600,1.252595703125,-0.0298004150390625,0.334503173828125,-0.8077392578125
1757088060280642600,1.262642578125,-0.0569915771484375,0.3365936279296875,-0.826080322265625
1757088060290689500,1.272689453125,0.017791748046875,0.318939208984375,-0.83721923828125
1757088060300735500,1.282735595703125,0.121673583984375,0.2781219482421875,-0.92559814453125
1757088060310782500,1.292782470703125,0.167022705078125,0.2672119140625,-0.9667510986328125
1757088060320829400,1.302829345703125,0.16448974609375,0.3148345947265625,-0.902191162109375
1757088060330875400,1.31287548828125,0.0326385498046875,0.387176513671875,-0.8342437744140625
1757088060340922600,1.322922607421875,-0.0632476806640625,0.3856964111328125,-0.7907867431640625
1757088060350969600,1.332969482421875,-0.038177490234375,0.37115478515625,-0.82025146484375
1757088060361015600,1.343015625,0.007904052734375,0.3855743408203125,-0.8341217041015625
1757088060371062500,1.3530625,-0.015106201171875,0.333740234375,-0.80157470703125
1757088060381109500,1.363109619140625,-0.0638427734375,0.2680816650390625,-0.775299072265625
1757088060391156500,1.373156494140625,-0.0613861083984375,0.24566650390625,-0.744537353515625
1757088060401202400,1.383202392578125,-0.05767822265625,0.2529144287109375,-0.776214599609375
1757088060411249400,1.39324951171875,-0.029693603515625,0.2168121337890625,-0.8403167724609375
1757088060421296000,1.403296142578125,0.034881591796875,0.13677978515625,-0.8456573486328125
1757088060431341800,1.413341796875,0.1385040283203125,0.1022491455078125,-0.8606719970703125
1757088060441389000,1.42338916015625,0.165008544921875,0.21630859375,-0.9135589599609375
1757088060451436000,1.43343603515625,0.2088165283203125,0.3218841552734375,-1.0478973388671875
1757088060461483000,1.44348291015625,0.2181396484375,0.3136749267578125,-1.0711517333984375
1757088060471529000,1.453529052734375,0.10504150390625,0.2903594970703125,-1.0575714111328125
1757088060481576000,1.463575927734375,0.019439697265625,0.2588958740234375,-1.0386199951171875
1757088060491623000,1.473622802734375,0.09381103515625,0.2831573486328125,-0.93359375
1757088060501668900,1.4836689453125,0.180267333984375,0.238983154296875,-0.7997283935546875
1757088060511715800,1.4937158203125,0.3577880859375,0.1280059814453125,-0.715057373046875
1757088060521763000,1.50376318359375,0.1996917724609375,0.275909423828125,-0.96270751953125
1757088060531810000,1.51381005859375,0.03863525390625,0.3221282958984375,-0.9563751220703125
1757088060541856000,1.52385595703125,-0.11529541015625,0.2615203857421875,-0.798675537109375
1757088060551903000,1.533903076171875,-0.1922149658203125,0.2903900146484375,-0.65447998046875
1757088060561950000,1.543949951171875,-0.0950775146484375,0.288116455078125,-0.5592041015625
1757088060571996000,1.553995849609375,-0.051971435546875,0.27935791015625,-0.4940338134765625
1757088060582043000,1.56404296875,-0.0714874267578125,0.2907562255859375,-0.5057830810546875
1757088060592089900,1.57408984375,-0.01690673828125,0.2714080810546875,-0.8789520263671875
1757088060602135800,1.5841357421875,-0.0527496337890625,0.23992919921875,-1.2129669189453125
1757088060612183000,1.59418310546875,-0.0509490966796875,0.194122314453125,-1.6782684326171875
1757088060622230000,1.60422998046875,-0.1446533203125,0.0994415283203125,-1.61785888671875
1757088060632277000,1.614277099609375,-0.084747314453125,0.0562744140625,-1.6391448974609375
1757088060642323000,1.624322998046875,0.0880584716796875,0.126861572265625,-1.4857025146484375
1757088060652370000,1.634369873046875,0.24468994140625,0.3659820556640625,-1.142486572265625
1757088060662417000,1.6444169921875,0.2308349609375,0.5316619873046875,-0.9491729736328125
1757088060672462800,1.654462890625,0.149993896484375,0.6641998291015625,-0.8443450927734375
1757088060682509800,1.664509765625,0.16851806640625,0.7318572998046875,-0.9237213134765625
1757088060692557000,1.67455712890625,0.1041717529296875,0.8559722900390625,-0.846710205078125
1757088060702603000,1.68460302734375,0.1005859375,0.8433990478515625,-0.6990203857421875
1757088060712650000,1.69464990234375,0.1073455810546875,0.73223876953125,-0.8382568359375
1757088060722697000,1.704697021484375,0.0862884521484375,0.6844635009765625,-0.8321380615234375
1757088060732744000,1.714743896484375,0.169464111328125,0.7164154052734375,-0.8165283203125
1757088060742790000,1.724789794921875,0.1822052001953125,0.6537628173828125,-0.9010772705078125
1757088060752836900,1.7348369140625,0.0245361328125,0.5804290771484375,-1.022247314453125
1757088060762883800,1.7448837890625,-0.080535888671875,0.6163787841796875,-0.9445037841796875
1757088060772929800,1.7549296875,-0.169219970703125,0.6013946533203125,-0.9766082763671875
1757088060782977000,1.76497705078125,-0.180877685546875,0.576568603515625,-0.9330902099609375
1757088060793024000,1.77502392578125,-0.1002960205078125,0.6157379150390625,-0.8540496826171875
1757088060803071000,1.785071044921875,0.0035400390625,0.7141876220703125,-0.862152099609375
1757088060813117000,1.795116943359375,0.0757293701171875,0.6889801025390625,-0.8892669677734375
1757088060823164000,1.805163818359375,0.0135650634765625,0.4420928955078125,-0.806396484375
1757088060833211000,1.8152109375,-0.241607666015625,0.374847412109375,-0.772064208984375
1757088060843256800,1.8252568359375,-0.1184539794921875,0.459136962890625,-0.8165283203125
1757088060853303800,1.8353037109375,0.0310516357421875,0.4876708984375,-0.794158935546875
1757088060863351000,1.84535107421875,0.1133575439453125,0.4512176513671875,-0.686859130859375
1757088060873397000,1.85539697265625,0.079803466796875,0.38134765625,-0.641632080078125
1757088060883444000,1.86544384765625,-0.0252532958984375,0.567047119140625,-0.69525146484375
1757088060893491000,1.875490966796875,0.0144805908203125,0.6349639892578125,-0.7200164794921875
1757088060903538000,1.885537841796875,-0.0391693115234375,0.71563720703125,-0.7741851806640625
1757088060913583900,1.895583984375,-0.1451873779296875,0.816802978515625,-0.8406524658203125
1757088060923630800,1.905630859375,-0.0214385986328125,1.058807373046875,-1.0436553955078125
1757088060933677800,1.915677734375,0.2132415771484375,1.12872314453125,-0.8876495361328125
1757088060943724000,1.92572412109375,0.2648162841796875,0.94366455078125,-0.316131591796875
1757088060953771000,1.93577099609375,0.037750244140625,0.8858795166015625,-0.028472900390625
1757088060963818000,1.94581787109375,-0.066802978515625,0.9888916015625,-0.048614501953125
1757088060973865000,1.955864990234375,0.0063323974609375,0.9449462890625,-0.1653900146484375
1757088060983911000,1.965910888671875,0.044036865234375,0.7832794189453125,-0.382171630859375
1757088060993958000,1.9759580078125,0.0359649658203125,0.6071624755859375,-0.5972442626953125
1757088061004004900,1.9860048828125,-0.009429931640625,0.536712646484375,-0.77117919921875
1757088061014051000,1.996051025390625,-0.0469207763671875,0.5663909912109375,-0.8370361328125
1757088061024097800,2.006097900390625,-0.0883941650390625,0.6566925048828125,-0.8351287841796875
1757088061034145000,2.01614501953125,-0.10906982421875,0.7360076904296875,-0.8240203857421875
1757088061044191000,2.02619091796875,-0.1433868408203125,0.7469940185546875,-0.7946319580078125
1757088061054238200,2.03623828125,-0.1633453369140625,0.70367431640625,-0.728363037109375
1757088061064285000,2.046284912109375,-0.111236572265625,0.626678466796875,-0.5991973876953125
1757088061074332000,2.056331787109375,0.020294189453125,0.513702392578125,-0.44134521484375
1757088061084378000,2.066378173828125,0.1318206787109375,0.363983154296875,-0.27392578125
1757088061094425000,2.076425048828125,0.1547698974609375,0.311492919921875,-0.1833343505859375
1757088061104471800,2.086471923828125,0.2118377685546875,0.3922882080078125,-0.2073211669921875
1757088061114518000,2.09651806640625,0.2143707275390625,0.470367431640625,-0.254913330078125
1757088061124565000,2.10656494140625,0.0441436767578125,0.648193359375,-0.3267364501953125
1757088061134612000,2.116612060546875,-0.191864013671875,0.9969940185546875,-0.481842041015625
1757088061144659000,2.126658935546875,-0.265472412109375,1.256011962890625,-0.629486083984375
1757088061154705200,2.136705078125,-0.1745147705078125,1.203643798828125,-0.587554931640625
1757088061164752100,2.146752197265625,-0.0188140869140625,1.0218505859375,-0.45751953125
1757088061174798800,2.156798828125,0.200653076171875,0.833587646484375,-0.3765411376953125
1757088061184845000,2.166844970703125,0.27001953125,0.766021728515625,-0.390960693359375
1757088061194892000,2.17689208984375,0.1843414306640625,0.7447052001953125,-0.3717498779296875
1757088061204939000,2.18693896484375,0.0830078125,0.84906005859375,-0.357757568359375
1757088061214986000,2.196986083984375,0.0523834228515625,0.9049530029296875,-0.3322601318359375
1757088061225032200,2.2070322265625,0.0348663330078125,0.8014678955078125,-0.2600250244140625
1757088061235079200,2.2170791015625,-0.009735107421875,0.652923583984375,-0.206329345703125
1757088061245126000,2.2271259765625,0.036041259765625,0.652191162109375,-0.162445068359375
1757088061255172000,2.237172119140625,-0.0694122314453125,0.6331329345703125,-0.056732177734375
1757088061265219000,2.247218994140625,-0.218719482421875,0.7019500732421875,0.0001068115234375
1757088061275266000,2.25726611328125,-0.116119384765625,0.691619873046875,0.0478057861328125
1757088061285312800,2.267312744140625,0.0128021240234375,1.0160675048828125,-0.0464630126953125
1757088061295359000,2.27735888671875,0.025543212890625,1.0844268798828125,-0.0980987548828125
1757088061305406200,2.28740625,0.0456085205078125,0.8903656005859375,0.0092010498046875
1757088061315453000,2.297452880859375,0.0129241943359375,0.8798065185546875,0.0039825439453125
1757088061325499100,2.3074990234375,0.012176513671875,0.991241455078125,-0.0996551513671875
1757088061335546000,2.317546142578125,0.00433349609375,0.9708709716796875,-0.0478057861328125
1757088061345593000,2.327593017578125,-0.0622711181640625,0.9241943359375,0.0406494140625
1757088061355639800,2.337639892578125,-0.08062744140625,1.080230712890625,-0.0534210205078125
1757088061365686000,2.34768603515625,-0.042083740234375,1.07562255859375,0.0194854736328125
1757088061375733000,2.35773291015625,-0.0647735595703125,1.0449066162109375,0.0228424072265625
1757088061385780200,2.3677802734375,-0.1121826171875,1.3069305419921875,-0.08428955078125
1757088061395827000,2.377826904296875,-0.078399658203125,1.7943267822265625,-0.092864990234375
1757088061405873200,2.387873046875,-0.0142364501953125,2.347381591796875,-0.0617828369140625
1757088061415920000,2.397920166015625,0.009063720703125,2.3212738037109375,-0.11334228515625
1757088061425967000,2.407967041015625,0.01434326171875,1.616790771484375,-0.3466339111328125
1757088061436013300,2.418013427734375,-0.0583343505859375,1.2391815185546875,-0.56915283203125
1757088061446060300,2.428060302734375,-0.0792236328125,1.2698974609375,-0.5523834228515625
1757088061456107300,2.438107177734375,-0.0013427734375,1.2558135986328125,-0.286773681640625
1757088061466154000,2.448154052734375,0.068634033203125,1.2330474853515625,0.0184326171875
1757088061476200200,2.4582001953125,0.10662841796875,1.204071044921875,0.211822509765625
1757088061486247200,2.4682470703125,0.13153076171875,1.1483154296875,0.2690582275390625
1757088061496294100,2.478294189453125,0.12158203125,0.995361328125,0.1911773681640625
1757088061506341000,2.488341064453125,0.0556488037109375,0.855438232421875,0.0790863037109375
1757088061516387300,2.49838720703125,-0.014892578125,0.848052978515625,0.1212158203125
1757088061526434300,2.508434326171875,-0.056060791015625,0.85711669921875,0.1382293701171875
1757088061536481000,2.51848095703125,-0.0712738037109375,0.8844757080078125,0.0560302734375
1757088061546528000,2.528528076171875,-0.07635498046875,0.8861541748046875,0.0001983642578125
1757088061556574200,2.53857421875,-0.0720977783203125,0.9271392822265625,0.0051422119140625
1757088061566621200,2.54862109375,-0.060791015625,0.955474853515625,0.026336669921875
1757088061576668200,2.558668212890625,-0.0436553955078125,0.9870452880859375,0.0394287109375
1757088061586714400,2.56871435546875,-0.026153564453125,0.978851318359375,0.03558349609375
1757088061596761300,2.57876123046875,-0.0123291015625,0.9742584228515625,0.0388031005859375
1757088061606808000,2.58880810546875,-0.0025634765625,0.9638519287109375,0.0380706787109375
1757088061616855000,2.59885498046875,-0.0014190673828125,0.977691650390625,0.0385894775390625
1757088061626901200,2.6089013671875,-0.0040130615234375,1.0076446533203125,0.0481719970703125
1757088061636948200,2.6189482421875,-0.0023956298828125,1.0456390380859375,0.0764007568359375
1757088061646995000,2.628994873046875,-0.0067138671875,1.03802490234375,0.0792694091796875
1757088061657042200,2.639042236328125,-0.022552490234375,1.0345611572265625,0.078857421875
1757088061667088400,2.64908837890625,-0.038360595703125,1.03948974609375,0.0615997314453125
1757088061677135000,2.659135009765625,-0.0498809814453125,1.0187225341796875,0.025909423828125
1757088061687182000,2.66918212890625,-0.0532989501953125,1.0479888916015625,0.0550079345703125
1757088061697229000,2.67922900390625,-0.0508880615234375,1.0242919921875,0.0631256103515625
1757088061707275300,2.689275146484375,-0.04339599609375,0.99688720703125,0.0169830322265625
1757088061717322000,2.699322021484375,-0.031646728515625,1.014129638671875,0.0198974609375
1757088061727369000,2.709368896484375,-0.0194091796875,1.012969970703125,0.0499725341796875
1757088061737416200,2.719416259765625,-0.0073394775390625,0.9934539794921875,0.052093505859375
1757088061747462400,2.72946240234375,0.0086822509765625,0.99127197265625,0.04876708984375
1757088061757509000,2.739509033203125,0.0158233642578125,0.996307373046875,0.0311431884765625
1757088061767556000,2.74955615234375,0.0129547119140625,1.0013885498046875,0.0171356201171875
1757088061777602300,2.759602294921875,0.0044097900390625,1.0078582763671875,0.0165557861328125
1757088061787649300,2.769649169921875,-0.0058135986328125,1.0086212158203125,0.0199737548828125
1757088061797696000,2.779696044921875,-0.0158843994140625,1.0061492919921875,0.0233917236328125
1757088061807743000,2.789742919921875,-0.023223876953125,1.0074005126953125,0.0255584716796875
1757088061817789200,2.7997890625,-0.0308074951171875,1.004058837890625,0.0304107666015625
1757088061827836200,2.809836181640625,-0.035003662109375,0.996734619140625,0.03717041015625
1757088061837883100,2.819883056640625,-0.0397491455078125,0.994293212890625,0.0362396240234375
1757088061847930000,2.82993017578125,-0.040863037109375,0.996337890625,0.036956787109375
1757088061857976300,2.839976318359375,-0.0415191650390625,0.9943084716796875,0.0370635986328125
1757088061868023000,2.85002294921875,-0.0407257080078125,0.99468994140625,0.0435333251953125
1757088061878070000,2.860070068359375,-0.0359039306640625,0.9901123046875,0.0472412109375
1757088061888116200,2.8701162109375,-0.0292510986328125,0.9825897216796875,0.050079345703125
1757088061898163200,2.8801630859375,-0.0260467529296875,0.9753265380859375,0.0529632568359375
1757088061908210200,2.890210205078125,-0.029022216796875,0.9875640869140625,0.05267333984375
1757088061918257200,2.900257080078125,-0.0301666259765625,0.996307373046875,0.0531158447265625
1757088061928303400,2.910303466796875,-0.0308837890625,0.993865966796875,0.0527191162109375
1757088061938350000,2.92035009765625,-0.03460693359375,1.0029296875,0.0523681640625
1757088061948397000,2.93039697265625,-0.033599853515625,1.00750732421875,0.05938720703125
1757088061958444000,2.940444091796875,-0.0332489013671875,1.0057525634765625,0.070343017578125
1757088061968490200,2.950490234375,-0.0359344482421875,1.006561279296875,0.077972412109375
1757088061978537000,2.960536865234375,-0.0405120849609375,1.0042724609375,0.08050537109375
1757088061988584200,2.970584228515625,-0.0402374267578125,1.00177001953125,0.08001708984375
1757088061998630400,2.98063037109375,-0.043426513671875,0.998382568359375,0.0765838623046875
1757088062008677000,2.990677001953125,-0.0454559326171875,0.9954833984375,0.0754852294921875
1757088062018724000,3.00072412109375,-0.04534912109375,0.9948272705078125,0.074951171875
1757088062028771000,3.01077099609375,-0.0447998046875,0.9925537109375,0.0728912353515625
1757088062038817300,3.0208173828125,-0.0450592041015625,0.9921112060546875,0.0691375732421875
1757088062048864000,3.030864013671875,-0.0438385009765625,0.997344970703125,0.0638427734375
1757088062058911000,3.040910888671875,-0.0429534912109375,1.0029296875,0.05908203125
1757088062068958200,3.050958251953125,-0.0460052490234375,1.0052337646484375,0.054443359375
1757088062079004200,3.061004150390625,-0.0462493896484375,1.0070037841796875,0.052581787109375
1757088062089051100,3.071051025390625,-0.0471954345703125,1.004852294921875,0.05084228515625
1757088062099098000,3.08109814453125,-0.0491180419921875,1.0007476806640625,0.0480804443359375
1757088062109144300,3.091144287109375,-0.047576904296875,0.9994354248046875,0.0465240478515625
1757088062119191300,3.10119140625,-0.0472564697265625,0.99676513671875,0.0428619384765625
1757088062129238000,3.111238037109375,-0.04510498046875,0.9945220947265625,0.038360595703125
1757088062139285000,3.121284912109375,-0.0421600341796875,0.9950103759765625,0.033935546875
1757088062149331200,3.131331298828125,-0.042999267578125,0.99639892578125,0.029296875
1757088062159378200,3.141378173828125,-0.04150390625,0.9974212646484375,0.02618408203125
1757088062169425200,3.151425048828125,-0.041656494140625,0.9961090087890625,0.0259246826171875
1757088062179472100,3.16147216796875,-0.043975830078125,0.99566650390625,0.0262451171875
1757088062189518300,3.171518310546875,-0.04193115234375,0.9941253662109375,0.0300750732421875
1757088062199565000,3.18156494140625,-0.0413970947265625,0.9926605224609375,0.036407470703125
1757088062209612000,3.191612060546875,-0.0389556884765625,0.9911346435546875,0.0462493896484375
1757088062219658200,3.201658203125,-0.038177490234375,0.9909820556640625,0.0544891357421875
1757088062229705200,3.211705322265625,-0.03826904296875,0.9929962158203125,0.061798095703125
1757088062239752000,3.221751953125,-0.0355987548828125,0.99652099609375,0.0679473876953125
1757088062249799200,3.231799072265625,-0.034149169921875,0.996063232421875,0.0714569091796875
1757088062259845400,3.241845458984375,-0.0321197509765625,0.9967041015625,0.076690673828125
1757088062269892000,3.25189208984375,-0.0289306640625,0.9954376220703125,0.0789031982421875
1757088062279939000,3.26193896484375,-0.024993896484375,0.99676513671875,0.07958984375
1757088062289985300,3.2719853515625,-0.0207977294921875,1.0025634765625,0.077880859375
1757088062300032300,3.2820322265625,-0.0168914794921875,1.006561279296875,0.0751495361328125
1757088062310079000,3.292078857421875,-0.0170440673828125,1.0058746337890625,0.0713653564453125
1757088062320126000,3.3021259765625,-0.0211029052734375,1.0024261474609375,0.0655364990234375
1757088062330172200,3.312172119140625,-0.025665283203125,0.998046875,0.0618438720703125
1757088062340219100,3.32221923828125,-0.0310211181640625,0.9954986572265625,0.0597991943359375
1757088062350266000,3.33226611328125,-0.0357208251953125,0.993377685546875,0.058837890625
1757088062360312300,3.342312255859375,-0.03955078125,0.9937744140625,0.0552825927734375
1757088062370359300,3.352359375,-0.0399627685546875,0.9950408935546875,0.0525665283203125
1757088062380406000,3.362406005859375,-0.0400848388671875,0.9975433349609375,0.0498199462890625
1757088062390453000,3.372452880859375,-0.037139892578125,0.9979095458984375,0.04669189453125
1757088062400499200,3.382499267578125,-0.0327301025390625,0.9957733154296875,0.0455169677734375
1757088062410546200,3.392546142578125,-0.0287017822265625,0.9949493408203125,0.04931640625
1757088062420593000,3.402593017578125,-0.0244293212890625,0.9945526123046875,0.0560760498046875
1757088062430639900,3.412639892578125,-0.0185546875,0.993988037109375,0.0601348876953125
1757088062440686000,3.42268603515625,-0.0146331787109375,0.9968109130859375,0.05999755859375
1757088062450733000,3.432733154296875,-0.0147857666015625,0.9989166259765625,0.0592041015625
1757088062460780000,3.442780029296875,-0.01971435546875,0.99884033203125,0.05517578125
1757088062470826200,3.452826171875,-0.0270843505859375,0.999786376953125,0.0499420166015625
1757088062480873200,3.462873291015625,-0.0328216552734375,1.0014801025390625,0.0413665771484375
1757088062490920200,3.472920166015625,-0.0412445068359375,1.00115966796875,0.0351409912109375
1757088062500967000,3.482966796875,-0.04345703125,1.001007080078125,0.0301361083984375
1757088062511013000,3.49301318359375,-0.0458831787109375,0.9992218017578125,0.02691650390625
1757088062521060000,3.50306005859375,-0.0516815185546875,0.993927001953125,0.028106689453125
1757088062531107000,3.513107177734375,-0.0560455322265625,0.983856201171875,0.030975341796875
1757088062541153000,3.523153076171875,-0.0544891357421875,0.979248046875,0.0348052978515625
1757088062551200300,3.5332001953125,-0.0492095947265625,0.978851318359375,0.0439910888671875
1757088062561247200,3.543247314453125,-0.043609619140625,0.98193359375,0.0514373779296875
1757088062571294000,3.5532939453125,-0.0302886962890625,0.9897308349609375,0.05706787109375
1757088062581340200,3.563340087890625,-0.0157318115234375,1.0003814697265625,0.05816650390625
1757088062591387100,3.57338720703125,-0.0068206787109375,1.0103912353515625,0.0626373291015625
1757088062601434000,3.58343408203125,-0.0042266845703125,1.01727294921875,0.070343017578125
1757088062611480000,3.59347998046875,-0.007049560546875,1.0206298828125,0.074005126953125
1757088062621527000,3.603527099609375,-0.015869140625,1.017608642578125,0.076934814453125
1757088062631574300,3.61357421875,-0.0233306884765625,1.00946044921875,0.0794525146484375
1757088062641621000,3.62362109375,-0.0337677001953125,1.000701904296875,0.0828704833984375
1757088062651667200,3.633667236328125,-0.04229736328125,0.9887542724609375,0.08123779296875
1757088062661714200,3.643714111328125,-0.0501861572265625,0.97955322265625,0.073974609375
1757088062671761200,3.65376123046875,-0.0596923828125,0.9775543212890625,0.071746826171875
1757088062681808000,3.663807861328125,-0.0637664794921875,0.9788970947265625,0.07025146484375
1757088062691854000,3.67385400390625,-0.0632171630859375,0.982330322265625,0.0687103271484375
1757088062701901000,3.683901123046875,-0.0597686767578125,0.9883575439453125,0.06585693359375
1757088062711948000,3.693947998046875,-0.0535736083984375,0.9932098388671875,0.0653076171875
1757088062721994200,3.703994140625,-0.048583984375,1.0019378662109375,0.0647735595703125
1757088062732041200,3.714041259765625,-0.0462799072265625,1.0075225830078125,0.0636138916015625
1757088062742088200,3.724088134765625,-0.044342041015625,1.006103515625,0.0642547607421875
1757088062752135000,3.734135009765625,-0.0426025390625,1.001251220703125,0.066680908203125
1757088062762181000,3.74418115234375,-0.0421905517578125,0.9978485107421875,0.071319580078125
1757088062772228000,3.75422802734375,-0.043121337890625,0.99267578125,0.0731353759765625
1757088062782275000,3.764275146484375,-0.04241943359375,0.9947357177734375,0.0704803466796875
1757088062792321000,3.774321044921875,-0.042510986328125,1.0020599365234375,0.0627288818359375
1757088062802368000,3.784367919921875,-0.042877197265625,1.010955810546875,0.0545806884765625
1757088062812415200,3.794415283203125,-0.042633056640625,1.0145111083984375,0.05010986328125
1757088062822462200,3.804462158203125,-0.043243408203125,1.0161590576171875,0.0500640869140625
1757088062832508200,3.814508056640625,-0.0397796630859375,1.014678955078125,0.05645751953125
1757088062842555100,3.82455517578125,-0.0344390869140625,1.00726318359375,0.0611724853515625
1757088062852602000,3.83460205078125,-0.03009033203125,1.0054473876953125,0.06219482421875
1757088062862648000,3.84464794921875,-0.022613525390625,1.002044677734375,0.0633392333984375
1757088062872695000,3.854695068359375,-0.0132293701171875,1.0029449462890625,0.064849853515625
1757088062882742000,3.864741943359375,-0.01068115234375,1.004547119140625,0.067169189453125
1757088062892789200,3.874789306640625,-0.014678955078125,1.005706787109375,0.0733642578125
1757088062902835200,3.884835205078125,-0.0223236083984375,1.00286865234375,0.0794677734375
1757088062912882200,3.894882080078125,-0.03204345703125,0.998260498046875,0.081939697265625
1757088062922929200,3.90492919921875,-0.0382232666015625,0.992523193359375,0.0826873779296875
1757088062932975000,3.91497509765625,-0.0394134521484375,0.9870147705078125,0.0767822265625
1757088062943022000,3.92502197265625,-0.035736083984375,0.9851226806640625,0.06817626953125
1757088062953069000,3.935069091796875,-0.030609130859375,0.98724365234375,0.0620880126953125
1757088062963116000,3.945115966796875,-0.02685546875,0.989654541015625,0.0567474365234375
1757088062973162000,3.955161865234375,-0.026092529296875,0.9895172119140625,0.046173095703125
1757088062983209200,3.965209228515625,-0.02862548828125,0.990478515625,0.0404815673828125
1757088062993256200,3.975256103515625,-0.0319061279296875,0.9917449951171875,0.039337158203125
1757088063003302100,3.98530224609375,-0.028167724609375,0.9915771484375,0.0462799072265625
1757088063013349000,3.99534912109375,-0.0243682861328125,0.9904632568359375,0.0605010986328125
1757088063023396000,4.00539599609375,-0.0248870849609375,0.993682861328125,0.0736236572265625
1757088063033443000,4.015443115234375,-0.02789306640625,1.0001068115234375,0.081146240234375
1757088063043489000,4.025489013671875,-0.035064697265625,1.0091400146484375,0.0853424072265625
1757088063053536000,4.035535888671875,-0.0455322265625,1.017242431640625,0.08795166015625
1757088063063583200,4.045583251953125,-0.0496368408203125,1.011932373046875,0.0873870849609375
1757088063073629200,4.055629150390625,-0.0493011474609375,0.99737548828125,0.083892822265625
1757088063083676200,4.06567626953125,-0.04498291015625,0.977569580078125,0.075439453125
1757088063093723100,4.07572314453125,-0.041900634765625,0.9600982666015625,0.0666351318359375
1757088063103770000,4.08577001953125,-0.037811279296875,0.953948974609375,0.0567626953125
1757088063113816000,4.095816162109375,-0.0331573486328125,0.9644927978515625,0.0537109375
1757088063123863000,4.105863037109375,-0.02947998046875,0.982025146484375,0.0535125732421875
1757088063133910000,4.115909912109375,-0.0225830078125,0.9990234375,0.055206298828125
1757088063143956000,4.1259560546875,-0.017059326171875,1.0126800537109375,0.0597991943359375
1757088063154003200,4.136003173828125,-0.0082855224609375,1.0181121826171875,0.0677947998046875
1757088063164050200,4.14605029296875,-0.0005950927734375,1.0184173583984375,0.0765380859375
1757088063174097200,4.15609716796875,0.0041656494140625,1.01446533203125,0.080413818359375
1757088063184143000,4.16614306640625,0.0089569091796875,1.0095672607421875,0.0792236328125
1757088063194190000,4.176190185546875,0.0117645263671875,1.0065155029296875,0.0741729736328125
1757088063204237000,4.186237060546875,0.0087127685546875,1.008575439453125,0.068267822265625
1757088063214284000,4.196283935546875,0.0057373046875,1.014434814453125,0.065521240234375
1757088063224330000,4.206330078125,0.005096435546875,1.019287109375,0.0761871337890625
1757088063234377200,4.216377197265625,0.0094757080078125,1.02593994140625,0.0928955078125
1757088063244424200,4.226424072265625,0.019439697265625,1.0246734619140625,0.1077728271484375
1757088063254470100,4.23647021484375,0.03125,1.028350830078125,0.1155548095703125
1757088063264517000,4.24651708984375,0.0420074462890625,1.03515625,0.12237548828125
1757088063274564000,4.256564208984375,0.050872802734375,1.050445556640625,0.1295166015625
1757088063284611000,4.266611083984375,0.058349609375,1.065155029296875,0.1389923095703125
1757088063294657000,4.276656982421875,0.0641326904296875,1.0769195556640625,0.1473388671875
1757088063304704000,4.2867041015625,0.0637664794921875,1.089111328125,0.1497802734375
1757088063314751200,4.296751220703125,0.0696258544921875,1.097869873046875,0.1444091796875
1757088063324797200,4.306797119140625,0.07855224609375,1.1086883544921875,0.131591796875
1757088063334844200,4.31684423828125,0.0879058837890625,1.1223602294921875,0.1055908203125
1757088063344891100,4.32689111328125,0.090484619140625,1.1298370361328125,0.0774078369140625
1757088063354938000,4.336938232421875,0.0965728759765625,1.1308746337890625,0.02410888671875
1757088063364984000,4.346984130859375,0.107574462890625,1.11248779296875,-0.0385284423828125
1757088063375031000,4.357031005859375,0.1171112060546875,1.0769805908203125,-0.0922698974609375
1757088063385078000,4.367078125,0.1273956298828125,1.0508270263671875,-0.113922119140625
1757088063395124000,4.3771240234375,0.1259765625,1.0154571533203125,-0.1300811767578125
1757088063405171200,4.387171142578125,0.140533447265625,0.993896484375,-0.1422119140625
1757088063415218200,4.39721826171875,0.1666717529296875,0.9666595458984375,-0.117340087890625
1757088063425265200,4.40726513671875,0.17303466796875,0.94085693359375,-0.0717010498046875
1757088063435311000,4.41731103515625,0.1715850830078125,0.930023193359375,-0.046295166015625
1757088063445358000,4.427358154296875,0.1643829345703125,0.9202728271484375,-0.035064697265625
1757088063455405000,4.437405029296875,0.16363525390625,0.922698974609375,-0.0242462158203125
1757088063465451000,4.447450927734375,0.170623779296875,0.9356231689453125,-0.01202392578125
1757088063475498000,4.457498046875,0.1670989990234375,0.945281982421875,0.0063323974609375
1757088063485545200,4.467545166015625,0.157379150390625,0.951202392578125,0.0153656005859375
1757088063495592200,4.47759228515625,0.145782470703125,0.9609222412109375,0.0157928466796875
1757088063505638100,4.48763818359375,0.1305999755859375,0.9757232666015625,0.007965087890625
1757088063515685000,4.49768505859375,0.1113739013671875,0.9924163818359375,-0.0199432373046875
1757088063525732000,4.507732177734375,0.0936126708984375,1.0075225830078125,-0.0574951171875
1757088063535778000,4.517778076171875,0.117462158203125,1.0155029296875,-0.0750274658203125
1757088063545825000,4.527824951171875,0.1602325439453125,1.0200347900390625,-0.06964111328125
1757088063555872000,4.5378720703125,0.175750732421875,1.03204345703125,-0.0612945556640625
1757088063565919200,4.547919189453125,0.1622467041015625,1.05621337890625,-0.06280517578125
1757088063575965000,4.55796484375,0.146514892578125,1.073394775390625,-0.071685791015625
1757088063586012200,4.56801220703125,0.179656982421875,1.1028900146484375,-0.0892181396484375
1757088063596059100,4.57805908203125,0.278411865234375,1.1453399658203125,-0.1103973388671875
1757088063606106000,4.588106201171875,0.346435546875,1.1585693359375,-0.14215087890625
1757088063616152000,4.598152099609375,0.324981689453125,1.190216064453125,-0.1569061279296875
1757088063626199000,4.608198974609375,0.2741851806640625,1.20220947265625,-0.1871185302734375
1757088063636246000,4.61824609375,0.240081787109375,1.218170166015625,-0.2039031982421875
1757088063646292000,4.6282919921875,0.275726318359375,1.205169677734375,-0.203521728515625
1757088063656339000,4.6383388671875,0.423614501953125,1.1605377197265625,-0.2033538818359375
1757088063666386200,4.64838623046875,0.4644012451171875,1.13385009765625,-0.15814208984375
1757088063676433200,4.65843310546875,0.423187255859375,1.1080169677734375,-0.145355224609375
1757088063686479000,4.66847900390625,0.4305419921875,1.1072540283203125,-0.163665771484375
1757088063696526000,4.678526123046875,0.4502105712890625,1.1069183349609375,-0.143035888671875
1757088063706573000,4.688572998046875,0.440765380859375,1.0701904296875,-0.1310882568359375
1757088063716620000,4.6986201171875,0.465301513671875,1.03759765625,-0.1225433349609375
1757088063726666000,4.708666015625,0.49725341796875,1.0521392822265625,-0.1343994140625
1757088063736713000,4.718712890625,0.40802001953125,1.0325164794921875,-0.1648406982421875
1757088063746760200,4.72876025390625,0.3710174560546875,0.9911041259765625,-0.1674957275390625
1757088063756806100,4.73880615234375,0.32415771484375,0.954010009765625,-0.206939697265625
1757088063766853000,4.74885302734375,0.283782958984375,0.942474365234375,-0.26385498046875
1757088063776900000,4.758900146484375,0.3519287109375,0.9090423583984375,-0.23565673828125
1757088063786947000,4.768947021484375,0.3971405029296875,0.8551025390625,-0.1725006103515625
1757088063796993000,4.778992919921875,0.35675048828125,0.7989044189453125,-0.141876220703125
1757088063807040000,4.7890400390625,0.3165435791015625,0.726531982421875,-0.159149169921875
1757088063817087000,4.7990869140625,0.303131103515625,0.6771392822265625,-0.1861572265625
1757088063827134200,4.80913427734375,0.31158447265625,0.65350341796875,-0.2076873779296875
1757088063837180200,4.81918017578125,0.34307861328125,0.6357879638671875,-0.2178955078125
1757088063847227100,4.82922705078125,0.35467529296875,0.6360931396484375,-0.2147064208984375
1757088063857274000,4.839274169921875,0.3571014404296875,0.6089630126953125,-0.195037841796875
1757088063867321000,4.849321044921875,0.356964111328125,0.5756378173828125,-0.203948974609375
1757088063877367000,4.859366943359375,0.34869384765625,0.5517425537109375,-0.234588623046875
1757088063887414000,4.8694140625,0.3596038818359375,0.528167724609375,-0.2233734130859375
1757088063897461000,4.8794609375,0.376983642578125,0.49822998046875,-0.1864471435546875
1757088063907507000,4.8895068359375,0.381317138671875,0.4663238525390625,-0.1638031005859375
1757088063917554200,4.89955419921875,0.39373779296875,0.4493255615234375,-0.1743621826171875
1757088063927601200,4.90960107421875,0.40179443359375,0.456390380859375,-0.1851654052734375
1757088063937648000,4.919648193359375,0.4176177978515625,0.475189208984375,-0.2039794921875
1757088063947694000,4.929694091796875,0.4422149658203125,0.5010223388671875,-0.2215423583984375
1757088063957741000,4.939740966796875,0.4586181640625,0.5250091552734375,-0.2525634765625
1757088063967788000,4.9497880859375,0.47552490234375,0.53961181640625,-0.28228759765625
1757088063977834000,4.959833984375,0.5061492919921875,0.54669189453125,-0.2986602783203125
1757088063987881000,4.969880859375,0.5402374267578125,0.56134033203125,-0.3191986083984375
1757088063997928200,4.97992822265625,0.566925048828125,0.5687103271484375,-0.3267364501953125
1757088064007975200,4.98997509765625,0.58935546875,0.5746307373046875,-0.321685791015625
1757088064018021000,5.000021240234375,0.59521484375,0.5862579345703125,-0.321319580078125
1757088064028068000,5.010068115234375,0.571929931640625,0.608734130859375,-0.34844970703125
1757088064038115000,5.020114990234375,0.561798095703125,0.614410400390625,-0.4005889892578125
1757088064048162000,5.030162109375,0.52557373046875,0.6049957275390625,-0.366729736328125
1757088064058208000,5.0402080078125,0.5570068359375,0.65985107421875,-0.228851318359375
1757088064068255000,5.0502548828125,0.675689697265625,0.8327789306640625,-0.13885498046875
1757088064078302200,5.06030224609375,0.7969970703125,1.10760498046875,-0.181488037109375
1757088064088348200,5.07034814453125,0.8485260009765625,1.3816986083984375,-0.3413238525390625
1757088064098395100,5.08039501953125,0.7895660400390625,1.4891204833984375,-0.4803009033203125
1757088064108442000,5.090442138671875,0.615936279296875,1.33941650390625,-0.5421142578125
1757088064118489000,5.100489013671875,0.5468292236328125,0.997100830078125,-0.471343994140625
1757088064128535000,5.11053515625,0.5513916015625,0.68035888671875,-0.2711029052734375
1757088064138582000,5.12058203125,0.5093231201171875,0.5108795166015625,-0.21026611328125
1757088064148629000,5.13062890625,0.4747161865234375,0.500885009765625,-0.2704925537109375
1757088064158675000,5.140675048828125,0.501708984375,0.6086578369140625,-0.3358917236328125
1757088064168722200,5.15072216796875,0.5714874267578125,0.8058319091796875,-0.3861846923828125
1757088064178769200,5.16076904296875,0.5600128173828125,1.0282440185546875,-0.3754425048828125
1757088064188816100,5.170816162109375,0.498016357421875,1.1869049072265625,-0.2960357666015625
1757088064198862000,5.180862060546875,0.5173187255859375,1.2453155517578125,-0.2111053466796875
1757088064208909000,5.190908935546875,0.54156494140625,1.244873046875,-0.1761474609375
1757088064218956000,5.2009560546875,0.5012664794921875,1.2187042236328125,-0.1904449462890625
1757088064229003000,5.2110029296875,0.4221954345703125,1.1726226806640625,-0.1768341064453125
1757088064239049000,5.221049072265625,0.348297119140625,1.0890655517578125,-0.1372222900390625
1757088064249096200,5.23109619140625,0.3797760009765625,0.9876861572265625,-0.082244873046875
1757088064259143200,5.24114306640625,0.3175048828125,0.92449951171875,-0.06182861328125
1757088064269189000,5.251189208984375,0.2266845703125,0.885009765625,-0.0533447265625
1757088064279236000,5.261236083984375,0.2385406494140625,0.8538665771484375,-0.0391845703125
1757088064289283000,5.271282958984375,0.2672882080078125,0.8468170166015625,-0.02850341796875
1757088064299330000,5.281330078125,0.2880401611328125,0.8695220947265625,-0.023956298828125
1757088064309376000,5.2913759765625,0.3045501708984375,0.92352294921875,-0.0301513671875
1757088064319423000,5.301423095703125,0.273040771484375,1.0071868896484375,-0.03692626953125
1757088064329470200,5.31147021484375,0.2357330322265625,1.0955352783203125,-0.06463623046875
1757088064339516200,5.32151611328125,0.2637786865234375,1.1702880859375,-0.0888824462890625
1757088064349563100,5.331563232421875,0.289306640625,1.2236785888671875,-0.125762939453125
1757088064359610000,5.341610107421875,0.2435150146484375,1.2451019287109375,-0.168975830078125
1757088064369657000,5.351656982421875,0.200714111328125,1.2355499267578125,-0.173492431640625
1757088064379703000,5.361703125,0.1975250244140625,1.1922149658203125,-0.1717071533203125
1757088064389750000,5.37175,0.1866455078125,1.1357269287109375,-0.14874267578125
1757088064399797000,5.381796875,0.17864990234375,1.049468994140625,-0.092376708984375
1757088064409843000,5.391843017578125,0.174072265625,0.9620819091796875,-0.047637939453125
1757088064419890000,5.401889892578125,0.1730194091796875,0.9153289794921875,-0.0315704345703125
1757088064429938000,5.41193798828125,0.1211090087890625,0.872650146484375,-0.0370025634765625
1757088064439985000,5.42198486328125,0.0335693359375,0.8469390869140625,-0.045867919921875
1757088064450030800,5.43203076171875,-0.0076751708984375,0.8440093994140625,-0.105621337890625
1757088064460077800,5.442077880859375,-0.0178070068359375,0.8357696533203125,-0.154449462890625
1757088064470124800,5.452124755859375,-0.0350799560546875,0.8140411376953125,-0.1925048828125
1757088064480170800,5.462170654296875,-0.05126953125,0.77996826171875,-0.28558349609375
1757088064490217700,5.4722177734375,-0.04608154296875,0.764984130859375,-0.3172149658203125
1757088064500265000,5.482264892578125,0.015045166015625,0.753570556640625,-0.2848358154296875
1757088064510311000,5.492310791015625,0.082550048828125,0.7109375,-0.262420654296875
1757088064520358000,5.50235791015625,0.135589599609375,0.6919403076171875,-0.227447509765625
1757088064530404900,5.51240478515625,0.159515380859375,0.7214813232421875,-0.2151031494140625
1757088064540451800,5.522451904296875,0.1307525634765625,0.75555419921875,-0.2045135498046875
1757088064550497800,5.532497802734375,0.12689208984375,0.790191650390625,-0.1885833740234375
1757088064560544800,5.542544677734375,0.0872344970703125,0.8375091552734375,-0.1995391845703125
1757088064570591700,5.552591796875,0.0122222900390625,0.892364501953125,-0.1983795166015625
1757088064580637700,5.5626376953125,-0.0766143798828125,0.9644317626953125,-0.1353607177734375
1757088064590685000,5.572684814453125,0.0310821533203125,1.0153045654296875,-0.000701904296875
1757088064600732000,5.58273193359375,0.25189208984375,1,0.114776611328125
1757088064610779000,5.59277880859375,0.28753662109375,0.9751129150390625,0.199981689453125
1757088064620824800,5.602824951171875,0.2345428466796875,0.9469757080078125,0.2198638916015625
1757088064630871800,5.612871826171875,0.1859283447265625,0.94122314453125,0.1888885498046875
1757088064640918800,5.622918701171875,0.176300048828125,0.9734344482421875,0.1549530029296875
1757088064650964700,5.63296484375,0.1924285888671875,1.0102996826171875,0.1243438720703125
1757088064661011700,5.64301171875,0.2127838134765625,1.031219482421875,0.09771728515625
1757088064671059000,5.653058837890625,0.2026214599609375,1.0264129638671875,0.04449462890625
1757088064681105000,5.66310498046875,0.1470184326171875,1.014984130859375,-0.0088043212890625
1757088064691152000,5.67315185546875,0.0963287353515625,1.0387115478515625,-0.04302978515625
1757088064701198800,5.68319873046875,0.0650634765625,1.080291748046875,-0.07513427734375
1757088064711245800,5.693245849609375,0.0397796630859375,1.109130859375,-0.08563232421875
1757088064721291800,5.703291748046875,0.03363037109375,1.1230926513671875,-0.0692901611328125
1757088064731338800,5.7133388671875,0.007293701171875,1.118072509765625,-0.0122833251953125
1757088064741385700,5.7233857421875,-0.001983642578125,1.1025543212890625,0.0586395263671875
1757088064751431700,5.733431640625,-0.0073394775390625,1.1094512939453125,0.106201171875
1757088064761479000,5.74347900390625,-0.0569915771484375,1.1346435546875,0.108184814453125
1757088064771526000,5.75352587890625,-0.098236083984375,1.1578369140625,0.098541259765625
1757088064781571800,5.76357177734375,-0.15850830078125,1.198486328125,0.12811279296875
1757088064791618800,5.773618896484375,-0.182861328125,1.279022216796875,0.159027099609375
1757088064801665800,5.783665771484375,-0.2105865478515625,1.3779296875,0.17840576171875
1757088064811712800,5.793712646484375,-0.1989593505859375,1.490478515625,0.16571044921875
1757088064821758700,5.8037587890625,-0.14447021484375,1.6074981689453125,0.1149139404296875
1757088064831805700,5.8138056640625,-0.082275390625,1.7045745849609375,0.0633392333984375
1757088064841853000,5.82385302734375,-0.002777099609375,1.7423248291015625,0.02349853515625
1757088064851899000,5.83389892578125,0.0829620361328125,1.6827392578125,0.001007080078125
1757088064861945900,5.84394580078125,0.17938232421875,1.5312957763671875,-0.0281829833984375
1757088064871992800,5.853992919921875,0.3091278076171875,1.3726806640625,-0.0283355712890625
1757088064882038800,5.864038818359375,0.402313232421875,1.240478515625,-0.03375244140625
1757088064892085800,5.874085693359375,0.41656494140625,1.131072998046875,-0.0795745849609375
1757088064902132700,5.8841328125,0.39520263671875,1.0611419677734375,-0.118408203125
1757088064912179700,5.8941796875,0.4008026123046875,1.0364227294921875,-0.1124420166015625
1757088064922225700,5.9042255859375,0.39892578125,1.05340576171875,-0.072784423828125
1757088064932273000,5.91427294921875,0.3737335205078125,1.0812835693359375,-0.02996826171875
1757088064942319900,5.92431982421875,0.30670166015625,1.1118927001953125,-0.0489654541015625
1757088064952365800,5.93436572265625,0.2678375244140625,1.17633056640625,-0.08905029296875
1757088064962412800,5.944412841796875,0.1665802001953125,1.22344970703125,-0.083740234375
1757088064972459800,5.954459716796875,-0.0184326171875,1.2013702392578125,-0.146240234375
1757088064982505700,5.964505615234375,-0.218231201171875,1.21441650390625,-0.2073822021484375
1757088064992552700,5.974552734375,-0.3528289794921875,1.2222900390625,-0.19293212890625
1757088065002599700,5.984599609375,-0.4092559814453125,1.21795654296875,-0.21319580078125
1757088065012646700,5.994646728515625,-0.308685302734375,1.253082275390625,-0.24700927734375
1757088065022692600,6.004692626953125,0.0701446533203125,1.2769927978515625,0.024078369140625
1757088065032739800,6.01473974609375,0.332366943359375,1.23211669921875,0.0199737548828125
1757088065042786800,6.024786865234375,0.5839080810546875,1.15460205078125,-0.067413330078125
1757088065052832800,6.034832763671875,0.61273193359375,1.154144287109375,-0.0915985107421875
1757088065062879700,6.044879638671875,0.2684326171875,1.1350555419921875,-0.1698760986328125
1757088065072926700,6.0549267578125,0.1658935546875,1.1535797119140625,-0.1125640869140625
1757088065082972700,6.06497265625,0.1775054931640625,1.107452392578125,-0.0550384521484375
1757088065093019600,6.07501953125,0.2100982666015625,0.9918060302734375,-0.067901611328125
1757088065103066600,6.085066650390625,0.194793701171875,0.9306488037109375,0.0523529052734375
1757088065113112600,6.095112548828125,0.117584228515625,0.8576507568359375,0.088165283203125
1757088065123159800,6.105159912109375,0.051116943359375,0.8042755126953125,0.033782958984375
1757088065133206800,6.115206787109375,0.0314483642578125,0.7982940673828125,0.035430908203125
1757088065143253800,6.125253662109375,0.0485382080078125,0.7996978759765625,0.0109405517578125
1757088065153299700,6.1352998046875,0.0641021728515625,0.8113555908203125,-0.011322021484375
1757088065163346700,6.1453466796875,0.054168701171875,0.8031005859375,-0.017852783203125
1757088065173393700,6.1553935546875,0.0965118408203125,0.753631591796875,-0.0360870361328125
1757088065183439600,6.165439697265625,0.187774658203125,0.6973876953125,-0.03216552734375
1757088065193486600,6.175486572265625,0.2315826416015625,0.6710662841796875,-0.034332275390625
1757088065203533800,6.185533935546875,0.2417755126953125,0.645751953125,-0.055084228515625
1757088065213579800,6.195579833984375,0.2215576171875,0.57171630859375,-0.11151123046875
1757088065223626800,6.205626708984375,0.18341064453125,0.5308380126953125,-0.101409912109375
1757088065233673700,6.215673828125,0.1569671630859375,0.5137176513671875,-0.1118621826171875
1757088065243720700,6.225720703125,0.1895294189453125,0.505584716796875,-0.1530609130859375
1757088065253766700,6.2357666015625,0.19268798828125,0.5150299072265625,-0.1628570556640625
1757088065263813600,6.245813720703125,0.177520751953125,0.5113067626953125,-0.14349365234375
1757088065273860600,6.255860595703125,0.1688079833984375,0.481231689453125,-0.1041259765625
1757088065283906800,6.26590673828125,0.154693603515625,0.44464111328125,-0.0404510498046875
1757088065293953800,6.275953857421875,0.135833740234375,0.4195556640625,-0.021270751953125
1757088065304000800,6.286000732421875,0.1288604736328125,0.40130615234375,-0.0359039306640625
1757088065314047000,6.296046875,0.1455841064453125,0.3993072509765625,-0.054412841796875
1757088065324093700,6.30609375,0.195556640625,0.381011962890625,-0.0804290771484375
1757088065334140700,6.316140625,0.257781982421875,0.4134368896484375,-0.053070068359375
1757088065344187000,6.326186767578125,0.3023834228515625,0.432098388671875,-0.1138153076171875
1757088065354233900,6.33623388671875,0.3367919921875,0.4584197998046875,-0.1881103515625
1757088065364280600,6.346280517578125,0.36761474609375,0.49444580078125,-0.2362060546875
1757088065374327800,6.356327880859375,0.376678466796875,0.528961181640625,-0.2420501708984375
1757088065384374000,6.3663740234375,0.371368408203125,0.559478759765625,-0.2474212646484375
1757088065394420700,6.376420654296875,0.3761138916015625,0.5974884033203125,-0.247772216796875
1757088065404467700,6.3864677734375,0.417022705078125,0.66204833984375,-0.2454071044921875
1757088065414514000,6.396513916015625,0.4548187255859375,0.7358856201171875,-0.2469482421875
1757088065424559900,6.406559814453125,0.457794189453125,0.7783660888671875,-0.2436065673828125
1757088065434606800,6.41660693359375,0.482940673828125,0.848297119140625,-0.21966552734375
1757088065444654000,6.426654052734375,0.5858001708984375,0.9031524658203125,-0.271759033203125
1757088065454700000,6.436699951171875,0.5984039306640625,0.877899169921875,-0.2764434814453125
1757088065464747000,6.4467470703125,0.89154052734375,1.0265045166015625,-0.3205718994140625
1757088065474794000,6.4567939453125,0.9797515869140625,1.292724609375,-0.4628753662109375
1757088065484840000,6.46683984375,0.734222412109375,1.603057861328125,-0.7412567138671875
1757088065494887000,6.476886962890625,0.474090576171875,1.80426025390625,-0.99609375
1757088065504934000,6.486933837890625,0.2920989990234375,1.9673004150390625,-0.926849365234375
1757088065514979800,6.496979736328125,0.198089599609375,1.817626953125,-0.623687744140625
1757088065525026800,6.50702685546875,0.425140380859375,1.3217926025390625,-0.390838623046875
1757088065535074000,6.517073974609375,0.729736328125,0.958404541015625,-0.2021942138671875
1757088065545119700,6.52711962890625,0.44195556640625,0.848480224609375,-0.149139404296875
1757088065555167000,6.5371669921875,0.1658935546875,0.765472412109375,-0.152374267578125
1757088065565214000,6.5472138671875,0.2824859619140625,0.71929931640625,-0.1970367431640625
1757088065575261000,6.557260986328125,0.3399658203125,0.7806854248046875,-0.1059112548828125
1757088065585307000,6.567306884765625,0.3514862060546875,0.876556396484375,0.0065765380859375
1757088065595353900,6.577353759765625,0.32977294921875,0.9629058837890625,0.0758514404296875
1757088065605400800,6.58740087890625,0.225616455078125,1.027191162109375,0.1274261474609375
1757088065615446800,6.59744677734375,0.1577301025390625,1.0509796142578125,0.143798828125
1757088065625493800,6.60749365234375,0.1715545654296875,1.0543670654296875,0.1180419921875
1757088065635541000,6.617541015625,0.1961669921875,1.0671539306640625,0.0928497314453125
1757088065645587000,6.6275869140625,0.18634033203125,1.0795440673828125,0.089599609375
1757088065655634000,6.637634033203125,0.1552581787109375,1.087615966796875,0.07781982421875
1757088065665681000,6.647680908203125,0.1235198974609375,1.102813720703125,0.071319580078125
1757088065675728000,6.657727783203125,0.1207733154296875,1.124359130859375,0.037811279296875
1757088065685773800,6.66777392578125,0.13555908203125,1.154205322265625,-0.0331268310546875
1757088065695820800,6.67782080078125,0.1811676025390625,1.1875457763671875,-0.1141357421875
1757088065705867800,6.68786767578125,0.190093994140625,1.192413330078125,-0.1712799072265625
1757088065715913700,6.697913818359375,0.1683197021484375,1.16363525390625,-0.164794921875
1757088065725961000,6.7079609375,0.157928466796875,1.098052978515625,-0.1446533203125
1757088065736008000,6.718008056640625,0.1429443359375,0.9809112548828125,-0.148895263671875
1757088065746054000,6.728053955078125,0.1387786865234375,0.863037109375,-0.1510009765625
1757088065756100900,6.738100830078125,0.1310577392578125,0.790130615234375,-0.142730712890625
1757088065766147800,6.74814794921875,0.107513427734375,0.7618255615234375,-0.141326904296875
1757088065776194800,6.75819482421875,0.06683349609375,0.7521514892578125,-0.13934326171875
1757088065786240800,6.76824072265625,0.02496337890625,0.7445220947265625,-0.128570556640625
1757088065796287700,6.778287841796875,-0.0365753173828125,0.7301483154296875,-0.15283203125
1757088065806335000,6.7883349609375,-0.090911865234375,0.7418365478515625,-0.2197723388671875
1757088065816381000,6.798380859375,-0.1197357177734375,0.7465667724609375,-0.2716217041015625
1757088065826428000,6.808427978515625,-0.101318359375,0.7186126708984375,-0.28399658203125
1757088065836475000,6.818474853515625,-0.0648345947265625,0.6744842529296875,-0.2802734375
1757088065846520800,6.828520751953125,-0.0485076904296875,0.636322021484375,-0.287628173828125
1757088065856567800,6.83856787109375,-0.040130615234375,0.624420166015625,-0.288726806640625
1757088065866614800,6.84861474609375,-0.0011749267578125,0.655609130859375,-0.1830902099609375
1757088065876661800,6.858661865234375,0.1138916015625,0.76641845703125,-0.004241943359375
1757088065886707700,6.868707763671875,0.2418670654296875,0.912017822265625,0.0752410888671875
1757088065896755000,6.8787548828125,0.1473236083984375,0.9642486572265625,0.12725830078125
1757088065906802000,6.888802001953125,0.0909881591796875,1.0291595458984375,0.2272186279296875
1757088065916847900,6.898847900390625,0.245025634765625,1.0531158447265625,0.310821533203125
1757088065926894800,6.908894775390625,0.2605743408203125,1.023956298828125,0.3111419677734375
1757088065936941800,6.91894189453125,0.161834716796875,1.0099945068359375,0.243255615234375
1757088065946987800,6.92898779296875,0.0598297119140625,1.0100250244140625,0.1820220947265625
1757088065957034800,6.93903466796875,-0.008026123046875,0.999420166015625,0.109771728515625
1757088065967081700,6.949081787109375,-0.0396575927734375,0.994415283203125,0.0702362060546875
1757088065977127700,6.959127685546875,-0.061492919921875,0.9832916259765625,0.060821533203125
1757088065987175000,6.9691748046875,-0.05865478515625,0.9969635009765625,0.047393798828125
1757088065997222000,6.979221923828125,-0.0313262939453125,0.99755859375,0.1070404052734375
1757088066007268900,6.989268798828125,0.01708984375,0.9689788818359375,0.104705810546875
1757088066017314800,6.999314697265625,0.0536651611328125,0.959716796875,0.0988922119140625
1757088066027361800,7.00936181640625,0.0911865234375,0.973419189453125,0.0948028564453125
1757088066037408800,7.01940869140625,0.10693359375,1,0.0473785400390625
1757088066047454700,7.029454833984375,0.0873870849609375,0.9833221435546875,-0.0170135498046875
1757088066057501700,7.039501708984375,0.06915283203125,0.9667205810546875,-0.0811309814453125
1757088066067549000,7.049548828125,0.0573577880859375,0.997222900390625,-0.12957763671875
1757088066077595000,7.059594970703125,0.0517578125,1.040374755859375,-0.17218017578125
1757088066087641900,7.069641845703125,0.0406036376953125,1.08331298828125,-0.2048797607421875
1757088066097688800,7.079688720703125,-0.0004425048828125,1.124755859375,-0.1974029541015625
1757088066107735800,7.08973583984375,-0.0985260009765625,1.1669921875,-0.17254638671875
1757088066117781800,7.09978173828125,-0.19488525390625,1.199127197265625,-0.12139892578125
1757088066127828700,7.109828857421875,-0.2570037841796875,1.2310028076171875,-0.0165557861328125
1757088066137875700,7.119875732421875,-0.2671051025390625,1.2756805419921875,0.1127166748046875
1757088066147922000,7.129921875,-0.2493438720703125,1.3107757568359375,0.2116241455078125
1757088066157968600,7.13996875,-0.246368408203125,1.32196044921875,0.276275634765625
1757088066168016000,7.150015869140625,-0.251678466796875,1.37286376953125,0.340972900390625
1757088066178062000,7.16006201171875,-0.2421417236328125,1.457000732421875,0.415557861328125
1757088066188108800,7.17010888671875,-0.1732177734375,1.588836669921875,0.4910125732421875
1757088066198155800,7.18015576171875,-0.0809783935546875,1.6902313232421875,0.5702972412109375
1757088066208202800,7.19020263671875,0.1239166259765625,1.7149200439453125,0.7672882080078125
1757088066218249000,7.2002490234375,0.2653045654296875,1.6758575439453125,0.7410430908203125
1757088066228295700,7.210295654296875,0.3505096435546875,1.54638671875,0.5675506591796875
1757088066238342700,7.2203427734375,0.4983062744140625,1.4440155029296875,0.4018096923828125
1757088066248388900,7.230388916015625,0.64031982421875,1.3578948974609375,0.216156005859375
1757088066258435800,7.240435791015625,0.6557159423828125,1.3108978271484375,0.0483856201171875
1757088066268482800,7.25048291015625,0.507904052734375,1.2669525146484375,-0.1133575439453125
1757088066278529000,7.260529052734375,0.2488250732421875,1.234344482421875,-0.1785430908203125
1757088066288576000,7.270575927734375,0.00238037109375,1.220611572265625,-0.2275848388671875
1757088066298622700,7.280622802734375,-0.1173095703125,1.172271728515625,-0.217864990234375
1757088066308669700,7.290669677734375,-0.177764892578125,1.165557861328125,-0.2874603271484375
1757088066318716000,7.3007158203125,-0.1916046142578125,1.1519775390625,-0.37261962890625
1757088066328763000,7.310762939453125,-0.215057373046875,1.210693359375,-0.42059326171875
1757088066338809900,7.320809814453125,-0.3007965087890625,1.2607879638671875,-0.543304443359375
1757088066348856000,7.33085595703125,-0.265960693359375,1.3620452880859375,-0.5391998291015625
1757088066358903000,7.340903076171875,0.00860595703125,1.437744140625,-0.1666412353515625
1757088066368950000,7.350949951171875,0.4615020751953125,1.3634033203125,0.0701904296875
1757088066378996000,7.360995849609375,0.776702880859375,1.267059326171875,-0.0186920166015625
1757088066389043000,7.37104296875,0.56683349609375,1.2863311767578125,-0.142913818359375
1757088066399090000,7.38108984375,0.273284912109375,1.3071746826171875,-0.1755218505859375
1757088066409137000,7.391136962890625,0.1575164794921875,1.2880706787109375,-0.048675537109375
1757088066419182800,7.401182861328125,0.0084991455078125,1.2828369140625,0.12860107421875
1757088066429230000,7.41122998046875,-0.0688323974609375,1.1952667236328125,0.1846771240234375
1757088066439277000,7.421277099609375,-0.0113983154296875,1.1060943603515625,0.2472991943359375
1757088066449323000,7.431322998046875,0.012359619140625,0.99029541015625,0.24200439453125
1757088066459370000,7.441369873046875,-0.0034942626953125,0.9144439697265625,0.1002349853515625
1757088066469417200,7.451417236328125,0.0660247802734375,0.858795166015625,0.13360595703125
1757088066479463200,7.461463134765625,0.1395416259765625,0.7869720458984375,0.1583404541015625
1757088066489510100,7.47151025390625,0.09002685546875,0.7147674560546875,0.1083831787109375
1757088066499557000,7.48155712890625,0.006378173828125,0.6547393798828125,0.09442138671875
1757088066509603000,7.49160302734375,-0.0200042724609375,0.58978271484375,0.0972137451171875
1757088066519650000,7.501650146484375,0.0089263916015625,0.506744384765625,0.09661865234375
1757088066529697000,7.511697021484375,0.0865325927734375,0.3810882568359375,0.0386962890625
1757088066539744000,7.521743896484375,0.0883331298828125,0.3233642578125,0.0426788330078125
1757088066549790000,7.5317900390625,0.07720947265625,0.322784423828125,0.0625152587890625
1757088066559837200,7.541837158203125,0.0969696044921875,0.32586669921875,0.057525634765625
1757088066569884200,7.55188427734375,0.108184814453125,0.3594970703125,-0.02496337890625
1757088066579930000,7.56193017578125,0.1117095947265625,0.393798828125,-0.0572357177734375
1757088066589977000,7.57197705078125,0.0747528076171875,0.40374755859375,-0.07977294921875
1757088066600024000,7.582024169921875,0.0372161865234375,0.39532470703125,-0.0689849853515625
1757088066610070000,7.592070068359375,0.041046142578125,0.34716796875,-0.0353851318359375
1757088066620117000,7.602116943359375,0.060211181640625,0.2960357666015625,0.0248565673828125
1757088066630164000,7.6121640625,0.0834503173828125,0.272216796875,0.0625457763671875
1757088066640211200,7.622211181640625,0.110748291015625,0.291259765625,0.0453643798828125
1757088066650257200,7.632257080078125,0.1283721923828125,0.3541107177734375,-0.014984130859375
1757088066660304100,7.64230419921875,0.1427154541015625,0.4613494873046875,-0.090301513671875
1757088066670351000,7.65235107421875,0.1617431640625,0.529296875,-0.157867431640625
1757088066680397000,7.66239697265625,0.2018280029296875,0.54901123046875,-0.20269775390625
1757088066690444000,7.672444091796875,0.25604248046875,0.5593109130859375,-0.2390594482421875
1757088066700491000,7.682490966796875,0.316436767578125,0.581390380859375,-0.24285888671875
1757088066710537000,7.692536865234375,0.3784942626953125,0.6134185791015625,-0.230072021484375
1757088066720584000,7.702583984375,0.442108154296875,0.6586151123046875,-0.21649169921875
1757088066730631200,7.712631103515625,0.466278076171875,0.7071075439453125,-0.201202392578125
1757088066740677000,7.722677001953125,0.444854736328125,0.7469635009765625,-0.1958160400390625
1757088066750724000,7.73272412109375,0.4417724609375,0.8069915771484375,-0.229583740234375
1757088066760771000,7.74277099609375,0.4875030517578125,0.8844451904296875,-0.3704833984375
1757088066770818000,7.752818115234375,0.570037841796875,1.06475830078125,-0.495208740234375
1757088066780864000,7.762864013671875,0.67474365234375,1.3803558349609375,-0.5471649169921875
1757088066790911000,7.772910888671875,0.59674072265625,1.686981201171875,-0.4783935546875
1757088066800958000,7.7829580078125,0.394439697265625,1.857208251953125,-0.409454345703125
1757088066811004000,7.79300390625,0.5304718017578125,1.8377227783203125,-0.4175567626953125
1757088066821051100,7.803051025390625,0.5287017822265625,1.6776275634765625,-0.439788818359375
1757088066831098000,7.81309814453125,0.3380889892578125,1.4330291748046875,-0.4700927734375
1757088066841144000,7.82314404296875,0.321044921875,1.2239227294921875,-0.4077911376953125
1757088066851191000,7.83319091796875,0.3943328857421875,1.0800628662109375,-0.3621978759765625
1757088066861238000,7.843238037109375,0.29095458984375,0.9981536865234375,-0.3578338623046875
1757088066871284000,7.853283935546875,0.4150390625,0.9144287109375,-0.37841796875
1757088066881331000,7.8633310546875,0.4912567138671875,0.9427947998046875,-0.3353271484375
1757088066891378000,7.8733779296875,0.294189453125,1.0867156982421875,-0.144927978515625
1757088066901425000,7.8834248046875,0.2077178955078125,1.1409149169921875,0.03558349609375
1757088066911470800,7.893470947265625,0.2357177734375,1.107513427734375,0.1198883056640625
1757088066921518000,7.90351806640625,0.2569122314453125,1.0389251708984375,0.15130615234375
1757088066931565000,7.91356494140625,0.24560546875,0.9671173095703125,0.1617279052734375
1757088066941611000,7.923611083984375,0.2230682373046875,0.92169189453125,0.126861572265625
1757088066951658000,7.933657958984375,0.18841552734375,0.888946533203125,0.0930023193359375
1757088066961705000,7.943705078125,0.1600494384765625,0.8833770751953125,0.0725555419921875
1757088066971751000,7.9537509765625,0.149993896484375,0.9029388427734375,0.070709228515625
1757088066981798000,7.9637978515625,0.131195068359375,0.9709625244140625,0.080078125
1757088066991844900,7.973844970703125,0.11260986328125,1.0893707275390625,0.1020050048828125
1757088067001892000,7.98389208984375,0.104583740234375,1.2094268798828125,0.1243743896484375
1757088067011938000,7.99393798828125,0.1544952392578125,1.3024444580078125,0.0941619873046875
1757088067021985000,8.003985107421874,0.230926513671875,1.3555755615234375,0.00384521484375
1757088067032032000,8.014031982421875,0.253021240234375,1.35089111328125,-0.079498291015625
1757088067042078000,8.024077880859375,0.2262115478515625,1.2578887939453125,-0.0924224853515625
1757088067052125000,8.034125,0.1793212890625,1.109893798828125,-0.0747528076171875
1757088067062172000,8.044171875,0.137298583984375,0.9503173828125,-0.05499267578125
1757088067072217900,8.0542177734375,0.119384765625,0.8432464599609375,-0.06719970703125
1757088067082264800,8.064264892578125,0.0964202880859375,0.7943115234375,-0.110565185546875
1757088067092312000,8.07431201171875,0.0467071533203125,0.780609130859375,-0.1243133544921875
1757088067102358000,8.08435791015625,-0.0142822265625,0.7685394287109375,-0.122589111328125
1757088067112405000,8.094405029296874,-0.0665130615234375,0.755157470703125,-0.1329345703125
1757088067122452000,8.104451904296875,-0.1161041259765625,0.7550048828125,-0.1746368408203125
1757088067132499000,8.1144990234375,-0.1595001220703125,0.751220703125,-0.1922454833984375
1757088067142545000,8.124544921875,-0.2025909423828125,0.739013671875,-0.1940765380859375
1757088067152592000,8.134591796875,-0.2297821044921875,0.7315826416015625,-0.2060699462890625
1757088067162638800,8.144638916015625,-0.2246856689453125,0.699188232421875,-0.2064056396484375
1757088067172684800,8.154684814453125,-0.2014923095703125,0.6468353271484375,-0.1669158935546875
1757088067182732000,8.16473193359375,-0.147674560546875,0.6527099609375,-0.0849609375
1757088067192779000,8.174779052734374,-0.0792999267578125,0.690216064453125,0.026947021484375
1757088067202825000,8.184824951171874,0.030517578125,0.7378082275390625,0.1314239501953125
1757088067212872000,8.194871826171875,0.058013916015625,0.7924652099609375,0.166015625
1757088067222919000,8.2049189453125,-0.0159759521484375,0.8487701416015625,0.25604248046875
1757088067232965000,8.214965087890626,0.1490478515625,0.8967132568359375,0.4461517333984375
1757088067243011800,8.22501171875,0.25970458984375,0.88739013671875,0.5762939453125
1757088067253058800,8.235058837890625,0.1963653564453125,0.8582763671875,0.6229248046875
1757088067263106000,8.24510595703125,0.1317901611328125,0.8668060302734375,0.5976104736328125
1757088067273152000,8.255152099609376,0.128692626953125,0.9025115966796875,0.4808807373046875
1757088067283199000,8.265198974609374,0.1262359619140625,0.957000732421875,0.3424530029296875
1757088067293246000,8.275245849609375,0.082122802734375,0.9941558837890625,0.23583984375
1757088067303292200,8.285292236328125,0.0737457275390625,1.04803466796875,0.1361236572265625
1757088067313339000,8.2953388671875,0.036956787109375,1.08233642578125,0.031646728515625
1757088067323385900,8.3053857421875,-0.0126190185546875,1.0913238525390625,-0.0369873046875
1757088067333432000,8.31543212890625,-0.0233612060546875,1.0941162109375,-0.082916259765625
1757088067343479000,8.32547900390625,-0.024169921875,1.0951080322265625,-0.1012725830078125
1757088067353526000,8.335526123046876,-0.03155517578125,1.06817626953125,-0.1280975341796875
1757088067363572200,8.345572265625,-0.033843994140625,1.0459442138671875,-0.1228790283203125
1757088067373619200,8.355619140625,-0.0607757568359375,1.0521697998046875,-0.0984954833984375
1757088067383666000,8.365666015625,-0.082061767578125,1.0741729736328125,-0.039794921875
1757088067393713000,8.375712890625,-0.04803466796875,1.0759124755859375,0.0081939697265625
1757088067403759000,8.385759033203126,-0.0523223876953125,1.0988006591796875,0.090667724609375
1757088067413806000,8.39580615234375,-0.09210205078125,1.1493682861328125,0.1744232177734375
1757088067423852800,8.405852783203125,-0.1089630126953125,1.2008056640625,0.2407989501953125
1757088067433899000,8.41589892578125,-0.12677001953125,1.2515869140625,0.30865478515625
1757088067443946000,8.425946044921876,-0.1463775634765625,1.319549560546875,0.367340087890625
1757088067453993000,8.435992919921874,-0.120849609375,1.3981781005859375,0.4153594970703125
1757088067464039200,8.4460390625,-0.0618743896484375,1.4644622802734375,0.4279327392578125
1757088067474086100,8.456086181640625,-0.0193634033203125,1.5147552490234375,0.373626708984375
1757088067484133000,8.466133056640626,-0.071197509765625,1.542388916015625,0.25146484375
1757088067494179800,8.476179931640624,-0.14605712890625,1.514373779296875,0.1673431396484375
1757088067504226000,8.48622607421875,-0.1033782958984375,1.45855712890625,0.128204345703125
1757088067514273000,8.49627294921875,0.025482177734375,1.4613037109375,0.150238037109375
1757088067524320000,8.506320068359376,0.19610595703125,1.48699951171875,0.250640869140625
1757088067534366000,8.516365966796876,0.3685455322265625,1.4827117919921875,0.317535400390625
1757088067544413200,8.5264130859375,0.4571380615234375,1.4157867431640625,0.2961273193359375
1757088067554460200,8.536460205078125,0.487396240234375,1.2911529541015625,0.209503173828125
1757088067564506000,8.546506103515625,0.4877777099609375,1.170135498046875,0.1045074462890625
1757088067574553000,8.556552978515626,0.424468994140625,1.176727294921875,0.042999267578125
1757088067584600000,8.56660009765625,0.296600341796875,1.248779296875,0.0297088623046875
1757088067594646000,8.57664599609375,0.111480712890625,1.2518768310546875,0.0349884033203125
1757088067604693000,8.58669287109375,-0.0529327392578125,1.2799530029296875,0.0098114013671875
1757088067614740000,8.596739990234376,-0.19354248046875,1.2714691162109375,-0.1015472412109375
1757088067624787200,8.606787109375,-0.2188720703125,1.2225799560546875,-0.305450439453125
1757088067634833200,8.616833251953125,-0.410369873046875,1.20745849609375,-0.5041046142578125
1757088067644880100,8.626880126953125,-0.614501953125,1.1824188232421875,-0.6376800537109375
1757088067654927000,8.636927001953126,-0.6073760986328125,1.3025665283203125,-0.60638427734375
1757088067664973000,8.64697314453125,-0.2366180419921875,1.41510009765625,-0.257232666015625
1757088067675020000,8.65702001953125,0.7676239013671875,1.2709503173828125,-0.15264892578125
1757088067685067000,8.66706689453125,1.3414154052734375,1.1722869873046875,-0.057708740234375
1757088067695113000,8.677113037109375,0.46868896484375,1.1496734619140625,0.020599365234375
1757088067705160000,8.687159912109376,0.11273193359375,1.131561279296875,-0.0330657958984375
1757088067715207200,8.697207275390625,0.17889404296875,1.1523590087890625,0.0686492919921875
1757088067725253000,8.707253173828125,0.1288299560546875,1.103057861328125,0.158782958984375
1757088067735300000,8.717300048828125,0.0992431640625,1.025054931640625,0.2253570556640625
1757088067745347000,8.72734716796875,0.05413818359375,0.9569854736328125,0.2794036865234375
1757088067755394000,8.73739404296875,-0.03521728515625,0.89105224609375,0.2528228759765625
1757088067765440000,8.74743994140625,-0.0740966796875,0.8474578857421875,0.127197265625
1757088067775487000,8.757487060546875,-0.0517425537109375,0.8190765380859375,0.056640625
1757088067785534000,8.767533935546876,0.0289764404296875,0.8016815185546875,0.0570220947265625
1757088067795580000,8.777579833984374,0.0596923828125,0.76666259765625,0.108551025390625
1757088067805627100,8.787627197265625,0.03192138671875,0.6914520263671875,0.1506195068359375
1757088067815674000,8.797674072265625,0.03594970703125,0.604736328125,0.1519622802734375
1757088067825720000,8.807719970703126,0.0408172607421875,0.5321502685546875,0.1194915771484375
1757088067835767000,8.81776708984375,0.1221466064453125,0.426666259765625,0.0657501220703125
1757088067845814000,8.82781396484375,0.1130523681640625,0.420013427734375,0.047332763671875
1757088067855860000,8.83785986328125,0.08612060546875,0.4521484375,0.0447845458984375
1757088067865907000,8.847906982421875,0.1246185302734375,0.4849395751953125,-0.01556396484375
1757088067875954000,8.857953857421874,0.17181396484375,0.52069091796875,-0.063140869140625
1757088067886001200,8.868001220703125,0.2194976806640625,0.527587890625,-0.0878448486328125
1757088067896047000,8.878047119140625,0.24658203125,0.5425567626953125,-0.1104888916015625
1757088067906094000,8.888093994140625,0.2313690185546875,0.5510101318359375,-0.1378936767578125
1757088067916141000,8.89814111328125,0.1940765380859375,0.5513916015625,-0.12664794921875
1757088067926187000,8.90818701171875,0.16046142578125,0.537872314453125,-0.0883636474609375
1757088067936234000,8.91823388671875,0.1650543212890625,0.503204345703125,-0.0428924560546875
1757088067946281000,8.928281005859375,0.177734375,0.46893310546875,-0.0017852783203125
1757088067956327000,8.938326904296876,0.1886749267578125,0.4318084716796875,0.0337982177734375
1757088067966374000,8.948373779296874,0.18402099609375,0.4082183837890625,-0.0092315673828125
1757088067976421000,8.958421142578125,0.1932525634765625,0.41650390625,-0.0976104736328125
1757088067986468000,8.968468017578125,0.2266082763671875,0.46026611328125,-0.1919403076171875
1757088067996514000,8.97851416015625,0.2676849365234375,0.5101165771484375,-0.272613525390625
1757088068006561000,8.98856103515625,0.32000732421875,0.5530548095703125,-0.312225341796875
1757088068016608000,8.99860791015625,0.3513641357421875,0.5941619873046875,-0.3018341064453125
1757088068026654000,9.008654052734375,0.3710174560546875,0.633056640625,-0.27520751953125
1757088068036701000,9.018700927734375,0.384918212890625,0.672149658203125,-0.2437896728515625
1757088068046748000,9.028747802734374,0.3843536376953125,0.7228851318359375,-0.2064971923828125
1757088068056793900,9.0387939453125,0.3526458740234375,0.77252197265625,-0.1872100830078125
1757088068066840800,9.0488408203125,0.3087921142578125,0.8222198486328125,-0.19586181640625
1757088068076888000,9.05888818359375,0.271209716796875,0.886016845703125,-0.23663330078125
1757088068086934000,9.06893408203125,0.2684783935546875,0.9521026611328125,-0.3253936767578125
1757088068096981000,9.07898095703125,0.3643646240234375,1.0555572509765625,-0.4073638916015625
1757088068107028000,9.089028076171875,0.5202789306640625,1.262664794921875,-0.441802978515625
1757088068117074000,9.099073974609375,0.5138397216796875,1.509857177734375,-0.446533203125
1757088068127121000,9.109120849609376,0.38604736328125,1.6793670654296875,-0.4506988525390625
1757088068137168000,9.11916796875,0.514617919921875,1.7068328857421875,-0.436248779296875
1757088068147214800,9.12921484375,0.6544647216796875,1.63909912109375,-0.478485107421875
1757088068157260800,9.1392607421875,0.374908447265625,1.578857421875,-0.6121978759765625
1757088068167308000,9.14930810546875,0.1646728515625,1.47259521484375,-0.654937744140625
1757088068177355000,9.15935498046875,0.21002197265625,1.307647705078125,-0.566192626953125
1757088068187401000,9.16940087890625,0.4187774658203125,1.1285400390625,-0.428436279296875
1757088068197448000,9.179447998046875,0.4475250244140625,1.0059356689453125,-0.2420654296875
1757088068207495000,9.189494873046876,0.361572265625,0.9287567138671875,-0.1417388916015625
1757088068217540900,9.199540771484376,0.2434234619140625,0.910247802734375,-0.0379791259765625
1757088068227587800,9.209587890625,0.229644775390625,0.8798065185546875,0.0493927001953125
1757088068237634800,9.219634765625,0.2494659423828125,0.8848876953125,0.0851898193359375
1757088068247682000,9.22968212890625,0.284027099609375,0.9120025634765625,0.12939453125
1757088068257728000,9.23972802734375,0.2705230712890625,0.950897216796875,0.1613006591796875
1757088068267775000,9.24977490234375,0.205108642578125,0.983154296875,0.18695068359375
1757088068277822000,9.259822021484375,0.1654052734375,1.0076751708984375,0.1992340087890625
1757088068287868000,9.269867919921875,0.1401519775390625,1.0359954833984375,0.1829681396484375
1757088068297915000,9.279914794921876,0.1150665283203125,1.0771026611328125,0.1766815185546875
1757088068307961900,9.2899619140625,0.12567138671875,1.1315460205078125,0.157318115234375
1757088068318008000,9.300008056640625,0.1273651123046875,1.1997222900390625,0.1535186767578125
1757088068328054800,9.3100546875,0.12652587890625,1.24066162109375,0.1486358642578125
1757088068338102000,9.32010205078125,0.1643524169921875,1.240509033203125,0.0966644287109375
1757088068348148200,9.330148193359374,0.1977386474609375,1.2513427734375,0.0253448486328125
1757088068358195000,9.34019482421875,0.19207763671875,1.2616119384765625,-0.042236328125
1757088068368242000,9.350241943359375,0.147705078125,1.2084503173828125,-0.080322265625
1757088068378289000,9.360288818359376,0.1111907958984375,1.0789031982421875,-0.069488525390625
1757088068388335000,9.370335205078124,0.08367919921875,0.9354248046875,-0.0763702392578125
1757088068398381800,9.3803818359375,0.0679931640625,0.84893798828125,-0.079010009765625
1757088068408428800,9.3904287109375,0.075469970703125,0.8180999755859375,-0.1005859375
1757088068418475000,9.40047509765625,0.0843963623046875,0.826019287109375,-0.1248016357421875
1757088068428522200,9.410522216796876,0.054412841796875,0.84832763671875,-0.154083251953125
1757088068438569200,9.4205693359375,0.0227813720703125,0.829833984375,-0.1595916748046875
1757088068448615400,9.430615478515625,0.00152587890625,0.8070831298828125,-0.126434326171875
1757088068458662100,9.440662109375,-0.0051116943359375,0.796142578125,-0.1162109375
1757088068468709000,9.450709228515626,-0.014190673828125,0.787506103515625,-0.1455078125
1757088068478756000,9.460756103515624,-0.04180908203125,0.7595672607421875,-0.205657958984375
1757088068488802300,9.47080224609375,-0.1184539794921875,0.7178497314453125,-0.2545623779296875
1757088068498849300,9.480849365234375,-0.18963623046875,0.6461334228515625,-0.286651611328125
1757088068508896300,9.490896240234376,-0.2555084228515625,0.60198974609375,-0.279571533203125
1757088068518942500,9.5009423828125,-0.208740234375,0.590087890625,-0.189361572265625
1757088068528989400,9.510989501953125,-0.063873291015625,0.6480560302734375,-0.1025848388671875
1757088068539036200,9.5210361328125,-0.0393829345703125,0.723052978515625,-0.034027099609375
1757088068549082400,9.531082275390625,-0.1004638671875,0.8214569091796875,0.05535888671875
1757088068559129300,9.54112939453125,0.1061248779296875,0.9251861572265625,0.211212158203125
1757088068569176300,9.55117626953125,0.304229736328125,0.9783935546875,0.3398590087890625
1757088068579222300,9.56122216796875,0.2688140869140625,1.015869140625,0.3916015625
1757088068589269200,9.571269287109375,0.1961822509765625,1.0498046875,0.362579345703125
1757088068599316500,9.58131640625,0.164215087890625,1.0424957275390625,0.2901458740234375
1757088068609363200,9.59136328125,0.1727447509765625,1.049072265625,0.2357940673828125
1757088068619409400,9.601409423828125,0.15447998046875,1.0673065185546875,0.193359375
1757088068629456400,9.611456298828125,0.122711181640625,1.0630950927734375,0.144195556640625
1757088068639503400,9.62150341796875,0.10565185546875,1.04730224609375,0.11077880859375
1757088068649549300,9.63154931640625,0.078948974609375,1.028228759765625,0.0943756103515625
1757088068659596300,9.64159619140625,0.044952392578125,1.000274658203125,0.0908660888671875
1757088068669643300,9.651643310546875,0.0168609619140625,0.9703826904296875,0.099609375
1757088068679689200,9.661689208984376,-0.0092620849609375,0.9471435546875,0.114654541015625
1757088068689736400,9.671736328125,-0.0191192626953125,0.9334869384765625,0.133758544921875
1757088068699783400,9.681783447265625,0.019927978515625,0.9271240234375,0.1332550048828125
1757088068709829400,9.691829345703125,0.0763397216796875,0.9338226318359375,0.1061553955078125
1757088068719876400,9.70187646484375,0.085906982421875,0.962646484375,0.0658721923828125
1757088068729923300,9.71192333984375,0.087432861328125,1.018829345703125,-0.0040740966796875
1757088068739970300,9.72197021484375,0.0769805908203125,1.085418701171875,-0.0720367431640625
1757088068750016300,9.732016357421875,0.0415496826171875,1.1244354248046875,-0.105560302734375
1757088068760063200,9.742063232421875,0.0136566162109375,1.1251678466796875,-0.1168975830078125
1757088068770110500,9.7521103515625,-0.034332275390625,1.1206512451171875,-0.09429931640625
1757088068780156200,9.76215625,-0.077911376953125,1.1324005126953125,-0.050140380859375
1757088068790203400,9.772203369140625,-0.1090087890625,1.1728057861328125,0.01617431640625
1757088068800250400,9.78225048828125,-0.12945556640625,1.230926513671875,0.0961761474609375
1757088068810296300,9.79229638671875,-0.117889404296875,1.289642333984375,0.1645355224609375
1757088068820343300,9.80234326171875,-0.0995025634765625,1.3011627197265625,0.1834869384765625
1757088068830390300,9.812390380859375,-0.0857391357421875,1.266632080078125,0.1837921142578125
1757088068840437200,9.822437255859375,-0.0960540771484375,1.2848968505859375,0.19970703125
1757088068850483200,9.832483154296876,-0.1292266845703125,1.3935546875,0.2078399658203125
1757088068860530200,9.8425302734375,-0.14556884765625,1.514617919921875,0.2626953125
1757088068870577400,9.852577392578125,-0.07000732421875,1.6053619384765625,0.364044189453125
1757088068880623400,9.862623291015625,0.0487518310546875,1.5790557861328125,0.40582275390625
1757088068890670300,9.87267041015625,0.14044189453125,1.50860595703125,0.4293670654296875
1757088068900717300,9.88271728515625,0.1956634521484375,1.425689697265625,0.40704345703125
1757088068910763300,9.89276318359375,0.24822998046875,1.3200531005859375,0.3308868408203125
1757088068920810200,9.902810302734375,0.308197021484375,1.23248291015625,0.248992919921875
1757088068930857200,9.912857177734375,0.3422393798828125,1.1576080322265625,0.1690673828125
1757088068940904200,9.922904296875,0.3352813720703125,1.108856201171875,0.0976409912109375
1757088068950950100,9.9329501953125,0.329071044921875,1.0844573974609375,0.04180908203125
1757088068960997400,9.942997314453125,0.33380126953125,1.0565643310546875,-0.0126953125
1757088068971044400,9.95304443359375,0.304718017578125,1.113189697265625,0.01470947265625
1757088068981090300,9.96309033203125,0.2264862060546875,1.2221221923828125,0.0521392822265625
1757088068991137300,9.97313720703125,0.088348388671875,1.2707366943359375,0.032196044921875
1757088069001184300,9.983184326171875,-0.026519775390625,1.2288665771484375,-0.046417236328125
1757088069011230200,9.993230224609375,-0.1053314208984375,1.201507568359375,-0.0550689697265625
1757088069021277200,10.003277099609376,-0.19586181640625,1.188720703125,-0.0271453857421875
1757088069031324200,10.01332421875,-0.313262939453125,1.1399078369140625,-0.0052642822265625
1757088069041371400,10.023371337890625,-0.360565185546875,1.113861083984375,0.032928466796875
1757088069051417300,10.033417236328125,-0.3389892578125,1.1262969970703125,0.0034637451171875
1757088069061464300,10.04346435546875,-0.307159423828125,1.18634033203125,-0.07037353515625
1757088069071511300,10.05351123046875,-0.0524139404296875,1.29473876953125,-0.11846923828125
1757088069081557200,10.06355712890625,0.782958984375,1.44866943359375,-0.344268798828125
1757088069091604200,10.073604248046875,1.05230712890625,1.489715576171875,-0.3222808837890625
1757088069101651200,10.083651123046875,0.4642791748046875,1.26361083984375,-0.086212158203125
1757088069111697200,10.093697265625,0.2625732421875,1.127166748046875,-0.0091552734375
1757088069121744100,10.103744140625,0.1804046630859375,1.0435791015625,0.1267852783203125
1757088069131791400,10.113791259765625,0.109832763671875,0.9074249267578125,0.1939544677734375
1757088069141837300,10.12383740234375,-0.006195068359375,0.71453857421875,0.12115478515625
1757088069151884300,10.13388427734375,0.0057373046875,0.686370849609375,0.0984649658203125
1757088069161931300,10.14393115234375,0.0670013427734375,0.758941650390625,0.0472259521484375
1757088069171978200,10.153978271484375,0.1152801513671875,0.7877044677734375,0.004730224609375
1757088069182024200,10.164024169921875,0.1146087646484375,0.8035736083984375,0.0122528076171875
1757088069192071200,10.1740712890625,0.099395751953125,0.7989959716796875,0.028839111328125
1757088069202118100,10.1841181640625,0.1108551025390625,0.788787841796875,0.03826904296875
1757088069212164000,10.1941640625,0.1068267822265625,0.720489501953125,0.0752105712890625
1757088069222211300,10.20421142578125,0.1077423095703125,0.669342041015625,0.095611572265625
1757088069232258300,10.21425830078125,0.11468505859375,0.6549072265625,0.0839691162109375
1757088069242304300,10.22430419921875,0.15570068359375,0.6229400634765625,0.02789306640625
1757088069252351200,10.234351318359375,0.132843017578125,0.6037445068359375,0.019622802734375
1757088069262398200,10.244398193359375,0.1390533447265625,0.600006103515625,0.020172119140625
1757088069272444200,10.254444091796875,0.1539764404296875,0.5818023681640625,-0.0011444091796875
1757088069282491100,10.2644912109375,0.1594085693359375,0.548858642578125,-0.0358428955078125
1757088069292538000,10.2745380859375,0.174224853515625,0.509124755859375,-0.0622711181640625
1757088069302585300,10.28458544921875,0.168426513671875,0.4831695556640625,-0.0522308349609375
1757088069312631300,10.29463134765625,0.1561126708984375,0.4760894775390625,-0.021270751953125
1757088069322678300,10.30467822265625,0.1517791748046875,0.4791412353515625,0.00738525390625
1757088069332725200,10.314725341796875,0.14056396484375,0.4844512939453125,0.006805419921875
1757088069342771200,10.324771240234375,0.1122894287109375,0.5041351318359375,0.0081634521484375
1757088069352818200,10.334818115234375,0.1262054443359375,0.52752685546875,0.0234375
1757088069362865200,10.344865234375,0.1363677978515625,0.5423583984375,0.0185394287109375
1757088069372911000,10.3549111328125,0.147918701171875,0.552398681640625,-0.0541839599609375
1757088069382958000,10.3649580078125,0.185150146484375,0.587921142578125,-0.1589813232421875
1757088069393005300,10.37500537109375,0.21917724609375,0.6246185302734375,-0.2145538330078125
1757088069403052300,10.38505224609375,0.2638092041015625,0.595916748046875,-0.1898040771484375
1757088069413098200,10.39509814453125,0.32232666015625,0.5593719482421875,-0.1475982666015625
1757088069423145200,10.405145263671875,0.353240966796875,0.572479248046875,-0.1262054443359375
1757088069433192000,10.41519189453125,0.3571014404296875,0.6033172607421875,-0.11212158203125
1757088069443238100,10.425238037109375,0.343414306640625,0.6392669677734375,-0.136322021484375
1757088069453285000,10.43528515625,0.3156585693359375,0.6855621337890625,-0.1806182861328125
1757088069463332000,10.44533203125,0.2928314208984375,0.742034912109375,-0.2248382568359375
1757088069473378300,10.45537841796875,0.3536376953125,0.797027587890625,-0.287261962890625
1757088069483425000,10.465425048828125,0.44500732421875,0.8551025390625,-0.4237060546875
1757088069493472000,10.475471923828126,0.6322021484375,0.9828033447265625,-0.580413818359375
1757088069503519000,10.48551904296875,0.7528228759765625,1.255218505859375,-0.6940765380859375
1757088069513565200,10.495565185546875,0.607574462890625,1.6258544921875,-0.77276611328125
1757088069523612000,10.50561181640625,0.4514617919921875,2.0330657958984375,-0.903656005859375
1757088069533659100,10.5156591796875,0.5269927978515625,2.2945709228515625,-0.786376953125
1757088069543705300,10.525705322265624,0.5023651123046875,2.187713623046875,-0.4355316162109375
1757088069553752000,10.535751953125,0.551727294921875,1.6627349853515625,-0.1967620849609375
1757088069563799000,10.545799072265625,0.6461639404296875,1.1376495361328125,0.0084991455078125
1757088069573845200,10.55584521484375,0.4446563720703125,0.793182373046875,0.046905517578125
1757088069583892200,10.565892333984374,0.106109619140625,0.58929443359375,-0.0126495361328125
1757088069593939000,10.57593896484375,-0.0157318115234375,0.5066680908203125,-0.1513214111328125
1757088069603985200,10.585985107421875,0.057891845703125,0.5329437255859375,-0.20379638671875
1757088069614032100,10.5960322265625,0.1856231689453125,0.638580322265625,-0.1168212890625
1757088069624079000,10.6060791015625,0.2039337158203125,0.7972412109375,0.0181884765625
1757088069634126000,10.6161259765625,0.215179443359375,0.9532318115234375,0.1631927490234375
1757088069644172300,10.62617236328125,0.25732421875,1.059814453125,0.2230987548828125
1757088069654219300,10.63621923828125,0.246337890625,1.1350250244140625,0.222869873046875
1757088069664266000,10.646265869140626,0.2375946044921875,1.18328857421875,0.2081756591796875
1757088069674312200,10.656312255859374,0.2187347412109375,1.18292236328125,0.1791839599609375
1757088069684359200,10.666359130859375,0.192108154296875,1.167266845703125,0.1408233642578125
1757088069694406100,10.67640625,0.162017822265625,1.1609039306640625,0.113861083984375
1757088069704452000,10.6864521484375,0.12933349609375,1.173797607421875,0.1229095458984375
1757088069714499300,10.696499267578124,0.099639892578125,1.1887969970703125,0.1534271240234375
1757088069724546300,10.70654638671875,0.093994140625,1.191009521484375,0.1516876220703125
1757088069734593300,10.71659326171875,0.113372802734375,1.2049560546875,0.1420135498046875
1757088069744639200,10.72663916015625,0.105560302734375,1.201385498046875,0.104461669921875
1757088069754686200,10.736686279296874,0.1271514892578125,1.134613037109375,0.0331268310546875
1757088069764733200,10.746733154296875,0.1178436279296875,1.0502471923828125,-0.0143280029296875
1757088069774779100,10.756779052734375,0.10052490234375,0.9615631103515625,-0.0283203125
1757088069784826000,10.766826171875,0.057373046875,0.874114990234375,-0.017303466796875
1757088069794873300,10.776873291015624,0.044708251953125,0.8305206298828125,-0.006988525390625
1757088069804919300,10.786919189453124,0.04791259765625,0.8515167236328125,-0.004608154296875
1757088069814966300,10.79696630859375,0.03955078125,0.8769378662109375,-0.0108184814453125
1757088069825013200,10.80701318359375,0.027099609375,0.889251708984375,-0.0196685791015625
1757088069835059200,10.81705908203125,0.0099334716796875,0.897796630859375,-0.0355987548828125
1757088069845106200,10.827106201171874,0.0245361328125,0.911895751953125,-0.0419769287109375
1757088069855153200,10.837153076171875,0.025634765625,0.9162139892578125,-0.0764312744140625
1757088069865200000,10.8472001953125,0.008544921875,0.87774658203125,-0.10791015625
1757088069875246000,10.85724609375,-0.034759521484375,0.82958984375,-0.09869384765625
1757088069885293300,10.867293212890624,-0.0983123779296875,0.772064208984375,-0.1283721923828125
1757088069895340300,10.87734033203125,-0.1775054931640625,0.71453857421875,-0.1757965087890625
1757088069905386200,10.88738623046875,-0.237060546875,0.7022705078125,-0.138519287109375
1757088069915433200,10.89743310546875,-0.2435760498046875,0.6965179443359375,-0.07769775390625
1757088069925480200,10.907480224609374,-0.2279815673828125,0.6928863525390625,-0.0284271240234375
1757088069935526100,10.917526123046875,-0.2452392578125,0.710784912109375,0.0060272216796875
1757088069945573000,10.927572998046875,-0.184326171875,0.756317138671875,0.100189208984375
1757088069955620000,10.9376201171875,0.0147552490234375,0.8032989501953125,0.2853240966796875
1757088069965667000,10.9476669921875,0.17620849609375,0.8633575439453125,0.477813720703125
1757088069975713000,10.957713134765624,0.194244384765625,0.888580322265625,0.58770751953125
1757088069985760300,10.96776025390625,0.146240234375,0.8923187255859375,0.6116943359375
1757088069995807200,10.97780712890625,0.1251373291015625,0.88360595703125,0.54052734375
1757088070005853200,10.987853271484376,0.11273193359375,0.893157958984375,0.452880859375
1757088070015900200,10.997900146484374,0.10919189453125,0.9019775390625,0.3348388671875
1757088070025947100,11.007947021484375,0.1125946044921875,0.9382781982421875,0.188873291015625
1757088070035993000,11.0179931640625,0.131561279296875,0.974639892578125,0.0722808837890625
1757088070046040000,11.0280400390625,0.158721923828125,1.034515380859375,-0.014068603515625
1757088070056087000,11.038087158203124,0.157989501953125,1.0877838134765625,-0.0936279296875
1757088070066133000,11.048133056640625,0.1328125,1.1507568359375,-0.1610565185546875
1757088070076180200,11.05818017578125,0.0555572509765625,1.183197021484375,-0.2398681640625
1757088070086227200,11.068227294921876,-0.0563812255859375,1.1696319580078125,-0.285308837890625
1757088070096274200,11.078274169921874,-0.1312103271484375,1.13629150390625,-0.285125732421875
1757088070106320100,11.088320068359375,-0.1465301513671875,1.099334716796875,-0.2431793212890625
1757088070116367000,11.0983671875,-0.1274261474609375,1.0811004638671875,-0.177093505859375
1757088070126414000,11.1084140625,-0.087646484375,1.0895843505859375,-0.0752716064453125
1757088070136460000,11.1184599609375,-0.0649871826171875,1.108184814453125,0.0284423828125
1757088070146507000,11.128507080078125,-0.030609130859375,1.099090576171875,0.08941650390625
1757088070156554200,11.13855419921875,-0.0034942626953125,1.1001434326171875,0.1518707275390625
1757088070166600200,11.14860009765625,-0.0016632080078125,1.132598876953125,0.2229461669921875
1757088070176647200,11.158647216796876,-0.0223846435546875,1.1757965087890625,0.266082763671875
1757088070186694100,11.168694091796874,-0.073699951171875,1.2378692626953125,0.3199462890625
1757088070196741000,11.1787412109375,-0.134521484375,1.3409881591796875,0.389190673828125
1757088070206787000,11.188787109375,-0.1686859130859375,1.4639434814453125,0.437347412109375
1757088070216834000,11.198833984375,-0.184967041015625,1.5379486083984375,0.467803955078125
1757088070226881000,11.208881103515624,-0.188751220703125,1.519622802734375,0.4581756591796875
1757088070236927000,11.218927001953125,-0.1650238037109375,1.4871826171875,0.41217041015625
1757088070246974200,11.22897412109375,-0.0783538818359375,1.4472503662109375,0.3780975341796875
1757088070257021200,11.239021240234376,0.070831298828125,1.411346435546875,0.3624114990234375
1757088070267067100,11.249067138671874,0.206146240234375,1.381622314453125,0.3619537353515625
1757088070277114000,11.259114013671875,0.293182373046875,1.37347412109375,0.32830810546875
1757088070287161000,11.2691611328125,0.3509521484375,1.3533782958984375,0.28515625
1757088070297208000,11.2792080078125,0.414642333984375,1.28302001953125,0.2592315673828125
1757088070307254000,11.28925390625,0.469207763671875,1.1931304931640625,0.2171630859375
1757088070317301000,11.299301025390625,0.4792022705078125,1.146240234375,0.1619415283203125
1757088070327348200,11.30934814453125,0.426605224609375,1.1279449462890625,0.091400146484375
1757088070337394200,11.319394287109375,0.277801513671875,1.2371978759765625,0.0556488037109375
1757088070347441200,11.329441162109376,0.1229095458984375,1.30084228515625,0.042999267578125
1757088070357488000,11.339488037109374,-0.0551605224609375,1.2617034912109375,0.02972412109375
1757088070367534000,11.3495341796875,-0.133941650390625,1.1487884521484375,-0.1019287109375
1757088070377581000,11.3595810546875,-0.2107086181640625,1.1409149169921875,-0.2134552001953125
1757088070387628000,11.3696279296875,-0.305450439453125,1.149566650390625,-0.392181396484375
1757088070397674000,11.379674072265624,-0.34912109375,1.14691162109375,-0.5175933837890625
1757088070407721000,11.389720947265625,-0.4326324462890625,1.16986083984375,-0.408233642578125
1757088070417768200,11.399768310546875,-0.43646240234375,1.237640380859375,-0.1796417236328125
1757088070427815200,11.409815185546876,-0.3679351806640625,1.1757965087890625,-0.022430419921875
1757088070437861400,11.419861328125,-0.3438568115234375,1.049896240234375,0.0080718994140625
1757088070447908400,11.429908447265625,0.1536865234375,1.064361572265625,0.111053466796875
1757088070457955300,11.439955322265625,1.196624755859375,1.116455078125,0.0607452392578125
1757088070468001300,11.450001220703125,1.048583984375,1.200103759765625,-0.0337066650390625
1757088070478048300,11.46004833984375,0.374755859375,1.232177734375,0.0321197509765625
1757088070488095200,11.47009521484375,0.1461181640625,1.18634033203125,0.0985870361328125
1757088070498141200,11.48014111328125,-0.0030059814453125,1.0694427490234375,0.1112213134765625
1757088070508188400,11.4901884765625,-0.0265045166015625,0.9664764404296875,0.1014404296875
1757088070518235400,11.5002353515625,-0.0122528076171875,0.9378814697265625,0.060516357421875
1757088070528282400,11.510282470703125,0.0177001953125,0.92926025390625,0.039886474609375
1757088070538328300,11.520328369140625,0.0948333740234375,0.9067535400390625,0.1060943603515625
1757088070548375300,11.530375244140625,0.1243896484375,0.88665771484375,0.1808929443359375
1757088070558422300,11.54042236328125,0.101959228515625,0.8275146484375,0.234588623046875
1757088070568468200,11.55046826171875,0.0345001220703125,0.7176361083984375,0.2512969970703125
1757088070578515200,11.56051513671875,-0.0024566650390625,0.6540374755859375,0.2264862060546875
1757088070588562400,11.5705625,0.0384063720703125,0.6126861572265625,0.1742401123046875
1757088070598608400,11.5806083984375,0.120269775390625,0.58819580078125,0.0999908447265625
1757088070608655400,11.5906552734375,0.2228546142578125,0.5292205810546875,0.013824462890625
1757088070618702300,11.600702392578125,0.22601318359375,0.4994049072265625,-0.0069580078125
1757088070628749300,11.610749267578125,0.19915771484375,0.513214111328125,-0.0256805419921875
1757088070638795300,11.620795166015625,0.184967041015625,0.5170440673828125,-0.0609283447265625
1757088070648842200,11.63084228515625,0.192108154296875,0.542144775390625,-0.0641632080078125
1757088070658889200,11.64088916015625,0.185943603515625,0.544525146484375,-0.0756683349609375
1757088070668935400,11.650935302734375,0.1676788330078125,0.534820556640625,-0.0516815185546875
1757088070678982400,11.660982421875,0.1347808837890625,0.502685546875,-0.0205841064453125
1757088070689029400,11.671029296875,0.087982177734375,0.4486541748046875,0.01239013671875
1757088070699075600,11.68107568359375,0.08148193359375,0.41351318359375,0.053131103515625
1757088070709122300,11.691122314453125,0.075927734375,0.39312744140625,0.057403564453125
1757088070719169300,11.701169189453125,0.0860443115234375,0.3956146240234375,0.0483856201171875
1757088070729215500,11.711215576171876,0.1291656494140625,0.4319915771484375,0.0228271484375
1757088070739262500,11.721262451171874,0.1952362060546875,0.4892730712890625,-0.0444793701171875
1757088070749309200,11.73130908203125,0.27276611328125,0.56195068359375,-0.14447021484375
1757088070759356200,11.741356201171875,0.3399810791015625,0.608123779296875,-0.2091217041015625
1757088070769402400,11.75140234375,0.3707733154296875,0.630096435546875,-0.256683349609375
1757088070779449300,11.761449462890624,0.38238525390625,0.6551055908203125,-0.2926788330078125
1757088070789496300,11.771496337890625,0.3924560546875,0.673675537109375,-0.2796783447265625
1757088070799542500,11.78154248046875,0.404510498046875,0.681396484375,-0.2385711669921875
1757088070809589500,11.791589599609376,0.40374755859375,0.687347412109375,-0.1882171630859375
1757088070819636200,11.80163623046875,0.3726959228515625,0.694580078125,-0.1590118408203125
1757088070829682400,11.811682373046875,0.36737060546875,0.71990966796875,-0.16278076171875
1757088070839729400,11.8217294921875,0.3819580078125,0.7596588134765625,-0.2894287109375
1757088070849776400,11.8317763671875,0.5626983642578125,0.8975372314453125,-0.4810791015625
1757088070859823400,11.8418232421875,0.7121124267578125,1.29010009765625,-0.633056640625
1757088070869869600,11.85186962890625,0.4529876708984375,1.821258544921875,-0.7670440673828125
1757088070879916500,11.86191650390625,0.237457275390625,2.3033447265625,-0.836273193359375
1757088070889963300,11.87196337890625,0.429931640625,2.4054718017578125,-0.626922607421875
1757088070900009500,11.882009521484376,0.598236083984375,2.064422607421875,-0.4392852783203125
1757088070910056400,11.892056396484374,0.5277099609375,1.6265716552734375,-0.331268310546875
1757088070920103400,11.902103515625,0.5180511474609375,1.2142181396484375,-0.1786956787109375
1757088070930149400,11.9121494140625,0.4913177490234375,0.8697662353515625,-0.07550048828125
1757088070940196400,11.9221962890625,0.3202667236328125,0.6946258544921875,-0.0054931640625
1757088070950243600,11.93224365234375,0.166748046875,0.6375579833984375,-0.0095367431640625
1757088070960290300,11.942290283203125,0.124908447265625,0.6705780029296875,-0.0431976318359375
1757088070970336500,11.95233642578125,0.1334686279296875,0.7508392333984375,-0.0272064208984375
1757088070980383500,11.962383544921876,0.1560821533203125,0.874664306640625,0.0712890625
1757088070990430500,11.972430419921874,0.2151947021484375,0.9937744140625,0.198394775390625
1757088071000476400,11.982476318359375,0.26861572265625,1.07293701171875,0.2669219970703125
1757088071010523400,11.9925234375,0.278564453125,1.1196441650390625,0.257476806640625
1757088071020570400,12.0025703125,0.271697998046875,1.1221466064453125,0.2204742431640625
1757088071030616300,12.0126162109375,0.21826171875,1.1066741943359375,0.2052154541015625
1757088071040663600,12.02266357421875,0.15240478515625,1.1102142333984375,0.2193603515625
1757088071050710500,12.03271044921875,0.1262359619140625,1.1360626220703125,0.2109375
1757088071060757500,12.042757568359375,0.1136322021484375,1.1562347412109375,0.21075439453125
1757088071070803500,12.052803466796876,0.058685302734375,1.1614837646484375,0.245452880859375
1757088071080850400,12.062850341796874,0.0615081787109375,1.154632568359375,0.2220001220703125
1757088071090897400,12.0728974609375,0.0885467529296875,1.156280517578125,0.142730712890625
1757088071100943400,12.082943359375,0.081024169921875,1.1688690185546875,0.0374298095703125
1757088071110990300,12.092990234375,0.0448150634765625,1.16143798828125,-0.0712432861328125
1757088071121037600,12.10303759765625,0.01837158203125,1.0666046142578125,-0.124847412109375
1757088071131083500,12.11308349609375,-0.0130615234375,0.9229583740234375,-0.1461181640625
1757088071141130500,12.123130615234375,-0.017059326171875,0.8016357421875,-0.139373779296875
1757088071151177500,12.133177490234376,-0.013885498046875,0.73284912109375,-0.13189697265625
1757088071161223400,12.143223388671874,-0.02667236328125,0.7196502685546875,-0.1613311767578125
1757088071171270400,12.1532705078125,-0.033416748046875,0.71875,-0.191619873046875
1757088071181317400,12.1633173828125,-0.0219268798828125,0.7426605224609375,-0.1905670166015625
1757088071191364400,12.1733642578125,-0.0321197509765625,0.7645721435546875,-0.187652587890625
1757088071201410300,12.183410400390626,-0.0428619384765625,0.7740020751953125,-0.194488525390625
1757088071211457500,12.19345751953125,-0.0517425537109375,0.790771484375,-0.18829345703125
1757088071221504500,12.20350439453125,-0.0644378662109375,0.82537841796875,-0.175201416015625
1757088071231550500,12.213550537109375,-0.138031005859375,0.8361663818359375,-0.1829833984375
1757088071241597400,12.223597412109376,-0.230224609375,0.779205322265625,-0.2180938720703125
1757088071251644400,12.23364453125,-0.2720489501953125,0.764862060546875,-0.154388427734375
1757088071261690400,12.2436904296875,-0.2401123046875,0.7522430419921875,-0.0503692626953125
1757088071271737300,12.2537373046875,-0.1792144775390625,0.74090576171875,0.0628814697265625
1757088071281784300,12.263784423828126,-0.08441162109375,0.7445220947265625,0.1273956298828125
1757088071291831600,12.27383154296875,-0.0558319091796875,0.7563934326171875,0.175567626953125
1757088071301877200,12.283877197265625,0.0681610107421875,0.8085479736328125,0.4122314453125
1757088071311924500,12.293924560546875,0.302001953125,0.8451995849609375,0.6890411376953125
1757088071321971500,12.303971435546876,0.3762054443359375,0.865570068359375,0.770538330078125
1757088071332017400,12.314017333984374,0.3499603271484375,0.8736419677734375,0.7835693359375
1757088071342064400,12.324064453125,0.2777862548828125,0.9228668212890625,0.68878173828125
1757088071352111400,12.334111328125,0.175689697265625,1.0138397216796875,0.4355316162109375
1757088071362157300,12.3441572265625,0.068206787109375,1.0625152587890625,0.25311279296875
1757088071372204300,12.354204345703126,-0.0665435791015625,1.10430908203125,0.0915069580078125
1757088071382251300,12.364251220703125,-0.135894775390625,1.1095733642578125,0.0153656005859375
1757088071392298500,12.374298583984375,-0.1522979736328125,1.104248046875,0.0056304931640625
1757088071402344400,12.384344482421875,-0.1525726318359375,1.0886383056640625,-0.0017242431640625
1757088071412391400,12.394391357421876,-0.1077423095703125,1.0657958984375,0.0009613037109375
1757088071422438400,12.4044384765625,-0.0377044677734375,1.04742431640625,-0.0050048828125
1757088071432484400,12.414484375,-0.0022125244140625,1.0120086669921875,-0.0366668701171875
1757088071442531600,12.424531494140625,0.02252197265625,1.0297393798828125,-0.0649871826171875
1757088071452578600,12.43457861328125,0.038116455078125,1.095733642578125,-0.0939788818359375
1757088071462624500,12.44462451171875,0.0786285400390625,1.1490631103515625,-0.1206817626953125
1757088071472671500,12.45467138671875,0.0914306640625,1.1530914306640625,-0.1124267578125
1757088071482718500,12.464718505859375,0.027923583984375,1.141998291015625,-0.07537841796875
1757088071492764400,12.474764404296875,-0.0364990234375,1.153533935546875,-0.003692626953125
1757088071502811400,12.484811279296874,-0.0977325439453125,1.1754302978515625,0.089141845703125
1757088071512858400,12.4948583984375,-0.1534423828125,1.202789306640625,0.1838531494140625
1757088071522905600,12.504905517578125,-0.195465087890625,1.2745513916015625,0.3085174560546875
1757088071532951600,12.51495166015625,-0.16766357421875,1.3350677490234375,0.4160919189453125
1757088071542998500,12.52499853515625,-0.0853424072265625,1.3743743896484375,0.5065460205078125
1757088071553045500,12.53504541015625,-0.0339202880859375,1.37750244140625,0.5605926513671875
1757088071563091500,12.545091552734375,-0.0712890625,1.3465423583984375,0.527313232421875
1757088071573138400,12.555138427734375,-0.1049346923828125,1.3310089111328125,0.46527099609375
1757088071583185400,12.565185302734376,-0.0757904052734375,1.340606689453125,0.398468017578125
1757088071593231400,12.5752314453125,-0.0472259521484375,1.4030303955078125,0.3372039794921875
1757088071603278300,12.5852783203125,0.0086212158203125,1.4333343505859375,0.35845947265625
1757088071613325600,12.59532568359375,0.105560302734375,1.3991546630859375,0.359771728515625
1757088071623372500,12.60537255859375,0.16595458984375,1.357086181640625,0.31927490234375
1757088071633418500,12.61541845703125,0.2148895263671875,1.3231658935546875,0.2700653076171875
1757088071643465500,12.625465576171875,0.2499542236328125,1.2669677734375,0.21368408203125
1757088071653512400,12.635512451171875,0.261566162109375,1.208038330078125,0.159637451171875
1757088071663558400,12.645558349609376,0.2631072998046875,1.1320648193359375,0.0378265380859375
1757088071673605400,12.65560546875,0.2193603515625,1.1457672119140625,-0.0389404296875
1757088071683652400,12.66565234375,0.1263427734375,1.203582763671875,-0.0767974853515625
1757088071693698300,12.6756982421875,0.0256500244140625,1.2376861572265625,-0.023040771484375
1757088071703745500,12.68574560546875,-0.106689453125,1.225311279296875,-0.0131072998046875
1757088071713792500,12.69579248046875,-0.180999755859375,1.1562652587890625,-0.122711181640625
1757088071723839500,12.705839599609375,-0.267425537109375,1.1228179931640625,-0.1793212890625
1757088071733885400,12.715885498046875,-0.2981109619140625,1.0892486572265625,-0.1973419189453125
1757088071743932400,12.725932373046875,-0.3087615966796875,1.1212921142578125,-0.2301177978515625
1757088071753979400,12.7359794921875,-0.3683624267578125,1.15911865234375,-0.18597412109375
1757088071764025300,12.746025390625,-0.31097412109375,1.3162384033203125,0.0160980224609375
1757088071774072300,12.756072265625,-0.1657562255859375,1.14727783203125,-0.02392578125
1757088071784119600,12.76611962890625,0.01947021484375,1.1640167236328125,-0.0496673583984375
1757088071794165500,12.77616552734375,0.9947662353515625,1.3603668212890625,-0.076080322265625
1757088071804212500,12.78621240234375,1.1244964599609375,1.357086181640625,-0.157318115234375
1757088071814259500,12.796259521484375,0.3927764892578125,1.1871795654296875,-0.0286865234375
1757088071824306400,12.806306396484375,0.23895263671875,1.115325927734375,0.0301666259765625
1757088071834352400,12.816352294921876,0.0653533935546875,1.133880615234375,0.1486968994140625
1757088071844399400,12.8263994140625,-0.161834716796875,1.067138671875,0.1496429443359375
1757088071854446300,12.8364462890625,-0.1696624755859375,0.7906646728515625,0.083709716796875
1757088071864492500,12.846492431640625,-0.1078643798828125,0.8259429931640625,0.3064117431640625
1757088071874539500,12.85653955078125,0.0096588134765625,0.9685821533203125,0.337158203125
1757088071884586500,12.86658642578125,0.162261962890625,0.799713134765625,0.1331634521484375
1757088071894632700,12.8766328125,0.1797027587890625,0.964324951171875,0.25885009765625
1757088071904679400,12.886679443359375,0.128326416015625,1.3170623779296875,0.2083740234375
1757088071914726400,12.896726318359375,0.3318939208984375,1.1421661376953125,-0.1884918212890625
1757088071924772600,12.906772705078126,0.2753448486328125,0.7292327880859375,-0.1056976318359375
1757088071934819600,12.916819580078124,-0.110809326171875,0.463653564453125,0.1886749267578125
1757088071944866300,12.9268662109375,-0.14910888671875,0.36669921875,0.3743896484375
1757088071954912500,12.93691259765625,-0.00286865234375,0.4798736572265625,0.3052978515625
1757088071964959700,12.946959716796876,0.2151031494140625,0.67388916015625,0.0097808837890625
1757088071975006500,12.95700634765625,0.37457275390625,0.7307281494140625,-0.180877685546875
1757088071985053400,12.967053466796875,0.29888916015625,0.6491241455078125,-0.1702880859375
1757088071995099600,12.977099609375,0.1793975830078125,0.5082550048828125,-0.0616607666015625
1757088072005146600,12.987146728515626,0.1490020751953125,0.386077880859375,0.0504302978515625
1757088072015193300,12.997193359375,0.0922393798828125,0.340118408203125,0.1034393310546875
1757088072025239600,13.007239501953125,0.0106201171875,0.383392333984375,0.118560791015625
1757088072035286500,13.01728662109375,-0.0044097900390625,0.352081298828125,0.1544952392578125
1757088072045333500,13.02733349609375,0.0129547119140625,0.3463897705078125,0.173248291015625
1757088072055379500,13.03737939453125,0.069122314453125,0.3590087890625,0.1595916748046875
1757088072065426700,13.0474267578125,0.122589111328125,0.4100189208984375,0.0730438232421875
1757088072075473700,13.0574736328125,0.1201629638671875,0.46173095703125,-0.0249786376953125
1757088072085520400,13.067520263671875,0.1469573974609375,0.506378173828125,-0.1148529052734375
1757088072095566600,13.077566650390626,0.1818084716796875,0.562164306640625,-0.1672210693359375
