time,seconds_elapsed,gyro_x,gyro_y,gyro_z,acc_x,acc_y,acc_z,grav_x,grav_y,grav_z
1757088059044896500,0.026896484375,-0.0346754938364028,-0.4043821096420288,0.1227860078215599,0.3983195191174745,-0.2035499573417007,-0.1867909841120243,-9.48730757148564,-0.0999151030831038,-2.4802000276982783
1757088059054942700,0.036942626953125,-0.0537254624068737,-0.405821293592453,0.209403321146965,0.1565776321560144,-0.1979921770840883,-0.4030471321612596,-9.476905419936775,-0.1168453594927676,-2.518926356455684
1757088059064989400,0.046989501953125,-0.0713539868593216,-0.3786506652832031,0.2763133943080902,-0.0796060361564159,-0.2153979055183939,-0.5731108533561229,-9.466524895697832,-0.1416374261855613,-2.556409991675616
1757088059075036700,0.05703662109375,-0.0876555740833282,-0.2890054583549499,0.3350971937179565,-0.2780997330218553,-0.1989449477642774,-0.6511465714558958,-9.457322183066609,-0.1727548599749803,-2.588357620078325
1757088059085083600,0.067083740234375,-0.0965278968214988,-0.1409797966480255,0.3896946609020233,-0.4108031531155109,-0.146785100405477,-0.774048436242342,-9.450913485068082,-0.2096516900165937,-2.608958509558439
1757088059095129900,0.0771298828125,-0.0963048338890075,0.0382048487663269,0.4120731055736542,-0.3472872510164976,-0.0808427200782112,-0.7744827360063791,-9.448588841512798,-0.2506045539833605,-2.6137618181869384
1757088059105176600,0.087176513671875,-0.0893095135688781,0.1807777136564254,0.3716180920600891,-0.1224088205724954,-0.0161404029399156,-0.6320552097558975,-9.45050724235475,-0.2906167030339129,-2.602660578458011
1757088059115223600,0.0972236328125,-0.0558611340820789,0.2635700404644012,0.278235375881195,0.0892301890701055,-0.0766443733392283,-0.4828837622031569,-9.455347083601357,-0.3236362167181447,-2.5810961046427487
1757088059125269800,0.107269775390625,-0.0128398984670639,0.319587767124176,0.1507447808980941,0.1940378865003585,-0.112607301797904,-0.3001797551438212,-9.462142150568962,-0.3451340915706008,-2.553259710951149
1757088059135316700,0.117316650390625,0.0324613004922866,0.3717520833015442,0.0009998576715588,0.2896791116565466,-0.1169934079276397,-0.1899985479816794,-9.470693705815076,-0.3521204433266073,-2.5203870766580105
1757088059145363500,0.127363525390625,0.0654757022857666,0.4134494364261627,-0.1417186707258224,0.3985696944862604,-0.1488752776177599,-0.2015022310316562,-9.480823470163346,-0.3440309526342898,-2.483145433500409
1757088059155410700,0.13741064453125,0.0717411935329437,0.443221777677536,-0.2634932696819305,0.3498509640246629,-0.210738297943212,-0.1806106880418956,-9.492110003331304,-0.3228693970641121,-2.442536359736323
1757088059165457000,0.147456787109375,0.0701938942074775,0.4595741331577301,-0.3606275618076324,0.217439220353961,-0.2286527796172536,-0.1699042928494513,-9.504097962766885,-0.291188219311554,-2.399523001309484
1757088059175503600,0.157503662109375,0.061610359698534,0.4366657137870788,-0.42714723944664,0.0803764360070228,-0.1466897502722218,-0.1446175836406648,-9.515925178682805,-0.251795206806343,-2.356724746938049
1757088059185550600,0.167550537109375,0.0566267855465412,0.3759581446647644,-0.4547418355941772,-0.0308329451590776,-0.0740395794020034,-0.065710635664314,-9.526520806977151,-0.2080273036851547,-2.3178667546249923
1757088059195596800,0.1775966796875,0.0589617155492305,0.2968635559082031,-0.4443302452564239,-0.0913332988291978,-0.0031369097862392,0.0395155794389545,-9.535153026244044,-0.1634097614646889,-2.285725649476796
1757088059205643800,0.187643798828125,0.064714677631855,0.2137031704187393,-0.4003185927867889,-0.1257347501248121,0.064680287969578,0.1479674785904586,-9.541602056252955,-0.1213929215282201,-2.261299210359156
1757088059215690500,0.1976904296875,0.0661911144852638,0.1249133571982383,-0.3327826261520386,-0.2091974617093801,0.0972201192449312,0.2133031434625387,-9.5458275649935,-0.084650597061729,-2.245082381182164
1757088059225737500,0.207737548828125,0.0503559596836566,0.0522063933312892,-0.2398457527160644,-0.4098310932129621,0.0982326481551863,0.1756763003796339,-9.5479528865844,-0.0557355504211038,-2.2369344383008776
1757088059235783700,0.21778369140625,0.0237713661044836,0.0190381165593862,-0.1275661289691925,-0.6126788936346769,0.2223059496074914,0.0524510488577187,-9.548761280357835,-0.0370545893030357,-2.2338678903371094
1757088059245830700,0.22783056640625,0.0037212260067462,0.0194378569722175,0.0029282248578965,-0.71080959751904,0.2100973331585526,-0.1501733180716633,-9.549242341873049,-0.0306818416840163,-2.2319076961800453
1757088059255877600,0.237877685546875,-0.0168559998273849,-0.0155773442238569,0.1334697157144546,-0.7677437831401824,0.1846839653627947,-0.0569340394906699,-9.549319498762488,-0.0374405723963398,-2.231473688676953
1757088059265923800,0.247923828125,-0.0376353152096271,-0.0791179686784744,0.2494269460439682,-0.7043804412543774,0.1668684870838187,-0.0167392456158995,-9.548189617949724,-0.0564359400756889,-2.235905241383612
1757088059275970800,0.257970703125,-0.066600389778614,-0.1273078769445419,0.3529821038246155,-0.6872305690109729,0.1416391706180758,-0.065273267160356,-9.54558732649684,-0.0865725324344821,-2.246029160512984
1757088059286017500,0.268017578125,-0.1048857271671295,-0.1377029865980148,0.4437985718250274,-0.7456254748344421,0.1504760182121302,-0.1471640532530844,-9.542109421253205,-0.1268332676849328,-2.258858977600187
1757088059296064500,0.278064453125,-0.1416277140378952,-0.1178947016596794,0.5140037536621094,-0.717283177447319,0.2080489492613822,-0.2055444921597838,-9.538429271435737,-0.1755776075118221,-2.2711073415376246
1757088059306110700,0.28811083984375,-0.1724178493022918,-0.0746889039874076,0.5691549181938171,-0.6728864018380641,0.2772530530646443,-0.2509925303876399,-9.535091066923735,-0.2311646163077093,-2.280127391078323
1757088059316157700,0.29815771484375,-0.1898732632398605,-0.0210818517953157,0.5989300012588501,-0.5095826762974262,0.3243899942275136,-0.2339833817891776,-9.532447274416684,-0.2914697396666743,-2.284267851883918
1757088059326204700,0.30820458984375,-0.1825373172760009,0.0356456078588962,0.5969299674034119,-0.207297181046009,0.3627171675994992,-0.144607939029485,-9.53066915882826,-0.353289998562634,-2.2829629067651926
1757088059336251000,0.3182509765625,-0.1553599834442138,0.0810598209500312,0.5645533800125122,0.1534942791879177,0.3760222009830176,-0.0297436886176466,-9.529786530774832,-0.4129827256442979,-2.276620552001148
1757088059346297900,0.3282978515625,-0.122264876961708,0.1083303242921829,0.4969037771224975,0.4774468318462371,0.3348616308160126,0.0180576347380876,-9.529624033689498,-0.4671412725396454,-2.2668115440398453
1757088059356344600,0.338344482421875,-0.1013416200876236,0.1151274666190147,0.4033426344394684,0.6299795725256204,0.1903540103558451,-0.0033471184708178,-9.52997474682331,-0.5128230099255219,-2.255432364152372
1757088059366391600,0.3483916015625,-0.1048410162329673,0.1003415957093238,0.310086190700531,0.6025596506804227,-0.0359559872612357,-0.0550360969148576,-9.53053764140308,-0.5492766810432076,-2.2444449600614607
1757088059376437800,0.358437744140625,-0.1257015019655227,0.0805782377719879,0.231106162071228,0.5951169334590435,-0.0882265649855136,-0.1101928975999355,-9.531025717180968,-0.5776607717454433,-2.2352269037306307
1757088059386484700,0.368484619140625,-0.1622850745916366,0.0715341418981552,0.1658310145139694,0.6266086347877979,-0.0135513362947851,-0.1584953023456037,-9.53154185000956,-0.5998131284512579,-2.2271768682658672
1757088059396531500,0.378531494140625,-0.2049499303102493,0.0690551474690437,0.1212696135044097,0.609023293736577,0.0702321316767484,-0.1674403869539499,-9.53221288113892,-0.617606486229971,-2.2194290306180715
1757088059406577700,0.38857763671875,-0.2260046154260635,0.1014586240053176,0.083207182586193,0.6191998198360205,0.1761462559789419,-0.1189236088052392,-9.533411151012778,-0.6320920346349478,-2.2101856937155127
1757088059416625000,0.398625,-0.2220676839351654,0.1858835518360138,0.0809993222355842,0.5366583147495985,0.2928320957947522,-0.0391014456801116,-9.536013442465665,-0.6446301022339612,-2.195287399791181
1757088059426672400,0.40867236328125,-0.202533408999443,0.2962667942047119,0.1146441027522087,0.3264402778208256,0.3383590444777161,-0.0573037495858967,-9.540675004535911,-0.6584338789198547,-2.170800170397013
1757088059436719400,0.41871923828125,-0.1866857558488845,0.4020239412784576,0.1618625521659851,0.1978209121704101,0.3402555988140404,-0.1450225111797451,-9.547328032684325,-0.6758927440471947,-2.1359034829303623
1757088059446765300,0.428765380859375,-0.19821298122406,0.4655579030513763,0.1992083191871643,0.0193880065590143,0.300222644437477,-0.2770896791964769,-9.555343581357596,-0.6973608448158949,-2.092721051546931
1757088059456812500,0.4388125,-0.2346605211496353,0.4778987467288971,0.2193067669868469,-0.019821137279272,0.2938877423275262,-0.4117212908737361,-9.563719195514915,-0.7218512160152196,-2.045627438069135
1757088059466859500,0.448859619140625,-0.2916244566440582,0.4644271433353424,0.2524111866950989,0.0188479083329439,0.3468314700730144,-0.4845408817604184,-9.57156289475262,-0.7496558993943035,-1.9983958774253725
1757088059476905500,0.458905517578125,-0.3469682335853576,0.4498462677001953,0.3255804479122162,-0.1206055705428123,0.4193730477359145,-0.573112606921792,-9.578454992353915,-0.7834413376834243,-1.951872318920493
1757088059486952400,0.468952392578125,-0.3974689543247223,0.3927462100982666,0.4409815967082977,-0.388805256319046,0.4476685833718627,-0.6382733536183833,-9.583643208646771,-0.8272991841103882,-1.9078104743540285
1757088059496999400,0.47899951171875,-0.452359527349472,0.2178071737289428,0.5563764572143555,-0.3254869226187467,0.4169333994988352,-0.6809801303140819,-9.58531084959805,-0.8835034480217844,-1.873932316280156
1757088059507045600,0.489045654296875,-0.5303715467453003,-0.1182328760623931,0.6214460134506226,0.2133534123450517,0.3479021680444479,-0.7877848467804491,-9.5809666829139,-0.949894247969985,-1.8636438542388376
1757088059517092400,0.49909228515625,-0.6070216298103333,-0.4358091056346893,0.6281526684761047,1.064140804874897,0.3239293179132044,-0.6537741434805094,-9.569242927372455,-1.020941276226193,-1.886174542737752
1757088059527139300,0.509139404296875,-0.6196196675300598,-0.5099248886108398,0.608269214630127,1.195659399098158,0.4547120721425861,-0.2483563366651535,-9.553517534974215,-1.0921681910939514,-1.925578624626249
1757088059537186300,0.519186279296875,-0.5525230765342712,-0.6236389875411987,0.5956549644470215,1.190720773652196,0.7854491703744977,-0.0026646891646087,-9.535710660126805,-1.1614884686227889,-1.9727013180680573
1757088059547232500,0.529232421875,-0.5259846448898315,-1.0387288331985474,0.5408601760864258,1.4276035301446914,1.247240679384023,0.0661579410403966,-9.512672898888589,-1.226740327668935,-2.04316996191442
1757088059557279500,0.539279541015625,-0.5781142115592957,-1.4836479425430298,0.5913128852844238,1.4811159246236083,1.2552585661448536,-0.8222730995766818,-9.478796932771802,-1.2913212286509572,-2.15761014169529
1757088059567326500,0.549326416015625,-0.624190628528595,-1.786673903465271,0.723093569278717,1.3349585641950368,0.3856517607241869,-1.008820045799762,-9.433196042069792,-1.3674239328615367,-2.3055032398752866
1757088059577372700,0.55937255859375,-0.6550552248954773,-1.9703288078308103,0.712434709072113,2.074461172235012,0.358994932205975,-0.5448106415450573,-9.377523839208482,-1.4519479900673031,-2.474726856984198
1757088059587419400,0.56941943359375,-0.5736788511276245,-1.953691840171814,0.5037313103675842,3.069144410002232,0.4982872291706502,-0.0259250071123242,-9.317262554991244,-1.52614792939648,-2.6513909993574023
1757088059597466400,0.57946630859375,-0.3676863312721252,-1.6556626558303833,0.1308995336294174,3.610160919961333,0.8223796286910772,0.5233332614913583,-9.2622724891752,-1.5696698218673466,-2.813686716899276
1757088059607513300,0.589513427734375,-0.0922339782118797,-1.3316057920455933,-0.3642071187496185,4.401877699363231,1.0708150219418109,1.195080722427368,-9.220956728446485,-1.5659657066524029,-2.948234888076782
1757088059617559600,0.5995595703125,0.1743754297494888,-0.995789349079132,-0.8616907596588135,5.261291465941071,0.9773818282239138,1.900228933183849,-9.19526406878531,-1.5075478583447637,-3.056927610246837
1757088059627606300,0.609606201171875,0.367593914270401,-0.8181862831115723,-1.246516227722168,4.81647206145525,0.366068816114962,2.1430422487691043,-9.18319661437273,-1.4008129922442136,-3.1427710794880985
1757088059637653500,0.619653564453125,0.4571375548839569,-0.98222553730011,-1.4595211744308472,3.94840386377871,-0.2054572522677481,1.5074790308922528,-9.173299489736555,-1.261440031258762,-3.2295082826986907
1757088059647699700,0.62969970703125,0.4124225378036499,-1.527936577796936,-1.4710848331451416,3.2923370793163773,-0.0452932860575616,0.5035717454448342,-9.150200353699924,-1.1108069136556238,-3.3481825929179787
1757088059657746400,0.639746337890625,0.3194272518157959,-2.33764386177063,-1.3059544563293457,2.674869782361388,0.7409190507091581,-0.1853396162599325,-9.098662474164366,-0.9698645844615996,-3.527618245831132
1757088059667793400,0.64979345703125,0.4464717507362366,-3.1825451850891118,-0.8483805060386658,1.3900292940318584,1.9882970927372572,0.4777046059995889,-9.00613441259265,-0.85658789550215,-3.7849949242979286
1757088059677840400,0.65984033203125,0.7347991466522217,-3.4810802936553955,-0.266564130783081,-0.7780202624827622,2.5065125728234645,0.8647826001346111,-8.877944670531154,-0.7835852761987596,-4.091268320141732
1757088059687886600,0.669886474609375,0.9835256338119508,-3.6715786457061768,0.1807808727025985,-0.6564543224751949,2.7144483440339564,1.126228135475516,-8.72522488284707,-0.7435714649140834,-4.414514478096366
1757088059697933300,0.679933349609375,1.1364545822143557,-3.836341619491577,0.4994370937347412,0.4891436993807554,2.7086709296762943,0.8982660598024725,-8.549822138711809,-0.7243268123485147,-4.748291674676537
1757088059707980300,0.689980224609375,1.202227234840393,-4.140177249908447,0.7758713364601135,1.3343711196959018,2.5609973194658755,0.2341957093656063,-8.348633795934916,-0.7204547932207584,-5.0942754418790335
1757088059718026500,0.700026611328125,1.25119948387146,-4.599496841430664,1.0592782497406006,2.136017756959796,2.6120269572183488,0.1809253069490194,-8.109999811860918,-0.731082277958095,-5.464778733310103
1757088059728073500,0.710073486328125,1.364463210105896,-4.953211784362793,1.362230658531189,2.315919566079974,2.922854655365646,0.5453448945522308,-7.82841925098598,-0.7532591115180403,-5.858228016042709
1757088059738120400,0.720120361328125,1.4519649744033811,-5.141165733337402,1.5627232789993286,2.137168096038699,2.8748797290086743,0.9190992967337368,-7.508260245391726,-0.7805516075912863,-6.259964650127292
1757088059748166700,0.730166748046875,1.469760179519653,-4.942732334136963,1.4215573072433472,2.3361387627661228,2.286748562783748,0.6298474705785513,-7.167188215628266,-0.7975551301665603,-6.645728054532408
1757088059758213600,0.740213623046875,1.4775118827819824,-4.293734550476074,0.8636847138404846,3.1701644055873155,2.101102803184092,0.114589671254158,-6.839877000191807,-0.7784559504862875,-6.984301837739348
1757088059768260400,0.75026025390625,1.4331293106079102,-3.447542428970337,0.0986943617463111,3.9480654256045815,2.283963315979391,-0.7997516172975301,-6.558941751483083,-0.7064836971439421,-7.256137834191322
1757088059778307300,0.760307373046875,1.372503638267517,-2.587121963500977,-0.4806569516658783,2.813616574272513,2.1161843447208404,-1.3668869033753872,-6.337282283085584,-0.5894318004947156,-7.460683670702576
1757088059788353500,0.770353515625,1.3332436084747314,-1.80298912525177,-0.7973148226737976,0.6048351943969726,1.9767282354965805,-1.094743448409438,-6.175543907165527,-0.4457858748978003,-7.604886974453926
1757088059798400500,0.780400390625,1.264001727104187,-1.3807257413864136,-0.8809372782707214,-0.5213350734114647,2.537829502107203,-1.214691431826353,-6.058081310823559,-0.2932653909117914,-7.706103369393944
1757088059808447500,0.790447509765625,1.226284742355347,-1.269391417503357,-0.7407921552658081,-1.3971552003890275,2.881227928991616,-0.9620172319620848,-5.957981352692842,-0.1468999589568003,-7.78789201028645
1757088059818493700,0.80049365234375,1.2511756420135498,-1.4622687101364136,-0.4425193071365356,-1.6965572491586207,3.170054223211109,-0.1869213324934244,-5.852509638395905,-0.0140476090788608,-7.868819065913557
1757088059828540700,0.810540771484375,1.3410266637802124,-1.904793381690979,5.62486238777e-05,-1.8377146093428132,3.575721474742889,0.6250596517801285,-5.71928307121098,0.1023707434737589,-7.965531719693541
1757088059838587600,0.820587646484375,1.5208667516708374,-2.512551069259644,0.5646952986717224,-2.091274359869957,4.103463200326264,1.3464549407213926,-5.542338358330726,0.2017601695817895,-8.087778043180704
1757088059848634400,0.83063427734375,1.818742036819458,-3.3429243564605717,1.1835981607437134,-2.022511204767227,4.424228647381067,2.3097522756218907,-5.305241666826605,0.29085239321962,-8.242583989489079
1757088059858680600,0.8406806640625,2.1812117099761963,-4.257607460021973,1.7445545196533203,-1.2009621816813945,4.589780151848495,3.1628046904742715,-4.991789465394616,0.3825277104195207,-8.432442544478178
1757088059868727600,0.8507275390625,2.5253851413726807,-5.059328556060791,2.2329657077789307,-0.5199380660951137,4.734134846769273,3.205163238254189,-4.599463925994932,0.4888160017963499,-8.647333249393105
1757088059878774500,0.8607744140625,2.8381876945495605,-5.498079776763916,2.6006710529327397,-0.5511354606524109,4.5289866604506965,2.50119663849771,-4.145988921366632,0.6185469819504767,-8.865582617086172
1757088059888820500,0.870820556640625,3.095273017883301,-5.515432834625244,2.732263326644897,-0.7588701563328504,4.019920116981864,1.2720301065951585,-3.6660634244471786,0.7812023996502161,-9.062013536202906
1757088059898867700,0.88086767578125,3.255255937576294,-5.006272315979004,2.600170373916626,-1.2730354842454197,3.43299116615355,-0.2934837646365165,-3.203523069831729,0.9810187234215436,-9.216584504711628
1757088059908914700,0.890914794921875,3.324074506759644,-4.149344444274902,2.293564558029175,-1.658758848901093,3.139156103861332,-1.898674981740117,-2.8029852901428938,1.2142503369953483,-9.318757761985063
1757088059918960600,0.900960693359375,3.3035621643066406,-3.253173351287842,1.9493738412857056,-1.9109367896810168,2.9195246341601013,-3.5169513058662414,-2.4842186156898736,1.4697951969251035,-9.37223274706304
1757088059929007600,0.911007568359375,3.2383148670196533,-2.4995903968811035,1.726871371269226,-2.495650402547419,2.615955821099877,-4.475093157699704,-2.24367192986235,1.735356350891292,-9.387484676730631
1757088059939054600,0.9210546875,3.102870464324951,-2.013491630554199,1.694154143333435,-2.9743054411396384,2.136240313669294,-5.160591788351535,-2.0642922449201344,1.9994440713040529,-9.376104035538434
1757088059949101600,0.9311015625,2.890839099884033,-1.7891091108322144,1.8321703672409055,-3.226132961046696,1.578963281521946,-5.6208887479543685,-1.924093939026445,2.2466716962002216,-9.349904010877014
1757088059959147500,0.9411474609375,2.7127482891082764,-1.783008694648743,2.0887839794158936,-3.1717753479152915,1.162846386037767,-5.623307499533891,-1.804573241110891,2.472599197305738,-9.316660497444868
1757088059969194500,0.951194580078125,2.5893044471740723,-2.01094651222229,2.3785998821258545,-2.4580302814662454,0.6943439081475138,-5.524550188183784,-1.686033663187176,2.6808821745187044,-9.281194047266244
1757088059979241700,0.96124169921875,2.505051612854004,-2.2922205924987797,2.598766803741455,-1.4447943189203738,0.3724599784567952,-5.339336244130134,-1.5554391980715094,2.8773694999977946,-9.24509280631542
1757088059989287700,0.97128759765625,2.43802809715271,-2.5203194618225098,2.755568027496338,-0.8700508959263563,0.2166846025943756,-5.290993361243605,-1.4119222691491244,3.066514061498642,-9.207244429436326
1757088059999334700,0.981334716796875,2.362489700317383,-2.644348382949829,2.911689043045044,-0.7441320214062929,0.0137371411904692,-5.571895292204618,-1.2628075202196836,3.250307909621298,-9.165762664490938
1757088060009381600,0.991381591796875,2.2574379444122314,-2.71738076210022,3.073014259338379,-0.8815716762416064,-0.175452136234939,-5.798754082810879,-1.116838448904827,3.4269273360699413,-9.120263480597734
1757088060019428600,1.0014287109375,2.103376865386963,-2.682018995285034,3.216639280319214,-0.753827412925288,-0.6284969327524303,-6.073693890497088,-0.9800232095781714,3.5935657589912413,-9.07172653644383
1757088060029474600,1.011474609375,1.8399125337600708,-2.481051206588745,3.230286836624145,-0.3449023286413401,-1.4490437930583953,-6.961900620839,-0.8643192934717983,3.743586516849697,-9.022686903464791
1757088060039521500,1.021521484375,1.435102939605713,-2.216794729232788,3.014145851135254,0.7407101571988314,-2.7324308677092195,-7.793162644165754,-0.7710868830230087,3.866684488730132,-8.979118395373225
1757088060049568500,1.031568603515625,0.9227840304374696,-1.7234433889389038,2.640223741531372,1.7858190024107694,-3.7878304399847984,-8.395344109183549,-0.7033407229430974,3.95228275103867,-8.947355475887656
1757088060059614500,1.041614501953125,0.4154810309410095,-0.97312992811203,2.19934630393982,2.0328607493460176,-4.579235669219494,-8.547325061199068,-0.6784905785206705,3.995200101745128,-8.930197420337796
1757088060069661700,1.05166162109375,0.0434853695333004,-0.3147989213466644,1.7328382730484009,2.052629864177108,-4.653420264849067,-7.671431284463405,-0.7012531760793179,4.001149950060248,-8.925773174154758
1757088060079708700,1.061708740234375,-0.1169247254729271,0.2352299243211746,1.3437224626541138,1.9961206259697677,-3.9202784240126607,-5.989967559540271,-0.758468005272746,3.985371366170048,-8.92815510085523
1757088060089754600,1.071754638671875,-0.1186379417777061,0.8056867718696594,1.073224663734436,1.5243185220122335,-2.950463085520268,-4.271263360503316,-0.8540914755765349,3.964706763803959,-8.928718579956888
1757088060099801600,1.081801513671875,-0.0635121166706085,1.0938191413879397,0.884819507598877,1.6902233699619769,-2.78677562135905,-2.728068873107433,-0.9798935918491332,3.9470656009122727,-8.923612781250476
1757088060109848600,1.0918486328125,0.0815779641270637,0.9639716744422911,0.7650888562202454,2.0784832673579454,-3.0574077949792144,-0.9824790052324532,-1.1067365954767912,3.9390722640708087,-8.912306958860158
1757088060119895600,1.1018955078125,0.1135898679494857,0.6096855998039246,0.8357052206993103,2.2246154933452607,-3.8791716298595063,-0.3558352991312742,-1.2088754390239715,3.9399242047250262,-8.8986513584733
1757088060129941500,1.11194140625,-0.0240904968231916,0.1399461030960083,0.9687892198562622,2.049323077716678,-4.394564746001363,-1.428075823831558,-1.2792879687689245,3.933082960528135,-8.891832326108217
1757088060139988500,1.121988525390625,-0.1487543880939483,-0.3550354838371277,1.0562689304351809,2.383696194363385,-4.556834452319145,-1.352250475257635,-1.3086995028227566,3.9115968126460903,-8.89702697214186
1757088060150035700,1.13203564453125,-0.2377790659666061,-0.6342631578445435,1.0860625505447388,2.3903660275161265,-4.274055621570349,-0.6072592066735029,-1.30579296772629,3.880209448474645,-8.911188768485188
1757088060160081400,1.142081298828125,-0.3260140717029571,-0.8190363049507141,1.0517146587371826,2.302268787998706,-3.74139806689471,-0.3353513140290975,-1.2818899679608642,3.84045786832273,-8.931854539895058
1757088060170128600,1.152128662109375,-0.2998138964176178,-0.8804647922515869,1.034292221069336,1.8444782582588493,-3.1765374477505683,0.659977235904336,-1.2447305962592363,3.798580674318969,-8.954987578201294
1757088060180175600,1.162175537109375,-0.2312863320112228,-0.8470008969306946,1.0835604667663574,0.764731230385974,-2.663094588893652,1.3864625414609908,-1.2069102764308453,3.761883221040666,-8.975632306823133
1757088060190221600,1.1722216796875,-0.2185769230127334,-0.8355402946472168,1.125967502593994,0.3847212018758058,-2.3661922479853037,1.2162421683996916,-1.1727128963399678,3.728792267821729,-8.99395589902103
1757088060200268500,1.1822685546875,-0.2422540783882141,-0.7736165523529053,1.1601227521896362,0.3579349748242646,-2.157379693940282,0.9114309540629386,-1.1421857291944324,3.694755850446224,-9.0119124114722
1757088060210315500,1.1923154296875,-0.3008604049682617,-0.6957288980484009,1.1282463073730469,0.6055703768037259,-2.1037240915983912,0.8161544705659151,-1.1180793888766318,3.657261986093223,-9.03021203827262
1757088060220362500,1.202362548828125,-0.3562340140342712,-0.5929046869277954,1.0099751949310305,1.4018459885537624,-1.956625066405535,0.7593734296798705,-1.098680203336477,3.615357904082536,-9.049446315574643
1757088060230408400,1.212408447265625,-0.3836826682090759,-0.4767791628837585,0.845069944858551,1.887483141118288,-1.9372689162895085,1.036609823870659,-1.0833309507742523,3.571460894688964,-9.068706896361707
1757088060240455400,1.222455322265625,-0.4109245836734772,-0.3063201904296875,0.670575737953186,1.9230875384628767,-1.9103233339577912,1.0062000725597142,-1.0744931259326636,3.5271576425820585,-9.087079003876449
1757088060250502700,1.232502685546875,-0.3752478063106537,-0.1584524065256118,0.4605923891067505,1.7723054408431052,-1.6380194277331233,0.5605290196806192,-1.0733484128769486,3.484547165867686,-9.103638509011269
1757088060260548600,1.242548583984375,-0.3037001192569732,-0.0346310324966907,0.334850549697876,1.6728392505712806,-0.7432683903142809,0.9853227042257784,-1.0786280337803065,3.449164886841178,-9.116479870405792
1757088060270595600,1.252595703125,-0.2298586517572403,-0.0751518309116363,0.3551600873470306,0.8762667017012834,-0.1744990732938051,1.2127584179371595,-1.0863574589885772,3.4213357996732,-9.126043817564844
1757088060280642600,1.262642578125,-0.2003793716430664,-0.344722181558609,0.4550469815731048,0.5066244840789585,-0.0832251034364104,1.0539701239943504,-1.0824301294770091,3.3973984592467543,-9.135448190248011
1757088060290689500,1.272689453125,-0.2057855874300003,-0.8363478183746338,0.5406556129455566,1.0789315467715264,-0.2133706557407975,0.9445762678176164,-1.046011347009614,3.373716847147047,-9.148457893946766
1757088060300735500,1.282735595703125,-0.3546925783157348,-1.3769491910934448,0.6201233863830566,2.0629652341000733,-0.5724158568292856,0.2452431730806827,-0.9641763096921144,3.3425074698910118,-9.168882842338084
1757088060310782500,1.292782470703125,-0.5048431754112244,-1.8813135623931885,0.6247149109840393,2.433122634702921,-0.6700999859899283,-0.3129360686033964,-0.8340951278608292,3.296688844785094,-9.198180248492957
1757088060320829400,1.302829345703125,-0.5405733585357666,-2.093735694885254,0.556804358959198,2.3487580058425666,-0.2741369668707251,0.2960562454730272,-0.6668313395828008,3.2432460084110497,-9.230766759321092
1757088060330875400,1.31287548828125,-0.4877881407737732,-1.8679049015045168,0.4802403151988983,1.0141583380877972,0.5707070070847868,0.9831664029747248,-0.497758967512846,3.192229814662039,-9.25917335411608
1757088060340922600,1.322922607421875,-0.4429658055305481,-1.4858614206314087,0.3842191994190216,-0.237502934217453,0.6555319469332694,1.5165210000038143,-0.3555113644065335,3.1469094944670792,-9.281216843619942
1757088060350969600,1.332969482421875,-0.4024231731891632,-1.2069194316864014,0.301777571439743,-0.1956079122960567,0.5334989739358424,1.309004623249173,-0.2413340368129312,3.106585375124216,-9.298456147712468
1757088060361015600,1.343015625,-0.3789474368095398,-1.2041970491409302,0.2287567853927612,0.1759358280986547,0.7073270161002874,1.1207833140730856,-0.1391250963047612,3.0695261027961966,-9.312843569505214
1757088060371062500,1.3530625,-0.3594523072242737,-1.428538799285889,0.2770159542560577,-0.0530278258323669,0.3226780026778578,1.42113462639153,-0.0237366644719033,3.034591567537188,-9.325293301233648
1757088060381109500,1.363109619140625,-0.3089774549007416,-1.6387853622436523,0.3504934310913086,-0.714573333966732,-0.3086027155742049,1.6975936064690351,0.1107855479971505,3.003276684080064,-9.334797627159952
1757088060391156500,1.373156494140625,-0.2463345527648925,-1.733023166656494,0.3702815175056457,-0.8740086936414241,-0.5652028567105531,2.005683988606929,0.2591476336620747,2.9782588549405333,-9.339871861684324
1757088060401202400,1.383202392578125,-0.2517685890197754,-1.6609071493148804,0.370928019285202,-0.9870751008510588,-0.4728139113485813,1.8207991303771731,0.4076780798975378,2.956648203895986,-9.341434288695456
1757088060411249400,1.39324951171875,-0.3323747515678406,-1.6585414409637451,0.3663998544216156,-0.8882723429240286,-0.7282607907965779,1.1456120503813028,0.5515876248667017,2.931374646429717,-9.342010042756796
1757088060421296000,1.403296142578125,-0.4176017940044403,-1.78548264503479,0.3049831688404083,-0.4780137450139969,-1.446509598405659,1.039174121400714,0.7029192095953971,2.8979946471363305,-9.34226606334448
1757088060431341800,1.413341796875,-0.3272303342819214,-1.869032859802246,0.1624137759208679,0.3917173443734645,-1.904915337434411,0.928293826058507,0.8685299699693918,2.863494119380414,-9.338974620583652
1757088060441389000,1.42338916015625,-0.2439631074666977,-1.7147266864776611,-0.0611508674919605,0.5663667859233915,-0.8870645745694636,0.489200398004055,1.036850135432556,2.8387881326690314,-9.32934169984162
1757088060451436000,1.43343603515625,-0.2494596093893051,-1.265062928199768,-0.326433926820755,0.826014770323038,0.2579807818397879,-0.8298825516670942,1.1834678799144922,2.812882122518122,-9.3197362516284
1757088060461483000,1.44348291015625,-0.2194167077541351,-0.7060701847076416,-0.5445518493652344,0.8749955127216875,0.3282940889939665,-1.1789490873157975,1.287717212809622,2.785664737507701,-9.314089770174023
1757088060471529000,1.453529052734375,-0.2128189951181411,-0.2032904028892517,-0.5379940867424011,-0.1267535717785358,0.1384650523602962,-1.0918307758331298,1.345103818373382,2.7588185238972303,-9.31396877414286
1757088060481576000,1.463575927734375,-0.239242821931839,0.1879733800888061,-0.500652551651001,-1.1687833748713137,-0.1851522769942879,-0.9174947841465472,1.3585232719168066,2.730337694822252,-9.320409036323428
1757088060491623000,1.473622802734375,-0.2222489416599273,0.4984646737575531,-0.5848020911216736,-0.52341845555678,0.0423629316940903,0.0185907187014818,1.341187229451537,2.7010926033765075,-9.331436041772363
1757088060501668900,1.4836689453125,-0.1421560496091842,0.7082678079605103,-0.8575257658958435,0.3105823450841009,-0.1397165137261152,1.3030799093753098,1.3017626892969012,2.673679988054931,-9.344905179676411
1757088060511715800,1.4937158203125,-0.2165591716766357,0.954627513885498,-1.1442958116531372,2.181834482369572,-1.4589356569975611,2.48127847058475,1.2524975769989193,2.6454128017306324,-9.359671371653675
1757088060521763000,1.50376318359375,-0.435525894165039,1.125982403755188,-1.223478078842163,1.046894048128277,-0.069324003855884,0.1840519145369529,1.1848011012796311,2.5998458132982254,-9.381229123467206
1757088060531810000,1.51381005859375,-0.5498295426368713,1.1294974088668823,-1.1205040216445925,-0.5766308441758156,0.661325435642898,-0.1186971065729856,1.1081431012738496,2.538974288228154,-9.407232748773694
1757088060541856000,1.52385595703125,-0.5190232396125793,0.9767774939537048,-0.8254368901252747,-1.961460231477022,0.1234317338794469,1.3912035985082387,1.0323607881240546,2.4766712690502404,-9.432428564828632
1757088060551903000,1.533903076171875,-0.3282439708709717,0.7434374094009399,-0.6072297692298889,-2.870626747739315,0.356378319966793,2.893279309052229,0.9676855599220842,2.4286763228185477,-9.451744675195217
1757088060561950000,1.543949951171875,-0.029786143451929,0.5278723835945129,-0.5363357067108154,-1.9967466489136216,0.4579417747788131,3.8803830514758815,0.9214505360350012,2.4065708739943803,-9.4620153093189
1757088060571996000,1.553995849609375,0.4409717917442322,0.4311567842960357,-0.4316923916339874,-1.3647767793536183,0.2999738573081791,4.512873145517706,0.8878817361712456,2.42043777904436,-9.461687977060675
1757088060582043000,1.56404296875,0.9546269774436952,0.0967706814408302,-0.3582569062709808,-1.635688646697998,0.3595499357402325,4.723778580188751,0.8705925285223871,2.485210549336672,-9.446490992450714
1757088060592089900,1.57408984375,1.34914231300354,-0.0455507710576057,-0.2573222815990448,-1.0101718988001347,0.1296872871428728,1.204560498434305,0.8781919706754386,2.5911732620209453,-9.41727074318528
1757088060602135800,1.5841357421875,1.5572986602783203,-0.1105877086520195,-0.1719188839197158,-1.4405994975790382,-0.3667363401129841,-1.9212597385138277,0.8929265254054218,2.728616862379014,-9.376979649329185
1757088060612183000,1.59418310546875,1.7251392602920532,0.2687889039516449,-0.043775025755167,-1.3037351584136485,-0.8620330091655254,-6.84988752207458,0.8910349395051598,2.8804949385419487,-9.331624842342734
1757088060622230000,1.60422998046875,1.9129544496536253,0.8638054728507996,0.1316196471452713,-2.1856629546165465,-1.9809584204122423,-6.707069535201788,0.8369801087126135,3.051914750520885,-9.282007117214798
1757088060632277000,1.614277099609375,1.9146995544433596,1.299677848815918,0.3135865330696106,-1.7357319062054155,-2.660586113204062,-6.787736478587985,0.7279223526224493,3.2325007425129413,-9.229920371624829
1757088060642323000,1.624322998046875,1.894954323768616,1.4593405723571775,0.2972910106182098,0.053914034082368,-2.3613486073464154,-5.79819294179678,0.5872828422999009,3.4104581395670768,-9.175743960279226
1757088060652370000,1.634369873046875,1.955535054206848,1.2159966230392456,0.1181249916553497,1.8088567636489867,-0.3024067835435271,-2.424008184877038,0.4554592007154598,3.587700666350126,-9.115446435704827
1757088060662417000,1.6444169921875,2.148958921432495,0.8516471982002258,0.0121203921735286,2.0188345620810986,1.29636550642848,-0.4684826041460037,0.3599543152900412,3.774553609782457,-9.043979866862296
1757088060672462800,1.654462890625,2.329634428024292,0.7273923754692078,-0.0465948544442653,1.2098679571926594,2.383084053814411,0.6303028131306171,0.2902488013032823,3.977112071868777,-8.959280306959151
1757088060682509800,1.664509765625,2.2860119342803955,0.62406986951828,-0.0404103994369506,1.437837339389324,2.862845592343807,-0.0131610948681831,0.2324174293803982,4.184785977272689,-8.865885399425029
1757088060692557000,1.67455712890625,2.4008278846740723,0.457901120185852,0.0222849417477846,0.9087994365155696,3.905266440580785,0.1503384455054998,0.1837045258713886,4.391240570014715,-8.766620138552785
1757088060702603000,1.68460302734375,2.53188157081604,0.1913071125745773,0.2036606520414352,0.8059913884699345,3.7481793975979087,1.8252800751835108,0.1507917787635699,4.608182654501498,-8.655188639068603
1757088060712650000,1.69464990234375,2.468461036682129,0.0730134919285774,0.4846494495868683,0.9551204581856728,2.498609544613957,0.4723118070453405,0.1246642074170056,4.825103111678362,-8.53658037982285
1757088060722697000,1.704697021484375,2.3256306648254395,-0.0163642261177301,0.6191115379333496,0.723887105756998,1.668288601529598,0.209635853126645,0.0913393175780307,5.031586053732037,-8.41695914414227
1757088060732744000,1.714743896484375,1.8759549856185915,-0.1155073270201683,0.6230359673500061,1.4592238262891768,1.7795786467164754,0.2348036121308803,0.0648355470299487,5.209843018254637,-8.308051025655866
1757088060742790000,1.724789794921875,1.255799651145935,0.2149593234062194,0.5543504357337952,1.91000827665925,1.2170038004219532,-0.3361871803313493,0.0291452797665027,5.340265049412846,-8.225028459054231
1757088060752836900,1.7348369140625,0.8297657370567322,0.4190099239349365,0.4121983647346496,0.4308277040123939,0.2826063967913389,-1.8948837727636096,-0.0236633800399838,5.424720863687992,-8.169591233992577
1757088060762883800,1.7448837890625,0.5680156350135803,0.455735981464386,0.215954452753067,-0.5942261220991611,0.5213017556637525,-1.1633633956491949,-0.0776465635185595,5.481559772241115,-8.131226139762997
1757088060772929800,1.7549296875,0.3439040184020996,0.3620457053184509,0.0922910943627357,-1.4631547359973192,0.4257844491481781,-1.4371347440779207,-0.1192627776317298,5.518268915957212,-8.105852629053592
1757088060782977000,1.76497705078125,0.2354577034711837,0.3485235273838043,0.0241946000605821,-1.6550965270012616,0.1148790095895528,-1.1763777755230664,-0.1505804558341391,5.540823277592659,-8.08992966825664
1757088060793024000,1.77502392578125,0.194200798869133,0.37738898396492,-0.1051511391997337,-0.9504103807985782,0.39060675278306,-0.3439613214641809,-0.1789047061079181,5.558535459893942,-8.077194689846039
1757088060803071000,1.785071044921875,0.1217780038714408,0.4740071296691894,-0.310946375131607,0.1505184965138323,1.3198913434445858,-0.3474368886202573,-0.200198345358856,5.57196718839705,-8.067433174288272
1757088060813117000,1.795116943359375,0.1334836632013321,0.4456862807273865,-0.7189391851425171,0.8411293373465537,1.3424381062954664,-0.6558809065014124,-0.2180383004919625,5.581743317002058,-8.060211406341194
1757088060823164000,1.805163818359375,0.5321268439292908,-0.5528098344802856,-0.9690662026405334,0.6144686996608972,-0.9498334576934576,-0.0098667294979095,-0.161216014280077,5.6092497480869286,-8.042433173066376
1757088060833211000,1.8152109375,0.8924173712730408,-0.7028696537017822,-0.7443806529045105,-2.206811541107297,-2.08953540724814,0.4711071074306964,-0.0601981147539569,5.668867473703623,-8.00192054541409
1757088060843256800,1.8252568359375,1.0148794651031494,-0.6122608184814453,-0.4141170680522918,-1.4228350005686283,-1.2940835329711438,-0.0300555310457944,0.0258184483151766,5.74610210455358,-7.94682701922357
1757088060853303800,1.8353037109375,1.183706283569336,-0.6327847838401794,-0.1377070397138595,0.0648421913998667,-1.097492454856634,0.0290595057457685,0.090630867914576,5.831577909526229,-7.883837186825275
1757088060863351000,1.84535107421875,2.0398504734039307,-0.810642421245575,0.0692538246512413,0.904123261398077,-1.37089146284163,0.8956927021831274,0.1488765927920118,5.955638588958978,-7.789647914043068
1757088060873397000,1.85539697265625,2.802358388900757,-0.8608618974685669,0.3323107659816742,0.6971779625296592,-2.485918989866972,1.3884925859838724,0.2028925711452029,6.14500673008263,-7.639902173733711
1757088060883444000,1.86544384765625,3.3633594512939453,-0.6924892663955688,0.5598825812339783,-0.4038415339419618,-1.0410329010099173,0.6727303344935178,0.2338528872773051,6.380401293843984,-7.443531460371613
1757088060893491000,1.875490966796875,3.796581506729126,-0.5547300577163696,0.6706274747848511,-0.2095101443877443,-0.443977692964673,0.1754366464048624,0.2386893675230443,6.645858402913809,-7.207356559887528
1757088060903538000,1.885537841796875,4.122021198272705,0.09058428555727,0.828113317489624,-0.3220844206988811,-0.0590519084274768,-0.5234779306590557,0.2065645011235959,6.929512847453355,-6.93610625436902
1757088060913583900,1.895583984375,3.6568603515625,0.7716448307037354,1.0091835260391235,-1.5754454826593398,0.6176964295357465,-1.4668915844380854,0.1152821378971915,7.206104513999819,-6.650498337674141
1757088060923630800,1.905630859375,2.410163640975952,0.9220356345176696,1.174282431602478,-0.4416331756651401,2.775705653551221,-3.687985333397984,-0.0258350455402396,7.406533562842011,-6.427515511718392
1757088060933677800,1.915677734375,1.570685625076294,0.3157561123371124,1.1585193872451782,2.016272602638602,3.5362539722293613,-2.854087700870633,-0.157174976994656,7.52735073030889,-6.283682210323214
1757088060943724000,1.92572412109375,2.035789966583252,-1.3204272985458374,0.7314347624778748,2.903338346251845,1.974487470832467,2.2881816643267867,-0.2010324580954387,7.638680522984266,-6.146586108228564
1757088060953771000,1.93577099609375,2.004396915435791,-1.8909051418304443,0.4853626787662506,0.8126765653222798,0.7646902407884597,5.656346430304646,-0.1428983677657786,7.760911648902296,-5.993180091845989
1757088060963818000,1.94581787109375,2.2566468715667725,-1.644133687019348,0.3848673403263092,-0.5979173778325318,1.7741496074050664,5.403480507260561,-0.0717111136215506,7.886453506803512,-5.828301079812646
1757088060973865000,1.955864990234375,2.340573310852051,-1.5406142473220823,0.2967164218425751,-0.0235609083294868,1.3635685726076363,4.250818538367748,-0.0075633056855236,8.020055921563506,-5.643495716559887
1757088060983911000,1.965910888671875,2.1951451301574707,-1.582104206085205,0.1718281358480453,0.3464402787983417,-0.2269938151627779,1.97196408983469,0.059825591647136,8.147163713607192,-5.4580713446259495
1757088060993958000,1.9759580078125,1.8530341386795044,-1.5706995725631714,0.0761434212327003,0.263454555342067,-2.1282167278200386,-0.3018283991336822,0.1353291928868275,8.257075456178187,-5.2889323370605705
1757088061004004900,1.9860048828125,1.4279546737670898,-1.4192020893096924,-0.0236705616116523,-0.2539478913282044,-3.056358578187227,-2.2583985204815864,0.2118997612043283,8.343204172101617,-5.14941105364561
1757088061014051000,1.996051025390625,0.9805460572242736,-1.085006594657898,-0.1110512763261795,-0.6936638169288635,-2.9313106412827965,-3.1316292154878376,0.2824591703403741,8.404753742563724,-5.044868144631385
1757088061024097800,2.006097900390625,0.5308166742324829,-0.6575397253036499,-0.140370711684227,-1.1647440363526345,-2.1296645885407925,-3.2260745088577267,0.3373976155670359,8.442276540750264,-4.978405667686462
1757088061034145000,2.01614501953125,0.1137176901102066,-0.1670176833868026,-0.0837271511554718,-1.4072037161946296,-1.304122696426511,-3.146448014435172,0.3684192151660099,8.457847619369625,-4.9496945369869465
1757088061044191000,2.02619091796875,-0.2777203619480133,0.3835834264755249,0.0660234689712524,-1.728233659404516,-1.1083224764287471,-2.88596635569036,0.3641373000631108,8.453584701228142,-4.9572892298996445
1757088061054238200,2.03623828125,-0.5596391558647156,0.8616898059844971,0.1893214434385299,-1.9288158529818056,-1.458835703754425,-2.2521955741882325,0.3209601293766871,8.432547758418321,-4.995951261249184
1757088061064285000,2.046284912109375,-0.5826217532157898,1.144330382347107,0.0895679146051406,-1.4691303032755851,-2.155116425183415,-1.0133376693546772,0.2566165808144957,8.40323281660676,-5.048779765117168
1757088061074332000,2.056331787109375,-0.278616338968277,1.3416693210601809,-0.2409048229455948,-0.1757563798785209,-3.168932233443856,0.5615957721292972,0.1990995538040995,8.380211421981453,-5.089480024296045
1757088061084378000,2.066378173828125,0.2051696181297302,1.603745698928833,-0.5017616152763367,1.0576397524178027,-4.635768288302422,2.2154250556737183,0.1565194904942996,8.37745715483725,-5.095500015237927
1757088061094425000,2.076425048828125,0.5978567004203796,1.704383373260498,-0.6036972999572754,1.385281807243824,-5.374680529233813,3.236562585124373,0.1175283824540208,8.397659400388598,-5.063188814219832
1757088061104471800,2.086471923828125,0.8828332424163818,1.482270121574402,-0.7412956357002258,1.8975591294527048,-4.693071891757846,3.025498745021224,0.0927705650907009,8.434610536167025,-5.001912215480208
1757088061114518000,2.09651806640625,1.081629991531372,1.0345571041107178,-0.7982504963874817,2.094698489099741,-3.995544969660044,2.4937130047440528,0.0956968460672535,8.483176121893525,-4.919039286482334
1757088061124565000,2.10656494140625,1.2492547035217283,0.6064023375511169,-0.6811975240707397,0.5997498539566993,-2.489917119592428,1.7315882305294277,0.120306560196774,8.539466164392232,-4.820108079870045
1757088061134612000,2.116612060546875,1.3410602807998655,0.4983505010604858,-0.5990251302719116,-1.7869383618295192,0.6982926457732915,0.2258744557440281,0.1491544324858579,8.600937408921123,-4.708718665961921
1757088061144659000,2.126658935546875,1.4182326793670654,0.6318864226341248,-0.6237933039665222,-2.815881596595049,3.5267128214240078,-1.501266439987719,0.17657397987172,8.664262172362207,-4.590180841603875
1757088061154705200,2.136705078125,1.558571696281433,0.9253934025764464,-0.6169109344482422,-2.0508546711981297,3.230179021567106,-1.436308230125904,0.1956476049856282,8.73050428455472,-4.462106834876537
1757088061164752100,2.146752197265625,1.73108971118927,0.9942209720611572,-0.5981151461601257,-0.6328302857816219,1.4837006804198023,-0.3281073342502117,0.2053159806335344,8.801939289215207,-4.319038380374014
1757088061174798800,2.156798828125,1.808061480522156,0.5368310213088989,-0.6587870121002197,1.502221256494522,-0.5347843375712633,0.4291781832396983,0.2272902408260852,8.876930525052547,-4.161588641558588
1757088061184845000,2.166844970703125,1.7423876523971558,0.2299872040748596,-0.7436190247535706,2.4075626615107057,-1.3687620495975017,0.1757467352673411,0.2751403169606812,8.94760623577833,-4.004373880542815
1757088061194892000,2.17689208984375,1.7674405574798584,0.2221204936504364,-0.7445498108863831,1.612650300937891,-1.7631383840471504,0.1715270717456936,0.3347327072067186,9.014276802515983,-3.847225170500576
1757088061204939000,2.18693896484375,1.793270230293274,0.2803892493247986,-0.6460519433021545,0.5213595867982134,-0.9049556205689908,0.1604217403635382,0.3885870469911023,9.079358054235575,-3.685734047339857
1757088061214986000,2.196986083984375,1.8042235374450684,0.1701263934373855,-0.5413233637809753,0.0869348812071606,-0.2499222708076238,0.2089206905946135,0.4342535137426108,9.141989574715495,-3.5221973898261782
1757088061225032200,2.2070322265625,1.792272925376892,0.3704956173896789,-0.4827160537242889,-0.0819078102927654,-1.1024947931885718,0.6968529683589935,0.4735094923973083,9.202229816144705,-3.3563623922422527
1757088061235079200,2.2170791015625,1.593319296836853,0.3826508224010467,-0.2897604703903198,-0.5929903697591274,-2.790581735643744,1.1420023354515432,0.4960256409142166,9.255974850335717,-3.2017642434656617
1757088061245126000,2.2271259765625,1.6243869066238403,-0.0426883623003959,0.0249610505998134,-0.1919757298061624,-2.8911352827608585,1.377256321698427,0.5042698837768286,9.305200945797562,-3.05439458463788
1757088061255172000,2.237172119140625,1.9636638164520264,0.0186698008328676,0.6327614784240723,-0.9111866239130496,-3.1871973734527823,2.194269162659347,0.4766397167144343,9.360047803750634,-2.8866423552557823
1757088061265219000,2.247218994140625,2.180896759033203,0.3872730731964111,1.2819254398345947,-2.4675918905377388,-2.5615134522944687,2.643079682607949,0.3788001412637531,9.422698028931022,-2.690664440603554
1757088061275266000,2.25726611328125,2.2291383743286133,0.1458631157875061,1.4818856716156006,-1.591877562022209,-2.8281179778337475,2.9396090985506773,0.2363105643614195,9.48429903731942,-2.482466219064593
1757088061285312800,2.267312744140625,2.0065085887908936,-0.170124813914299,1.1554789543151855,-0.0413829898791853,0.0100309801489114,1.995014418293536,0.1079718696827534,9.538044656032325,-2.276931517646461
1757088061295359000,2.27735888671875,1.7281320095062256,-0.4792211651802063,0.518408477306366,0.179271694523096,1.2334469857007264,1.0885320265486835,0.0341118412488722,9.579216039854288,-2.0994835314191875
1757088061305406200,2.28740625,1.7862969636917114,-0.7870164513587952,0.0620279647409915,0.4387853850185871,-0.7299947749823331,1.8799537685267629,0.0210509918847703,9.614728667262195,-1.930531424728036
1757088061315453000,2.297452880859375,1.6547114849090576,-0.8927455544471741,-0.1943622678518295,0.111008890157938,-1.058473280632496,1.9438494637236,0.0440161194283282,9.646924717468025,-1.762189266628772
1757088061325499100,2.3074990234375,1.622238278388977,-0.8256478905677795,-0.4272905588150024,0.0130944685059133,-0.1099883149385452,0.6891003084056079,0.089108352788724,9.674226565891503,-1.6036853425852953
1757088061335546000,2.317546142578125,1.917737364768982,-0.3654390275478363,-0.4219943284988403,-0.0564531332390848,-0.0121855278342962,0.8093104498900473,0.1424941800122149,9.700471598738432,-1.4321020106077194
1757088061345593000,2.327593017578125,2.0889105796813965,0.1078086271882057,-0.0684539750218391,-0.7003916638791561,-0.8074895180732011,1.6696258414827283,0.1696270468106493,9.72723744058907,-1.2338811393342912
1757088061355639800,2.337639892578125,2.2109382152557373,0.5370334982872009,0.2873976230621338,-0.969322002017498,0.7292366500914096,0.5571891346681863,0.1537965866027399,9.751681561493871,-1.0254052698977292
1757088061365686000,2.34768603515625,2.5317423343658447,1.141923904418945,0.4044237732887268,-0.5542284582316875,0.8407131577610969,0.8353205780025571,0.1113009775728453,9.773831433981655,-0.7938710348263383
1757088061375733000,2.35773291015625,2.478921890258789,1.6823714971542358,0.5871992111206055,-0.6117185241699218,0.369729968971014,0.895322115305066,0.0538690487297484,9.79126187673211,-0.5465166417453438
1757088061385780200,2.3677802734375,2.2949769496917725,1.944074273109436,0.6938298344612122,-1.083473281854391,2.545401106405258,-0.4356581929087638,-0.0187569957711442,9.801645908102392,-0.3126792808307335
1757088061395827000,2.377826904296875,2.2005794048309326,1.7704031467437744,0.445547342300415,-0.738236533626914,7.07786450305581,-0.8358222439143806,-0.0811786101022269,9.805895966762304,-0.0905841244297102
1757088061405873200,2.387873046875,2.226173162460327,1.1339588165283203,-0.0352173000574111,-0.1134802304412238,12.714280490487813,-0.7923574153929949,-0.1012494478262495,9.805279296168685,0.1288642985885031
1757088061415920000,2.397920166015625,2.1213483810424805,-0.0060187261551618,-0.3632713258266449,0.1591109500259161,13.469586816859245,-1.2802563754096628,-0.07875559333954,9.800257668614387,0.345170879917033
1757088061425967000,2.407967041015625,1.6809124946594238,-1.1144038438796997,-0.3466541171073913,0.2074485722154379,6.961182827958464,-3.614434359496832,-0.0441941428763559,9.791945182821154,0.5350422213224694
1757088061436013300,2.418013427734375,0.7980682253837585,-1.270793914794922,-0.0659311115741729,-0.4330366122335195,2.480671152341366,-6.0573208478450775,-0.0311396045220317,9.784525261953473,0.6576478431086987
1757088061446060300,2.428060302734375,0.0318144522607326,-0.7451701164245605,0.194821298122406,-0.779880211135745,2.6396003160595893,-6.296196823981404,-0.0447726368840551,9.781818341082332,0.6960096494026482
1757088061456107300,2.438107177734375,-0.4216867089271545,-0.2278060466051101,0.3703065514564514,-0.0462456137797562,2.568284553864598,-3.872923090858757,-0.0764570888725109,9.783101951152084,0.6748679310441017
1757088061466154000,2.448154052734375,-0.596194326877594,-0.0071082669310271,0.4284049272537231,0.7286550508111714,2.3259932163268324,-0.7857506375391036,-0.1172357835824601,9.786122760277983,0.6232440537255257
1757088061476200200,2.4582001953125,-0.6416387557983398,0.0942622944712638,0.3350520730018616,1.162182076910138,2.066786984345317,1.3589359443709252,-0.1555700625486671,9.789299052226545,0.5619619750931859
1757088061486247200,2.4682470703125,-0.6408721208572388,0.0707682818174362,0.1110206395387649,1.4495008891761303,1.5560446166187525,2.132835327531397,-0.1775811293539591,9.792320445874331,0.4992899399397894
1757088061496294100,2.478294189453125,-0.7894631624221802,0.0340837687253952,-0.1388152986764907,1.420750595510006,0.2050660609930753,1.6033574258051813,-0.1754662012929096,9.795663326561453,0.4296189492771401
1757088061506341000,2.488341064453125,-0.8650231957435608,0.0908348485827446,-0.3140146136283874,0.7865747403383254,-1.3161451426535844,0.5240922266324982,-0.1524109409306198,9.799400175002216,0.3448534845309332
1757088061516387300,2.49838720703125,-0.2289037108421325,0.4170238673686981,-0.3612963855266571,0.0492582532989326,-1.469740544128418,0.7939834091596305,-0.1176428756791632,9.801561736950278,0.2931336542909033
1757088061526434300,2.508434326171875,0.1401010304689407,0.4615424871444702,-0.2082031369209289,-0.4338216251313686,-1.444808931967616,1.1108935690257695,-0.0872168947526253,9.801918295302986,0.2918092372867278
1757088061536481000,2.51848095703125,0.1401822566986084,0.329828679561615,-0.0374494977295398,-0.6178641873180866,-1.1194336530297997,0.3545609318139031,-0.0743598243323154,9.80155822981894,0.3071365520117804
1757088061546528000,2.528528076171875,0.0375345274806022,0.2427142858505249,0.0585981681942939,-0.6718892074942588,-1.1471195323348045,-0.2907268671438098,-0.0749523833979852,9.8012601236552,0.3163148973867297
1757088061556574200,2.53857421875,-0.0215836521238088,0.1501875519752502,0.1090964898467063,-0.6307476342886686,-0.7552905442804098,-0.2852249817918986,-0.0827242321090307,9.801182966765762,0.3167984431199729
1757088061566621200,2.54862109375,-0.0099921897053718,0.0135773038491606,0.1501200646162033,-0.5247106873244047,-0.4790028291165828,-0.0783918745936825,-0.0953876248544547,9.80112743718624,0.3149688530726358
1757088061576668200,2.558668212890625,0.0127453468739986,-0.1107244044542312,0.1555233597755432,-0.334710678038001,-0.1393061793595552,0.0716516430858522,-0.1109097680318634,9.800957341316344,0.3151614895679056
1757088061586714400,2.56871435546875,0.0453349910676479,-0.1670554131269455,0.1151130124926567,-0.1555611485898494,-0.1784077711701393,0.0342093262569978,-0.1250092671281658,9.800704243338108,0.3177382081881165
1757088061596761300,2.57876123046875,0.079086035490036,-0.2528227567672729,0.0641414448618888,-0.0087175411964766,-0.2500678167581558,0.045100393833965,-0.1343360445304773,9.800387432473896,0.323606515699625
1757088061606808000,2.58880810546875,0.0998041257262229,-0.3736309111118316,0.032632041722536,0.1086865846902132,-0.3311170374602079,0.0508671406671404,-0.1398112702043261,9.800034965774415,0.33190584975034
1757088061616855000,2.59885498046875,0.149818554520607,-0.6257840991020203,0.0745014548301696,0.142089069810044,-0.2486304774314165,0.0374431205464527,-0.1462788953158538,9.799550981649755,0.3432350164836272
1757088061626901200,2.6089013671875,0.2592374980449676,-0.9358184337615968,0.1578104794025421,0.1209153671443462,0.0403092140346765,0.0819107329022139,-0.1604198954663239,9.798661923855542,0.3617647987781092
1757088061636948200,2.6189482421875,0.3608559966087341,-1.134002923965454,0.2181044369935989,0.1616127037137746,0.4226578415602445,0.3233275526277721,-0.1830110454482026,9.797141582420467,0.3910424407865852
1757088061646995000,2.628994873046875,0.3914803862571716,-1.1754003763198853,0.2434930205345153,0.1514432101433165,0.4139110560029745,0.3609509616445749,-0.210998921640776,9.795113875985145,0.4261429071970283
1757088061657042200,2.639042236328125,0.3864656388759613,-1.004927158355713,0.1940820515155792,0.0372358162050135,0.3253209184020758,0.3047886006461456,-0.2379002812382765,9.792873988103866,0.461954371421039
1757088061667088400,2.64908837890625,0.2814317941665649,-0.596416711807251,0.0458618327975273,-0.1127115658899769,0.4347106829255819,0.1588120036119595,-0.2540500913273543,9.790923438557982,0.4936079122480005
1757088061677135000,2.659135009765625,0.1404411196708679,-0.1057519018650055,-0.1157076209783554,-0.2301466897031292,0.1968365773081779,-0.2480598744692281,-0.2519856330782175,9.7899759285748,0.5130678515320644
1757088061687182000,2.66918212890625,0.1128404885530471,0.192611277103424,-0.1677935719490051,-0.2873322562694549,0.4525228184700012,-0.0453403035370632,-0.2369981812993995,9.789722246074676,0.5249288235871121
1757088061697229000,2.67922900390625,0.0828804597258567,0.3699085712432861,-0.1539965271949768,-0.2838560863251798,0.3162275113642215,0.1207277721503749,-0.2193750289884395,9.78954747402966,0.5357323224784806
1757088061707275300,2.689275146484375,-0.0265234652906656,0.4712133109569549,-0.1088872030377388,-0.2332189550216309,-0.0107066874533891,-0.3280569923024624,-0.2040218857023865,9.789672561714053,0.5394948168171569
1757088061717322000,2.699322021484375,-0.070791058242321,0.4191985726356506,-0.0045493450015783,-0.1237479602217674,0.1274327862143516,-0.3773189993279054,-0.1955787957994267,9.790098678171637,0.5348872864890843
1757088061727369000,2.709368896484375,-0.041778951883316,0.2872814834117889,0.0953927636146545,-0.0052904893572442,0.1721089632868766,-0.0730024731729179,-0.1985159817624837,9.79031319770515,0.5298460774514824
1757088061737416200,2.719416259765625,0.0062487600371241,0.1492511630058288,0.129404529929161,0.1170440786689519,-0.0307990428894758,-0.0153658749034628,-0.2089215856437571,9.790163560101387,0.5286227462016045
1757088061747462400,2.72946240234375,0.0383422672748565,0.0305484998971223,0.0940352529287338,0.28469140463816,-0.0769610746055841,-0.0423052101574838,-0.2197488672695122,9.78978712800443,0.5311710789775476
1757088061757509000,2.739509033203125,0.0444699339568614,-0.0557869188487529,0.0312735997140407,0.3755868783056735,-0.0240653507202863,-0.2124357495108619,-0.2260988208181224,9.78941654112637,0.5353538445549085
1757088061767556000,2.74955615234375,0.0468318089842796,-0.1064645648002624,-0.0229553151875734,0.3553179972589015,0.0209282217383384,-0.3578550049232318,-0.2267793686944991,9.789162858626248,0.539664656958729
1757088061777602300,2.759602294921875,0.050260629504919,-0.1260071098804474,-0.0479919575154781,0.2786462609887123,0.091140991127491,-0.3869607244309038,-0.2237293152078054,9.788981072318553,0.5442298094497994
1757088061787649300,2.769649169921875,0.0513050481677055,-0.1228245198726654,-0.0421392321586608,0.1795516805082559,0.1080722521841526,-0.3589988777287304,-0.2198037027292884,9.788809222882984,0.5488890334324911
1757088061797696000,2.779696044921875,0.0431882664561271,-0.122635431587696,-0.0278060976415872,0.0770458485458977,0.074738137859106,-0.325856450050883,-0.2169574099200777,9.788623929443954,0.5533054981678724
1757088061807743000,2.789742919921875,0.0377193689346313,-0.1187738552689552,-0.0178911108523607,-0.0017670096725225,0.0876303526580333,-0.3099387134183198,-0.2153575004427693,9.788451495486497,0.5569903606930747
1757088061817789200,2.7997890625,0.0349190570414066,-0.1073840484023094,-0.0134564163163304,-0.0736106134002096,0.0695411537379026,-0.265008598117344,-0.2144419930330477,9.788286075791715,0.5602436634005978
1757088061827836200,2.809836181640625,0.0369510315358638,-0.1021203249692916,-0.016441723331809,-0.1269646024470217,-0.0036094226688146,-0.205024011949636,-0.2136105106449685,9.788114226356148,0.5635557836232706
1757088061837883100,2.819883056640625,0.0358945541083812,-0.1038676276803016,-0.014502408914268,-0.1734241010060533,-0.0369517203003168,-0.2118976605787873,-0.2126404965690337,9.787934778136014,0.5669876212354749
1757088061847930000,2.82993017578125,0.026262167841196,-0.1091646552085876,-0.0090077752247452,-0.1870592613930813,-0.0161450791150331,-0.2130245091842487,-0.2120242095679044,9.787778710791468,0.569909938422963
1757088061857976300,2.839976318359375,0.0199459474533796,-0.1165333539247512,0.0038118830416351,-0.1886959044178947,-0.0342775326550006,-0.2065006969060748,-0.2123328371256589,9.787654792150857,0.5719156156895682
1757088061868023000,2.85002294921875,0.0225017927587032,-0.1286889165639877,0.0211718939244747,-0.1887064440782181,-0.0348725759387016,-0.1557184580434113,-0.2142676045805215,9.787502816459536,0.573805740285106
1757088061878070000,2.860070068359375,0.0160553455352783,-0.1349798291921615,0.0321909897029399,-0.1382627895201556,-0.06762509098351,-0.1173204479249194,-0.2177248506286181,9.787334474155308,0.5753609338378534
1757088061888116200,2.8701162109375,0.0093653295189142,-0.13338004052639,0.0345996841788291,-0.077166223522555,-0.1396089616984129,-0.0907857479490339,-0.2218099827840924,9.787193019858002,0.5762099518826231
1757088061898163200,2.8801630859375,0.0039399382658302,-0.1349880546331405,0.0329671651124954,-0.0366798993553035,-0.2203022085696458,-0.0650367915233597,-0.2259341135093942,9.78708196069896,0.5764981211742386
1757088061908210200,2.890210205078125,0.0008102265419438,-0.1253902614116668,0.0299647916108369,-0.047887522068154,-0.1316337450355291,-0.0566715160969644,-0.2298397426458075,9.786998958590626,0.5763629504872486
1757088061918257200,2.900257080078125,0.0085776029154658,-0.1128480955958366,0.0188452955335378,-0.0653734761318191,-0.0169265848815441,-0.0520503956349566,-0.2330037231020629,9.786913618394731,0.576530160280317
1757088061928303400,2.910303466796875,0.0130856456235051,-0.1185464411973953,0.0051594423130154,-0.0702513113012537,-0.0451133994460105,-0.0548478808663785,-0.2348595435691997,9.786819510370492,0.5773822835976258
1757088061938350000,2.92035009765625,0.0142960511147975,-0.1371385008096695,-0.0028702544514089,-0.0984942399671301,0.0285965644091367,-0.062903067430295,-0.2356461821685545,9.78673124756515,0.5785541769212111
1757088061948397000,2.93039697265625,0.0169429238885641,-0.1368487030267715,-0.0020460090599954,-0.0878372551406733,0.0963186860263347,-0.0056457873346284,-0.2361282300644554,9.786645907369255,0.5798053094934672
1757088061958444000,2.940444091796875,0.0214985255151987,-0.113068014383316,0.0021929442882537,-0.0829915869414806,0.0702419954836368,0.0922703239509835,-0.2367840453583747,9.786536601775884,0.5813980585776269
1757088061968490200,2.950490234375,0.0283282566815614,-0.0727822333574295,0.0037324505392462,-0.1078682175120338,0.0902963569968938,0.1741516115630045,-0.2376445346452295,9.786382872518896,0.5836131042785943
1757088061978537000,2.960536865234375,0.0310625247657299,-0.032305110245943,0.0028000778984278,-0.1536258331457153,0.0611450813144445,0.2006184704670682,-0.2382754164272919,9.78620751595199,0.586325979966484
1757088061988584200,2.970584228515625,0.0340294875204563,-0.0004601575201377,-0.0025332970544695,-0.1568891640569083,0.0481646037101745,0.2037873097615316,-0.2383037840052507,9.786017546337842,0.5894414451058954
1757088061998630400,2.98063037109375,0.0338156335055828,0.0184602718800306,-0.0040105525404214,-0.1839560529470443,0.0097498251199722,0.1684266945775598,-0.2378720780570991,9.785826407679917,0.5927796861505136
1757088062008677000,2.990677001953125,0.0360719226300716,0.0301524884998798,-0.0032377706374973,-0.2062526404291391,-0.022519874843955,0.1477153669929131,-0.2374230921805836,9.785625332149865,0.5962827258354052
1757088062018724000,3.00072412109375,0.0369241312146186,0.0435484535992145,-7.57994130253e-05,-0.2084148234317079,-0.0269423674613237,0.1298231154169887,-0.2370559393686242,9.785410228094458,0.5999595511846244
1757088062028771000,3.01077099609375,0.0386308543384075,0.0579185038805007,0.0040889158844947,-0.2038251575538888,-0.0524433039426803,0.107538327970542,-0.2370075519159436,9.785173496729136,0.6038390229664743
1757088062038817300,3.0208173828125,0.0391957089304924,0.065844602882862,0.0072197280824184,-0.2028425762573256,-0.0565285274296998,0.0770332630589604,-0.2372417259979993,9.78491922970712,0.6078581954799592
1757088062048864000,3.030864013671875,0.0382760018110275,0.0722882598638534,0.0040368791669607,-0.1943260923245921,-0.0094388594746589,0.0191683359263464,-0.2373781022613868,9.784666131728889,0.6118536217916757
1757088062058911000,3.040910888671875,0.0395908057689666,0.0755221396684646,-0.0019222097471356,-0.1793991202950477,0.0455699110418558,-0.0250707283705472,-0.2370425136314705,9.784423555144668,0.6158401341445744
1757088062068958200,3.050958251953125,0.0370780006051063,0.0771586298942565,-0.0035820237826555,-0.2126689372122287,0.0740770436018705,-0.0811735046688467,-0.2362437279365956,9.784197929695248,0.6197190944697708
1757088062079004200,3.061004150390625,0.0335924550890922,0.0750134587287902,-0.0061674211174249,-0.2169482584992423,0.0864063638210296,-0.1023402844034135,-0.2352563243344426,9.78399042442441,0.623378639890626
1757088062089051100,3.071051025390625,0.0309837851673364,0.0695202350616455,-0.0055502578616142,-0.2256190562108531,0.0692348642677068,-0.1237467181127518,-0.2342175010723061,9.7838039619416,0.626678704349324
1757088062099098000,3.08109814453125,0.027819151058793,0.065246932208538,-0.0030476853717118,-0.2454261101658456,0.0388806425362825,-0.1506720613740384,-0.2334141853327862,9.783630358940362,0.6296621040742844
1757088062109144300,3.091144287109375,0.0278309788554906,0.0640956610441207,0.0027402944397181,-0.2378262296213768,0.0248451029211282,-0.1766205954924225,-0.2330834007421508,9.783452664285898,0.6325665202789008
1757088062119191300,3.10119140625,0.0285497661679983,0.0593206174671649,0.0097830239683389,-0.2311538939842954,-0.0036859950363636,-0.212383106008172,-0.2333216847437433,9.783252757799625,0.6355582494407892
1757088062129238000,3.111238037109375,0.0254616420716047,0.0527042336761951,0.0102339554578065,-0.2133113085026852,-0.0319236630052328,-0.2570192433312535,-0.2339552699395455,9.78305752748847,0.6382957115806639
1757088062139285000,3.121284912109375,0.0225494746118783,0.0449826642870903,0.0105700464919209,-0.1774748742341995,-0.0214162975162267,-0.3056603054467589,-0.234626739460323,9.782875741180778,0.6408484648033976
1757088062149331200,3.131331298828125,0.0222052652388811,0.0312372501939535,0.0074477214366197,-0.1892629271835088,-0.0097229371130466,-0.3599635580424219,-0.2352589364166371,9.7827044762671,0.6432274688944221
1757088062159378200,3.141378173828125,0.0212675668299198,0.0114457039162516,0.0011983478907495,-0.1816121201694011,-0.0005932897180318,-0.3854801304843276,-0.2355776652432978,9.78255366961956,0.6454007943455129
1757088062169425200,3.151425048828125,0.0208479911088943,-0.0089570814743638,-0.0037570304702967,-0.1795090469429269,-0.0125870943725109,-0.3949893517814576,-0.2352865002769976,9.782427412891389,0.6474280623894184
1757088062179472100,3.16147216796875,0.0175603181123733,-0.0276162531226873,-0.0035303954500705,-0.1883048958063125,-0.0214461081326007,-0.3964421078730374,-0.235019757365901,9.782307001382112,0.6493297312922776
1757088062189518300,3.171518310546875,0.0169802885502576,-0.0369135104119777,-0.0010747222695499,-0.1743856760472059,-0.0303191504180431,-0.3674989219833165,-0.235022880904749,9.782201787441968,0.6509125435043126
1757088062199565000,3.18156494140625,0.0162140969187021,-0.0414757691323757,-0.0004408897366374,-0.1653577719936147,-0.0472761304378509,-0.3008619652543217,-0.2352223855322226,9.782101249676945,0.6523606964860111
1757088062209612000,3.191612060546875,0.0237312745302915,-0.0483467653393745,-0.0022092636208981,-0.1522399317452684,-0.0627180297195911,-0.2135917511455714,-0.2353216994545422,9.781980838167668,0.6541250027447939
1757088062219658200,3.201658203125,0.0312786735594272,-0.0516067408025264,-0.0064282435923814,-0.1427226915384642,-0.0695785631388425,-0.123708651124686,-0.2352619138250127,9.78180665064454,0.6567175034560263
1757088062229705200,3.211705322265625,0.0381299331784248,-0.0511753931641578,-0.0006058441940695,-0.1375187479535117,-0.044364626905322,-0.0640599458478391,-0.2352283038163557,9.78158336328268,0.6600665216229855
1757088062239752000,3.221751953125,0.0436900779604911,-0.0465236492455005,0.002169968560338,-0.1145896529878489,-0.0117658411175012,-0.0021434417694807,-0.2357120504789985,9.781305130863188,0.6639904170684516
1757088062249799200,3.231799072265625,0.0412545539438724,-0.0401140116155147,0.0065725771710276,-0.0954413186699151,-0.0131207628577947,0.0363433791436254,-0.2364548316703177,9.781014623484015,0.6680008217535912
1757088062259845400,3.241845458984375,0.0428170301020145,-0.0316251851618289,0.0070245154201984,-0.082903360668756,-0.0090840546876192,0.0739272598676383,-0.2373209287140518,9.780720024451613,0.6720162679400294
1757088062269892000,3.25189208984375,0.0424450412392616,-0.0271080583333969,0.0068593323230743,-0.0559761907765641,-0.0217991593539714,0.105154611171782,-0.2382112651498988,9.780416657590866,0.6761035372536629
1757088062279939000,3.26193896484375,0.0418117418885231,-0.0284233931452035,0.0078593492507934,-0.0108224227875471,-0.0059434185743331,0.0955913946650922,-0.2392217025677673,9.780122058558463,0.6799803786870092
1757088062289985300,3.2719853515625,0.0368900075554847,-0.0357293672859668,0.0067639239132404,0.0324088527062907,0.041615620458126,0.0791654527820646,-0.2402552651328965,9.779847333270313,0.6835373405162245
1757088062300032300,3.2820322265625,0.0338731780648231,-0.0395400859415531,0.0008748755790293,0.0726210178409703,0.0818202050745487,0.052632762100175,-0.2409632672717794,9.779596573379637,0.6868762026153504
1757088062310079000,3.292078857421875,0.0315857902169227,-0.0395464748144149,-0.0088690984994173,0.0794885107239708,0.0815969177126884,0.0153041713114827,-0.2409471381208859,9.779372701495886,0.6900875658772886
1757088062320126000,3.3021259765625,0.0310744624584913,-0.0431707724928855,-0.02185919880867,0.0422948348939418,0.0528986464947462,-0.0424302247766405,-0.2398161247969605,9.779189746144413,0.6930545259241014
1757088062330172200,3.312172119140625,0.0292575452476739,-0.044102095067501,-0.0297603979706764,0.0011731354326009,0.0153401924729347,-0.0902005684722214,-0.2376004032425582,9.779039524018764,0.6959336615569889
1757088062340219100,3.32221923828125,0.0256907735019922,-0.0500441417098045,-0.0267313160002231,-0.0594528721774928,-0.0101245036512613,-0.1044725471917539,-0.2350336762933991,9.77891560537815,0.6985337610527873
1757088062350266000,3.33226611328125,0.0238321255892515,-0.054174643009901,-0.0210535582154989,-0.1143196221411228,-0.0384352368563413,-0.1235982495527714,-0.2329887812612578,9.778795778390764,0.7009001979231834
1757088062360312300,3.342312255859375,0.0207367334514856,-0.0554814562201499,-0.0114248991012573,-0.1524444778740405,-0.0345762233406305,-0.1501726604845374,-0.2318247972494922,9.778677704969049,0.7029340418383478
1757088062370359300,3.352359375,0.0149444127455353,-0.0536964647471904,-0.0018591575790196,-0.1617886265362612,-0.0156073189765214,-0.1899854693043977,-0.2316085058839991,9.77856255415678,0.704588969438523
1757088062380406000,3.362406005859375,0.0107842897996306,-0.0496998578310012,0.0029169553890824,-0.1594096407115459,0.0001969838768243,-0.2143227688338607,-0.2320419288652017,9.7784707842201,0.7057325865156948
1757088062390453000,3.372452880859375,0.0061774984933435,-0.0491593778133392,0.0017439001239836,-0.1437397413602098,0.0098386724472045,-0.2469102295100688,-0.2325992522207088,9.778404733246564,0.7064470914606005
1757088062400499200,3.382499267578125,0.0017145728925243,-0.0447499826550483,0.0063434457406401,-0.0935439423496834,-0.007778817307949,-0.2566646577399223,-0.2332645477290265,9.778365570279956,0.7067745698492973
1757088062410546200,3.392546142578125,0.0020759915933012,-0.0442733392119407,0.0129428580403327,-0.0542693503260612,-0.0194166481316089,-0.2299252655047923,-0.2345314075933769,9.778332252532245,0.7068201625566929
1757088062420593000,3.402593017578125,0.0088353604078292,-0.0440640114247798,0.0100610516965389,-0.0145732632210478,-0.0250368261009454,-0.1679334311679005,-0.2360698326744139,9.77826561703682,0.7072272089876234
1757088062430639900,3.412639892578125,0.0132668986916542,-0.04340635612607,0.0068093622103333,0.0560112255573272,-0.0288397255152463,-0.1274626698959618,-0.2372224367756396,9.778178523275256,0.7080567186143248
1757088062440686000,3.42268603515625,0.0157979670912027,-0.0441049039363861,-0.0042821709066629,0.0851063871383667,-0.0049456397086381,-0.1209664397444576,-0.2375874889620579,9.77807681646645,0.709341497727856
1757088062450733000,3.432733154296875,0.0219839736819267,-0.0498248189687728,-0.0193837229162454,0.0902069616803899,0.0217944831788539,-0.1306303401466459,-0.2367024314895272,9.777971018004417,0.7110746781960129
1757088062460780000,3.442780029296875,0.0257960222661495,-0.055268321186304,-0.0320390649139881,0.0564736189046874,0.022803367960453,-0.1620413774546235,-0.2345425683082081,9.777859958845376,0.7133062366403639
1757088062470826200,3.452826171875,0.0262020174413919,-0.0585405081510543,-0.0394141227006912,-0.0199041211212985,0.0245505038887262,-0.2229802686724811,-0.2313369406673125,9.77775942108035,0.7157368247881531
1757088062480873200,3.462873291015625,0.0266033560037612,-0.0620841085910797,-0.0390956066548824,-0.0829617763251066,0.0426087231487035,-0.3000026450112462,-0.2278359102764166,9.777658298793437,0.7182398936502635
1757088062490920200,3.472920166015625,0.021101614460349,-0.0652156397700309,-0.0342717915773391,-0.1666220745746977,0.0431453142434358,-0.3687775636170059,-0.2246806611158885,9.77757178955376,0.7204261516481637
1757088062500967000,3.482966796875,0.0048597939312458,-0.0699808299541473,-0.0271209366619586,-0.2070066919331438,0.0437590622276067,-0.4275263243794441,-0.2221542661771178,9.777556591984627,0.72141465122886
1757088062511013000,3.49301318359375,-0.0054036797955632,-0.0782658457756042,-0.0244992896914482,-0.2292231999163515,0.0151093063265085,-0.4508605112809687,-0.2201385241742245,9.777625565567613,0.7211060967363416
1757088062521060000,3.50306005859375,-0.0121768973767757,-0.0886436477303505,-0.0155313611030578,-0.2810626927469857,-0.0231587572693824,-0.4420014975208788,-0.2187268124790862,9.777736040204765,0.720028384502232
1757088062531107000,3.513107177734375,-0.0177264586091041,-0.0945002734661102,-0.0024111606180667,-0.3328150735497474,-0.1141156240016221,-0.423007020324096,-0.2184497856359928,9.777862881454825,0.7183916501458734
1757088062541153000,3.523153076171875,-0.0221579577773809,-0.0936933308839798,0.0154842156916856,-0.3180173173904418,-0.1738023232012987,-0.3843048761598766,-0.2197801026579924,9.777992645314336,0.7162011543642729
1757088062551200300,3.5332001953125,-0.0254656206816434,-0.0866588801145553,0.0288232881575822,-0.2678104124640114,-0.1821580636143684,-0.2962361320845783,-0.2227015430626459,9.778119486564398,0.713575555101037
1757088062561247200,3.543247314453125,-0.0264312829822301,-0.0761665552854538,0.0415231026709079,-0.2122516068493015,-0.1616208870202302,-0.2125973332807421,-0.2267847389893606,9.778232299289106,0.710740989262238
1757088062571294000,3.5532939453125,-0.0275452900677919,-0.0673771724104881,0.0464188195765018,-0.0865829259643331,-0.0783610045313835,-0.1515796777382493,-0.231696476428397,9.77832056209445,0.7079325077127665
1757088062581340200,3.563340087890625,-0.0267708431929349,-0.0685881078243255,0.0386711508035659,0.0600017747645266,0.0179144268751144,-0.1348437200579792,-0.2364246191951446,9.778409993943573,0.7051125549212097
1757088062591387100,3.57338720703125,-0.022745219990611,-0.0877681076526641,0.0191550441086292,0.1638011536687612,0.1146177283048629,-0.0983189929980784,-0.2398172938407398,9.77852280666828,0.7024059263110161
1757088062601434000,3.58343408203125,-0.0090808067470788,-0.1138545721769332,-0.0045654643326997,0.1933241487404331,0.1924813047081232,-0.0189632052756845,-0.2412086203349754,9.77862159086764,0.7005625634666531
1757088062611480000,3.59347998046875,0.0042044552974402,-0.1456728726625442,-0.0267322547733783,0.1840951691567897,0.2332745028674602,0.0167670104056596,-0.2405086553720757,9.778678289490935,0.6999971846688539
1757088062621527000,3.603527099609375,0.0168081317096948,-0.178205519914627,-0.0418291799724102,0.0937614027589559,0.2094721869975328,0.0550559706591069,-0.2383116019855253,9.778688226363062,0.7006139283277094
1757088062631574300,3.61357421875,0.0284450687468051,-0.1971743255853653,-0.051098246127367,0.017769428913854,0.123325350895524,0.0778827194951474,-0.2350433757035061,9.778644971743226,0.7023277465082705
1757088062641621000,3.62362109375,0.0347684808075428,-0.1919563859701156,-0.0599391385912895,-0.0895814867258071,0.0414168830156326,0.1050078961774706,-0.2309426806527189,9.778550863718984,0.7049805260393768
1757088062651667200,3.633667236328125,0.0372889041900634,-0.16756272315979,-0.0613916926085948,-0.1769575906281359,-0.0650005876988172,0.0978989409551024,-0.2263157515044324,9.778428114122152,0.7081989035639912
1757088062661714200,3.643714111328125,0.0316637754440307,-0.1343717575073242,-0.0604100562632083,-0.25973758064555,-0.1688964309811592,0.0217545895598828,-0.2213472058442421,9.778325238269566,0.7111704667206853
1757088062671761200,3.65376123046875,0.0262202359735965,-0.103944718837738,-0.0523225963115692,-0.3561597087800502,-0.1923135469257831,-0.0090203418016433,-0.2166530932112596,9.778248081380127,0.7136637448411435
1757088062681808000,3.663807861328125,0.0157899670302867,-0.0741079896688461,-0.0323297157883644,-0.4053244294434786,-0.1802794102609157,-0.0217141844842582,-0.2131280974228866,9.778186122059822,0.7155837531182915
1757088062691854000,3.67385400390625,0.0097536463290452,-0.0398727916181087,-0.0086249187588691,-0.4125643175691366,-0.1471668297320604,-0.0407180870965123,-0.2115740363813005,9.778143451961874,0.7166314355403185
1757088062701901000,3.683901123046875,0.0026224995963275,-0.0045233243145048,0.008939960040152,-0.3818634743571281,-0.0940080709964037,-0.070351593337953,-0.2117490276220254,9.778106042560934,0.7170855359833687
1757088062711948000,3.693947998046875,-0.0005368357524275,0.0232569687068462,0.0146046709269285,-0.3230687555611133,-0.0436971029072999,-0.076736472069472,-0.2129329219106584,9.778071555769444,0.717185416161269
1757088062721994200,3.703994140625,-0.0002404259284958,0.0356345437467098,0.010326568968594,-0.2755845353305339,0.0360772755533456,-0.077992098153755,-0.2140297224377282,9.778054604634642,0.717094303811714
1757088062732041200,3.714041259765625,0.0022199403028935,0.0288271959871053,-0.0021498429123312,-0.236534965968132,0.0952034182608127,-0.0928822087716311,-0.2141736974856816,9.778035315412282,0.7173200023263693
1757088062742088200,3.724088134765625,0.0086120599880814,0.0159723833203315,-0.0125673301517963,-0.2239653889860026,0.0967202525645494,-0.0908812442127615,-0.2132757439989596,9.778014857146143,0.7178625847704708
1757088062752135000,3.734135009765625,0.018384363502264,0.0066572818905115,-0.0213603544980287,-0.2037117420409806,0.0417103130042552,-0.0652254824958741,-0.2115327910554595,9.777959327566624,0.7191419570565223
1757088062762181000,3.74418115234375,0.0230182632803916,0.0001234822266269,-0.0255207438021898,-0.20966391017735,0.0120277069240808,-0.0239786953501403,-0.2091720898061059,9.777862881454825,0.7211403643321246
1757088062772228000,3.75422802734375,0.0324552357196807,-0.0028371717780828,-0.0273453686386346,-0.2170329959069378,-0.0378080448687076,-0.0094404669098556,-0.2065911516685038,9.77772142715752,0.7238105333894491
1757088062782275000,3.764275146484375,0.0337231680750846,0.0007232080679386,-0.0249796826392412,-0.2098304989159107,-0.0347755453050136,-0.0267747558094561,-0.204067478409782,9.777530288499593,0.7270788144703954
1757088062792321000,3.774321044921875,0.0306464657187461,0.0099401799961924,-0.0247150063514709,-0.2150263139933347,0.0346937122404575,-0.1001668128218501,-0.2015647931401617,9.777343241494894,0.730290689188987
1757088062802368000,3.784367919921875,0.0263302810490131,0.023402726277709,-0.0203761830925941,-0.219004003718961,0.1234434243172407,-0.1933729197856038,-0.1992326055992394,9.77718015988767,0.7331159757427871
1757088062812415200,3.794415283203125,0.0208697188645601,0.0356532447040081,-0.0161280799657106,-0.2213765598028898,0.1701174972087144,-0.2358674419701099,-0.1971596535163931,9.777042212721703,0.7355074739892036
1757088062822462200,3.804462158203125,0.0172930937260389,0.0441079810261726,-0.0098928194493055,-0.235302209302783,0.1868371613413095,-0.2486896602727472,-0.1955041231280192,9.776932322606443,0.737406147217378
1757088062832508200,3.814508056640625,0.0177443213760852,0.0496494099497795,-0.0084531093016266,-0.2019721683646552,0.1800666442930698,-0.1924059744495898,-0.1944177161308005,9.776818925359844,0.7391817055225371
1757088062842555100,3.82455517578125,0.0187616497278213,0.0560633651912212,-0.0108845755457878,-0.1514461327527649,0.1155488716751337,-0.1523459128703922,-0.1931693417712114,9.776695006719232,0.7411701028607786
1757088062852602000,3.83460205078125,0.0204413086175918,0.0663632154464721,-0.0147312860935926,-0.11130348919034,0.0821539670735597,-0.1279031802050769,-0.1915634409445337,9.776569919034838,0.7432130799304694
1757088062862648000,3.84464794921875,0.022409651428461,0.0810460224747657,-0.0192136541008949,-0.0415928241044282,0.0513058243453502,-0.127726800724864,-0.1894475082364864,9.776443077784776,0.7454308290451764
1757088062872695000,3.854695068359375,0.020626001060009,0.0909307599067688,-0.0284910351037979,0.0481517442286014,0.052912090498209,-0.1105838696788996,-0.1865665277063846,9.776333187669517,0.7475912950146942
1757088062882742000,3.864741943359375,0.0282879173755645,0.0916932225227356,-0.0447062253952026,0.0808925688356161,0.0658913990586996,-0.0965980874896049,-0.1823469189836643,9.776222713032364,0.7500654300432652
1757088062892789200,3.874789306640625,0.0402719192206859,0.0886814147233963,-0.0655539780855178,0.0364653980880975,0.0883329479694366,-0.0460883088927716,-0.1762273401248268,9.776077167081832,0.7534252618651837
1757088062902835200,3.884835205078125,0.0494454428553581,0.083038181066513,-0.0819489285349845,-0.0359948397005908,0.0649000499337911,0.0191109431833028,-0.1682604528988711,9.775866154679656,0.7579569139454513
1757088062912882200,3.894882080078125,0.0637854114174842,0.0750762000679969,-0.0847553759813308,-0.1403162149186246,0.0223994633346796,0.0430381275419145,-0.1594075583523139,9.775570386603476,0.7636579751312732
1757088062922929200,3.90492919921875,0.0745621621608734,0.0745784565806388,-0.0755461603403091,-0.215630125105381,-0.0325520240366458,0.0477232166182249,-0.1509815474483184,9.775156545105576,0.7706448383439332
1757088062932975000,3.91497509765625,0.0785996988415718,0.072170078754425,-0.0621014945209026,-0.241005389380455,-0.0892132379353046,-0.0134242027837783,-0.1435633892794605,9.774657363411784,0.7783717793341726
1757088062943022000,3.92502197265625,0.0797507166862487,0.0642754063010215,-0.0482906065881252,-0.2245674647986889,-0.114257662820816,-0.1140413166563957,-0.13770476291175,9.774113173532486,0.7862132866147905
1757088062953069000,3.935069091796875,0.078761301934719,0.0596021302044391,-0.040095530450344,-0.1761263822346925,-0.0921416926026344,-0.1807048691313713,-0.132875315194996,9.77354443373382,0.7940694069426506
1757088062963116000,3.945115966796875,0.0754350125789642,0.0587576404213905,-0.0346160754561424,-0.130738860288728,-0.0697246936112642,-0.2374444820284843,-0.128732735497551,9.772975693935155,0.8017280319370329
1757088062973162000,3.955161865234375,0.0692142099142074,0.0568954572081565,-0.0286433044821023,-0.1343178695529699,-0.0634872605264186,-0.3395703930288553,-0.1251539728284813,9.77242390527129,0.8089836290884762
1757088062983209200,3.965209228515625,0.058820690959692,0.051968079060316,-0.0209710020571947,-0.1529600261807441,-0.0598562105476856,-0.4147363278459757,-0.1222238650601822,9.771935244971512,0.8153163392413407
1757088062993256200,3.975256103515625,0.0478015169501304,0.0500428713858127,-0.0144732277840375,-0.1910322749435901,-0.0446358450621366,-0.440857515117526,-0.1200644859360531,9.77152958678007,0.8204881889212876
1757088063003302100,3.98530224609375,0.0449005365371704,0.0609296075999736,-0.0161326434463262,-0.1732458766286261,-0.0504021535038948,-0.3851897692356258,-0.1182485499547328,9.771161337989568,0.8251245434850454
1757088063013349000,3.99534912109375,0.0551138930022716,0.0621360912919044,-0.0294068548828363,-0.127501193541754,-0.0573491961628198,-0.2532072107624262,-0.1155101197004783,9.770776138064264,0.8300604655172675
1757088063023396000,4.00539599609375,0.0662895739078521,0.0475068129599094,-0.0479238145053386,-0.1358382201211992,-0.0351847106277942,-0.129533484820649,-0.1112132353573106,9.770309105074404,0.8361223228394985
1757088063033443000,4.015443115234375,0.0808852761983871,0.0291521809995174,-0.0635415315628051,-0.1664104593843221,0.0294189867079257,-0.0601768938694149,-0.1053311641819309,9.769748548582196,0.8433801119480282
1757088063043489000,4.025489013671875,0.0906825065612793,0.0178177673369646,-0.0694060772657394,-0.2348474512726068,0.1155213991463184,-0.015775953541696,-0.0985448924421332,9.769089207890628,0.8518013188127428
1757088063053536000,4.035535888671875,0.1015510484576225,0.0223243720829486,-0.0655308738350868,-0.3459720767647027,0.200379949003458,0.0006605097353458,-0.0917179781646933,9.768326406824588,0.8612519417904317
1757088063063583200,4.045583251953125,0.1090742126107215,0.0326475836336612,-0.0587227717041969,-0.4024468281805515,0.1638362249821424,-0.0115388274285942,-0.0853715956795029,9.767461898949742,0.8716557007744907
1757088063073629200,4.055629150390625,0.1136260628700256,0.0409100167453289,-0.0513505116105079,-0.4124626107603311,0.0377279653698205,-0.0543457034979015,-0.0796950296141207,9.766527248448131,0.8825898403082042
1757088063083676200,4.06567626953125,0.1084406226873397,0.0453074276447296,-0.0452127233147621,-0.376596932131052,-0.1578004519492387,-0.1424078717019408,-0.0745607080661226,9.76558149203062,0.8934388588417321
1757088063093723100,4.07572314453125,0.0999907478690147,0.0435943827033042,-0.0392974764108657,-0.3472679617941379,-0.3277688960760831,-0.2380345568761229,-0.0700709497656673,9.764663792663812,0.9037723290685564
1757088063103770000,4.08577001953125,0.0811648666858673,0.0390757955610752,-0.0363067463040351,-0.3090063279390335,-0.4180927256017923,-0.350249534888193,-0.0659858998085837,9.763857736977934,0.9127372143559156
1757088063113816000,4.095816162109375,0.0666625276207923,0.046079009771347,-0.0317769087851047,-0.2677384980052709,-0.3228589122027158,-0.3914004604440182,-0.0622122447550762,9.763196058198808,0.920070041462034
1757088063123863000,4.105863037109375,0.0549954809248447,0.0608395785093307,-0.0289944391697645,-0.2359218025058508,-0.1574035615861415,-0.3977972488090395,-0.0587144794669235,9.762641346925497,0.9261677007500082
1757088063133910000,4.115909912109375,0.0441185347735881,0.0763859897851944,-0.0273199714720249,-0.1711971091389656,0.007485971841216,-0.3952678764618933,-0.0553544558487599,9.76220354003012,0.9309705709870904
1757088063143956000,4.1259560546875,0.0325564183294773,0.0979296267032623,-0.0368519574403762,-0.1252308922559022,0.1472971781134605,-0.3582930675469338,-0.0514910538522992,9.76185458046198,0.9348467548333108
1757088063154003200,4.136003173828125,0.0200239792466163,0.1234371662139892,-0.0505144707858562,-0.0439630558005301,0.2173971347779035,-0.2815375254508108,-0.0462684877652674,9.761634800231455,0.9373991427298636
1757088063164050200,4.14605029296875,0.0063499780371785,0.1532605737447738,-0.0658835768699646,0.0256546611717669,0.2296241636663675,-0.1922838093746453,-0.0392714410853106,9.761530170813202,0.9388261067930608
1757088063174097200,4.15609716796875,-0.0110360085964202,0.1826316118240356,-0.0865806937217712,0.0717021311640739,0.1915571756005287,-0.1542976314600557,-0.0302523779253009,9.761588038480282,0.9385483858302236
1757088063184143000,4.16614306640625,-0.0344534516334533,0.2090930491685867,-0.1135737001895904,0.1066407580763101,0.1412052909791469,-0.1501771174639463,-0.0186538824565417,9.76181307940781,0.9365229444172232
1757088063194190000,4.176190185546875,-0.0511810332536697,0.2283018976449966,-0.1432604938745498,0.1178968961060047,0.1115998417884111,-0.1943901340041309,-0.0040229062612197,9.762235688734052,0.9322529389478266
1757088063204237000,4.186237060546875,-0.0744770392775535,0.249700129032135,-0.1670747548341751,0.0778805275380611,0.1166951191008091,-0.2479422759715467,0.0135482709797972,9.762827809408307,0.9259501855418084
1757088063214284000,4.196283935546875,-0.1010770499706268,0.2814576923847198,-0.1777084171772003,0.0220832347090705,0.1759229686170816,-0.2784269922148436,0.0329829422502196,9.7636046389997,0.9172297765348106
1757088063224330000,4.206330078125,-0.1096020936965942,0.3224184513092041,-0.1877075284719467,-0.0060474634706974,0.2291857722491025,-0.1773682720545679,0.0536320433697896,9.764510647928716,0.9065523151759056
1757088063234377200,4.216377197265625,-0.1008414402604103,0.3684335350990295,-0.202026829123497,0.0139233114123344,0.2874544213443994,-0.0061286389481276,0.0758593878408428,9.765349436840417,0.8958737578384578
1757088063244424200,4.226424072265625,-0.0829974636435508,0.4077636301517486,-0.2275955826044082,0.0674023972766939,0.28726678981781,0.153655534164235,0.1003409455460496,9.765987150222063,0.8864754495698958
1757088063254470100,4.23647021484375,-0.0676811933517456,0.4344393312931061,-0.2652443647384643,0.169271712300647,0.3088783176451921,0.2487656481184065,0.1282082001667935,9.766372350147366,0.8786041316729039
1757088063264517000,4.24651708984375,-0.0528268814086914,0.4389986395835876,-0.298182338476181,0.2410392916500568,0.3756394852757453,0.3171579971473663,0.1596898824250325,9.766498022353648,0.8720121860619634
1757088063274564000,4.256564208984375,-0.0383868478238582,0.4306896030902862,-0.3271078765392303,0.2969558246612548,0.5198907198220492,0.3928131037209182,0.1941549552750773,9.766347800228,0.8666866801902652
1757088063284611000,4.266611083984375,-0.0224249232560396,0.4138967990875244,-0.3552287220954895,0.3344634252786636,0.6647597940057516,0.494525465484336,0.2313169573252089,9.76587842915058,0.8628370190247893
1757088063294657000,4.276656982421875,-0.0071393446996808,0.4055808782577514,-0.379010796546936,0.3543862693667411,0.7770300824016332,0.5770205741457641,0.2709488931528292,9.765088740077614,0.8602486830320208
1757088063304704000,4.2867041015625,-0.0040125274099409,0.4063715934753418,-0.3987347185611725,0.3158113317787647,0.9096598527371884,0.6171662681818008,0.3126657637620345,9.763990423446891,0.8585597070317715
1757088063314751200,4.296751220703125,-0.0120331523939967,0.4224243462085724,-0.4182922542095184,0.3104068058541044,0.9925216758191584,0.5687325652066618,0.3563785756951197,9.762681094413995,0.8564158999361098
1757088063324797200,4.306797119140625,-0.0355933383107185,0.4139603078365326,-0.4215058982372284,0.3570423733660951,1.0925310330569744,0.4617391943003982,0.4011719128739088,9.761284087097645,0.8525280256520956
1757088063334844200,4.31684423828125,-0.0427871830761432,0.3952699303627014,-0.421051412820816,0.4137175792574882,1.2308867798238992,0.2267819990430027,0.4459504178097471,9.759845578727123,0.8467180972643196
1757088063344891100,4.32689111328125,-0.0314088240265846,0.3735089898109436,-0.4278446137905121,0.3961515274286269,1.31546300560832,-0.0432373033758252,0.4907501481967046,9.758168585425617,0.8412544980961829
1757088063354938000,4.336938232421875,-0.0300802830606699,0.357938289642334,-0.4467968642711639,0.4010089773971587,1.343360481837392,-0.5224523870036005,0.5366206130877137,9.756159583690762,0.8365420095562934
1757088063364984000,4.346984130859375,-0.0690196976065635,0.3749015629291534,-0.473461240530014,0.4517956732392311,1.1950111643224954,-1.1260351701866835,0.5847433504175394,9.753972302779555,0.8297527147423476
1757088063375031000,4.357031005859375,-0.1163558661937713,0.4462765753269195,-0.5050748586654663,0.4989619135618209,0.8472440208345651,-1.676979857507348,0.6360390917602926,9.751737091073393,0.8182097956605255
1757088063385078000,4.367078125,-0.1627158969640731,0.5273745656013489,-0.5258778929710388,0.5460368954043835,0.5903887358933687,-1.903246235178411,0.6907171690177172,9.749418877258895,0.8013147749610244
1757088063395124000,4.3771240234375,-0.2257957458496093,0.5139957666397095,-0.5202425122261047,0.4849602762162685,0.2532552146226167,-2.0288691954918203,0.7461085821762681,9.74717548224628,0.7786469430137425
1757088063405171200,4.387171142578125,-0.2902058959007263,0.4765277504920959,-0.5436218976974487,0.5422785657841712,0.0253922154098749,-2.142256505218893,0.8017664642512797,9.74504665352404,0.7494299086187034
1757088063415218200,4.39721826171875,-0.3257513344287872,0.4291734099388122,-0.6005808711051941,0.7537597545165569,-0.2280067915976047,-1.9180080432415008,0.8609798468507825,9.742565358102322,0.7152213495466858
1757088063425265200,4.40726513671875,-0.3325064480304718,0.3378728032112121,-0.6626253128051758,0.7710800879560411,-0.4866682491779327,-1.4258074405081569,0.925510552015528,9.73920903341174,0.6794149268239736
1757088063435311000,4.41731103515625,-0.3324702084064483,0.238879919052124,-0.7035383582115173,0.6867242999892681,-0.6076607732117175,-1.120199449770525,0.9944538129255176,9.734805245494842,0.6442022322107106
1757088063445358000,4.427358154296875,-0.3381227552890777,0.1584356725215912,-0.7131009697914124,0.5517533733550459,-0.6914724443644285,-0.969137000839412,1.0650801315516232,9.729581957888602,0.609258271536231
1757088063455405000,4.437405029296875,-0.3328149616718292,0.0896332114934921,-0.7258628010749817,0.4569453110873699,-0.6859814457327127,-0.8194829574014991,1.1359474193267525,9.723643800011276,0.5751247139291837
1757088063465451000,4.447450927734375,-0.3300415277481079,0.0292268563061952,-0.7471158504486084,0.4606874202251434,-0.5637964970439672,-0.687945585412532,1.2082208475727587,9.716829443821313,0.542049067877233
1757088063475498000,4.457498046875,-0.3374808132648468,-0.0380943939089775,-0.7455970644950867,0.3704407475888729,-0.4447317262023687,-0.4710239957245066,1.2811099234990777,9.709244687780735,0.5096306070923805
1757088063485545200,4.467545166015625,-0.3599416613578796,-0.0929110348224639,-0.7254896759986877,0.1984090873219072,-0.3835878139317035,-0.3265602874713018,1.3525846756480633,9.70122329388857,0.4766470232380553
1757088063495592200,4.47759228515625,-0.3886978328227997,-0.0968107804656028,-0.6912350058555603,0.0292212721787393,-0.2822118445158004,-0.2798873836236074,1.421215728803724,9.693069798049333,0.441495922618918
1757088063505638100,4.48763818359375,-0.4163955152034759,-0.0639769360423088,-0.6403734087944031,-0.1856229632459581,-0.1353062960684299,-0.3032430151719599,1.4858235177926715,9.685029699456692,0.4036500299578532
1757088063515685000,4.49768505859375,-0.4595756530761719,0.0224676504731178,-0.5643633008003235,-0.4307189829409122,0.0344394452184438,-0.5245091368703171,1.5446210130676623,9.677489951601624,0.3615538594411686
1757088063525732000,4.507732177734375,-0.5383056402206421,0.1378222107887268,-0.4896065294742584,-0.6714952397406101,0.1965150902688503,-0.8221005194887518,1.5959560635074972,9.670887776857612,0.311836254135333
1757088063535778000,4.517778076171875,-0.6244279146194458,0.2113946229219436,-0.4549289345741272,-0.5442284577429294,0.2826934905529022,-0.9873151932172476,1.6419696266636252,9.664915716710686,0.2524449576856568
1757088063545825000,4.527824951171875,-0.7094818353652954,0.2403887212276458,-0.4683840274810791,-0.1666473368801176,0.3390507530689239,-0.8740053326405585,1.6871144441612065,9.658685882410406,0.1838767223668284
1757088063555872000,4.5378720703125,-0.8117555379867554,0.2737227976322174,-0.4951209723949432,-0.0144796301208436,0.4512795404106378,-0.7054471937030553,1.734264317870885,9.651504446473718,0.1058494250355288
1757088063565919200,4.547919189453125,-0.9246006011962892,0.3346172869205475,-0.5036686658859253,-0.1646514868877828,0.679710694900155,-0.6305853563990443,1.7829820254191755,9.643190207114817,0.0163231767699413
1757088063575965000,4.55796484375,-1.0340474843978882,0.3919488787651062,-0.4925516545772552,-0.3768507607616484,0.8806441861331462,-0.6070463676404207,1.831178193311393,9.633791095128656,-0.0850276319468859
1757088063586012200,4.56801220703125,-1.1443111896514893,0.344471126794815,-0.5182939767837524,-0.2077382028117775,1.13470662548542,-0.6489878590520471,1.8791896522864695,9.62288917736411,-0.1975120471506379
1757088063596059100,4.57805908203125,-1.2677679061889648,0.1458966732025146,-0.6027871966362,0.6673299367547035,1.5845622705727815,-0.7267065470919013,1.9324737909674643,9.609078678676486,-0.3186617162412032
1757088063606106000,4.588106201171875,-1.402767539024353,-0.0202686060220003,-0.6978143453598022,1.3596655738197263,1.7474644295752046,-0.9148394473321736,1.9953592862084504,9.591025135591623,-0.4485086874578148
1757088063616152000,4.598152099609375,-1.5231226682662964,-0.0025870017707347,-0.7499756217002869,1.192522708507627,2.064160142973065,-0.9280842749610544,2.0649379954777656,9.568666588789224,-0.5890913895592094
1757088063626199000,4.608198974609375,-1.622132658958435,0.0527383051812648,-0.8570083379745483,0.5913081888258457,2.24488905056715,-1.0513237011387944,2.141971843058616,9.541167171967029,-0.7405866769496351
1757088063636246000,4.61824609375,-1.691092610359192,0.2082392126321792,-0.9057601094245912,0.160484722597152,2.4072797529160974,-1.1040054169472306,2.2256357763037085,9.50806160570085,-0.9020361529257148
1757088063646292000,4.6282919921875,-1.7559834718704224,0.2150063067674636,-0.948886513710022,0.2667475872717798,2.4016800332129,-0.9037393766470252,2.31120948869288,9.469967729628086,-1.0716265575204045
1757088063656339000,4.6383388671875,-1.7949097156524658,-0.008599248714745,-1.072432041168213,1.5855413447380065,1.999443048390746,-0.7756903582304716,2.405742314215749,9.42538799866736,-1.242921062619239
1757088063666386200,4.64838623046875,-1.7564047574996948,-0.2189756631851196,-1.1833158731460571,2.0677222193688154,1.7846178099274634,-0.1992627815417945,2.5141806232333184,9.37370691126883,-1.4081442119151353
1757088063676433200,4.65843310546875,-1.7201313972473145,-0.3570576012134552,-1.271700739860535,1.5572572072789073,1.5764543674409388,0.1634175611786544,2.6336431612208484,9.3161145539999,-1.5634266896940767
1757088063686479000,4.66847900390625,-1.7294013500213623,-0.4534382224082947,-1.375455379486084,1.4173881333395837,1.5933242536991834,0.1304249537676572,2.763785206393897,9.2518101318717,-1.7134411639422178
1757088063696526000,4.678526123046875,-1.6904003620147705,-0.5281655788421631,-1.4557600021362305,1.5094643594905732,1.6949889769285915,0.4087929823368788,2.903646681548655,9.180820532891154,-1.8578833910159769
1757088063706573000,4.688572998046875,-1.6604437828063965,-0.561122477054596,-1.4791433811187744,1.297970603537559,1.4647516497999429,0.7162570492699742,3.048852440340817,9.10445157895982,-1.9959576904930172
1757088063716620000,4.6986201171875,-1.6088064908981323,-0.6827695369720459,-1.5763506889343262,1.2811395879849792,1.1505711340934035,0.9043775284200908,3.2002076616734265,9.02284004819989,-2.125420228969306
1757088063726666000,4.708666015625,-1.5720735788345337,-0.7147706151008606,-1.634998083114624,1.564408248077333,1.3773439999818802,0.9626651744768024,3.3612121703609823,8.934781240996719,-2.2455082053788007
1757088063736713000,4.718712890625,-1.5387696027755735,-0.6848113536834717,-1.648163080215454,0.5780556162819266,1.3284376379936933,0.7630870433755218,3.523810377980769,8.841980207702518,-2.36061810111478
1757088063746760200,4.72876025390625,-1.4830408096313477,-0.8432092666625977,-1.6565275192260742,-0.0272182617932558,1.0222130497276782,0.8269254554271698,3.6881019455149766,8.745380366647243,-2.4671032302379605
1757088063756806100,4.73880615234375,-1.4519490003585815,-1.0423063039779663,-1.615046143531799,-0.5971878945142031,0.7405541629195213,0.6123012924939394,3.855547008644044,8.646213889974355,-2.5589371720656757
1757088063766853000,4.74885302734375,-1.4197348356246948,-1.047547459602356,-1.5989989042282104,-1.2426824315577745,0.7121586740404368,0.078585753197968,4.021601494197547,8.545171098035574,-2.641428992791474
1757088063776900000,4.758900146484375,-1.3331000804901123,-1.0693938732147217,-1.6235404014587402,-0.8495271633356809,0.5322311459571123,0.3436307743355631,4.187492605882883,8.441534782472253,-2.7158357067391274
1757088063786947000,4.768947021484375,-1.2174488306045532,-1.1722710132598877,-1.602267146110535,-0.4543810135573148,0.1188935059279203,1.0091440170571206,4.354535810212791,8.336979013976455,-2.775466584098339
1757088063796993000,4.778992919921875,-1.1142700910568235,-1.265976071357727,-1.5337756872177124,-0.9544266307026148,-0.3236778273701667,1.4263909394845369,4.51969276240468,8.234270919173955,-2.817721963764727
1757088063807040000,4.7890400390625,-1.0023176670074463,-1.2496823072433472,-1.4397131204605105,-1.5433990700572728,-0.9209259276390076,1.318425070284307,4.678007593616843,8.135404886752367,-2.8463749345362186
1757088063817087000,4.7990869140625,-0.9101779460906982,-1.148170828819275,-1.3550996780395508,-1.8431547545701263,-1.3596148665457963,1.0796312194734812,4.825882279357314,8.04138395627439,-2.866604068094492
1757088063827134200,4.80913427734375,-0.8252068758010864,-1.063043236732483,-1.2715307474136353,-1.933822867488861,-1.504030351743102,0.8593839559614658,4.963384624165296,7.951615422543883,-2.882185083585977
1757088063837180200,4.81918017578125,-0.749968409538269,-1.0416542291641235,-1.1653035879135132,-1.7569015354841946,-1.6283096423625945,0.7647323263645172,5.090828516295552,7.867151424962282,-2.891681226205826
1757088063847227100,4.82922705078125,-0.6838544011116028,-1.0359007120132446,-1.0437028408050537,-1.7320429885596036,-1.5460329256922003,0.7688526211649179,5.207974886295199,7.789064561197161,-2.8944553670942783
1757088063857274000,4.839274169921875,-0.6052262783050537,-0.9917985796928406,-0.9046260118484496,-1.8172201028466224,-1.6971885327994822,0.9502271331861616,5.313653521341085,7.71875709926188,-2.890727871003747
1757088063867321000,4.849321044921875,-0.534886360168457,-0.8691445589065552,-0.7643272280693054,-1.9006214396327727,-1.9757979689091445,0.9222533768504856,5.404984482082725,7.657389315107464,-2.8846012048169967
1757088063877367000,4.859366943359375,-0.4809426963329315,-0.761102557182312,-0.6360796093940735,-2.0550626442819837,-2.1671569915890694,0.6062012220531702,5.482063045588135,7.604390130847692,-2.879346060767769
1757088063887414000,4.8694140625,-0.4218274354934692,-0.7017079591751099,-0.4949362874031067,-2.043808844339848,-2.352224220648408,0.6463888555347919,5.546375651022792,7.559910937651991,-2.8732947979047894
1757088063897461000,4.8794609375,-0.3391046226024627,-0.6319196224212646,-0.3399552702903747,-1.9162053777337076,-2.60642051551342,0.9840615982487796,5.597435976174474,7.525458048430084,-2.8647070023015138
1757088063907507000,4.8895068359375,-0.2619251608848572,-0.5264145135879517,-0.1910411566495895,-1.8951286874353883,-2.8930799870878454,1.2472574843883513,5.634123492580652,7.501918182888627,-2.854515278632938
1757088063917554200,4.89955419921875,-0.2039260864257812,-0.3936702907085418,-0.0491817593574523,-1.8139894503623248,-3.078219696861505,1.1490014005586504,5.6563844242274754,7.488489961516857,-2.8457424818515777
1757088063927601200,4.90960107421875,-0.1555668115615844,-0.2413063198328018,0.0779351815581321,-1.7276976528316734,-3.030166152310372,1.043642498986423,5.664214094939828,7.484278481301665,-2.8412387406915425
1757088063937648000,4.919648193359375,-0.1204720810055732,-0.1226527914404869,0.1770895719528198,-1.5938187592178583,-2.852681341204047,0.8659940217509865,5.65962209097445,7.487705533140898,-2.8413597367227075
1757088063947694000,4.929694091796875,-0.0835777148604393,-0.0297452174127101,0.2494385987520218,-1.3319132051497695,-2.619651168486476,0.6920876536533236,5.645666046336293,7.496938640910386,-2.844774221341312
1757088063957741000,4.939740966796875,-0.0503969490528106,0.0395186245441436,0.3108992874622345,-1.1485621323585509,-2.3931074351787567,0.4238461745619774,5.62437308293879,7.51086545945406,-2.850220211787521
1757088063967788000,4.9497880859375,-0.0165260694921016,0.0786865353584289,0.3664190173149109,-0.960910732024908,-2.2489573229193685,0.1063549268722534,5.596983556231856,7.529069809186458,-2.856095533561706
1757088063977834000,4.959833984375,0.0175863690674304,0.1034900620579719,0.4002304375171661,-0.6386801808536052,-2.2064883005023,-0.043674598814547,5.565199009436369,7.550645681178569,-2.8612402029737827
1757088063987881000,4.969880859375,0.0507323406636714,0.1204839572310447,0.4331574738025665,-0.2742325361996889,-2.092839124968648,-0.244341840326786,5.530403005865216,7.57481449227333,-2.864828875115513
1757088063997928200,4.97992822265625,0.0919792801141738,0.1297345459461212,0.4646465480327606,0.0379834014356136,-2.02912623899281,-0.3392079894572496,5.492623602569103,7.601631772050261,-2.8664789804100987
1757088064007975200,4.98997509765625,0.1403167098760604,0.1166421696543693,0.495286762714386,0.2974859860152006,-2.006912069097161,-0.3012912235170603,5.452338938453793,7.631339512571692,-2.864441629363596
1757088064018021000,5.000021240234375,0.1881083250045776,0.1200075447559356,0.5174890160560608,0.4319453098654747,-1.9369576583832504,-0.2806882882103323,5.410055793997645,7.6637378073513505,-2.8581097959935664
1757088064028068000,5.010068115234375,0.2142589688301086,0.1686230152845382,0.540476381778717,0.2685200037717819,-1.7530284934431313,-0.5225605235531926,5.365335777783393,7.698130490818619,-2.84997208224535
1757088064038115000,5.020114990234375,0.2323931455612182,0.2577160596847534,0.5935393571853638,0.2256915003925561,-1.6962293323785065,-1.0240081164509058,5.315389551353454,7.7348560011476275,-2.84412423299998
1757088064048162000,5.030162109375,0.2647849321365356,0.3185738325119018,0.5961084961891174,-0.0864648160099983,-1.8462427837133408,-0.888790959970653,5.260184966003894,7.773837181448936,-2.840477400930226
1757088064058208000,5.0402080078125,0.2808831036090851,0.2145885080099105,0.5141005516052246,0.1648538775920867,-1.46568980743289,0.4259340867519378,5.208334367257357,7.811223786035179,-2.8334540781646966
1757088064068255000,5.0502548828125,0.237119123339653,0.0631782114505767,0.3481531143188476,1.2854185804784295,0.0528320109993219,1.4096391266480088,5.170395974007248,7.841298606303334,-2.81982331995815
1757088064078302200,5.06030224609375,0.102085180580616,-0.086731269955635,0.1741643100976944,2.5489398019254206,2.632114928740263,1.1586357826054094,5.150068056249618,7.859726243397593,-2.80569688718915
1757088064088348200,5.07034814453125,-0.045382834970951,-0.2757049202919006,0.0054527912288904,3.1589719804435967,5.406368045395612,-0.3442331241428852,5.148160761323571,7.86499220110178,-2.794415906979144
1757088064098395100,5.08039501953125,-0.0931882560253143,-0.3603772819042206,-0.0789713114500045,2.7382494908601043,6.740655578461289,-1.8027903032168744,5.161119611617923,7.860382661479711,-2.7834520298942924
1757088064108442000,5.090442138671875,-0.1028784289956092,-0.3656069338321686,-0.021144762635231,1.0669377421170472,5.603756411367654,-2.5177836161613465,5.1754918358415365,7.854796970301866,-2.7725033503785728
1757088064118489000,5.100489013671875,-0.0272058062255382,-0.4387841522693634,0.0763832926750183,0.1925467711597681,2.37542097184062,-2.0576418471202254,5.184530882343649,7.854103727340698,-2.757546312004328
1757088064128535000,5.11053515625,0.1485287398099899,-0.4720014929771423,0.2072552889585495,0.2287041262120008,-0.8604325882315635,-0.1378308461099863,5.186382647690177,7.862875062817334,-2.7289266589805483
1757088064138582000,5.12058203125,0.3499406576156616,-0.3779993057250976,0.4135564267635345,-0.1090875667065382,-2.762664970192313,0.6495888206198811,5.174020009723305,7.885507750385999,-2.686754865944385
1757088064148629000,5.13062890625,0.5440552830696106,-0.2587519884109497,0.6713163256645203,-0.4837602527767419,-3.0760616420447824,0.0593681347697973,5.13973370923996,7.925516520169377,-2.634332020267844
1757088064158675000,5.140675048828125,0.6879841685295105,-0.0292098615318536,0.8746720552444458,-0.2217038920611143,-2.2016262474238872,-0.6342395680576562,5.081334711763263,7.981828774499893,-2.5769837008878587
1757088064168722200,5.15072216796875,0.7333670854568481,0.2553920447826385,1.0093296766281128,0.5325158081173896,-0.4191279138684272,-1.22084206341058,5.002429517352581,8.047952228748798,-2.5251857091113923
1757088064178769200,5.16076904296875,0.7399648427963257,0.4526989161968231,1.1417635679244995,0.6573048018246889,1.7061866627693176,-1.2553814618721604,4.905922030755877,8.120065278801322,-2.483313775804638
1757088064188816100,5.170816162109375,0.7271888852119446,0.4852672517299652,1.2612299919128418,0.1304521340355277,3.3056238463908434,-0.5621449304446577,4.795467851871252,8.19686853249669,-2.44646873074919
1757088064198862000,5.180862060546875,0.7171320915222168,0.4094632565975189,1.3105199337005615,0.3350219359442591,3.9039153182327744,0.2507977384679019,4.677538807061314,8.275986492875218,-2.4081229257419703
1757088064208909000,5.190908935546875,0.7040389180183411,0.3504199087619781,1.2917444705963137,0.7592191159009933,3.8735207644909617,0.6372504403114319,4.559648925217986,8.353516307279467,-2.3661628757603466
1757088064218956000,5.2009560546875,0.7127220034599304,0.3991512358188629,1.2533650398254397,0.5291542227298021,3.568959141001105,0.4659748591087758,4.443603794458508,8.427638359066844,-2.3237260020472106
1757088064229003000,5.2110029296875,0.7489337921142578,0.4004354178905487,1.2587441205978394,-0.0558241785526275,3.0683360162287947,0.514669916433841,4.327827543768287,8.499698217627406,-2.279346177572757
1757088064239049000,5.221049072265625,0.7947651743888855,0.4296569526195526,1.2831066846847534,-0.7776274637728929,2.235653020188212,0.8200222519099711,4.209265754012764,8.57177210471332,-2.2309549254998564
1757088064249096200,5.23109619140625,0.8421018123626709,0.5026291608810425,1.3006199598312378,-0.3858855694800615,1.1560340756744143,1.3163906418472529,4.087621488071978,8.643584125992655,-2.1795006325945256
1757088064259143200,5.24114306640625,0.8903176784515381,0.6261461973190308,1.3675472736358645,-0.7056663894116878,0.4068056079119443,1.5172623198904096,3.9593861533030874,8.716150180509686,-2.126586642400176
1757088064269189000,5.251189208984375,0.947479248046875,0.7812864780426025,1.4217383861541748,-1.5413438910931347,-0.0695773940950632,1.533203693126887,3.8216722115710375,8.790158835050462,-2.0732459512263537
1757088064279236000,5.261236083984375,0.9927117228507996,0.9225364923477172,1.4367036819458008,-1.3736369621574878,-0.4601818087905645,1.61305756656453,3.677308748821914,8.86397927354276,-2.0193236607722937
1757088064289283000,5.271282958984375,1.0248595476150513,1.040001630783081,1.4212080240249634,-0.9457143319368362,-0.6441255867779254,1.6787104806922375,3.5296570581823588,8.935994123917817,-1.964667795346677
1757088064299330000,5.281330078125,1.0490288734436035,1.0472475290298462,1.394547939300537,-0.5853995493039489,-0.5208125108420849,1.6676187394440174,3.382275708916783,9.005116175460815,-1.907487964401394
1757088064309376000,5.2913759765625,1.0778179168701172,1.0575467348098757,1.371922492980957,-0.2485711484596133,-0.1059790792971849,1.5664210492044686,3.236984317667782,9.071068364796044,-1.846093876761943
1757088064319423000,5.301423095703125,1.138903260231018,0.9944412708282472,1.361458420753479,-0.3598234919846058,0.6321779593527317,1.4315271333292126,3.0932533076032995,9.13466843804717,-1.7776389108255504
1757088064329470200,5.31147021484375,1.2326600551605225,0.8756259679794312,1.3060779571533203,-0.6300681275919079,1.4477040688872336,1.1000045838080346,2.953490908908844,9.196018102023006,-1.6972081142827868
1757088064339516200,5.32151611328125,1.34475576877594,0.6467888951301575,1.169769287109375,-0.3027773704215884,2.1431407407075165,0.7588331853233278,2.825517732207477,9.253409968283773,-1.600395214998722
1757088064349563100,5.331563232421875,1.442169189453125,0.3233753740787506,1.019429326057434,0.125820674842596,2.637280348679423,0.295325593110919,2.7162460411056872,9.305446444991231,-1.4835978045672178
1757088064359610000,5.341610107421875,1.4827804565429688,0.034992292523384,0.9372751712799072,-0.1628232485473155,2.854284684747457,-0.2646687351711094,2.6227166935369373,9.352402841955422,-1.3506691974155605
1757088064369657000,5.351656982421875,1.4812058210372925,-0.1662481427192688,0.873489260673523,-0.547515516589582,2.75519244235456,-0.4873726711202412,2.53769535433352,9.395082876774667,-1.209517828580737
1757088064379703000,5.361703125,1.4327713251113892,-0.2294445037841797,0.8235249519348145,-0.5114835414826869,2.316513440319896,-0.6250383897963911,2.460063833120465,9.4330312068969,-1.0660162433579563
1757088064389750000,5.37175,1.3576393127441406,-0.2377341240644455,0.8048955798149109,-0.5458683339044451,1.752300179168582,-0.5777721962306648,2.385214343841374,9.466780331763625,-0.928031156534329
1757088064399797000,5.381796875,1.3108930587768557,-0.3102091252803802,0.7777395844459534,-0.5493056148767471,0.9152876294910908,-0.1843020899057388,2.311737604220212,9.49709539052844,-0.7946271869558841
1757088064409843000,5.391843017578125,1.2860292196273804,-0.5251699090003967,0.6783280372619629,-0.539692714009434,-0.0067068041622638,0.1477345466174185,2.2446635712482035,9.523358543553949,-0.66144051338993
1757088064419890000,5.401889892578125,1.2654666900634766,-0.7375890612602234,0.5577467679977417,-0.4818400983691215,-0.5234814377903938,0.2094277268012985,2.189504724736512,9.544683655655383,-0.5248638320595026
1757088064429938000,5.41193798828125,1.2185322046279907,-0.8162335157394409,0.5373520255088806,-0.8484441904045641,-0.9628992754936218,0.0325495398186147,2.141312940758467,9.562122866234184,-0.3885373260978609
1757088064439985000,5.42198486328125,1.147028565406799,-0.8522487282752991,0.6141108274459839,-1.6679954638019203,-1.2491601031392812,-0.1696545193394646,2.0889256047867235,9.578137596967816,-0.2569623620448634
1757088064450030800,5.43203076171875,1.0657613277435305,-0.937298595905304,0.7206506133079529,-2.084904386446625,-1.3203361646026373,-0.8162609266150742,2.0263956449851395,9.594097967165707,-0.1318428212089464
1757088064460077800,5.442077880859375,0.9972224235534668,-0.8554010987281799,0.8237946033477783,-2.110275997459888,-1.3945891492933034,-1.4643766790077088,1.952557816966623,9.610291561597585,-0.0141922771049139
1757088064470124800,5.452124755859375,0.8930971026420593,-0.7275320887565613,0.946124255657196,-2.190057682444155,-1.6106377920717,-1.899608901589364,1.866840019931644,9.626872694042325,0.0927348727228119
1757088064480170800,5.462170654296875,0.7331920266151428,-0.5853694677352905,1.1297063827514648,-2.247096351353079,-1.9585002126276487,-2.87376913741827,1.7657124723188578,9.64463514522612,0.183434695954062
1757088064490217700,5.4722177734375,0.6209043860435486,-0.5144494771957397,1.2808735370635986,-2.139449923365563,-2.1568951252937314,-3.378248937618732,1.6469918387398124,9.663912677147984,0.2580054778896272
1757088064500265000,5.482264892578125,0.5299755930900574,-0.4632698595523834,1.340668797492981,-1.463210119446367,-2.267891740491986,-3.1613226352229717,1.517528277350217,9.68318436385095,0.3216497190760448
1757088064510311000,5.492310791015625,0.4422510862350464,-0.4376398622989654,1.3327778577804563,-0.6487700515829027,-2.665798002633452,-2.976864185711741,1.3855856124959884,9.701011112442613,0.3754145539460704
1757088064520358000,5.50235791015625,0.4175337851047516,-0.5162606239318848,1.2230031490325928,-0.0017548808433115,-2.941801055637002,-2.6861314733490347,1.258561114821583,9.71634370613098,0.4231620647553354
1757088064530404900,5.51240478515625,0.3914499878883362,-0.6718810796737671,1.138703465461731,0.4453495658397674,-2.694834127503633,-2.589581024393439,1.1409593292046338,9.728699329835177,0.4701139682075008
1757088064540451800,5.522451904296875,0.3427684009075165,-0.7389814853668213,1.0669499635696411,0.2770364877045154,-2.364815991196036,-2.544652333864569,1.029150666971132,9.738957104477286,0.5137709948327392
1757088064550497800,5.532497802734375,0.2393360286951065,-0.6257380247116089,0.9772197604179382,0.3277623202048242,-2.050777514308691,-2.40602595346272,0.9256015912998468,9.747386494648456,0.5496217316212132
1757088064560544800,5.542544677734375,0.1198664903640747,-0.4048264026641845,0.9403539299964904,0.0973473714869469,-1.6028519605010747,-2.517205231751501,0.8290594717811792,9.754808753603696,0.5716171807322651
1757088064570591700,5.552591796875,-0.0533231422305107,-0.1264176964759826,1.028843641281128,-0.4880980627853423,-1.0786100597321986,-2.538987732231617,0.7321568483870476,9.762229258993267,0.5772387834737077
1757088064580637700,5.5626376953125,-0.1328032165765762,0.2358037382364273,1.233686089515686,-1.3293886551082132,-0.4184855243116617,-2.041386877889931,0.6213040986388921,9.770537653133273,0.5665588744293898
1757088064590685000,5.572684814453125,-0.0906922519207,0.2825922966003418,1.2406646013259888,-0.4724491696894168,0.1606482425957918,-0.7058717027254402,0.499533429839462,9.77828139912784,0.5532413468904793
1757088064600732000,5.58273193359375,-0.0079785538837313,0.0946227237582206,1.0615864992141724,1.9010662607908249,0.0652823272496461,0.4466699277233332,0.3868924815002829,9.783715114614369,0.547372747118026
1757088064610779000,5.59277880859375,0.1000142246484756,-0.0869862213730812,0.8409093022346497,2.560250300490856,-0.1950882723361253,1.328906424549222,0.2934880572191439,9.786708451211451,0.5518885440420359
1757088064620824800,5.602824951171875,0.1912704706192016,-0.113342709839344,0.6576506495475769,2.1444798803567884,-0.465977343326807,1.5961558238632976,0.2194954770303331,9.787801507145163,0.5667061739455909
1757088064630871800,5.612871826171875,0.229477509856224,-0.109324000775814,0.5468946099281311,1.713421874719858,-0.5695908625364303,1.3228859952159224,0.1600413079448975,9.787717335993053,0.5876872583823278
1757088064640918800,5.622918701171875,0.2297693938016891,-0.0893712416291236,0.4799374341964721,1.6166811638891696,-0.2899596821635961,0.9485324580974877,0.1090894755358342,9.78700947998464,0.6106913730792701
1757088064650964700,5.63296484375,0.2152751386165619,0.0369896255433559,0.4089554250240326,1.7940169219136235,0.0887321764200925,0.6178277277652174,0.0650805895658908,9.7860029332906,0.6326937999203801
1757088064661011700,5.64301171875,0.2041061818599701,0.1935532093048095,0.3414581418037414,2.0448516313910483,0.3212514770060777,0.3462918102383613,0.0291251822599675,9.784823368117213,0.6532873098116367
1757088064671059000,5.653058837890625,0.1887101829051971,0.3332370817661285,0.309170514345169,2.026430424037576,0.2948205661982297,-0.1628806778229773,-0.0007864698500543,9.783571322229504,0.6723967916902154
1757088064681105000,5.66310498046875,0.2016097605228424,0.4670131504535675,0.3100959062576294,1.548824017715454,0.1674988391429185,-0.7288259503986686,-0.0285057055046199,9.782204710051415,0.6914166955891996
1757088064691152000,5.67315185546875,0.2322361022233963,0.5211309790611267,0.2785062789916992,1.0403367354393005,0.3535170853167772,-1.0969019416175785,-0.0542248992629814,9.78053999170959,0.7130815610390157
1757088064701198800,5.68319873046875,0.2314070612192154,0.5389965176582336,0.2129401862621307,0.7483335647493601,0.7704758384525775,-1.4473422498375177,-0.0746651502547087,9.77867595140338,0.7364139943748712
1757088064711245800,5.693245849609375,0.2067397981882095,0.5815764665603638,0.1498251408338546,0.5063572845101356,1.071100707015395,-1.5925389485403894,-0.0882700296679045,9.776876793026924,0.758458652922511
1757088064721291800,5.703291748046875,0.1859841495752334,0.6675723195075989,0.1333528757095337,0.4307563923418521,1.2286498145520686,-1.5026827365264297,-0.0967656260762363,9.775250653129817,0.7781374591216444
1757088064731338800,5.7133388671875,0.2030486166477203,0.7700142860412598,0.1939227432012558,0.225121007028222,1.2092355045080183,-1.0037568441260605,-0.1070567732649855,9.77356606104374,0.7977058637488633
1757088064741385700,5.7233857421875,0.2650598287582397,0.8382419347763062,0.1950226575136184,0.0784475229042116,1.0588847840428353,-0.3294134484127163,-0.1201966061494313,9.77143606327772,0.8215713079828768
1757088064751431700,5.733431640625,0.3168063759803772,0.9164912104606628,0.150537222623825,0.0999444935743696,1.090452473217249,0.1492424669623374,-0.1297225228530354,9.768747262585162,0.8515335347220301
1757088064761479000,5.74347900390625,0.309638112783432,0.9094442129135132,0.1043252870440483,-0.3707832774162292,1.331286013162136,0.1898730949711054,-0.1340940068023745,9.765838097140191,0.8836271474666892
1757088064771526000,5.75352587890625,0.289275050163269,0.8401234745979309,0.1077264100313186,-0.766838358733058,1.5639257252573966,0.0448619089029729,-0.136074494828796,9.763042328941822,0.9137165077168494
1757088064781571800,5.76357177734375,0.3087155222892761,0.7478098273277283,0.161256730556488,-1.36059627879858,1.9140578443109988,0.2682823225583881,-0.1419150558168534,9.760069450610876,0.9440814700379968
1757088064791618800,5.773618896484375,0.3283003866672516,0.7327062487602234,0.2169660627841949,-1.616441509914398,2.66947698340714,0.5504973819445819,-0.1534718116277828,9.756728908011317,0.9762552353467792
