time,seconds_elapsed,z,y,x
1757088059044896500,0.026896484375,-0.03467549383640289,-0.4043821096420288,0.1227860078215599
1757088059054942700,0.036942626953125,-0.0537254624068737,-0.405821293592453,0.20940332114696503
1757088059064989400,0.046989501953125,-0.0713539868593216,-0.3786506652832031,0.2763133943080902
1757088059075036700,0.05703662109375,-0.08765557408332825,-0.28900545835494995,0.33509719371795654
1757088059085083600,0.067083740234375,-0.09652789682149887,-0.1409797966480255,0.3896946609020233
1757088059095129900,0.0771298828125,-0.09630483388900757,0.038204848766326904,0.4120731055736542
1757088059105176600,0.087176513671875,-0.08930951356887817,0.18077771365642548,0.3716180920600891
1757088059115223600,0.0972236328125,-0.055861134082078934,0.26357004046440125,0.27823537588119507
1757088059125269800,0.107269775390625,-0.012839898467063904,0.319587767124176,0.15074478089809418
1757088059135316700,0.117316650390625,0.03246130049228668,0.3717520833015442,0.000999857671558857
1757088059145363500,0.127363525390625,0.0654757022857666,0.4134494364261627,-0.14171867072582245
1757088059155410700,0.13741064453125,0.07174119353294373,0.443221777677536,-0.26349326968193054
1757088059165457000,0.147456787109375,0.07019389420747757,0.4595741331577301,-0.36062756180763245
1757088059175503600,0.157503662109375,0.06161035969853401,0.43666571378707886,-0.42714723944664
1757088059185550600,0.167550537109375,0.056626785546541214,0.3759581446647644,-0.45474183559417725
1757088059195596800,0.1775966796875,0.058961715549230576,0.2968635559082031,-0.44433024525642395
1757088059205643800,0.187643798828125,0.06471467763185501,0.21370317041873932,-0.40031859278678894
1757088059215690500,0.1976904296875,0.06619111448526382,0.12491335719823837,-0.3327826261520386
1757088059225737500,0.207737548828125,0.05035595968365669,0.05220639333128929,-0.23984575271606445
1757088059235783700,0.21778369140625,0.023771366104483604,0.019038116559386253,-0.1275661289691925
1757088059245830700,0.22783056640625,0.003721226006746292,0.01943785697221756,0.0029282248578965664
1757088059255877600,0.237877685546875,-0.01685599982738495,-0.015577344223856926,0.13346971571445465
1757088059265923800,0.247923828125,-0.03763531520962715,-0.07911796867847443,0.2494269460439682
1757088059275970800,0.257970703125,-0.06660038977861404,-0.12730787694454193,0.3529821038246155
1757088059286017500,0.268017578125,-0.10488572716712952,-0.13770298659801483,0.44379857182502747
1757088059296064500,0.278064453125,-0.1416277140378952,-0.11789470165967941,0.5140037536621094
1757088059306110700,0.28811083984375,-0.17241784930229187,-0.07468890398740768,0.5691549181938171
1757088059316157700,0.29815771484375,-0.18987326323986053,-0.021081851795315742,0.5989300012588501
1757088059326204700,0.30820458984375,-0.18253731727600098,0.035645607858896255,0.5969299674034119
1757088059336251000,0.3182509765625,-0.15535998344421387,0.08105982095003128,0.5645533800125122
1757088059346297900,0.3282978515625,-0.12226487696170807,0.10833032429218292,0.49690377712249756
1757088059356344600,0.338344482421875,-0.1013416200876236,0.11512746661901474,0.4033426344394684
1757088059366391600,0.3483916015625,-0.10484101623296738,0.10034159570932388,0.310086190700531
1757088059376437800,0.358437744140625,-0.12570150196552277,0.08057823777198792,0.23110616207122803
1757088059386484700,0.368484619140625,-0.16228507459163666,0.07153414189815521,0.16583101451396942
1757088059396531500,0.378531494140625,-0.20494993031024933,0.06905514746904373,0.12126961350440979
1757088059406577700,0.38857763671875,-0.22600461542606354,0.10145862400531769,0.08320718258619308
1757088059416625000,0.398625,-0.2220676839351654,0.1858835518360138,0.08099932223558426
1757088059426672400,0.40867236328125,-0.20253340899944305,0.2962667942047119,0.11464410275220871
1757088059436719400,0.41871923828125,-0.18668575584888458,0.40202394127845764,0.1618625521659851
1757088059446765300,0.428765380859375,-0.19821298122406006,0.46555790305137634,0.1992083191871643
1757088059456812500,0.4388125,-0.23466052114963531,0.4778987467288971,0.21930676698684692
1757088059466859500,0.448859619140625,-0.2916244566440582,0.4644271433353424,0.2524111866950989
1757088059476905500,0.458905517578125,-0.34696823358535767,0.4498462677001953,0.3255804479122162
1757088059486952400,0.468952392578125,-0.3974689543247223,0.3927462100982666,0.44098159670829773
1757088059496999400,0.47899951171875,-0.45235952734947205,0.21780717372894287,0.5563764572143555
1757088059507045600,0.489045654296875,-0.5303715467453003,-0.11823287606239319,0.6214460134506226
1757088059517092400,0.49909228515625,-0.6070216298103333,-0.43580910563468933,0.6281526684761047
1757088059527139300,0.509139404296875,-0.6196196675300598,-0.5099248886108398,0.608269214630127
1757088059537186300,0.519186279296875,-0.5525230765342712,-0.6236389875411987,0.5956549644470215
1757088059547232500,0.529232421875,-0.5259846448898315,-1.0387288331985474,0.5408601760864258
1757088059557279500,0.539279541015625,-0.5781142115592957,-1.4836479425430298,0.5913128852844238
1757088059567326500,0.549326416015625,-0.624190628528595,-1.786673903465271,0.723093569278717
1757088059577372700,0.55937255859375,-0.6550552248954773,-1.9703288078308105,0.712434709072113
1757088059587419400,0.56941943359375,-0.5736788511276245,-1.953691840171814,0.5037313103675842
1757088059597466400,0.57946630859375,-0.36768633127212524,-1.6556626558303833,0.13089953362941742
1757088059607513300,0.589513427734375,-0.09223397821187973,-1.3316057920455933,-0.36420711874961853
1757088059617559600,0.5995595703125,0.17437542974948883,-0.9957893490791321,-0.8616907596588135
1757088059627606300,0.609606201171875,0.367593914270401,-0.8181862831115723,-1.246516227722168
1757088059637653500,0.619653564453125,0.4571375548839569,-0.9822255373001099,-1.4595211744308472
1757088059647699700,0.62969970703125,0.4124225378036499,-1.527936577796936,-1.4710848331451416
1757088059657746400,0.639746337890625,0.3194272518157959,-2.33764386177063,-1.3059544563293457
1757088059667793400,0.64979345703125,0.4464717507362366,-3.1825451850891113,-0.8483805060386658
1757088059677840400,0.65984033203125,0.7347991466522217,-3.4810802936553955,-0.26656413078308105
1757088059687886600,0.669886474609375,0.9835256338119507,-3.6715786457061768,0.18078087270259857
1757088059697933300,0.679933349609375,1.1364545822143555,-3.836341619491577,0.4994370937347412
1757088059707980300,0.689980224609375,1.202227234840393,-4.140177249908447,0.7758713364601135
1757088059718026500,0.700026611328125,1.25119948387146,-4.599496841430664,1.0592782497406006
1757088059728073500,0.710073486328125,1.364463210105896,-4.953211784362793,1.362230658531189
1757088059738120400,0.720120361328125,1.4519649744033813,-5.141165733337402,1.5627232789993286
1757088059748166700,0.730166748046875,1.4697601795196533,-4.942732334136963,1.4215573072433472
1757088059758213600,0.740213623046875,1.4775118827819824,-4.293734550476074,0.8636847138404846
1757088059768260400,0.75026025390625,1.4331293106079102,-3.447542428970337,0.09869436174631119
1757088059778307300,0.760307373046875,1.372503638267517,-2.5871219635009766,-0.4806569516658783
1757088059788353500,0.770353515625,1.3332436084747314,-1.80298912525177,-0.7973148226737976
1757088059798400500,0.780400390625,1.264001727104187,-1.3807257413864136,-0.8809372782707214
1757088059808447500,0.790447509765625,1.2262847423553467,-1.269391417503357,-0.7407921552658081
1757088059818493700,0.80049365234375,1.2511756420135498,-1.4622687101364136,-0.44251930713653564
1757088059828540700,0.810540771484375,1.3410266637802124,-1.904793381690979,0.00005624862387776375
1757088059838587600,0.820587646484375,1.5208667516708374,-2.5125510692596436,0.5646952986717224
1757088059848634400,0.83063427734375,1.818742036819458,-3.3429243564605713,1.1835981607437134
1757088059858680600,0.8406806640625,2.1812117099761963,-4.257607460021973,1.7445545196533203
1757088059868727600,0.8507275390625,2.5253851413726807,-5.059328556060791,2.2329657077789307
1757088059878774500,0.8607744140625,2.8381876945495605,-5.498079776763916,2.6006710529327393
1757088059888820500,0.870820556640625,3.095273017883301,-5.515432834625244,2.7322633266448975
1757088059898867700,0.88086767578125,3.255255937576294,-5.006272315979004,2.600170373916626
1757088059908914700,0.890914794921875,3.3240745067596436,-4.149344444274902,2.293564558029175
1757088059918960600,0.900960693359375,3.3035621643066406,-3.253173351287842,1.9493738412857056
1757088059929007600,0.911007568359375,3.2383148670196533,-2.4995903968811035,1.726871371269226
1757088059939054600,0.9210546875,3.102870464324951,-2.013491630554199,1.694154143333435
1757088059949101600,0.9311015625,2.890839099884033,-1.7891091108322144,1.8321703672409058
1757088059959147500,0.9411474609375,2.7127482891082764,-1.7830086946487427,2.0887839794158936
1757088059969194500,0.951194580078125,2.5893044471740723,-2.01094651222229,2.3785998821258545
1757088059979241700,0.96124169921875,2.505051612854004,-2.2922205924987793,2.598766803741455
1757088059989287700,0.97128759765625,2.43802809715271,-2.5203194618225098,2.755568027496338
1757088059999334700,0.981334716796875,2.362489700317383,-2.644348382949829,2.911689043045044
1757088060009381600,0.991381591796875,2.2574379444122314,-2.7173807621002197,3.073014259338379
1757088060019428600,1.0014287109375,2.103376865386963,-2.682018995285034,3.216639280319214
1757088060029474600,1.011474609375,1.8399125337600708,-2.481051206588745,3.2302868366241455
1757088060039521500,1.021521484375,1.435102939605713,-2.216794729232788,3.014145851135254
1757088060049568500,1.031568603515625,0.9227840304374695,-1.7234433889389038,2.640223741531372
1757088060059614500,1.041614501953125,0.4154810309410095,-0.97312992811203,2.1993463039398193
1757088060069661700,1.05166162109375,0.0434853695333004,-0.31479892134666443,1.7328382730484009
1757088060079708700,1.061708740234375,-0.1169247254729271,0.23522992432117462,1.3437224626541138
1757088060089754600,1.071754638671875,-0.11863794177770615,0.8056867718696594,1.073224663734436
1757088060099801600,1.081801513671875,-0.06351211667060852,1.0938191413879395,0.884819507598877
1757088060109848600,1.0918486328125,0.08157796412706375,0.9639716744422913,0.7650888562202454
1757088060119895600,1.1018955078125,0.11358986794948578,0.6096855998039246,0.8357052206993103
1757088060129941500,1.11194140625,-0.024090496823191643,0.1399461030960083,0.9687892198562622
1757088060139988500,1.121988525390625,-0.14875438809394836,-0.3550354838371277,1.0562689304351807
1757088060150035700,1.13203564453125,-0.23777906596660614,-0.6342631578445435,1.0860625505447388
1757088060160081400,1.142081298828125,-0.32601407170295715,-0.8190363049507141,1.0517146587371826
1757088060170128600,1.152128662109375,-0.2998138964176178,-0.8804647922515869,1.034292221069336
1757088060180175600,1.162175537109375,-0.23128633201122284,-0.8470008969306946,1.0835604667663574
1757088060190221600,1.1722216796875,-0.21857692301273346,-0.8355402946472168,1.1259675025939941
1757088060200268500,1.1822685546875,-0.2422540783882141,-0.7736165523529053,1.1601227521896362
1757088060210315500,1.1923154296875,-0.3008604049682617,-0.6957288980484009,1.1282463073730469
1757088060220362500,1.202362548828125,-0.35623401403427124,-0.5929046869277954,1.0099751949310303
1757088060230408400,1.212408447265625,-0.3836826682090759,-0.47677916288375854,0.845069944858551
1757088060240455400,1.222455322265625,-0.4109245836734772,-0.3063201904296875,0.670575737953186
1757088060250502700,1.232502685546875,-0.3752478063106537,-0.15845240652561188,0.4605923891067505
1757088060260548600,1.242548583984375,-0.30370011925697327,-0.03463103249669075,0.334850549697876
1757088060270595600,1.252595703125,-0.2298586517572403,-0.07515183091163635,0.35516008734703064
1757088060280642600,1.262642578125,-0.2003793716430664,-0.344722181558609,0.45504698157310486
1757088060290689500,1.272689453125,-0.2057855874300003,-0.8363478183746338,0.5406556129455566
1757088060300735500,1.282735595703125,-0.35469257831573486,-1.3769491910934448,0.6201233863830566
1757088060310782500,1.292782470703125,-0.5048431754112244,-1.8813135623931885,0.6247149109840393
1757088060320829400,1.302829345703125,-0.5405733585357666,-2.093735694885254,0.556804358959198
1757088060330875400,1.31287548828125,-0.4877881407737732,-1.8679049015045166,0.4802403151988983
1757088060340922600,1.322922607421875,-0.4429658055305481,-1.4858614206314087,0.3842191994190216
1757088060350969600,1.332969482421875,-0.4024231731891632,-1.2069194316864014,0.30177757143974304
1757088060361015600,1.343015625,-0.3789474368095398,-1.2041970491409302,0.22875678539276123
1757088060371062500,1.3530625,-0.3594523072242737,-1.4285387992858887,0.27701595425605774
1757088060381109500,1.363109619140625,-0.3089774549007416,-1.6387853622436523,0.3504934310913086
1757088060391156500,1.373156494140625,-0.24633455276489258,-1.7330231666564941,0.37028151750564575
1757088060401202400,1.383202392578125,-0.2517685890197754,-1.6609071493148804,0.370928019285202
1757088060411249400,1.39324951171875,-0.3323747515678406,-1.6585414409637451,0.3663998544216156
1757088060421296000,1.403296142578125,-0.4176017940044403,-1.78548264503479,0.3049831688404083
1757088060431341800,1.413341796875,-0.3272303342819214,-1.869032859802246,0.16241377592086792
1757088060441389000,1.42338916015625,-0.2439631074666977,-1.7147266864776611,-0.061150867491960526
1757088060451436000,1.43343603515625,-0.24945960938930511,-1.265062928199768,-0.326433926820755
1757088060461483000,1.44348291015625,-0.21941670775413513,-0.7060701847076416,-0.5445518493652344
1757088060471529000,1.453529052734375,-0.21281899511814117,-0.2032904028892517,-0.5379940867424011
1757088060481576000,1.463575927734375,-0.239242821931839,0.18797338008880615,-0.500652551651001
1757088060491623000,1.473622802734375,-0.22224894165992737,0.4984646737575531,-0.5848020911216736
1757088060501668900,1.4836689453125,-0.14215604960918427,0.7082678079605103,-0.8575257658958435
1757088060511715800,1.4937158203125,-0.21655917167663574,0.954627513885498,-1.1442958116531372
1757088060521763000,1.50376318359375,-0.43552589416503906,1.125982403755188,-1.223478078842163
1757088060531810000,1.51381005859375,-0.5498295426368713,1.1294974088668823,-1.1205040216445923
1757088060541856000,1.52385595703125,-0.5190232396125793,0.9767774939537048,-0.8254368901252747
1757088060551903000,1.533903076171875,-0.3282439708709717,0.7434374094009399,-0.6072297692298889
1757088060561950000,1.543949951171875,-0.029786143451929092,0.5278723835945129,-0.5363357067108154
1757088060571996000,1.553995849609375,0.4409717917442322,0.43115678429603577,-0.4316923916339874
1757088060582043000,1.56404296875,0.9546269774436951,0.09677068144083023,-0.35825690627098083
1757088060592089900,1.57408984375,1.34914231300354,-0.04555077105760574,-0.2573222815990448
1757088060602135800,1.5841357421875,1.5572986602783203,-0.1105877086520195,-0.17191888391971588
1757088060612183000,1.59418310546875,1.7251392602920532,0.2687889039516449,-0.04377502575516701
1757088060622230000,1.60422998046875,1.9129544496536255,0.8638054728507996,0.1316196471452713
1757088060632277000,1.614277099609375,1.9146995544433594,1.299677848815918,0.3135865330696106
1757088060642323000,1.624322998046875,1.8949543237686157,1.4593405723571777,0.29729101061820984
1757088060652370000,1.634369873046875,1.9555350542068481,1.2159966230392456,0.11812499165534973
1757088060662417000,1.6444169921875,2.148958921432495,0.8516471982002258,0.012120392173528671
1757088060672462800,1.654462890625,2.329634428024292,0.7273923754692078,-0.046594854444265366
1757088060682509800,1.664509765625,2.2860119342803955,0.62406986951828,-0.040410399436950684
1757088060692557000,1.67455712890625,2.4008278846740723,0.45790112018585205,0.022284941747784615
1757088060702603000,1.68460302734375,2.53188157081604,0.19130711257457733,0.20366065204143524
1757088060712650000,1.69464990234375,2.468461036682129,0.07301349192857742,0.4846494495868683
1757088060722697000,1.704697021484375,2.3256306648254395,-0.01636422611773014,0.6191115379333496
1757088060732744000,1.714743896484375,1.8759549856185913,-0.1155073270201683,0.6230359673500061
1757088060742790000,1.724789794921875,1.255799651145935,0.21495932340621948,0.5543504357337952
1757088060752836900,1.7348369140625,0.8297657370567322,0.4190099239349365,0.41219836473464966
1757088060762883800,1.7448837890625,0.5680156350135803,0.455735981464386,0.21595445275306702
1757088060772929800,1.7549296875,0.3439040184020996,0.3620457053184509,0.09229109436273575
1757088060782977000,1.76497705078125,0.23545770347118378,0.3485235273838043,0.02419460006058216
1757088060793024000,1.77502392578125,0.194200798869133,0.37738898396492004,-0.10515113919973373
1757088060803071000,1.785071044921875,0.12177800387144089,0.47400712966918945,-0.31094637513160706
1757088060813117000,1.795116943359375,0.1334836632013321,0.4456862807273865,-0.7189391851425171
1757088060823164000,1.805163818359375,0.5321268439292908,-0.5528098344802856,-0.9690662026405334
1757088060833211000,1.8152109375,0.8924173712730408,-0.7028696537017822,-0.7443806529045105
1757088060843256800,1.8252568359375,1.0148794651031494,-0.6122608184814453,-0.41411706805229187
1757088060853303800,1.8353037109375,1.183706283569336,-0.6327847838401794,-0.13770703971385956
1757088060863351000,1.84535107421875,2.0398504734039307,-0.810642421245575,0.0692538246512413
1757088060873397000,1.85539697265625,2.802358388900757,-0.8608618974685669,0.3323107659816742
1757088060883444000,1.86544384765625,3.3633594512939453,-0.6924892663955688,0.5598825812339783
1757088060893491000,1.875490966796875,3.796581506729126,-0.5547300577163696,0.6706274747848511
1757088060903538000,1.885537841796875,4.122021198272705,0.09058428555727005,0.828113317489624
1757088060913583900,1.895583984375,3.6568603515625,0.7716448307037354,1.0091835260391235
1757088060923630800,1.905630859375,2.410163640975952,0.9220356345176697,1.174282431602478
1757088060933677800,1.915677734375,1.570685625076294,0.3157561123371124,1.1585193872451782
1757088060943724000,1.92572412109375,2.035789966583252,-1.3204272985458374,0.7314347624778748
1757088060953771000,1.93577099609375,2.004396915435791,-1.8909051418304443,0.4853626787662506
1757088060963818000,1.94581787109375,2.2566468715667725,-1.6441336870193481,0.3848673403263092
1757088060973865000,1.955864990234375,2.340573310852051,-1.5406142473220825,0.2967164218425751
1757088060983911000,1.965910888671875,2.1951451301574707,-1.582104206085205,0.17182813584804535
1757088060993958000,1.9759580078125,1.8530341386795044,-1.5706995725631714,0.07614342123270035
1757088061004004900,1.9860048828125,1.4279546737670898,-1.4192020893096924,-0.023670561611652374
1757088061014051000,1.996051025390625,0.9805460572242737,-1.085006594657898,-0.1110512763261795
1757088061024097800,2.006097900390625,0.5308166742324829,-0.6575397253036499,-0.140370711684227
1757088061034145000,2.01614501953125,0.1137176901102066,-0.16701768338680267,-0.0837271511554718
1757088061044191000,2.02619091796875,-0.2777203619480133,0.3835834264755249,0.06602346897125244
1757088061054238200,2.03623828125,-0.5596391558647156,0.8616898059844971,0.18932144343852997
1757088061064285000,2.046284912109375,-0.5826217532157898,1.144330382347107,0.08956791460514069
1757088061074332000,2.056331787109375,-0.278616338968277,1.3416693210601807,-0.2409048229455948
1757088061084378000,2.066378173828125,0.20516961812973022,1.603745698928833,-0.5017616152763367
1757088061094425000,2.076425048828125,0.5978567004203796,1.704383373260498,-0.6036972999572754
1757088061104471800,2.086471923828125,0.8828332424163818,1.4822701215744019,-0.7412956357002258
1757088061114518000,2.09651806640625,1.081629991531372,1.0345571041107178,-0.7982504963874817
1757088061124565000,2.10656494140625,1.2492547035217285,0.6064023375511169,-0.6811975240707397
1757088061134612000,2.116612060546875,1.3410602807998657,0.49835050106048584,-0.5990251302719116
1757088061144659000,2.126658935546875,1.4182326793670654,0.6318864226341248,-0.6237933039665222
1757088061154705200,2.136705078125,1.558571696281433,0.9253934025764465,-0.6169109344482422
1757088061164752100,2.146752197265625,1.73108971118927,0.9942209720611572,-0.5981151461601257
1757088061174798800,2.156798828125,1.8080614805221558,0.5368310213088989,-0.6587870121002197
1757088061184845000,2.166844970703125,1.7423876523971558,0.22998720407485962,-0.7436190247535706
1757088061194892000,2.17689208984375,1.7674405574798584,0.2221204936504364,-0.7445498108863831
1757088061204939000,2.18693896484375,1.793270230293274,0.2803892493247986,-0.6460519433021545
1757088061214986000,2.196986083984375,1.8042235374450684,0.17012639343738556,-0.5413233637809753
1757088061225032200,2.2070322265625,1.792272925376892,0.37049561738967896,-0.48271605372428894
1757088061235079200,2.2170791015625,1.593319296836853,0.38265082240104675,-0.2897604703903198
1757088061245126000,2.2271259765625,1.6243869066238403,-0.042688362300395966,0.02496105059981346
1757088061255172000,2.237172119140625,1.9636638164520264,0.018669800832867622,0.6327614784240723
1757088061265219000,2.247218994140625,2.180896759033203,0.38727307319641113,1.2819254398345947
1757088061275266000,2.25726611328125,2.2291383743286133,0.1458631157875061,1.4818856716156006
1757088061285312800,2.267312744140625,2.0065085887908936,-0.170124813914299,1.1554789543151855
1757088061295359000,2.27735888671875,1.7281320095062256,-0.4792211651802063,0.518408477306366
1757088061305406200,2.28740625,1.7862969636917114,-0.7870164513587952,0.06202796474099159
1757088061315453000,2.297452880859375,1.6547114849090576,-0.8927455544471741,-0.19436226785182953
1757088061325499100,2.3074990234375,1.622238278388977,-0.8256478905677795,-0.42729055881500244
1757088061335546000,2.317546142578125,1.917737364768982,-0.3654390275478363,-0.42199432849884033
1757088061345593000,2.327593017578125,2.0889105796813965,0.10780862718820572,-0.06845397502183914
1757088061355639800,2.337639892578125,2.2109382152557373,0.5370334982872009,0.2873976230621338
1757088061365686000,2.34768603515625,2.5317423343658447,1.1419239044189453,0.4044237732887268
1757088061375733000,2.35773291015625,2.478921890258789,1.6823714971542358,0.5871992111206055
1757088061385780200,2.3677802734375,2.2949769496917725,1.944074273109436,0.6938298344612122
1757088061395827000,2.377826904296875,2.2005794048309326,1.7704031467437744,0.44554734230041504
1757088061405873200,2.387873046875,2.226173162460327,1.1339588165283203,-0.035217300057411194
1757088061415920000,2.397920166015625,2.1213483810424805,-0.006018726155161858,-0.3632713258266449
1757088061425967000,2.407967041015625,1.6809124946594238,-1.1144038438796997,-0.34665411710739136
1757088061436013300,2.418013427734375,0.7980682253837585,-1.2707939147949219,-0.06593111157417297
1757088061446060300,2.428060302734375,0.03181445226073265,-0.7451701164245605,0.194821298122406
1757088061456107300,2.438107177734375,-0.42168670892715454,-0.22780604660511017,0.3703065514564514
1757088061466154000,2.448154052734375,-0.596194326877594,-0.007108266931027174,0.42840492725372314
1757088061476200200,2.4582001953125,-0.6416387557983398,0.09426229447126389,0.3350520730018616
1757088061486247200,2.4682470703125,-0.6408721208572388,0.07076828181743622,0.11102063953876495
1757088061496294100,2.478294189453125,-0.7894631624221802,0.0340837687253952,-0.13881529867649078
1757088061506341000,2.488341064453125,-0.8650231957435608,0.0908348485827446,-0.31401461362838745
1757088061516387300,2.49838720703125,-0.22890371084213257,0.4170238673686981,-0.3612963855266571
1757088061526434300,2.508434326171875,0.14010103046894073,0.4615424871444702,-0.20820313692092896
1757088061536481000,2.51848095703125,0.1401822566986084,0.329828679561615,-0.03744949772953987
1757088061546528000,2.528528076171875,0.037534527480602264,0.2427142858505249,0.058598168194293976
1757088061556574200,2.53857421875,-0.02158365212380886,0.15018755197525024,0.10909648984670639
1757088061566621200,2.54862109375,-0.009992189705371857,0.013577303849160671,0.1501200646162033
1757088061576668200,2.558668212890625,0.012745346873998642,-0.11072440445423126,0.1555233597755432
1757088061586714400,2.56871435546875,0.045334991067647934,-0.1670554131269455,0.11511301249265671
1757088061596761300,2.57876123046875,0.07908603549003601,-0.25282275676727295,0.06414144486188889
1757088061606808000,2.58880810546875,0.09980412572622299,-0.37363091111183167,0.03263204172253609
1757088061616855000,2.59885498046875,0.149818554520607,-0.6257840991020203,0.07450145483016968
1757088061626901200,2.6089013671875,0.25923749804496765,-0.9358184337615967,0.15781047940254211
1757088061636948200,2.6189482421875,0.36085599660873413,-1.134002923965454,0.21810443699359894
1757088061646995000,2.628994873046875,0.39148038625717163,-1.1754003763198853,0.24349302053451538
1757088061657042200,2.639042236328125,0.3864656388759613,-1.004927158355713,0.19408205151557922
1757088061667088400,2.64908837890625,0.28143179416656494,-0.596416711807251,0.04586183279752731
1757088061677135000,2.659135009765625,0.14044111967086792,-0.1057519018650055,-0.11570762097835541
1757088061687182000,2.66918212890625,0.11284048855304718,0.19261127710342407,-0.16779357194900513
1757088061697229000,2.67922900390625,0.08288045972585678,0.36990857124328613,-0.1539965271949768
1757088061707275300,2.689275146484375,-0.026523465290665627,0.47121331095695496,-0.1088872030377388
1757088061717322000,2.699322021484375,-0.07079105824232101,0.41919857263565063,-0.004549345001578331
1757088061727369000,2.709368896484375,-0.04177895188331604,0.28728148341178894,0.09539276361465454
1757088061737416200,2.719416259765625,0.006248760037124157,0.14925116300582886,0.12940452992916107
1757088061747462400,2.72946240234375,0.03834226727485657,0.030548499897122383,0.09403525292873383
1757088061757509000,2.739509033203125,0.044469933956861496,-0.055786918848752975,0.031273599714040756
1757088061767556000,2.74955615234375,0.04683180898427963,-0.10646456480026245,-0.022955315187573433
1757088061777602300,2.759602294921875,0.05026062950491905,-0.1260071098804474,-0.047991957515478134
1757088061787649300,2.769649169921875,0.051305048167705536,-0.1228245198726654,-0.04213923215866089
1757088061797696000,2.779696044921875,0.04318826645612717,-0.12263543158769608,-0.027806097641587257
1757088061807743000,2.789742919921875,0.03771936893463135,-0.11877385526895523,-0.017891110852360725
1757088061817789200,2.7997890625,0.03491905704140663,-0.10738404840230942,-0.013456416316330433
1757088061827836200,2.809836181640625,0.036951031535863876,-0.10212032496929169,-0.016441723331809044
1757088061837883100,2.819883056640625,0.03589455410838127,-0.10386762768030167,-0.014502408914268017
1757088061847930000,2.82993017578125,0.02626216784119606,-0.10916465520858765,-0.009007775224745274
1757088061857976300,2.839976318359375,0.01994594745337963,-0.11653335392475128,0.0038118830416351557
1757088061868023000,2.85002294921875,0.022501792758703232,-0.12868891656398773,0.021171893924474716
1757088061878070000,2.860070068359375,0.01605534553527832,-0.13497982919216156,0.03219098970293999
1757088061888116200,2.8701162109375,0.009365329518914223,-0.13338004052639008,0.03459968417882919
1757088061898163200,2.8801630859375,0.003939938265830278,-0.13498805463314056,0.03296716511249542
1757088061908210200,2.890210205078125,0.0008102265419438481,-0.12539026141166687,0.029964791610836983
1757088061918257200,2.900257080078125,0.008577602915465832,-0.11284809559583664,0.018845295533537865
1757088061928303400,2.910303466796875,0.013085645623505116,-0.11854644119739532,0.005159442313015461
1757088061938350000,2.92035009765625,0.014296051114797592,-0.1371385008096695,-0.0028702544514089823
1757088061948397000,2.93039697265625,0.01694292388856411,-0.13684870302677155,-0.002046009059995413
1757088061958444000,2.940444091796875,0.021498525515198708,-0.11306801438331604,0.002192944288253784
1757088061968490200,2.950490234375,0.02832825668156147,-0.0727822333574295,0.0037324505392462015
1757088061978537000,2.960536865234375,0.031062524765729904,-0.03230511024594307,0.002800077898427844
1757088061988584200,2.970584228515625,0.034029487520456314,-0.00046015752013772726,-0.0025332970544695854
1757088061998630400,2.98063037109375,0.03381563350558281,0.018460271880030632,-0.004010552540421486
1757088062008677000,2.990677001953125,0.03607192263007164,0.030152488499879837,-0.003237770637497306
1757088062018724000,3.00072412109375,0.03692413121461868,0.043548453599214554,-0.00007579941302537918
1757088062028771000,3.01077099609375,0.038630854338407516,0.05791850388050079,0.0040889158844947815
1757088062038817300,3.0208173828125,0.0391957089304924,0.06584460288286209,0.007219728082418442
1757088062048864000,3.030864013671875,0.03827600181102753,0.07228825986385345,0.004036879166960716
1757088062058911000,3.040910888671875,0.039590805768966675,0.07552213966846466,-0.0019222097471356392
1757088062068958200,3.050958251953125,0.037078000605106354,0.07715862989425659,-0.0035820237826555967
1757088062079004200,3.061004150390625,0.033592455089092255,0.07501345872879028,-0.006167421117424965
1757088062089051100,3.071051025390625,0.030983785167336464,0.06952023506164551,-0.005550257861614227
1757088062099098000,3.08109814453125,0.027819151058793068,0.06524693220853806,-0.00304768537171185
1757088062109144300,3.091144287109375,0.027830978855490685,0.06409566104412079,0.0027402944397181273
1757088062119191300,3.10119140625,0.028549766167998314,0.05932061746716499,0.009783023968338966
1757088062129238000,3.111238037109375,0.02546164207160473,0.052704233676195145,0.010233955457806587
1757088062139285000,3.121284912109375,0.022549474611878395,0.0449826642870903,0.010570046491920948
1757088062149331200,3.131331298828125,0.02220526523888111,0.031237250193953514,0.007447721436619759
1757088062159378200,3.141378173828125,0.021267566829919815,0.01144570391625166,0.0011983478907495737
1757088062169425200,3.151425048828125,0.020847991108894348,-0.008957081474363804,-0.0037570304702967405
1757088062179472100,3.16147216796875,0.017560318112373352,-0.02761625312268734,-0.0035303954500705004
1757088062189518300,3.171518310546875,0.016980288550257683,-0.03691351041197777,-0.0010747222695499659
1757088062199565000,3.18156494140625,0.016214096918702126,-0.04147576913237572,-0.0004408897366374731
1757088062209612000,3.191612060546875,0.023731274530291557,-0.04834676533937454,-0.0022092636208981276
1757088062219658200,3.201658203125,0.03127867355942726,-0.051606740802526474,-0.006428243592381477
1757088062229705200,3.211705322265625,0.038129933178424835,-0.05117539316415787,-0.0006058441940695047
1757088062239752000,3.221751953125,0.04369007796049118,-0.046523649245500565,0.0021699685603380203
1757088062249799200,3.231799072265625,0.04125455394387245,-0.040114011615514755,0.00657257717102766
1757088062259845400,3.241845458984375,0.04281703010201454,-0.031625185161828995,0.0070245154201984406
1757088062269892000,3.25189208984375,0.04244504123926163,-0.02710805833339691,0.006859332323074341
1757088062279939000,3.26193896484375,0.0418117418885231,-0.02842339314520359,0.007859349250793457
1757088062289985300,3.2719853515625,0.03689000755548477,-0.03572936728596687,0.006763923913240433
1757088062300032300,3.2820322265625,0.03387317806482315,-0.039540085941553116,0.0008748755790293217
1757088062310079000,3.292078857421875,0.03158579021692276,-0.03954647481441498,-0.008869098499417305
1757088062320126000,3.3021259765625,0.031074462458491325,-0.04317077249288559,-0.021859198808670044
1757088062330172200,3.312172119140625,0.02925754524767399,-0.04410209506750107,-0.029760397970676422
1757088062340219100,3.32221923828125,0.025690773501992226,-0.050044141709804535,-0.02673131600022316
1757088062350266000,3.33226611328125,0.023832125589251518,-0.05417464300990105,-0.021053558215498924
1757088062360312300,3.342312255859375,0.020736733451485634,-0.055481456220149994,-0.011424899101257324
1757088062370359300,3.352359375,0.014944412745535374,-0.053696464747190475,-0.0018591575790196657
1757088062380406000,3.362406005859375,0.010784289799630642,-0.04969985783100128,0.002916955389082432
1757088062390453000,3.372452880859375,0.006177498493343592,-0.04915937781333923,0.0017439001239836216
1757088062400499200,3.382499267578125,0.001714572892524302,-0.04474998265504837,0.006343445740640163
1757088062410546200,3.392546142578125,0.0020759915933012962,-0.044273339211940765,0.012942858040332794
1757088062420593000,3.402593017578125,0.008835360407829285,-0.04406401142477989,0.010061051696538925
1757088062430639900,3.412639892578125,0.013266898691654205,-0.04340635612607002,0.006809362210333347
1757088062440686000,3.42268603515625,0.015797967091202736,-0.04410490393638611,-0.004282170906662941
1757088062450733000,3.432733154296875,0.021983973681926727,-0.04982481896877289,-0.01938372291624546
1757088062460780000,3.442780029296875,0.02579602226614952,-0.05526832118630409,-0.03203906491398811
1757088062470826200,3.452826171875,0.026202017441391945,-0.05854050815105438,-0.03941412270069122
1757088062480873200,3.462873291015625,0.02660335600376129,-0.06208410859107971,-0.03909560665488243
1757088062490920200,3.472920166015625,0.021101614460349083,-0.06521563977003098,-0.03427179157733917
1757088062500967000,3.482966796875,0.004859793931245804,-0.06998082995414734,-0.027120936661958694
1757088062511013000,3.49301318359375,-0.005403679795563221,-0.07826584577560425,-0.02449928969144821
1757088062521060000,3.50306005859375,-0.012176897376775742,-0.0886436477303505,-0.015531361103057861
1757088062531107000,3.513107177734375,-0.017726458609104156,-0.09450027346611023,-0.0024111606180667877
1757088062541153000,3.523153076171875,-0.022157957777380943,-0.0936933308839798,0.015484215691685677
1757088062551200300,3.5332001953125,-0.025465620681643486,-0.08665888011455536,0.028823288157582283
1757088062561247200,3.543247314453125,-0.026431282982230186,-0.0761665552854538,0.041523102670907974
1757088062571294000,3.5532939453125,-0.02754529006779194,-0.06737717241048813,0.046418819576501846
1757088062581340200,3.563340087890625,-0.02677084319293499,-0.06858810782432556,0.03867115080356598
1757088062591387100,3.57338720703125,-0.022745219990611076,-0.08776810765266418,0.019155044108629227
1757088062601434000,3.58343408203125,-0.009080806747078896,-0.11385457217693329,-0.004565464332699776
1757088062611480000,3.59347998046875,0.0042044552974402905,-0.14567287266254425,-0.026732254773378372
1757088062621527000,3.603527099609375,0.016808131709694862,-0.17820551991462708,-0.0418291799724102
1757088062631574300,3.61357421875,0.02844506874680519,-0.1971743255853653,-0.05109824612736702
1757088062641621000,3.62362109375,0.0347684808075428,-0.19195638597011566,-0.05993913859128952
1757088062651667200,3.633667236328125,0.03728890419006348,-0.16756272315979004,-0.061391692608594894
1757088062661714200,3.643714111328125,0.03166377544403076,-0.13437175750732422,-0.06041005626320839
1757088062671761200,3.65376123046875,0.026220235973596573,-0.10394471883773804,-0.052322596311569214
1757088062681808000,3.663807861328125,0.01578996703028679,-0.07410798966884613,-0.03232971578836441
1757088062691854000,3.67385400390625,0.009753646329045296,-0.03987279161810875,-0.008624918758869171
1757088062701901000,3.683901123046875,0.0026224995963275433,-0.004523324314504862,0.008939960040152073
1757088062711948000,3.693947998046875,-0.000536835752427578,0.023256968706846237,0.01460467092692852
1757088062721994200,3.703994140625,-0.00024042592849582434,0.035634543746709824,0.010326568968594074
1757088062732041200,3.714041259765625,0.0022199403028935194,0.02882719598710537,-0.0021498429123312235
1757088062742088200,3.724088134765625,0.008612059988081455,0.015972383320331573,-0.012567330151796341
1757088062752135000,3.734135009765625,0.018384363502264023,0.006657281890511513,-0.021360354498028755
1757088062762181000,3.74418115234375,0.023018263280391693,0.00012348222662694752,-0.025520743802189827
1757088062772228000,3.75422802734375,0.032455235719680786,-0.0028371717780828476,-0.02734536863863468
1757088062782275000,3.764275146484375,0.033723168075084686,0.0007232080679386854,-0.02497968263924122
1757088062792321000,3.774321044921875,0.030646465718746185,0.009940179996192455,-0.024715006351470947
1757088062802368000,3.784367919921875,0.026330281049013138,0.023402726277709007,-0.020376183092594147
1757088062812415200,3.794415283203125,0.020869718864560127,0.0356532447040081,-0.01612807996571064
1757088062822462200,3.804462158203125,0.017293093726038933,0.04410798102617264,-0.009892819449305534
1757088062832508200,3.814508056640625,0.01774432137608528,0.04964940994977951,-0.008453109301626682
1757088062842555100,3.82455517578125,0.01876164972782135,0.05606336519122124,-0.010884575545787811
1757088062852602000,3.83460205078125,0.020441308617591858,0.06636321544647217,-0.014731286093592644
1757088062862648000,3.84464794921875,0.022409651428461075,0.08104602247476578,-0.019213654100894928
1757088062872695000,3.854695068359375,0.020626001060009003,0.0909307599067688,-0.028491035103797913
1757088062882742000,3.864741943359375,0.028287917375564575,0.0916932225227356,-0.04470622539520264
1757088062892789200,3.874789306640625,0.04027191922068596,0.0886814147233963,-0.06555397808551788
1757088062902835200,3.884835205078125,0.049445442855358124,0.08303818106651306,-0.08194892853498459
1757088062912882200,3.894882080078125,0.06378541141748428,0.07507620006799698,-0.08475537598133087
1757088062922929200,3.90492919921875,0.07456216216087341,0.07457845658063889,-0.07554616034030914
1757088062932975000,3.91497509765625,0.07859969884157181,0.07217007875442505,-0.062101494520902634
1757088062943022000,3.92502197265625,0.07975071668624878,0.06427540630102158,-0.04829060658812523
1757088062953069000,3.935069091796875,0.07876130193471909,0.05960213020443916,-0.040095530450344086
1757088062963116000,3.945115966796875,0.07543501257896423,0.05875764042139053,-0.034616075456142426
1757088062973162000,3.955161865234375,0.06921420991420746,0.056895457208156586,-0.028643304482102394
1757088062983209200,3.965209228515625,0.058820690959692,0.051968079060316086,-0.02097100205719471
1757088062993256200,3.975256103515625,0.04780151695013046,0.05004287138581276,-0.01447322778403759
1757088063003302100,3.98530224609375,0.04490053653717041,0.06092960759997368,-0.016132643446326256
1757088063013349000,3.99534912109375,0.05511389300227165,0.06213609129190445,-0.029406854882836342
1757088063023396000,4.00539599609375,0.06628957390785217,0.04750681295990944,-0.04792381450533867
1757088063033443000,4.015443115234375,0.08088527619838715,0.02915218099951744,-0.06354153156280518
1757088063043489000,4.025489013671875,0.0906825065612793,0.017817767336964607,-0.06940607726573944
1757088063053536000,4.035535888671875,0.10155104845762253,0.022324372082948685,-0.06553087383508682
1757088063063583200,4.045583251953125,0.10907421261072159,0.03264758363366127,-0.05872277170419693
1757088063073629200,4.055629150390625,0.11362606287002563,0.0409100167453289,-0.051350511610507965
1757088063083676200,4.06567626953125,0.10844062268733978,0.045307427644729614,-0.045212723314762115
1757088063093723100,4.07572314453125,0.09999074786901474,0.04359438270330429,-0.039297476410865784
1757088063103770000,4.08577001953125,0.08116486668586731,0.03907579556107521,-0.03630674630403519
1757088063113816000,4.095816162109375,0.06666252762079239,0.046079009771347046,-0.03177690878510475
1757088063123863000,4.105863037109375,0.05499548092484474,0.06083957850933075,-0.02899443916976452
1757088063133910000,4.115909912109375,0.04411853477358818,0.0763859897851944,-0.027319971472024918
1757088063143956000,4.1259560546875,0.03255641832947731,0.09792962670326233,-0.03685195744037628
1757088063154003200,4.136003173828125,0.020023979246616364,0.12343716621398926,-0.05051447078585625
1757088063164050200,4.14605029296875,0.006349978037178516,0.15326057374477386,-0.0658835768699646
1757088063174097200,4.15609716796875,-0.011036008596420288,0.18263161182403564,-0.08658069372177124
1757088063184143000,4.16614306640625,-0.03445345163345337,0.20909304916858673,-0.11357370018959045
1757088063194190000,4.176190185546875,-0.05118103325366974,0.22830189764499664,-0.14326049387454987
1757088063204237000,4.186237060546875,-0.07447703927755356,0.249700129032135,-0.1670747548341751
1757088063214284000,4.196283935546875,-0.10107704997062683,0.28145769238471985,-0.17770841717720032
1757088063224330000,4.206330078125,-0.10960209369659424,0.3224184513092041,-0.18770752847194672
1757088063234377200,4.216377197265625,-0.10084144026041031,0.36843353509902954,-0.202026829123497
1757088063244424200,4.226424072265625,-0.08299746364355087,0.40776363015174866,-0.22759558260440826
1757088063254470100,4.23647021484375,-0.0676811933517456,0.4344393312931061,-0.26524436473846436
1757088063264517000,4.24651708984375,-0.052826881408691406,0.43899863958358765,-0.29818233847618103
1757088063274564000,4.256564208984375,-0.03838684782385826,0.43068960309028625,-0.32710787653923035
1757088063284611000,4.266611083984375,-0.02242492325603962,0.4138967990875244,-0.3552287220954895
1757088063294657000,4.276656982421875,-0.007139344699680805,0.40558087825775146,-0.37901079654693604
1757088063304704000,4.2867041015625,-0.004012527409940958,0.4063715934753418,-0.3987347185611725
1757088063314751200,4.296751220703125,-0.012033152393996716,0.4224243462085724,-0.41829225420951843
1757088063324797200,4.306797119140625,-0.035593338310718536,0.4139603078365326,-0.4215058982372284
1757088063334844200,4.31684423828125,-0.042787183076143265,0.3952699303627014,-0.42105141282081604
1757088063344891100,4.32689111328125,-0.031408824026584625,0.3735089898109436,-0.4278446137905121
1757088063354938000,4.336938232421875,-0.0300802830606699,0.357938289642334,-0.44679686427116394
1757088063364984000,4.346984130859375,-0.06901969760656357,0.37490156292915344,-0.47346124053001404
1757088063375031000,4.357031005859375,-0.11635586619377136,0.44627657532691956,-0.5050748586654663
1757088063385078000,4.367078125,-0.16271589696407318,0.5273745656013489,-0.5258778929710388
1757088063395124000,4.3771240234375,-0.22579574584960938,0.5139957666397095,-0.5202425122261047
1757088063405171200,4.387171142578125,-0.2902058959007263,0.47652775049209595,-0.5436218976974487
1757088063415218200,4.39721826171875,-0.32575133442878723,0.42917340993881226,-0.6005808711051941
1757088063425265200,4.40726513671875,-0.3325064480304718,0.33787280321121216,-0.6626253128051758
1757088063435311000,4.41731103515625,-0.33247020840644836,0.23887991905212402,-0.7035383582115173
1757088063445358000,4.427358154296875,-0.33812275528907776,0.1584356725215912,-0.7131009697914124
1757088063455405000,4.437405029296875,-0.3328149616718292,0.08963321149349213,-0.7258628010749817
1757088063465451000,4.447450927734375,-0.3300415277481079,0.02922685630619526,-0.7471158504486084
1757088063475498000,4.457498046875,-0.3374808132648468,-0.03809439390897751,-0.7455970644950867
1757088063485545200,4.467545166015625,-0.35994166135787964,-0.09291103482246399,-0.7254896759986877
1757088063495592200,4.47759228515625,-0.3886978328227997,-0.09681078046560287,-0.6912350058555603
1757088063505638100,4.48763818359375,-0.41639551520347595,-0.06397693604230881,-0.6403734087944031
1757088063515685000,4.49768505859375,-0.4595756530761719,0.02246765047311783,-0.5643633008003235
1757088063525732000,4.507732177734375,-0.5383056402206421,0.1378222107887268,-0.4896065294742584
1757088063535778000,4.517778076171875,-0.6244279146194458,0.21139462292194366,-0.4549289345741272
1757088063545825000,4.527824951171875,-0.7094818353652954,0.24038872122764587,-0.4683840274810791
1757088063555872000,4.5378720703125,-0.8117555379867554,0.2737227976322174,-0.49512097239494324
1757088063565919200,4.547919189453125,-0.9246006011962891,0.3346172869205475,-0.5036686658859253
1757088063575965000,4.55796484375,-1.0340474843978882,0.3919488787651062,-0.49255165457725525
1757088063586012200,4.56801220703125,-1.1443111896514893,0.34447112679481506,-0.5182939767837524
1757088063596059100,4.57805908203125,-1.2677679061889648,0.14589667320251465,-0.6027871966362
1757088063606106000,4.588106201171875,-1.402767539024353,-0.020268606022000313,-0.6978143453598022
1757088063616152000,4.598152099609375,-1.5231226682662964,-0.002587001770734787,-0.7499756217002869
1757088063626199000,4.608198974609375,-1.622132658958435,0.05273830518126488,-0.8570083379745483
1757088063636246000,4.61824609375,-1.691092610359192,0.20823921263217926,-0.9057601094245911
1757088063646292000,4.6282919921875,-1.7559834718704224,0.21500630676746368,-0.948886513710022
1757088063656339000,4.6383388671875,-1.7949097156524658,-0.008599248714745045,-1.072432041168213
1757088063666386200,4.64838623046875,-1.7564047574996948,-0.21897566318511963,-1.1833158731460571
1757088063676433200,4.65843310546875,-1.7201313972473145,-0.3570576012134552,-1.2717007398605347
1757088063686479000,4.66847900390625,-1.7294013500213623,-0.4534382224082947,-1.375455379486084
1757088063696526000,4.678526123046875,-1.6904003620147705,-0.5281655788421631,-1.4557600021362305
1757088063706573000,4.688572998046875,-1.6604437828063965,-0.561122477054596,-1.4791433811187744
1757088063716620000,4.6986201171875,-1.6088064908981323,-0.6827695369720459,-1.5763506889343262
1757088063726666000,4.708666015625,-1.5720735788345337,-0.7147706151008606,-1.634998083114624
1757088063736713000,4.718712890625,-1.5387696027755737,-0.6848113536834717,-1.648163080215454
1757088063746760200,4.72876025390625,-1.4830408096313477,-0.8432092666625977,-1.6565275192260742
1757088063756806100,4.73880615234375,-1.4519490003585815,-1.0423063039779663,-1.6150461435317993
1757088063766853000,4.74885302734375,-1.4197348356246948,-1.047547459602356,-1.5989989042282104
1757088063776900000,4.758900146484375,-1.3331000804901123,-1.0693938732147217,-1.6235404014587402
1757088063786947000,4.768947021484375,-1.2174488306045532,-1.1722710132598877,-1.6022671461105347
1757088063796993000,4.778992919921875,-1.1142700910568237,-1.265976071357727,-1.5337756872177124
1757088063807040000,4.7890400390625,-1.0023176670074463,-1.2496823072433472,-1.4397131204605103
1757088063817087000,4.7990869140625,-0.9101779460906982,-1.148170828819275,-1.3550996780395508
1757088063827134200,4.80913427734375,-0.8252068758010864,-1.063043236732483,-1.2715307474136353
1757088063837180200,4.81918017578125,-0.749968409538269,-1.0416542291641235,-1.1653035879135132
1757088063847227100,4.82922705078125,-0.6838544011116028,-1.0359007120132446,-1.0437028408050537
1757088063857274000,4.839274169921875,-0.6052262783050537,-0.9917985796928406,-0.9046260118484497
1757088063867321000,4.849321044921875,-0.534886360168457,-0.8691445589065552,-0.7643272280693054
1757088063877367000,4.859366943359375,-0.4809426963329315,-0.761102557182312,-0.6360796093940735
1757088063887414000,4.8694140625,-0.42182743549346924,-0.7017079591751099,-0.4949362874031067
1757088063897461000,4.8794609375,-0.33910462260246277,-0.6319196224212646,-0.33995527029037476
1757088063907507000,4.8895068359375,-0.2619251608848572,-0.5264145135879517,-0.19104115664958954
1757088063917554200,4.89955419921875,-0.20392608642578125,-0.39367029070854187,-0.04918175935745239
1757088063927601200,4.90960107421875,-0.15556681156158447,-0.24130631983280182,0.07793518155813217
1757088063937648000,4.919648193359375,-0.12047208100557327,-0.12265279144048691,0.17708957195281982
1757088063947694000,4.929694091796875,-0.0835777148604393,-0.02974521741271019,0.2494385987520218
1757088063957741000,4.939740966796875,-0.05039694905281067,0.03951862454414368,0.3108992874622345
1757088063967788000,4.9497880859375,-0.01652606949210167,0.07868653535842896,0.3664190173149109
1757088063977834000,4.959833984375,0.017586369067430496,0.10349006205797195,0.40023043751716614
1757088063987881000,4.969880859375,0.050732340663671494,0.12048395723104477,0.43315747380256653
1757088063997928200,4.97992822265625,0.09197928011417389,0.12973454594612122,0.4646465480327606
1757088064007975200,4.98997509765625,0.14031670987606049,0.11664216965436935,0.495286762714386
1757088064018021000,5.000021240234375,0.18810832500457764,0.12000754475593567,0.5174890160560608
1757088064028068000,5.010068115234375,0.21425896883010864,0.16862301528453827,0.540476381778717
1757088064038115000,5.020114990234375,0.23239314556121826,0.2577160596847534,0.5935393571853638
1757088064048162000,5.030162109375,0.26478493213653564,0.31857383251190186,0.5961084961891174
1757088064058208000,5.0402080078125,0.2808831036090851,0.21458850800991058,0.5141005516052246
1757088064068255000,5.0502548828125,0.23711912333965302,0.06317821145057678,0.34815311431884766
1757088064078302200,5.06030224609375,0.102085180580616,-0.08673126995563507,0.1741643100976944
1757088064088348200,5.07034814453125,-0.04538283497095108,-0.27570492029190063,0.005452791228890419
1757088064098395100,5.08039501953125,-0.09318825602531433,-0.3603772819042206,-0.07897131145000458
1757088064108442000,5.090442138671875,-0.10287842899560928,-0.3656069338321686,-0.021144762635231018
1757088064118489000,5.100489013671875,-0.027205806225538254,-0.4387841522693634,0.07638329267501831
1757088064128535000,5.11053515625,0.14852873980998993,-0.47200149297714233,0.2072552889585495
1757088064138582000,5.12058203125,0.3499406576156616,-0.37799930572509766,0.41355642676353455
1757088064148629000,5.13062890625,0.5440552830696106,-0.2587519884109497,0.6713163256645203
1757088064158675000,5.140675048828125,0.6879841685295105,-0.029209861531853676,0.8746720552444458
1757088064168722200,5.15072216796875,0.7333670854568481,0.25539204478263855,1.0093296766281128
1757088064178769200,5.16076904296875,0.7399648427963257,0.4526989161968231,1.1417635679244995
1757088064188816100,5.170816162109375,0.7271888852119446,0.4852672517299652,1.2612299919128418
1757088064198862000,5.180862060546875,0.7171320915222168,0.4094632565975189,1.3105199337005615
1757088064208909000,5.190908935546875,0.7040389180183411,0.35041990876197815,1.2917444705963135
1757088064218956000,5.2009560546875,0.7127220034599304,0.3991512358188629,1.2533650398254395
1757088064229003000,5.2110029296875,0.7489337921142578,0.4004354178905487,1.2587441205978394
1757088064239049000,5.221049072265625,0.7947651743888855,0.4296569526195526,1.2831066846847534
1757088064249096200,5.23109619140625,0.8421018123626709,0.5026291608810425,1.3006199598312378
1757088064259143200,5.24114306640625,0.8903176784515381,0.6261461973190308,1.3675472736358643
1757088064269189000,5.251189208984375,0.947479248046875,0.7812864780426025,1.4217383861541748
1757088064279236000,5.261236083984375,0.9927117228507996,0.9225364923477173,1.4367036819458008
1757088064289283000,5.271282958984375,1.0248595476150513,1.040001630783081,1.4212080240249634
1757088064299330000,5.281330078125,1.0490288734436035,1.0472475290298462,1.394547939300537
1757088064309376000,5.2913759765625,1.0778179168701172,1.0575467348098755,1.371922492980957
1757088064319423000,5.301423095703125,1.138903260231018,0.9944412708282471,1.361458420753479
1757088064329470200,5.31147021484375,1.2326600551605225,0.8756259679794312,1.3060779571533203
1757088064339516200,5.32151611328125,1.34475576877594,0.6467888951301575,1.169769287109375
1757088064349563100,5.331563232421875,1.442169189453125,0.3233753740787506,1.019429326057434
1757088064359610000,5.341610107421875,1.4827804565429688,0.034992292523384094,0.9372751712799072
1757088064369657000,5.351656982421875,1.4812058210372925,-0.1662481427192688,0.873489260673523
1757088064379703000,5.361703125,1.4327713251113892,-0.2294445037841797,0.8235249519348145
1757088064389750000,5.37175,1.3576393127441406,-0.2377341240644455,0.8048955798149109
1757088064399797000,5.381796875,1.3108930587768555,-0.31020912528038025,0.7777395844459534
1757088064409843000,5.391843017578125,1.2860292196273804,-0.5251699090003967,0.6783280372619629
1757088064419890000,5.401889892578125,1.2654666900634766,-0.7375890612602234,0.5577467679977417
1757088064429938000,5.41193798828125,1.2185322046279907,-0.8162335157394409,0.5373520255088806
1757088064439985000,5.42198486328125,1.1470285654067993,-0.8522487282752991,0.6141108274459839
1757088064450030800,5.43203076171875,1.0657613277435303,-0.937298595905304,0.7206506133079529
1757088064460077800,5.442077880859375,0.9972224235534668,-0.8554010987281799,0.8237946033477783
1757088064470124800,5.452124755859375,0.8930971026420593,-0.7275320887565613,0.946124255657196
1757088064480170800,5.462170654296875,0.7331920266151428,-0.5853694677352905,1.1297063827514648
1757088064490217700,5.4722177734375,0.6209043860435486,-0.5144494771957397,1.2808735370635986
1757088064500265000,5.482264892578125,0.5299755930900574,-0.4632698595523834,1.340668797492981
1757088064510311000,5.492310791015625,0.4422510862350464,-0.43763986229896545,1.3327778577804565
1757088064520358000,5.50235791015625,0.4175337851047516,-0.5162606239318848,1.2230031490325928
1757088064530404900,5.51240478515625,0.3914499878883362,-0.6718810796737671,1.138703465461731
1757088064540451800,5.522451904296875,0.3427684009075165,-0.7389814853668213,1.0669499635696411
1757088064550497800,5.532497802734375,0.2393360286951065,-0.6257380247116089,0.9772197604179382
1757088064560544800,5.542544677734375,0.11986649036407471,-0.40482640266418457,0.9403539299964905
1757088064570591700,5.552591796875,-0.05332314223051071,-0.12641769647598267,1.028843641281128
1757088064580637700,5.5626376953125,-0.13280321657657623,0.2358037382364273,1.233686089515686
1757088064590685000,5.572684814453125,-0.09069225192070007,0.2825922966003418,1.2406646013259888
1757088064600732000,5.58273193359375,-0.007978553883731365,0.09462272375822067,1.0615864992141724
1757088064610779000,5.59277880859375,0.10001422464847565,-0.08698622137308121,0.8409093022346497
1757088064620824800,5.602824951171875,0.19127047061920166,-0.11334270983934402,0.6576506495475769
1757088064630871800,5.612871826171875,0.22947750985622406,-0.10932400077581406,0.5468946099281311
1757088064640918800,5.622918701171875,0.22976939380168915,-0.08937124162912369,0.47993743419647217
1757088064650964700,5.63296484375,0.2152751386165619,0.03698962554335594,0.4089554250240326
1757088064661011700,5.64301171875,0.2041061818599701,0.19355320930480957,0.34145814180374146
1757088064671059000,5.653058837890625,0.18871018290519714,0.33323708176612854,0.30917051434516907
1757088064681105000,5.66310498046875,0.2016097605228424,0.4670131504535675,0.3100959062576294
1757088064691152000,5.67315185546875,0.2322361022233963,0.5211309790611267,0.2785062789916992
1757088064701198800,5.68319873046875,0.2314070612192154,0.5389965176582336,0.21294018626213074
1757088064711245800,5.693245849609375,0.20673979818820953,0.5815764665603638,0.14982514083385468
1757088064721291800,5.703291748046875,0.18598414957523346,0.6675723195075989,0.1333528757095337
1757088064731338800,5.7133388671875,0.20304861664772034,0.7700142860412598,0.1939227432012558
1757088064741385700,5.7233857421875,0.26505982875823975,0.8382419347763062,0.19502265751361847
1757088064751431700,5.733431640625,0.3168063759803772,0.9164912104606628,0.15053722262382507
1757088064761479000,5.74347900390625,0.309638112783432,0.9094442129135132,0.10432528704404831
1757088064771526000,5.75352587890625,0.28927505016326904,0.8401234745979309,0.10772641003131866
1757088064781571800,5.76357177734375,0.3087155222892761,0.7478098273277283,0.16125673055648804
1757088064791618800,5.773618896484375,0.3283003866672516,0.7327062487602234,0.21696606278419495
1757088064801665800,5.783665771484375,0.34156328439712524,0.8502399921417236,0.24033397436141968
1757088064811712800,5.793712646484375,0.3499879240989685,0.9064468145370483,0.17918354272842407
1757088064821758700,5.8037587890625,0.30574503540992737,0.7705055475234985,0.04684973880648613
1757088064831805700,5.8138056640625,0.22431917488574982,0.5445970296859741,-0.08190345019102097
1757088064841853000,5.82385302734375,0.13119466602802277,0.3415428400039673,-0.21060262620449066
1757088064851899000,5.83389892578125,0.07600544393062592,0.22940270602703094,-0.3553752601146698
1757088064861945900,5.84394580078125,0.015720732510089874,0.1703079789876938,-0.4676324725151062
1757088064871992800,5.853992919921875,-0.029287753626704216,0.15415243804454803,-0.5501627922058105
1757088064882038800,5.864038818359375,-0.09547209739685059,0.19584646821022034,-0.5942612290382385
1757088064892085800,5.874085693359375,-0.17991933226585388,0.3448529839515686,-0.6070138216018677
1757088064902132700,5.8841328125,-0.2598685622215271,0.5788515210151672,-0.61948561668396
1757088064912179700,5.8941796875,-0.33804458379745483,0.8386101126670837,-0.6515964269638062
1757088064922225700,5.9042255859375,-0.3916553556919098,1.0120668411254883,-0.6876904964447021
1757088064932273000,5.91427294921875,-0.4557003676891327,0.9993044137954712,-0.7408541440963745
1757088064942319900,5.92431982421875,-0.5907235145568848,0.9042930603027344,-0.8248316645622253
1757088064952365800,5.93436572265625,-0.6608578562736511,1.053602933883667,-0.9875025749206543
1757088064962412800,5.944412841796875,-0.7395124435424805,1.3468865156173706,-1.109889268875122
1757088064972459800,5.954459716796875,-0.8840523362159729,1.495935082435608,-1.0572417974472046
1757088064982505700,5.964505615234375,-1.0850225687026978,1.477047085762024,-0.8427661657333374
1757088064992552700,5.974552734375,-1.244746208190918,1.478582739830017,-0.5097748637199402
1757088065002599700,5.984599609375,-1.5047955513000488,1.4823542833328247,-0.1214555948972702
1757088065012646700,5.994646728515625,-1.649271011352539,1.7097275257110596,-0.004846419673413038
1757088065022692600,6.004692626953125,-1.5764762163162231,1.7507776021957397,-0.2616456151008606
1757088065032739800,6.01473974609375,-1.77097487449646,1.2025421857833862,-0.5951828360557556
1757088065042786800,6.024786865234375,-2.050765037536621,0.15741801261901855,-1.0699379444122314
1757088065052832800,6.034832763671875,-2.3365821838378906,-0.4842991232872009,-1.3847172260284424
1757088065062879700,6.044879638671875,-2.5519800186157227,-0.5871719717979431,-1.4098083972930908
1757088065072926700,6.0549267578125,-2.529674768447876,-0.4640044867992401,-1.444671630859375
1757088065082972700,6.06497265625,-2.4755780696868896,-0.29212698340415955,-1.579228401184082
1757088065093019600,6.07501953125,-2.4431698322296143,-0.4673243761062622,-1.747196912765503
1757088065103066600,6.085066650390625,-2.322772264480591,-0.8084766268730164,-1.8078631162643433
1757088065113112600,6.095112548828125,-2.232405185699463,-1.0937681198120117,-1.747534990310669
1757088065123159800,6.105159912109375,-2.2598745822906494,-1.0878008604049683,-1.5705631971359253
1757088065133206800,6.115206787109375,-2.2704010009765625,-0.8471158742904663,-1.4778343439102173
1757088065143253800,6.125253662109375,-2.238874912261963,-0.6853513121604919,-1.4681024551391602
1757088065153299700,6.1352998046875,-2.147507905960083,-0.5987511873245239,-1.452572226524353
1757088065163346700,6.1453466796875,-2.0391199588775635,-0.5443422794342041,-1.4196765422821045
1757088065173393700,6.1553935546875,-1.911393165588379,-0.6286709904670715,-1.4225459098815918
1757088065183439600,6.165439697265625,-1.8072644472122192,-0.7791473865509033,-1.4490236043930054
1757088065193486600,6.175486572265625,-1.6763780117034912,-0.9404364228248596,-1.50552499294281
1757088065203533800,6.185533935546875,-1.5430128574371338,-1.128333330154419,-1.551038384437561
1757088065213579800,6.195579833984375,-1.3982980251312256,-1.2642656564712524,-1.582205891609192
1757088065223626800,6.205626708984375,-1.2134498357772827,-1.3480414152145386,-1.5705100297927856
1757088065233673700,6.215673828125,-1.0245691537857056,-1.4253937005996704,-1.540352702140808
1757088065243720700,6.225720703125,-0.8796458840370178,-1.5886833667755127,-1.5530911684036255
1757088065253766700,6.2357666015625,-0.7304555773735046,-1.7458178997039795,-1.5369855165481567
1757088065263813600,6.245813720703125,-0.6125248074531555,-1.7836614847183228,-1.4720702171325684
1757088065273860600,6.255860595703125,-0.49286022782325745,-1.7018283605575562,-1.3415108919143677
1757088065283906800,6.26590673828125,-0.3481465280056,-1.6120392084121704,-1.1621812582015991
1757088065293953800,6.275953857421875,-0.2322438657283783,-1.4237033128738403,-0.9476596117019653
1757088065304000800,6.286000732421875,-0.1619490087032318,-1.1589230298995972,-0.7041839361190796
1757088065314047000,6.296046875,-0.1086953803896904,-0.9116420745849609,-0.4699181616306305
1757088065324093700,6.30609375,-0.037277936935424805,-0.6810429692268372,-0.2746756076812744
1757088065334140700,6.316140625,0.021253017708659172,-0.41415935754776,-0.10687994211912155
1757088065344187000,6.326186767578125,0.06889739632606506,-0.12259092181921005,0.0668158233165741
1757088065354233900,6.33623388671875,0.09903425723314285,0.12706205248832703,0.2538299262523651
1757088065364280600,6.346280517578125,0.12954330444335938,0.3037680685520172,0.4612749516963959
1757088065374327800,6.356327880859375,0.17597338557243347,0.41435956954956055,0.6702811121940613
1757088065384374000,6.3663740234375,0.22524912655353546,0.5203149914741516,0.8683409094810486
1757088065394420700,6.376420654296875,0.2626987397670746,0.6515374779701233,1.0321073532104492
1757088065404467700,6.3864677734375,0.3278703987598419,0.769603431224823,1.1342363357543945
1757088065414514000,6.396513916015625,0.3946731388568878,0.8657848238945007,1.2133146524429321
1757088065424559900,6.406559814453125,0.5198953151702881,0.8854675889015198,1.2658771276474
1757088065434606800,6.41660693359375,0.8474335074424744,0.642554521560669,1.336112380027771
1757088065444654000,6.426654052734375,0.8596382737159729,0.7882696390151978,1.2329329252243042
1757088065454700000,6.436699951171875,0.8557050824165344,0.7457570433616638,1.0892826318740845
1757088065464747000,6.4467470703125,0.8452393412590027,0.5732453465461731,0.9848886728286743
1757088065474794000,6.4567939453125,0.7674193978309631,0.4502323269844055,1.1194474697113037
1757088065484840000,6.46683984375,0.47897541522979736,0.7411647439002991,1.268621563911438
1757088065494887000,6.476886962890625,0.36760494112968445,1.0148893594741821,1.3244818449020386
1757088065504934000,6.486933837890625,0.5559067726135254,0.1756322830915451,1.2930493354797363
1757088065514979800,6.496979736328125,0.6378258466720581,-0.689800500869751,1.2059911489486694
1757088065525026800,6.50702685546875,0.7705096006393433,-0.7581319808959961,0.9208930134773254
1757088065535074000,6.517073974609375,1.0171276330947876,-0.6751963496208191,0.7753859162330627
1757088065545119700,6.52711962890625,1.2493830919265747,-0.7932401299476624,1.1861402988433838
1757088065555167000,6.5371669921875,1.2800356149673462,-0.41011884808540344,1.4856125116348267
1757088065565214000,6.5472138671875,1.1777119636535645,-0.06865424662828445,1.5127712488174438
1757088065575261000,6.557260986328125,1.1502827405929565,0.05822833254933357,1.442698359489441
1757088065585307000,6.567306884765625,1.2134352922439575,0.03940949589014053,1.3257832527160645
1757088065595353900,6.577353759765625,1.3233559131622314,-0.0059856828302145,1.2619987726211548
1757088065605400800,6.58740087890625,1.4144936800003052,0.14588584005832672,1.2405000925064087
1757088065615446800,6.59744677734375,1.4431833028793335,0.3276668190956116,1.2497814893722534
1757088065625493800,6.60749365234375,1.3789705038070679,0.46195611357688904,1.2578794956207275
1757088065635541000,6.617541015625,1.3025444746017456,0.4972834885120392,1.2468608617782593
1757088065645587000,6.6275869140625,1.2643998861312866,0.48714905977249146,1.2239223718643188
1757088065655634000,6.637634033203125,1.2834193706512451,0.45373278856277466,1.2113157510757446
1757088065665681000,6.647680908203125,1.3978121280670166,0.3234999179840088,1.1407499313354492
1757088065675728000,6.657727783203125,1.524876594543457,0.10750211775302887,1.0007944107055664
1757088065685773800,6.66777392578125,1.637843132019043,-0.23038163781166077,0.776081919670105
1757088065695820800,6.67782080078125,1.686158537864685,-0.4891354441642761,0.5078526139259338
1757088065705867800,6.68786767578125,1.6478830575942993,-0.543427586555481,0.42546990513801575
1757088065715913700,6.697913818359375,1.5408918857574463,-0.5795562863349915,0.5221846699714661
1757088065725961000,6.7079609375,1.4205026626586914,-0.6321580410003662,0.6242634057998657
1757088065736008000,6.718008056640625,1.2810592651367188,-0.5716094970703125,0.6597990393638611
1757088065746054000,6.728053955078125,1.1948679685592651,-0.621449887752533,0.5938314199447632
1757088065756100900,6.738100830078125,1.1628246307373047,-0.7535197734832764,0.5057039856910706
1757088065766147800,6.74814794921875,1.137885570526123,-0.8656551241874695,0.487095445394516
1757088065776194800,6.75819482421875,1.090592384338379,-0.9247515201568604,0.5290295481681824
1757088065786240800,6.76824072265625,0.9844979047775269,-0.9530957341194153,0.5933201909065247
1757088065796287700,6.778287841796875,0.844989538192749,-0.9428795576095581,0.7121400237083435
1757088065806335000,6.7883349609375,0.708441436290741,-0.943051278591156,0.8480970859527588
1757088065816381000,6.798380859375,0.5902559757232666,-0.9124348163604736,0.9913221597671509
1757088065826428000,6.808427978515625,0.4655531942844391,-0.7659353613853455,1.1337956190109253
1757088065836475000,6.818474853515625,0.29920151829719543,-0.5019423365592957,1.2641971111297607
1757088065846520800,6.828520751953125,0.08110439032316208,-0.2591807544231415,1.3407095670700073
1757088065856567800,6.83856787109375,-0.13010664284229279,-0.06593646854162216,1.3732649087905884
1757088065866614800,6.84861474609375,-0.18368582427501678,0.11058394610881805,1.3410207033157349
1757088065876661800,6.858661865234375,-0.12483290582895279,0.07100538164377213,1.2075055837631226
1757088065886707700,6.868707763671875,-0.05480606481432915,0.04182174429297447,1.05512535572052
1757088065896755000,6.8787548828125,0.02184477262198925,0.2339661568403244,1.0567903518676758
1757088065906802000,6.888802001953125,0.17609277367591858,0.27655917406082153,1.002563714981079
1757088065916847900,6.898847900390625,0.31325435638427734,0.09838490933179855,0.8149587512016296
1757088065926894800,6.908894775390625,0.3529461622238159,-0.12132304906845093,0.6355683207511902
1757088065936941800,6.91894189453125,0.38653209805488586,-0.1483253836631775,0.5507813096046448
1757088065946987800,6.92898779296875,0.43086856603622437,0.05593801662325859,0.5537272691726685
1757088065957034800,6.93903466796875,0.45762136578559875,0.28195303678512573,0.5897310972213745
1757088065967081700,6.949081787109375,0.48169374465942383,0.4482255280017853,0.6418200135231018
1757088065977127700,6.959127685546875,0.5355473756790161,0.454412579536438,0.6962504982948303
1757088065987175000,6.9691748046875,0.6359952688217163,0.35832810401916504,0.6970039010047913
1757088065997222000,6.979221923828125,0.7837982773780823,0.18162551522254944,0.6738858222961426
1757088066007268900,6.989268798828125,0.8596869111061096,-0.013469002209603786,0.6471953392028809
1757088066017314800,6.999314697265625,0.9148945212364197,-0.19875310361385345,0.5810285806655884
1757088066027361800,7.00936181640625,0.923804521560669,-0.37268418073654175,0.46670398116111755
1757088066037408800,7.01940869140625,0.878520131111145,-0.4761461317539215,0.36112189292907715
1757088066047454700,7.029454833984375,0.7935163974761963,-0.4929930567741394,0.3019980788230896
1757088066057501700,7.039501708984375,0.6746730804443359,-0.5028051733970642,0.2754378318786621
1757088066067549000,7.049548828125,0.5478877425193787,-0.39527493715286255,0.22541522979736328
1757088066077595000,7.059594970703125,0.37551385164260864,-0.1916634887456894,0.14190036058425903
1757088066087641900,7.069641845703125,0.21459633111953735,0.04876944050192833,0.047500841319561005
1757088066097688800,7.079688720703125,0.07559051364660263,0.30935123562812805,-0.0010432587005198002
1757088066107735800,7.08973583984375,-0.059626102447509766,0.543189525604248,0.02082120068371296
1757088066117781800,7.09978173828125,-0.17300590872764587,0.6632368564605713,0.08807427436113358
1757088066127828700,7.109828857421875,-0.21371488273143768,0.7417338490486145,0.15256807208061218
1757088066137875700,7.119875732421875,-0.19318430125713348,0.8141912221908569,0.16602928936481476
1757088066147922000,7.129921875,-0.15083599090576172,0.8825584650039673,0.14900816977024078
1757088066157968600,7.13996875,-0.11098124831914902,0.887653648853302,0.14687444269657135
1757088066168016000,7.150015869140625,-0.07901723682880402,0.8348900675773621,0.15625222027301788
1757088066178062000,7.16006201171875,-0.06345398724079132,0.8277238011360168,0.10844103246927261
1757088066188108800,7.17010888671875,-0.12608806788921356,0.8362388610839844,0.012573285028338432
1757088066198155800,7.18015576171875,-0.19127479195594788,0.7166823744773865,-0.08914828300476074
1757088066208202800,7.19020263671875,-0.15763890743255615,0.502408504486084,-0.26440945267677307
1757088066218249000,7.2002490234375,-0.27474769949913025,0.30715006589889526,-0.3849015235900879
1757088066228295700,7.210295654296875,-0.41211989521980286,0.32378631830215454,-0.5139362812042236
1757088066238342700,7.2203427734375,-0.45893216133117676,0.47075581550598145,-0.8129264712333679
1757088066248388900,7.230388916015625,-0.4435230791568756,0.6777838468551636,-1.2109870910644531
1757088066258435800,7.240435791015625,-0.45731478929519653,0.8668179512023926,-1.5249115228652954
1757088066268482800,7.25048291015625,-0.463723748922348,1.0051296949386597,-1.5445752143859863
1757088066278529000,7.260529052734375,-0.4929564595222473,1.3944127559661865,-1.4080309867858887
1757088066288576000,7.270575927734375,-0.49573326110839844,1.8969014883041382,-1.2326645851135254
1757088066298622700,7.280622802734375,-0.5303415060043335,2.249255418777466,-1.0853930711746216
1757088066308669700,7.290669677734375,-0.7505163550376892,2.6276700496673584,-0.9982349872589111
1757088066318716000,7.3007158203125,-0.991881787776947,2.7006919384002686,-0.9680139422416687
1757088066328763000,7.310762939453125,-1.3475189208984375,2.6420230865478516,-0.8354147672653198
1757088066338809900,7.320809814453125,-1.8560311794281006,2.4037387371063232,-0.5415194630622864
1757088066348856000,7.33085595703125,-2.1405601501464844,1.988013744354248,-0.304904043674469
1757088066358903000,7.340903076171875,-2.0339033603668213,1.5079728364944458,-0.30403637886047363
1757088066368950000,7.350949951171875,-2.0677757263183594,0.8865172266960144,-0.75917649269104
1757088066378996000,7.360995849609375,-2.310117244720459,0.18881990015506744,-1.3688995838165283
1757088066389043000,7.37104296875,-2.6639864444732666,-0.3173293173313141,-1.7631372213363647
1757088066399090000,7.38108984375,-2.8248887062072754,-0.5511530041694641,-1.9695866107940674
1757088066409137000,7.391136962890625,-2.775465488433838,-0.5204355716705322,-2.0719594955444336
1757088066419182800,7.401182861328125,-2.600252389907837,-0.08727853000164032,-2.0331943035125732
1757088066429230000,7.41122998046875,-2.5543713569641113,0.19149577617645264,-1.817495584487915
1757088066439277000,7.421277099609375,-2.4407296180725098,-0.4423685073852539,-1.7927830219268799
1757088066449323000,7.431322998046875,-2.4037094116210938,-1.0084067583084106,-1.7600007057189941
1757088066459370000,7.441369873046875,-2.430481195449829,-0.9498768448829651,-1.6843762397766113
1757088066469417200,7.451417236328125,-2.3456783294677734,-0.7502614855766296,-1.6806119680404663
1757088066479463200,7.461463134765625,-2.24407696723938,-0.7648540139198303,-1.7240257263183594
1757088066489510100,7.47151025390625,-2.1233696937561035,-0.9087151885032654,-1.6908947229385376
1757088066499557000,7.48155712890625,-1.9899823665618896,-0.9717404842376709,-1.5818167924880981
1757088066509603000,7.49160302734375,-1.8233695030212402,-0.8583369851112366,-1.4618234634399414
1757088066519650000,7.501650146484375,-1.651013970375061,-0.9899972677230835,-1.470463514328003
1757088066529697000,7.511697021484375,-1.5915753841400146,-0.9792483448982239,-1.492230772972107
1757088066539744000,7.521743896484375,-1.4808919429779053,-0.9500369429588318,-1.47288978099823
1757088066549790000,7.5317900390625,-1.287825345993042,-0.9878687262535095,-1.4391896724700928
1757088066559837200,7.541837158203125,-1.0859131813049316,-1.2032126188278198,-1.426908254623413
1757088066569884200,7.55188427734375,-0.9089207053184509,-1.353760004043579,-1.4201303720474243
1757088066579930000,7.56193017578125,-0.7380368709564209,-1.489295244216919,-1.4013370275497437
1757088066589977000,7.57197705078125,-0.5924230813980103,-1.477433204650879,-1.293456792831421
1757088066600024000,7.582024169921875,-0.42247849702835083,-1.3215333223342896,-1.1116126775741577
1757088066610070000,7.592070068359375,-0.28331509232521057,-1.0873653888702393,-0.8807772994041443
1757088066620117000,7.602116943359375,-0.15870976448059082,-0.7932965755462646,-0.593960702419281
1757088066630164000,7.6121640625,-0.046065907925367355,-0.4732266664505005,-0.2824781835079193
1757088066640211200,7.622211181640625,0.03441987931728363,-0.12058045715093613,0.009908406063914299
1757088066650257200,7.632257080078125,0.07353326678276062,0.17303834855556488,0.28401458263397217
1757088066660304100,7.64230419921875,0.1092395931482315,0.3426596224308014,0.5135689377784729
1757088066670351000,7.65235107421875,0.18991737067699432,0.37738916277885437,0.6954939365386963
1757088066680397000,7.66239697265625,0.2853051424026489,0.3644925355911255,0.8236771821975708
1757088066690444000,7.672444091796875,0.37336763739585876,0.36720791459083557,0.9282122850418091
1757088066700491000,7.682490966796875,0.4484911561012268,0.40509459376335144,1.0384546518325806
1757088066710537000,7.692536865234375,0.509858250617981,0.4790393114089966,1.1112499237060547
1757088066720584000,7.702583984375,0.5678712129592896,0.5383793115615845,1.127503752708435
1757088066730631200,7.712631103515625,0.6365603804588318,0.5362970232963562,1.1340547800064087
1757088066740677000,7.722677001953125,0.7125656604766846,0.5644128322601318,1.181402325630188
1757088066750724000,7.73272412109375,0.7502860426902771,0.6682743430137634,1.2349956035614014
1757088066760771000,7.74277099609375,0.6877248883247375,0.8090988397598267,1.2514475584030151
1757088066770818000,7.752818115234375,0.5677259564399719,0.9800769090652466,1.2005470991134644
1757088066780864000,7.762864013671875,0.5339392423629761,1.0190826654434204,1.1322489976882935
1757088066790911000,7.772910888671875,0.6619390845298767,0.7849342226982117,1.2046177387237549
1757088066800958000,7.7829580078125,0.7807410955429077,0.6000493168830872,1.160597562789917
1757088066811004000,7.79300390625,0.8315063118934631,0.17558453977108002,0.9851025342941284
1757088066821051100,7.803051025390625,0.8525780439376831,-0.3654017448425293,0.9141133427619934
1757088066831098000,7.81309814453125,0.8362749218940735,-0.8745128512382507,0.9272744059562683
1757088066841144000,7.82314404296875,0.9403517842292786,-0.8885903358459473,0.8446983098983765
1757088066851191000,7.83319091796875,1.1179698705673218,-0.8384753465652466,0.8875144720077515
1757088066861238000,7.843238037109375,1.2621371746063232,-0.7678991556167603,1.0871399641036987
1757088066871284000,7.853283935546875,1.282562494277954,-0.38967365026474,1.0850814580917358
1757088066881331000,7.8633310546875,1.269579291343689,-0.2970970869064331,1.118526816368103
1757088066891378000,7.8733779296875,1.2962121963500977,-0.25258249044418335,1.2195439338684082
1757088066901425000,7.8834248046875,1.3167576789855957,-0.14141789078712463,1.2621738910675049
1757088066911470800,7.893470947265625,1.2957117557525635,-0.1268182396888733,1.2225466966629028
1757088066921518000,7.90351806640625,1.3034309148788452,-0.15467730164527893,1.1592273712158203
1757088066931565000,7.91356494140625,1.3523958921432495,-0.14260074496269226,1.0992578268051147
1757088066941611000,7.923611083984375,1.3898911476135254,-0.10861534625291824,1.0646990537643433
1757088066951658000,7.933657958984375,1.4023687839508057,-0.0961364135146141,1.068748950958252
1757088066961705000,7.943705078125,1.4175080060958862,-0.0695953518152237,1.0638312101364136
1757088066971751000,7.9537509765625,1.4415289163589478,-0.04594944790005684,1.0480650663375854
1757088066981798000,7.9637978515625,1.463783621788025,-0.031175827607512474,1.0179764032363892
1757088066991844900,7.973844970703125,1.495387077331543,-0.007621724158525467,0.9784539937973022
1757088067001892000,7.98389208984375,1.5741244554519653,-0.15319250524044037,0.8804389834403992
1757088067011938000,7.99393798828125,1.6019957065582275,-0.4439810812473297,0.6208540797233582
1757088067021985000,8.003985107421874,1.5163636207580566,-0.5974145531654358,0.33203667402267456
1757088067032032000,8.014031982421875,1.4059758186340332,-0.6090685725212097,0.20100712776184082
1757088067042078000,8.024077880859375,1.3296000957489014,-0.7440447807312012,0.188983753323555
1757088067052125000,8.034125,1.255051612854004,-0.8659566640853882,0.21518318355083466
1757088067062172000,8.044171875,1.2015995979309082,-1.037219762802124,0.17136965692043304
1757088067072217900,8.0542177734375,1.1426563262939453,-1.2641258239746094,0.05649694427847862
1757088067082264800,8.064264892578125,1.0679455995559692,-1.5345728397369385,-0.023866867646574974
1757088067092312000,8.07431201171875,0.9931845664978027,-1.6335785388946533,0.025718294084072113
1757088067102358000,8.08435791015625,0.8914483785629272,-1.6087454557418823,0.17009863257408142
1757088067112405000,8.094405029296874,0.7772914171218872,-1.608573079109192,0.32539618015289307
1757088067122452000,8.104451904296875,0.6237553954124451,-1.6261757612228394,0.4761337637901306
1757088067132499000,8.1144990234375,0.46123310923576355,-1.5320944786071777,0.6452744603157043
1757088067142545000,8.124544921875,0.30066579580307007,-1.3153884410858154,0.8551232814788818
1757088067152592000,8.134591796875,0.141823872923851,-1.077614188194275,1.0696020126342773
1757088067162638800,8.144638916015625,-0.07390256226062775,-0.753409743309021,1.2739473581314087
1757088067172684800,8.154684814453125,-0.19765391945838928,-0.436200886964798,1.4297313690185547
1757088067182732000,8.16473193359375,-0.21337641775608063,-0.20654693245887756,1.529977560043335
1757088067192779000,8.174779052734374,-0.1709277182817459,0.007380844559520483,1.5444880723953247
1757088067202825000,8.184824951171874,-0.15239451825618744,0.22365295886993408,1.460561990737915
1757088067212872000,8.194871826171875,-0.12794311344623566,0.4829675555229187,1.460379958152771
1757088067222919000,8.2049189453125,-0.007497395388782024,0.6980407238006592,1.4823704957962036
1757088067232965000,8.214965087890626,0.1929675191640854,0.4587421119213104,1.3103265762329102
1757088067243011800,8.22501171875,0.4278751313686371,0.11933901160955429,1.0711637735366821
1757088067253058800,8.235058837890625,0.6363721489906311,-0.057260774075984955,0.9086259007453918
1757088067263106000,8.24510595703125,0.7570748925209045,-0.038728103041648865,0.8109043836593628
1757088067273152000,8.255152099609376,0.7836708426475525,0.08526182919740677,0.6776453852653503
1757088067283199000,8.265198974609374,0.773011326789856,0.25692442059516907,0.5723743438720703
1757088067293246000,8.275245849609375,0.7909775376319885,0.46321260929107666,0.5357716083526611
1757088067303292200,8.285292236328125,0.7941778302192688,0.5490787625312805,0.48893433809280396
1757088067313339000,8.2953388671875,0.7597658634185791,0.6908514499664307,0.47195664048194885
1757088067323385900,8.3053857421875,0.6872575879096985,0.7863060832023621,0.4499296247959137
1757088067333432000,8.31543212890625,0.6347397565841675,0.7189571857452393,0.3776263892650604
1757088067343479000,8.32547900390625,0.5496410727500916,0.61659836769104,0.30085331201553345
1757088067353526000,8.335526123046876,0.46068075299263,0.5239440202713013,0.22138658165931702
1757088067363572200,8.345572265625,0.40338414907455444,0.3962952494621277,0.16173020005226135
1757088067373619200,8.355619140625,0.35884010791778564,0.28836509585380554,0.16951797902584076
1757088067383666000,8.365666015625,0.3192490041255951,0.17644284665584564,0.2141120731830597
1757088067393713000,8.375712890625,0.26077622175216675,0.09289977699518204,0.260860413312912
1757088067403759000,8.385759033203126,0.22929580509662628,0.1160421147942543,0.33746278285980225
1757088067413806000,8.39580615234375,0.21626323461532593,0.21956688165664673,0.4194497764110565
1757088067423852800,8.405852783203125,0.20237404108047485,0.38328707218170166,0.46098655462265015
1757088067433899000,8.41589892578125,0.18282876908779144,0.5683923959732056,0.46480709314346313
1757088067443946000,8.425946044921876,0.13484792411327362,0.7311501502990723,0.43230295181274414
1757088067453993000,8.435992919921874,0.07205403596162796,0.7920844554901123,0.3476107716560364
1757088067464039200,8.4460390625,-0.008406983688473701,0.7315247058868408,0.20220591127872467
1757088067474086100,8.456086181640625,-0.1256481111049652,0.6030928492546082,-0.007462694309651852
1757088067484133000,8.466133056640626,-0.25346651673316956,0.5724372267723083,-0.18485772609710693
1757088067494179800,8.476179931640624,-0.3489574193954468,0.7111376523971558,-0.32443854212760925
1757088067504226000,8.48622607421875,-0.4573794901371002,0.7447616457939148,-0.44503259658813477
1757088067514273000,8.49627294921875,-0.5513854622840881,0.668860912322998,-0.5676655769348145
1757088067524320000,8.506320068359376,-0.593166708946228,0.6860638856887817,-0.7071025371551514
1757088067534366000,8.516365966796876,-0.643546462059021,0.8833022117614746,-0.8661810159683228
1757088067544413200,8.5264130859375,-0.7195432186126709,1.2617638111114502,-1.057895541191101
1757088067554460200,8.536460205078125,-0.8057289719581604,1.6239570379257202,-1.3268431425094604
1757088067564506000,8.546506103515625,-0.843417227268219,1.7976787090301514,-1.6228923797607422
1757088067574553000,8.556552978515626,-0.9097179770469666,1.8247395753860474,-1.8452751636505127
1757088067584600000,8.56660009765625,-0.9229632019996643,1.9805219173431396,-1.898735761642456
1757088067594646000,8.57664599609375,-0.9563820362091064,2.304144859313965,-1.7397202253341675
1757088067604693000,8.58669287109375,-0.9143611192703247,2.8727424144744873,-1.384915828704834
1757088067614740000,8.596739990234376,-1.118051290512085,3.1674649715423584,-1.0517642498016357
1757088067624787200,8.606787109375,-1.4090269804000854,3.122366428375244,-0.7696425914764404
1757088067634833200,8.616833251953125,-1.9202227592468262,2.8261947631835938,-0.24355116486549377
1757088067644880100,8.626880126953125,-2.467620611190796,2.288839340209961,0.4247986674308777
1757088067654927000,8.636927001953126,-2.7485291957855225,1.3598343133926392,0.9286586046218872
1757088067664973000,8.64697314453125,-2.5836451053619385,0.7495310306549072,0.7826276421546936
1757088067675020000,8.65702001953125,-2.4698100090026855,0.131870299577713,-0.700169026851654
1757088067685067000,8.66706689453125,-2.4137423038482666,-0.9248467087745667,-1.8454023599624634
1757088067695113000,8.677113037109375,-2.4742674827575684,-1.3161524534225464,-2.044822931289673
1757088067705160000,8.687159912109376,-2.518157720565796,-1.3383102416992188,-1.928649663925171
1757088067715207200,8.697207275390625,-2.3962578773498535,-1.2650692462921143,-1.8724440336227417
1757088067725253000,8.707253173828125,-2.2645013332366943,-0.9629914164543152,-1.880580186843872
1757088067735300000,8.717300048828125,-2.1164426803588867,-0.6823813915252686,-1.9229512214660645
1757088067745347000,8.72734716796875,-2.0288758277893066,-0.722476601600647,-1.8556305170059204
1757088067755394000,8.73739404296875,-2.0149688720703125,-1.0673972368240356,-1.7320219278335571
1757088067765440000,8.74743994140625,-2.108598470687866,-1.269574761390686,-1.607701301574707
1757088067775487000,8.757487060546875,-2.19472599029541,-1.188571810722351,-1.5200953483581543
1757088067785534000,8.767533935546876,-2.231466293334961,-0.9814461469650269,-1.4876761436462402
1757088067795580000,8.777579833984374,-2.172250986099243,-0.7381545901298523,-1.4387460947036743
1757088067805627100,8.787627197265625,-2.0377309322357178,-0.6581489443778992,-1.3533198833465576
1757088067815674000,8.797674072265625,-1.859726071357727,-0.579533040523529,-1.2293928861618042
1757088067825720000,8.807719970703126,-1.7543463706970215,-0.4785313010215759,-1.0853997468948364
1757088067835767000,8.81776708984375,-1.6964056491851807,-0.49158328771591187,-1.0724406242370605
1757088067845814000,8.82781396484375,-1.5736494064331055,-0.4276122748851776,-1.0351572036743164
1757088067855860000,8.83785986328125,-1.3875408172607422,-0.40301692485809326,-0.9928032159805298
1757088067865907000,8.847906982421875,-1.1978245973587036,-0.6525703072547913,-1.0067278146743774
1757088067875954000,8.857953857421874,-1.0074145793914795,-0.8009328246116638,-1.0087157487869263
1757088067886001200,8.868001220703125,-0.8160428404808044,-0.9645707607269287,-1.039732813835144
1757088067896047000,8.878047119140625,-0.6614453792572021,-1.0732523202896118,-1.0769295692443848
1757088067906094000,8.888093994140625,-0.5388749837875366,-1.0634900331497192,-1.0709351301193237
1757088067916141000,8.89814111328125,-0.43124425411224365,-0.9264251589775085,-0.9717727303504944
1757088067926187000,8.90818701171875,-0.3337171673774719,-0.7460625767707825,-0.7939974069595337
1757088067936234000,8.91823388671875,-0.25617095828056335,-0.582794189453125,-0.6049906015396118
1757088067946281000,8.928281005859375,-0.17130693793296814,-0.44130176305770874,-0.4368823170661926
1757088067956327000,8.938326904296876,-0.07519780844449997,-0.32856589555740356,-0.29058364033699036
1757088067966374000,8.948373779296874,0.009901908226311207,-0.20024655759334564,-0.14826937019824982
1757088067976421000,8.958421142578125,0.10094153136014938,-0.05161057040095329,0.005890120752155781
1757088067986468000,8.968468017578125,0.19186796247959137,0.084758460521698,0.1680545210838318
1757088067996514000,8.97851416015625,0.2641168236732483,0.16942419111728668,0.31649279594421387
1757088068006561000,8.98856103515625,0.3251703083515167,0.20275072753429413,0.43529829382896423
1757088068016608000,8.99860791015625,0.37425684928894043,0.25648367404937744,0.5544666051864624
1757088068026654000,9.008654052734375,0.4049479067325592,0.3399258255958557,0.6667391061782837
1757088068036701000,9.018700927734375,0.4374505281448364,0.4402908682823181,0.7522713541984558
1757088068046748000,9.028747802734374,0.4891028106212616,0.49087628722190857,0.8471571207046509
1757088068056793900,9.0387939453125,0.5677315592765808,0.4798739552497864,0.9758908748626709
1757088068066840800,9.0488408203125,0.656413733959198,0.46379992365837097,1.164429783821106
1757088068076888000,9.05888818359375,0.7463845610618591,0.5094096660614014,1.3800407648086548
1757088068086934000,9.06893408203125,0.7574364542961121,0.652889609336853,1.5058144330978394
1757088068096981000,9.07898095703125,0.7006329298019409,0.8203572630882263,1.5050534009933472
1757088068107028000,9.089028076171875,0.672529399394989,0.8393807411193848,1.4542871713638306
1757088068117074000,9.099073974609375,0.6989445090293884,0.5496993660926819,1.527397632598877
1757088068127121000,9.109120849609376,0.7689781785011292,0.2847830057144165,1.5656856298446655
1757088068137168000,9.11916796875,0.8843703866004944,0.12189508974552155,1.3884528875350952
1757088068147214800,9.12921484375,0.9411050081253052,-0.28081294894218445,1.22641122341156
1757088068157260800,9.1392607421875,0.8430318236351013,-0.840791642665863,1.2503169775009155
1757088068167308000,9.14930810546875,0.7611609697341919,-1.1775981187820435,1.2968556880950928
1757088068177355000,9.15935498046875,0.7449368834495544,-1.1072344779968262,1.1088330745697021
1757088068187401000,9.16940087890625,0.8087888360023499,-1.172624111175537,0.8588498830795288
1757088068197448000,9.179447998046875,0.9107051491737366,-0.9774842262268066,0.8277062177658081
1757088068207495000,9.189494873046876,0.9819977283477783,-0.6775294542312622,1.0216505527496338
1757088068217540900,9.199540771484376,1.0777356624603271,-0.5855584740638733,1.1777656078338623
1757088068227587800,9.209587890625,1.1369973421096802,-0.39224064350128174,1.173848032951355
1757088068237634800,9.219634765625,1.1887130737304688,-0.254385769367218,1.0749995708465576
1757088068247682000,9.22968212890625,1.2712780237197876,-0.1529795080423355,0.9369063973426819
1757088068257728000,9.23972802734375,1.3508435487747192,-0.1310100555419922,0.8652033805847168
1757088068267775000,9.24977490234375,1.412743091583252,-0.04087350144982338,0.8469052910804749
1757088068277822000,9.259822021484375,1.4234706163406372,0.05000270903110504,0.8453352451324463
1757088068287868000,9.269867919921875,1.394788384437561,0.1195082888007164,0.8397705554962158
1757088068297915000,9.279914794921876,1.3705884218215942,0.17905482649803162,0.8301248550415039
1757088068307961900,9.2899619140625,1.3485957384109497,0.18712259829044342,0.7894818782806396
1757088068318008000,9.300008056640625,1.3777447938919067,0.12370561063289642,0.7364664673805237
1757088068328054800,9.3100546875,1.4758175611495972,-0.08375197649002075,0.6023653745651245
1757088068338102000,9.32010205078125,1.5733641386032104,-0.37427088618278503,0.40277212858200073
1757088068348148200,9.330148193359374,1.5607240200042725,-0.5082763433456421,0.22960780560970306
1757088068358195000,9.34019482421875,1.4810552597045898,-0.5038425326347351,0.21166662871837616
1757088068368242000,9.350241943359375,1.388519525527954,-0.5218673348426819,0.2931881248950958
1757088068378289000,9.360288818359376,1.325390338897705,-0.6027090549468994,0.35508909821510315
1757088068388335000,9.370335205078124,1.2650271654129028,-0.6571014523506165,0.36758917570114136
1757088068398381800,9.3803818359375,1.237640142440796,-0.6943609714508057,0.36175405979156494
1757088068408428800,9.3904287109375,1.2163090705871582,-0.8522112965583801,0.31048449873924255
1757088068418475000,9.40047509765625,1.1993300914764404,-1.0663520097732544,0.32150495052337646
1757088068428522200,9.410522216796876,1.115682601928711,-1.150654911994934,0.40048205852508545
1757088068438569200,9.4205693359375,0.9821488857269287,-1.084539771080017,0.5002971887588501
1757088068448615400,9.430615478515625,0.8462291359901428,-1.088789939880371,0.527199923992157
1757088068458662100,9.440662109375,0.7198630571365356,-1.1106054782867432,0.4735453426837921
1757088068468709000,9.450709228515626,0.5806822776794434,-1.1079233884811401,0.3664711117744446
1757088068478756000,9.460756103515624,0.3796434700489044,-0.895984947681427,0.3595474362373352
1757088068488802300,9.47080224609375,0.1378854513168335,-0.5398646593093872,0.4798368215560913
1757088068498849300,9.480849365234375,-0.10363119840621948,-0.15042543411254883,0.7171233296394348
1757088068508896300,9.490896240234376,-0.24918973445892334,0.20319494605064392,0.9444441199302673
1757088068518942500,9.5009423828125,-0.32630282640457153,0.5873042345046997,1.0598976612091064
1757088068528989400,9.510989501953125,-0.37930718064308167,0.9171873331069946,1.058044672012329
1757088068539036200,9.5210361328125,-0.3911973834037781,1.2647393941879272,1.1612920761108398
1757088068549082400,9.531082275390625,-0.306405246257782,1.447593331336975,1.352114200592041
1757088068559129300,9.54112939453125,-0.1597973257303238,1.1383609771728516,1.2955933809280396
1757088068569176300,9.55117626953125,-0.030683811753988266,0.5639479756355286,1.1518809795379639
1757088068579222300,9.56122216796875,0.11055620014667511,0.246993750333786,0.9914720058441162
1757088068589269200,9.571269287109375,0.22728334367275238,0.21601958572864532,0.8240454792976379
1757088068599316500,9.58131640625,0.28798121213912964,0.26439937949180603,0.6604192852973938
1757088068609363200,9.59136328125,0.3407064974308014,0.19221970438957214,0.5253384113311768
1757088068619409400,9.601409423828125,0.39629215002059937,0.04534602910280228,0.423372358083725
1757088068629456400,9.611456298828125,0.445965439081192,0.01575325056910515,0.3334994614124298
1757088068639503400,9.62150341796875,0.47674933075904846,0.044214144349098206,0.27552053332328796
1757088068649549300,9.63154931640625,0.495240718126297,0.10262845456600189,0.2546597421169281
1757088068659596300,9.64159619140625,0.5062746405601501,0.1944373995065689,0.2546454668045044
1757088068669643300,9.651643310546875,0.514726459980011,0.3200587034225464,0.2607518434524536
1757088068679689200,9.661689208984376,0.531334638595581,0.4658498466014862,0.27679747343063354
1757088068689736400,9.671736328125,0.5639615654945374,0.5450767874717712,0.2922680377960205
1757088068699783400,9.681783447265625,0.5904922485351562,0.46974897384643555,0.2940651476383209
1757088068709829400,9.691829345703125,0.6035164594650269,0.3112165927886963,0.2919769585132599
1757088068719876400,9.70187646484375,0.6058344841003418,0.16441944241523743,0.2834623157978058
1757088068729923300,9.71192333984375,0.58542400598526,0.08191763609647751,0.2276080846786499
1757088068739970300,9.72197021484375,0.5669243931770325,0.10388396680355072,0.16922515630722046
1757088068750016300,9.732016357421875,0.5533609390258789,0.2308986335992813,0.13015471398830414
1757088068760063200,9.742063232421875,0.5281872153282166,0.3399151861667633,0.11706195026636124
1757088068770110500,9.7521103515625,0.4980785548686981,0.38088899850845337,0.14936555922031403
1757088068780156200,9.76215625,0.44726431369781494,0.31631505489349365,0.1788792759180069
1757088068790203400,9.772203369140625,0.3666810393333435,0.233014315366745,0.19959388673305511
1757088068800250400,9.78225048828125,0.266790509223938,0.17868387699127197,0.19208750128746033
1757088068810296300,9.79229638671875,0.18139223754405975,0.2050635665655136,0.15006548166275024
1757088068820343300,9.80234326171875,0.12066346406936646,0.2992415428161621,0.08953266590833664
1757088068830390300,9.812390380859375,0.13092570006847382,0.3314703106880188,0.04985902085900307
1757088068840437200,9.822437255859375,0.15475566685199738,0.18013398349285126,0.03652716800570488
1757088068850483200,9.832483154296876,0.13080266118049622,-0.01597774028778076,0.07160818576812744
1757088068860530200,9.8425302734375,0.07938278466463089,-0.04615641385316849,0.11965698003768921
1757088068870577400,9.852577392578125,0.021604442968964577,0.014244609512388706,0.07815028727054596
1757088068880623400,9.862623291015625,-0.09136909991502762,0.14205677807331085,-0.04180578887462616
1757088068890670300,9.87267041015625,-0.1974654346704483,0.32035326957702637,-0.17844806611537933
1757088068900717300,9.88271728515625,-0.29156774282455444,0.5671863555908203,-0.3161110579967499
1757088068910763300,9.89276318359375,-0.3598674535751343,0.8436376452445984,-0.47790688276290894
1757088068920810200,9.902810302734375,-0.43140116333961487,1.107048511505127,-0.665367603302002
1757088068930857200,9.912857177734375,-0.5271995663642883,1.270154356956482,-0.8275120258331299
1757088068940904200,9.922904296875,-0.6237702965736389,1.251379132270813,-0.9406852722167969
1757088068950950100,9.9329501953125,-0.7135308384895325,1.045155644416809,-1.0206044912338257
1757088068960997400,9.942997314453125,-0.8156608939170837,0.702908992767334,-1.1402039527893066
1757088068971044400,9.95304443359375,-0.8425779938697815,0.47197404503822327,-1.3027476072311401
1757088068981090300,9.96309033203125,-0.848381519317627,0.4953473210334778,-1.420891523361206
1757088068991137300,9.97313720703125,-0.8964981436729431,0.7763723134994507,-1.4198392629623413
1757088069001184300,9.983184326171875,-0.9850778579711914,1.1468762159347534,-1.2998175621032715
1757088069011230200,9.993230224609375,-1.00324547290802,1.4777079820632935,-1.1003916263580322
1757088069021277200,10.003277099609376,-1.0714133977890015,1.5507780313491821,-0.7910083532333374
1757088069031324200,10.01332421875,-1.206316351890564,1.4857162237167358,-0.41410183906555176
1757088069041371400,10.023371337890625,-1.3641947507858276,1.3229244947433472,-0.055819373577833176
1757088069051417300,10.033417236328125,-1.6303356885910034,0.9952206015586853,0.31148087978363037
1757088069061464300,10.04346435546875,-1.8392107486724854,0.7736065983772278,0.5948354601860046
1757088069071511300,10.05351123046875,-2.087608814239502,1.4366451501846313,0.3846220374107361
1757088069081557200,10.06355712890625,-2.4117417335510254,1.5334177017211914,-0.5810326337814331
1757088069091604200,10.073604248046875,-2.5783238410949707,0.5201411247253418,-0.9909557104110718
1757088069101651200,10.083651123046875,-2.5699827671051025,-0.09260284900665283,-1.2167954444885254
1757088069111697200,10.093697265625,-2.484360694885254,-0.2956472933292389,-1.423865795135498
1757088069121744100,10.103744140625,-2.3017826080322266,-0.4382428526878357,-1.676038146018982
1757088069131791400,10.113791259765625,-2.21486234664917,-0.3613840341567993,-1.7291277647018433
1757088069141837300,10.12383740234375,-2.180544376373291,-0.397960901260376,-1.6346807479858398
1757088069151884300,10.13388427734375,-2.0985684394836426,-0.6306164860725403,-1.54461669921875
1757088069161931300,10.14393115234375,-2.0705249309539795,-0.8033077120780945,-1.5633844137191772
1757088069171978200,10.153978271484375,-2.0902881622314453,-0.8340898752212524,-1.614427924156189
1757088069182024200,10.164024169921875,-2.091851234436035,-0.8017749190330505,-1.6358568668365479
1757088069192071200,10.1740712890625,-2.0583302974700928,-0.7661750912666321,-1.6487466096878052
1757088069202118100,10.1841181640625,-1.9979699850082397,-0.7091141939163208,-1.6351449489593506
1757088069212164000,10.1941640625,-1.9009406566619873,-0.657766580581665,-1.575652837753296
1757088069222211300,10.20421142578125,-1.7884635925292969,-0.5090609788894653,-1.5118283033370972
1757088069232258300,10.21425830078125,-1.660298228263855,-0.7694733738899231,-1.5453133583068848
1757088069242304300,10.22430419921875,-1.5620921850204468,-0.9145820736885071,-1.6438640356063843
1757088069252351200,10.234351318359375,-1.418755054473877,-0.98520427942276,-1.7424489259719849
1757088069262398200,10.244398193359375,-1.22427237033844,-1.1172091960906982,-1.8221241235733032
1757088069272444200,10.254444091796875,-1.0056079626083374,-1.2069119215011597,-1.8479359149932861
1757088069282491100,10.2644912109375,-0.7858879566192627,-1.2723965644836426,-1.8340463638305664
1757088069292538000,10.2745380859375,-0.6041631698608398,-1.276493787765503,-1.7717236280441284
1757088069302585300,10.28458544921875,-0.40728917717933655,-1.2278646230697632,-1.642511248588562
1757088069312631300,10.29463134765625,-0.23003102838993073,-1.1028512716293335,-1.436809778213501
1757088069322678300,10.30467822265625,-0.06344600021839142,-1.0279309749603271,-1.2201958894729614
1757088069332725200,10.314725341796875,0.02993134967982769,-0.8215951323509216,-0.9460492134094238
1757088069342771200,10.324771240234375,0.08798030763864517,-0.5769562721252441,-0.6610974073410034
1757088069352818200,10.334818115234375,0.13854414224624634,-0.3201500475406647,-0.39658451080322266
1757088069362865200,10.344865234375,0.1777680218219757,-0.05730123072862625,-0.14328217506408691
1757088069372911000,10.3549111328125,0.20200331509113312,0.20719380676746368,0.11476746946573257
1757088069382958000,10.3649580078125,0.22381068766117096,0.4348604083061218,0.382107138633728
1757088069393005300,10.37500537109375,0.2704482078552246,0.5685676336288452,0.6835940480232239
1757088069403052300,10.38505224609375,0.33533775806427,0.6202744841575623,0.9432478547096252
1757088069413098200,10.39509814453125,0.3972298800945282,0.6392982602119446,1.1136316061019897
1757088069423145200,10.405145263671875,0.46916234493255615,0.6347464919090271,1.20542573928833
1757088069433192000,10.41519189453125,0.5647695660591125,0.6105588674545288,1.2896618843078613
1757088069443238100,10.425238037109375,0.6638760566711426,0.5733239650726318,1.4069942235946655
1757088069453285000,10.43528515625,0.7903173565864563,0.5426760911941528,1.5725435018539429
1757088069463332000,10.44533203125,0.9394046664237976,0.5711950063705444,1.7327525615692139
1757088069473378300,10.45537841796875,1.0738551616668701,0.7170891165733337,1.8081400394439697
1757088069483425000,10.465425048828125,1.100838541984558,0.8736822605133057,1.7466603517532349
1757088069493472000,10.475471923828126,1.0233553647994995,0.9373994469642639,1.5651041269302368
1757088069503519000,10.48551904296875,0.8999667763710022,0.7807217836380005,1.4535514116287231
1757088069513565200,10.495565185546875,0.7358662486076355,0.3883633017539978,1.4340105056762695
1757088069523612000,10.50561181640625,0.5489134788513184,0.24988625943660736,1.2321391105651855
1757088069533659100,10.5156591796875,0.5881175994873047,-0.3213045299053192,0.9181798696517944
1757088069543705300,10.525705322265624,0.5630547404289246,-1.1439419984817505,0.5518473982810974
1757088069553752000,10.535751953125,0.5960667729377747,-1.5139861106872559,0.26782581210136414
1757088069563799000,10.545799072265625,0.8071281909942627,-1.5522884130477905,0.12040362507104874
1757088069573845200,10.55584521484375,1.0053060054779053,-1.7161017656326294,0.3275719881057739
1757088069583892200,10.565892333984374,1.0922343730926514,-1.566205620765686,0.6987118124961853
1757088069593939000,10.57593896484375,1.0290453433990479,-1.0609898567199707,1.0301240682601929
1757088069603985200,10.585985107421875,0.987895667552948,-0.4766983687877655,1.1903806924819946
1757088069614032100,10.5960322265625,1.0157490968704224,0.03606931492686272,1.3284169435501099
1757088069624079000,10.6060791015625,1.115352988243103,0.16041330993175507,1.4587966203689575
1757088069634126000,10.6161259765625,1.252112627029419,0.22540909051895142,1.4476683139801025
1757088069644172300,10.62617236328125,1.302743673324585,0.18815527856349945,1.381551742553711
1757088069654219300,10.63621923828125,1.2586596012115479,0.09051713347434998,1.3231312036514282
1757088069664266000,10.646265869140626,1.1583473682403564,-0.022451188415288925,1.2235045433044434
1757088069674312200,10.656312255859374,1.0990211963653564,-0.13542726635932922,1.1224876642227173
1757088069684359200,10.666359130859375,1.0947328805923462,-0.19762587547302246,1.0599313974380493
1757088069694406100,10.67640625,1.1267515420913696,-0.23050765693187714,1.0190417766571045
1757088069704452000,10.6864521484375,1.191548466682434,-0.27301594614982605,0.9808398485183716
1757088069714499300,10.696499267578124,1.2507667541503906,-0.30111709237098694,0.9186329245567322
1757088069724546300,10.70654638671875,1.2939285039901733,-0.40779760479927063,0.7538117170333862
1757088069734593300,10.71659326171875,1.3195960521697998,-0.4858577847480774,0.56024169921875
1757088069744639200,10.72663916015625,1.3059684038162231,-0.49750813841819763,0.42261987924575806
1757088069754686200,10.736686279296874,1.2500404119491577,-0.4611234962940216,0.38388606905937195
1757088069764733200,10.746733154296875,1.1473804712295532,-0.4723350405693054,0.41423165798187256
1757088069774779100,10.756779052734375,1.0635639429092407,-0.4245552718639374,0.46400001645088196
1757088069784826000,10.766826171875,0.9908692240715027,-0.3766975998878479,0.485373318195343
1757088069794873300,10.776873291015624,0.9574286937713623,-0.52283775806427,0.44289350509643555
1757088069804919300,10.786919189453124,0.9468390345573425,-0.7846755385398865,0.3896646797657013
1757088069814966300,10.79696630859375,0.9271657466888428,-1.0070712566375732,0.38137131929397583
1757088069825013200,10.80701318359375,0.8630645275115967,-1.0710422992706299,0.43868014216423035
1757088069835059200,10.81705908203125,0.82164067029953,-1.0582090616226196,0.4734434485435486
1757088069845106200,10.827106201171874,0.7854156494140625,-1.0932726860046387,0.4663277864456177
1757088069855153200,10.837153076171875,0.7078593373298645,-1.0555306673049927,0.4835264980792999
1757088069865200000,10.8472001953125,0.5977346897125244,-0.911883533000946,0.5075133442878723
1757088069875246000,10.85724609375,0.4927672743797302,-0.7539857625961304,0.5547977685928345
1757088069885293300,10.867293212890624,0.31809964776039124,-0.6250446438789368,0.6482564210891724
1757088069895340300,10.87734033203125,0.11216354370117188,-0.47927945852279663,0.8027046322822571
1757088069905386200,10.88738623046875,-0.04060376435518265,-0.22887177765369415,0.9990077614784241
1757088069915433200,10.89743310546875,-0.1110885813832283,0.07481779903173447,1.1714788675308228
1757088069925480200,10.907480224609374,-0.10078245401382446,0.46725231409072876,1.2891907691955566
1757088069935526100,10.917526123046875,-0.08729301393032074,0.9986230134963989,1.421567440032959
1757088069945573000,10.927572998046875,-0.03766685724258423,1.372771978378296,1.4872534275054932
1757088069955620000,10.9376201171875,0.03694586083292961,1.321347713470459,1.4393075704574585
1757088069965667000,10.9476669921875,0.18912889063358307,0.9040148258209229,1.3046870231628418
1757088069975713000,10.957713134765624,0.3806573152542114,0.4355645775794983,1.1695067882537842
1757088069985760300,10.96776025390625,0.5688118934631348,0.1293284296989441,1.0051956176757812
1757088069995807200,10.97780712890625,0.7202525734901428,0.06586822867393494,0.842080295085907
1757088070005853200,10.987853271484376,0.8492026329040527,0.1285611093044281,0.7066031098365784
1757088070015900200,10.997900146484374,0.9349468350410461,0.20882000029087067,0.5964310765266418
1757088070025947100,11.007947021484375,0.922069251537323,0.27994781732559204,0.4931672215461731
1757088070035993000,11.0179931640625,0.8611217737197876,0.27684417366981506,0.39693549275398254
1757088070046040000,11.0280400390625,0.7623977065086365,0.2281121015548706,0.2986147999763489
1757088070056087000,11.038087158203124,0.6316887140274048,0.199708953499794,0.18868616223335266
1757088070066133000,11.048133056640625,0.468834787607193,0.2519146203994751,0.09233748912811279
1757088070076180200,11.05818017578125,0.3105769455432892,0.4002856910228729,0.06580467522144318
1757088070086227200,11.068227294921876,0.18772833049297333,0.5546592473983765,0.12470612674951553
1757088070096274200,11.078274169921874,0.13899648189544678,0.6269156336784363,0.18293534219264984
1757088070106320100,11.088320068359375,0.10770279169082642,0.6088647246360779,0.23166827857494354
1757088070116367000,11.0983671875,0.08362355083227158,0.5112185478210449,0.23885108530521393
1757088070126414000,11.1084140625,0.08527372032403946,0.39288151264190674,0.22688448429107666
1757088070136460000,11.1184599609375,0.10965442657470703,0.26746100187301636,0.2124147266149521
1757088070146507000,11.128507080078125,0.12621080875396729,0.13544681668281555,0.16755598783493042
1757088070156554200,11.13855419921875,0.16149502992630005,0.05532188341021538,0.11071481555700302
1757088070166600200,11.14860009765625,0.18401707708835602,0.0026073134504258633,0.07386012375354767
1757088070176647200,11.158647216796876,0.1697467863559723,-0.033173851668834686,0.07172080874443054
1757088070186694100,11.168694091796874,0.12292076647281647,0.014442216604948044,0.13802610337734222
1757088070196741000,11.1787412109375,0.07858659327030182,0.09065788984298706,0.23888719081878662
1757088070206787000,11.188787109375,0.06049012020230293,0.13278916478157043,0.2995840013027191
1757088070216834000,11.198833984375,0.08571372181177139,0.12955155968666077,0.2907889187335968
1757088070226881000,11.208881103515624,0.09984929859638214,0.04394412040710449,0.21975275874137878
1757088070236927000,11.218927001953125,0.1340179294347763,-0.09060969203710556,0.10662779211997986
1757088070246974200,11.22897412109375,0.1524805873632431,-0.17343060672283173,-0.08940579742193222
1757088070257021200,11.239021240234376,0.10704652220010757,-0.1457931250333786,-0.36234307289123535
1757088070267067100,11.249067138671874,0.020216330885887146,-0.07483882457017899,-0.6574798822402954
1757088070277114000,11.259114013671875,-0.09021510928869247,0.05475911498069763,-0.8895615935325623
1757088070287161000,11.2691611328125,-0.20565521717071533,0.3024492561817169,-1.047898769378662
1757088070297208000,11.2792080078125,-0.2572036385536194,0.5167236924171448,-1.2228857278823853
1757088070307254000,11.28925390625,-0.30047807097435,0.6715834140777588,-1.4241875410079956
1757088070317301000,11.299301025390625,-0.3742833137512207,0.7251816391944885,-1.6364095211029053
1757088070327348200,11.30934814453125,-0.4822784960269928,0.716426432132721,-1.80185866355896
1757088070337394200,11.319394287109375,-0.5997057557106018,0.9477606415748596,-1.904723882675171
1757088070347441200,11.329441162109376,-0.6314083933830261,1.467242956161499,-1.919974446296692
1757088070357488000,11.339488037109374,-0.7591434717178345,2.0432381629943848,-1.825385570526123
1757088070367534000,11.3495341796875,-0.9232513308525085,2.3594563007354736,-1.697340965270996
1757088070377581000,11.3595810546875,-1.1619973182678223,2.6062610149383545,-1.4510992765426636
1757088070387628000,11.3696279296875,-1.5292783975601196,2.7306015491485596,-1.1659976243972778
1757088070397674000,11.379674072265624,-1.9064280986785889,2.6999971866607666,-0.857812762260437
1757088070407721000,11.389720947265625,-2.1066253185272217,2.505690336227417,-0.4972023665904999
1757088070417768200,11.399768310546875,-2.1555888652801514,2.0067381858825684,-0.20229828357696533
1757088070427815200,11.409815185546876,-2.2672438621520996,1.459795355796814,0.0422232411801815
1757088070437861400,11.419861328125,-2.364438772201538,1.02384352684021,0.29495111107826233
1757088070447908400,11.429908447265625,-2.4872114658355713,0.31128087639808655,0.14191195368766785
1757088070457955300,11.439955322265625,-2.632692813873291,-0.4093542695045471,-0.8169522881507874
1757088070468001300,11.450001220703125,-2.6788973808288574,-1.116207242012024,-1.4429867267608643
1757088070478048300,11.46004833984375,-2.55405855178833,-1.3170326948165894,-1.6535217761993408
1757088070488095200,11.47009521484375,-2.4227795600891113,-1.0577983856201172,-1.6603214740753174
1757088070498141200,11.48014111328125,-2.309596538543701,-0.7151327133178711,-1.5340367555618286
1757088070508188400,11.4901884765625,-2.2436769008636475,-0.7875047922134399,-1.4073446989059448
1757088070518235400,11.5002353515625,-2.2514655590057373,-0.9179549217224121,-1.297792911529541
1757088070528282400,11.510282470703125,-2.3130669593811035,-0.9153037667274475,-1.2763969898223877
1757088070538328300,11.520328369140625,-2.3305580615997314,-0.9089454412460327,-1.3291702270507812
1757088070548375300,11.530375244140625,-2.3050849437713623,-1.0109617710113525,-1.4449042081832886
1757088070558422300,11.54042236328125,-2.2428016662597656,-1.0576339960098267,-1.5474039316177368
1757088070568468200,11.55046826171875,-2.161066770553589,-0.9537273645401001,-1.5044623613357544
1757088070578515200,11.56051513671875,-2.0211970806121826,-0.8781396746635437,-1.410661220550537
1757088070588562400,11.5705625,-1.907638669013977,-0.7124078869819641,-1.263716697692871
1757088070598608400,11.5806083984375,-1.7773687839508057,-0.9249124526977539,-1.2978647947311401
1757088070608655400,11.5906552734375,-1.7353483438491821,-1.0350720882415771,-1.4034150838851929
1757088070618702300,11.600702392578125,-1.5803725719451904,-1.1387170553207397,-1.4999765157699585
1757088070628749300,11.610749267578125,-1.3992698192596436,-1.2735081911087036,-1.5363095998764038
1757088070638795300,11.620795166015625,-1.1967390775680542,-1.386387586593628,-1.5337876081466675
1757088070648842200,11.63084228515625,-0.9913533926010132,-1.4699840545654297,-1.5096580982208252
1757088070658889200,11.64088916015625,-0.8243526816368103,-1.4639838933944702,-1.4575600624084473
1757088070668935400,11.650935302734375,-0.6621484160423279,-1.3856767416000366,-1.341088891029358
1757088070678982400,11.660982421875,-0.533322274684906,-1.2337747812271118,-1.125600814819336
1757088070689029400,11.671029296875,-0.4138835370540619,-1.0263594388961792,-0.8291593194007874
1757088070699075600,11.68107568359375,-0.29692336916923523,-0.8350204229354858,-0.5376643538475037
1757088070709122300,11.691122314453125,-0.20942798256874084,-0.5883141756057739,-0.24522565305233002
1757088070719169300,11.701169189453125,-0.13925528526306152,-0.3175370693206787,0.03795785829424858
1757088070729215500,11.711215576171876,-0.05727563053369522,-0.04997884854674339,0.31269749999046326
1757088070739262500,11.721262451171874,0.013200664892792702,0.1952596753835678,0.5538738965988159
1757088070749309200,11.73130908203125,0.09325538575649261,0.3860749900341034,0.7572820782661438
1757088070759356200,11.741356201171875,0.19694875180721283,0.5057710409164429,0.9269781708717346
1757088070769402400,11.75140234375,0.3089962303638458,0.5887009501457214,1.0629959106445312
1757088070779449300,11.761449462890624,0.4128531217575073,0.6785213351249695,1.1722723245620728
1757088070789496300,11.771496337890625,0.5076892375946045,0.7533690333366394,1.2598551511764526
1757088070799542500,11.78154248046875,0.6066722869873047,0.7796586751937866,1.3169068098068237
1757088070809589500,11.791589599609376,0.7435493469238281,0.7220954298973083,1.368019461631775
1757088070819636200,11.80163623046875,0.934844970703125,0.6563584804534912,1.4402271509170532
1757088070829682400,11.811682373046875,1.1231297254562378,0.6422094702720642,1.5056231021881104
1757088070839729400,11.8217294921875,1.1403559446334839,0.6499403715133667,1.532766342163086
1757088070849776400,11.8317763671875,1.0102317333221436,0.7861184477806091,1.5028960704803467
1757088070859823400,11.8418232421875,0.9035636782646179,0.7404231429100037,1.5419939756393433
1757088070869869600,11.85186962890625,0.7953457236289978,0.5386814475059509,1.6439464092254639
1757088070879916500,11.86191650390625,0.8103142976760864,0.3144227862358093,1.5239907503128052
1757088070889963300,11.87196337890625,0.9126587510108948,-0.04443640261888504,1.256314754486084
1757088070900009500,11.882009521484376,0.8690401911735535,-0.723717987537384,1.0505179166793823
1757088070910056400,11.892056396484374,0.8414980173110962,-1.0966705083847046,0.9255340695381165
1757088070920103400,11.902103515625,0.9111628532409668,-1.2727479934692383,0.8083040714263916
1757088070930149400,11.9121494140625,1.0209081172943115,-1.3226830959320068,0.7597112059593201
1757088070940196400,11.9221962890625,1.1410629749298096,-1.2157979011535645,0.872692883014679
1757088070950243600,11.93224365234375,1.2044310569763184,-0.9405314326286316,1.1032979488372803
1757088070960290300,11.942290283203125,1.2210781574249268,-0.5258634090423584,1.3336586952209473
1757088070970336500,11.95233642578125,1.2485712766647339,-0.12590469419956207,1.4611690044403076
1757088070980383500,11.962383544921876,1.3765848875045776,0.10058863461017609,1.5168440341949463
1757088070990430500,11.972430419921874,1.5478030443191528,0.1549590677022934,1.4459507465362549
1757088071000476400,11.982476318359375,1.6334459781646729,0.20374391973018646,1.3758331537246704
1757088071010523400,11.9925234375,1.5978153944015503,0.146797314286232,1.3126128911972046
1757088071020570400,12.0025703125,1.4967105388641357,0.06021874025464058,1.228659987449646
1757088071030616300,12.0126162109375,1.449402093887329,-0.04638524353504181,1.1348903179168701
1757088071040663600,12.02266357421875,1.449047327041626,-0.0942065641283989,1.0645053386688232
1757088071050710500,12.03271044921875,1.459926962852478,-0.21476109325885773,0.9481326341629028
1757088071060757500,12.042757568359375,1.5333503484725952,-0.27487531304359436,0.8173338770866394
1757088071070803500,12.052803466796876,1.67361581325531,-0.32167571783065796,0.6623441576957703
1757088071080850400,12.062850341796874,1.7975084781646729,-0.532503604888916,0.4289796054363251
1757088071090897400,12.0728974609375,1.8452585935592651,-0.782752513885498,0.21883529424667358
1757088071100943400,12.082943359375,1.8208690881729126,-0.8588393330574036,0.16693773865699768
1757088071110990300,12.092990234375,1.7136011123657227,-0.8000158071517944,0.27256491780281067
1757088071121037600,12.10303759765625,1.5347846746444702,-0.6713950037956238,0.4353775382041931
1757088071131083500,12.11308349609375,1.3544596433639526,-0.5999860167503357,0.560727596282959
1757088071141130500,12.123130615234375,1.2284162044525146,-0.6250050663948059,0.5778616070747375
1757088071151177500,12.133177490234376,1.144392728805542,-0.7332094311714172,0.5437243580818176
1757088071161223400,12.143223388671874,1.0643248558044434,-0.7611950039863586,0.5344237685203552
1757088071171270400,12.1532705078125,0.9794072508811951,-0.801872730255127,0.508601188659668
1757088071181317400,12.1633173828125,0.8682472109794617,-0.8377329707145691,0.5142524242401123
1757088071191364400,12.1733642578125,0.6979937553405762,-0.7730036377906799,0.5705716609954834
1757088071201410300,12.183410400390626,0.5221458077430725,-0.7546006441116333,0.6178007125854492
1757088071211457500,12.19345751953125,0.35962116718292236,-0.7446861863136292,0.6555510759353638
1757088071221504500,12.20350439453125,0.19403515756130219,-0.7575964331626892,0.675042986869812
1757088071231550500,12.213550537109375,-0.07049139589071274,-0.5626258850097656,0.7906684279441833
1757088071241597400,12.223597412109376,-0.34525904059410095,-0.27802586555480957,0.9618803858757019
1757088071251644400,12.23364453125,-0.4914490580558777,-0.0049374839290976524,1.145524024963379
1757088071261690400,12.2436904296875,-0.5350642204284668,0.3575778603553772,1.3131194114685059
1757088071271737300,12.2537373046875,-0.5078245997428894,0.8433123230934143,1.4216927289962769
1757088071281784300,12.263784423828126,-0.5153411030769348,1.2733436822891235,1.481416940689087
1757088071291831600,12.27383154296875,-0.5440102815628052,1.5489236116409302,1.5608699321746826
1757088071301877200,12.283877197265625,-0.3153747022151947,1.3256793022155762,1.5043752193450928
1757088071311924500,12.293924560546875,-0.006187993101775646,0.8035283088684082,1.2391351461410522
1757088071321971500,12.303971435546876,0.2912977337837219,0.21300320327281952,0.8910293579101562
1757088071332017400,12.314017333984374,0.6098856925964355,-0.10354410111904144,0.5274872183799744
1757088071342064400,12.324064453125,0.7648616433143616,-0.15552793443202972,0.26377809047698975
1757088071352111400,12.334111328125,0.8170450925827026,-0.09032627940177917,0.11644387990236282
1757088071362157300,12.3441572265625,0.7972468733787537,0.15847449004650116,0.14927265048027039
1757088071372204300,12.354204345703126,0.7353957295417786,0.39310404658317566,0.28839629888534546
1757088071382251300,12.364251220703125,0.7192367315292358,0.5135489702224731,0.40711280703544617
1757088071392298500,12.374298583984375,0.7300682663917542,0.521838903427124,0.44682925939559937
1757088071402344400,12.384344482421875,0.730683445930481,0.4973463714122772,0.4593181610107422
1757088071412391400,12.394391357421876,0.6929869651794434,0.33811506628990173,0.422129362821579
1757088071422438400,12.4044384765625,0.6331737041473389,0.1669076383113861,0.35430213809013367
1757088071432484400,12.414484375,0.5483636260032654,0.04220598191022873,0.2928963899612427
1757088071442531600,12.424531494140625,0.46673935651779175,-0.07404180616140366,0.24179509282112122
1757088071452578600,12.43457861328125,0.3564123809337616,-0.11039741337299347,0.2032293975353241
1757088071462624500,12.44462451171875,0.23519009351730347,-0.0889323353767395,0.11677760630846024
1757088071472671500,12.45467138671875,0.14881554245948792,0.04740661755204201,0.0696219876408577
1757088071482718500,12.464718505859375,0.09094398468732834,0.24843506515026093,0.10754300653934479
1757088071492764400,12.474764404296875,0.04988769441843033,0.44961562752723694,0.19279730319976807
1757088071502811400,12.484811279296874,-0.00545412627980113,0.5587757229804993,0.2871413826942444
1757088071512858400,12.4948583984375,-0.052014824002981186,0.5852028727531433,0.38364091515541077
1757088071522905600,12.504905517578125,-0.08116339147090912,0.5954206585884094,0.4448310136795044
1757088071532951600,12.51495166015625,-0.10593058168888092,0.5770347118377686,0.42288273572921753
