time,seconds_elapsed,z,y,x
1757088059034849500,0.016849609375,-0.020590495318174362,-0.343660444021225,0.01967410184442997
1757088059044896500,0.026896484375,-0.032993901520967484,-0.404031366109848,0.11915488541126251
1757088059054942700,0.036942626953125,-0.05204375833272934,-0.4054707884788513,0.2057715356349945
1757088059064989400,0.046989501953125,-0.06967228651046753,-0.37830016016960144,0.2726815938949585
1757088059075036700,0.05703662109375,-0.08597376197576523,-0.28865522146224976,0.3314647376537323
1757088059085083600,0.067083740234375,-0.09484608471393585,-0.14062954485416412,0.3860622048377991
1757088059095129900,0.0771298828125,-0.0946229100227356,0.038554850965738297,0.408439964056015
1757088059105176600,0.087176513671875,-0.0876275897026062,0.18112771213054657,0.36798495054244995
1757088059115223600,0.0972236328125,-0.054179348051548004,0.2639203369617462,0.27460306882858276
1757088059125269800,0.107269775390625,-0.011158112436532974,0.319938063621521,0.14711248874664307
1757088059135316700,0.117316650390625,0.034143056720495224,0.3721024692058563,-0.0026322684716433287
1757088059145363500,0.127363525390625,0.06715746223926544,0.41379982233047485,-0.14535079896450043
1757088059155410700,0.13741064453125,0.07342308759689331,0.4435718357563019,-0.2671262323856354
1757088059165457000,0.147456787109375,0.07187578827142715,0.45992419123649597,-0.3642605245113373
1757088059175503600,0.157503662109375,0.06329242140054703,0.4370154142379761,-0.43078121542930603
1757088059185550600,0.167550537109375,0.05830884724855423,0.3763078451156616,-0.45837581157684326
1757088059195596800,0.1775966796875,0.06064363941550255,0.2972135543823242,-0.4479633867740631
1757088059205643800,0.187643798828125,0.06639660149812698,0.2140531688928604,-0.4039517343044281
1757088059215690500,0.1976904296875,0.0678727924823761,0.12526391446590424,-0.33641424775123596
1757088059225737500,0.207737548828125,0.05203763395547867,0.052556950598955154,-0.24347737431526184
1757088059235783700,0.21778369140625,0.02545342780649662,0.01938781328499317,-0.13120009005069733
1757088059245830700,0.22783056640625,0.005403287708759308,0.019787553697824478,-0.0007057376787997782
1757088059255877600,0.237877685546875,-0.015174158848822117,-0.01522715575993061,0.12983709573745728
1757088059265923800,0.247923828125,-0.035953473299741745,-0.07876778393983841,0.24579432606697083
1757088059275970800,0.257970703125,-0.06491854786872864,-0.12695768475532532,0.3493494689464569
1757088059286017500,0.268017578125,-0.10320388525724411,-0.13735279440879822,0.4401659369468689
1757088059296064500,0.278064453125,-0.13994565606117249,-0.11754500865936279,0.5103697776794434
1757088059306110700,0.28811083984375,-0.17073579132556915,-0.07433921098709106,0.5655209422111511
1757088059316157700,0.29815771484375,-0.18819095194339752,-0.020732708275318146,0.5952945351600647
1757088059326204700,0.30820458984375,-0.18085500597953796,0.035994753241539,0.5932945013046265
1757088059336251000,0.3182509765625,-0.15367797017097473,0.08140964061021805,0.5609197616577148
1757088059346297900,0.3282978515625,-0.12058287113904953,0.10868014395236969,0.4932701587677002
1757088059356344600,0.338344482421875,-0.0996597483754158,0.11547759175300598,0.3997098505496979
1757088059366391600,0.3483916015625,-0.10315914452075958,0.10069172084331512,0.3064534068107605
1757088059376437800,0.358437744140625,-0.12401941418647766,0.08092787116765976,0.22747203707695007
1757088059386484700,0.368484619140625,-0.16060298681259155,0.07188377529382706,0.16219688951969147
1757088059396531500,0.378531494140625,-0.203267902135849,0.06940490752458572,0.1176358163356781
1757088059406577700,0.38857763671875,-0.2243225872516632,0.10180838406085968,0.0795733854174614
1757088059416625000,0.398625,-0.2203856259584427,0.186233252286911,0.07736536115407944
1757088059426672400,0.40867236328125,-0.20085135102272034,0.29661649465560913,0.11101014167070389
1757088059436719400,0.41871923828125,-0.18500341475009918,0.4023730158805847,0.15822692215442657
1757088059446765300,0.428765380859375,-0.19653064012527466,0.4659069776535034,0.19557268917560577
1757088059456812500,0.4388125,-0.23297865688800812,0.47824886441230774,0.21567396819591522
1757088059466859500,0.448859619140625,-0.28994259238243103,0.46477726101875305,0.24877838790416718
1757088059476905500,0.458905517578125,-0.3452862799167633,0.45019620656967163,0.3219471573829651
1757088059486952400,0.468952392578125,-0.39578700065612793,0.3930961489677429,0.43734830617904663
1757088059496999400,0.47899951171875,-0.45067769289016724,0.21815736591815948,0.5527438521385193
1757088059507045600,0.489045654296875,-0.5286896824836731,-0.11788269132375717,0.6178134083747864
1757088059517092400,0.49909228515625,-0.6053394675254822,-0.43545958399772644,0.6245182156562805
1757088059527139300,0.509139404296875,-0.6179375052452087,-0.509575366973877,0.6046347618103027
1757088059537186300,0.519186279296875,-0.5508413314819336,-0.623288631439209,0.5920228362083435
1757088059547232500,0.529232421875,-0.5243028998374939,-1.0383784770965576,0.5372280478477478
1757088059557279500,0.539279541015625,-0.5764318704605103,-1.483298897743225,0.5876770615577698
1757088059567326500,0.549326416015625,-0.6225082874298096,-1.7863248586654663,0.719457745552063
1757088059577372700,0.55937255859375,-0.6533733010292053,-1.9699788093566895,0.7088013887405396
1757088059587419400,0.56941943359375,-0.5719969272613525,-1.9533418416976929,0.5000979900360107
1757088059597466400,0.57946630859375,-0.3660043478012085,-1.6553127765655518,0.1272660791873932
1757088059607513300,0.589513427734375,-0.09055200219154358,-1.3312559127807617,-0.36784058809280396
1757088059617559600,0.5995595703125,0.1760575771331787,-0.9954398274421692,-0.8653252124786377
1757088059627606300,0.609606201171875,0.3692760467529297,-0.8178367614746094,-1.2501506805419922
1757088059637653500,0.619653564453125,0.45882004499435425,-0.9818768501281738,-1.4631577730178833
1757088059647699700,0.62969970703125,0.41410502791404724,-1.527587890625,-1.4747214317321777
1757088059657746400,0.639746337890625,0.3211093246936798,-2.337294101715088,-1.3095884323120117
1757088059667793400,0.64979345703125,0.4481538236141205,-3.1821954250335693,-0.8520144820213318
1757088059677840400,0.65984033203125,0.7364811897277832,-3.4807305335998535,-0.27019792795181274
1757088059687886600,0.669886474609375,0.9852076768875122,-3.6712288856506348,0.17714707553386688
1757088059697933300,0.679933349609375,1.1381367444992065,-3.8359923362731934,0.49580228328704834
1757088059707980300,0.689980224609375,1.2039093971252441,-4.139827728271484,0.7722365260124207
1757088059718026500,0.700026611328125,1.2528820037841797,-4.599148273468018,1.0556416511535645
1757088059728073500,0.710073486328125,1.3661457300186157,-4.9528632164001465,1.3585940599441528
1757088059738120400,0.720120361328125,1.4536476135253906,-5.140817165374756,1.5590856075286865
1757088059748166700,0.730166748046875,1.4714428186416626,-4.942383766174316,1.417919635772705
1757088059758213600,0.740213623046875,1.479193925857544,-4.293384552001953,0.8600510954856873
1757088059768260400,0.75026025390625,1.4348113536834717,-3.447192668914795,0.09506073594093323
1757088059778307300,0.760307373046875,1.3741860389709473,-2.586772918701172,-0.4842929244041443
1757088059788353500,0.770353515625,1.3349260091781616,-1.8026401996612549,-0.8009507656097412
1757088059798400500,0.780400390625,1.2656832933425903,-1.3803750276565552,-0.8845683932304382
1757088059808447500,0.790447509765625,1.22796630859375,-1.2690407037734985,-0.7444232702255249
1757088059818493700,0.80049365234375,1.252858281135559,-1.461920142173767,-0.44615644216537476
1757088059828540700,0.810540771484375,1.3427093029022217,-1.9044448137283325,-0.0035808864049613476
1757088059838587600,0.820587646484375,1.5225489139556885,-2.5122015476226807,0.5610606670379639
1757088059848634400,0.83063427734375,1.820424199104309,-3.3425748348236084,1.1799635887145996
1757088059858680600,0.8406806640625,2.182893753051758,-4.25725793838501,1.740920066833496
1757088059868727600,0.8507275390625,2.527067184448242,-5.058979034423828,2.2293312549591064
1757088059878774500,0.8607744140625,2.839869499206543,-5.497729778289795,2.5970382690429688
1757088059888820500,0.870820556640625,3.096954822540283,-5.515082836151123,2.728630542755127
1757088059898867700,0.88086767578125,3.2569384574890137,-5.005923748016357,2.5965330600738525
1757088059908914700,0.890914794921875,3.3257570266723633,-4.148995876312256,2.2899272441864014
1757088059918960600,0.900960693359375,3.305244207382202,-3.2528233528137207,1.9457405805587769
1757088059929007600,0.911007568359375,3.239996910095215,-2.4992403984069824,1.7232381105422974
1757088059939054600,0.9210546875,3.1045520305633545,-2.013140916824341,1.6905226707458496
1757088059949101600,0.9311015625,2.8925206661224365,-1.7887585163116455,1.8285388946533203
1757088059959147500,0.9411474609375,2.714430809020996,-1.782659888267517,2.0851476192474365
1757088059969194500,0.951194580078125,2.590986967086792,-2.0105977058410645,2.3749635219573975
1757088059979241700,0.96124169921875,2.5067341327667236,-2.2918717861175537,2.595130205154419
1757088059989287700,0.97128759765625,2.4397106170654297,-2.519970655441284,2.7519314289093018
1757088059999334700,0.981334716796875,2.3641719818115234,-2.6439993381500244,2.908053398132324
1757088060009381600,0.991381591796875,2.259120225906372,-2.717031717300415,3.069378614425659
1757088060019428600,1.0014287109375,2.1050589084625244,-2.681669235229492,3.213005542755127
1757088060029474600,1.011474609375,1.8415945768356323,-2.480701446533203,3.2266530990600586
1757088060039521500,1.021521484375,1.4367852210998535,-2.2164456844329834,3.0105104446411133
1757088060049568500,1.031568603515625,0.9244663119316101,-1.7230942249298096,2.6365883350372314
1757088060059614500,1.041614501953125,0.41716286540031433,-0.9727797508239746,2.195713758468628
1757088060069661700,1.05166162109375,0.045167211443185806,-0.314448744058609,1.72920560836792
1757088060079708700,1.061708740234375,-0.11524296551942825,0.23558029532432556,1.3400903940200806
1757088060089754600,1.071754638671875,-0.1169561818242073,0.8060371279716492,1.0695925951004028
1757088060099801600,1.081801513671875,-0.061830610036849976,1.094170093536377,0.8811888694763184
1757088060109848600,1.0918486328125,0.0832594707608223,0.9643226265907288,0.7614582180976868
1757088060119895600,1.1018955078125,0.11527226120233536,0.6100345849990845,0.8320692777633667
1757088060129941500,1.11194140625,-0.022408103570342064,0.14029505848884583,0.9651532769203186
1757088060139988500,1.121988525390625,-0.14707227051258087,-0.35468590259552,1.052634596824646
1757088060150035700,1.13203564453125,-0.23609694838523865,-0.6339135766029358,1.082428216934204
1757088060160081400,1.142081298828125,-0.32433199882507324,-0.8186866044998169,1.0480806827545166
1757088060170128600,1.152128662109375,-0.2981318235397339,-0.8801150918006897,1.03065824508667
1757088060180175600,1.162175537109375,-0.22960443794727325,-0.8466508388519287,1.0799275636672974
1757088060190221600,1.1722216796875,-0.21689502894878387,-0.8351902365684509,1.122334599494934
1757088060200268500,1.1822685546875,-0.24057185649871826,-0.7732672095298767,1.1564878225326538
1757088060210315500,1.1923154296875,-0.29917818307876587,-0.6953795552253723,1.1246113777160645
1757088060220362500,1.202362548828125,-0.3545519709587097,-0.5925549268722534,1.0063414573669434
1757088060230408400,1.212408447265625,-0.3820006251335144,-0.47642940282821655,0.8414361476898193
1757088060240455400,1.222455322265625,-0.4092423617839813,-0.30597084760665894,0.6669407486915588
1757088060250502700,1.232502685546875,-0.37356558442115784,-0.1581030786037445,0.4569574296474457
1757088060260548600,1.242548583984375,-0.3020184338092804,-0.03428047522902489,0.3312189280986786
1757088060270595600,1.252595703125,-0.22817698121070862,-0.07480127364397049,0.35152846574783325
1757088060280642600,1.262642578125,-0.19869738817214966,-0.34437230229377747,0.45141351222991943
1757088060290689500,1.272689453125,-0.20410360395908356,-0.8359979391098022,0.5370221734046936
1757088060300735500,1.282735595703125,-0.35301053524017334,-1.3765994310379028,0.616489589214325
1757088060310782500,1.292782470703125,-0.5031611323356628,-1.8809638023376465,0.6210811138153076
1757088060320829400,1.302829345703125,-0.5388911962509155,-2.093386173248291,0.5531697273254395
1757088060330875400,1.31287548828125,-0.4861059784889221,-1.8675554990768433,0.47660568356513977
1757088060340922600,1.322922607421875,-0.4412839114665985,-1.485511302947998,0.3805862367153168
1757088060350969600,1.332969482421875,-0.4007412791252136,-1.2065693140029907,0.2981446087360382
1757088060361015600,1.343015625,-0.3772655129432678,-1.203847050666809,0.22512365877628326
1757088060371062500,1.3530625,-0.3577703833580017,-1.4281888008117676,0.2733828127384186
1757088060381109500,1.363109619140625,-0.3072957694530487,-1.6384347677230835,0.3468618094921112
1757088060391156500,1.373156494140625,-0.2446528822183609,-1.7326725721359253,0.36664989590644836
1757088060401202400,1.383202392578125,-0.25008681416511536,-1.6605567932128906,0.3672957122325897
1757088060411249400,1.39324951171875,-0.33069297671318054,-1.6581910848617554,0.3627675473690033
1757088060421296000,1.403296142578125,-0.4159202575683594,-1.785131812095642,0.3013523817062378
1757088060431341800,1.413341796875,-0.32554879784584045,-1.8686820268630981,0.1587829887866974
1757088060441389000,1.42338916015625,-0.24228134751319885,-1.7143763303756714,-0.0647829920053482
1757088060451436000,1.43343603515625,-0.24777784943580627,-1.2647125720977783,-0.330066055059433
1757088060461483000,1.44348291015625,-0.2177344560623169,-0.7057209014892578,-0.5481869578361511
1757088060471529000,1.453529052734375,-0.21113674342632294,-0.2029411345720291,-0.5416291952133179
1757088060481576000,1.463575927734375,-0.23756062984466553,0.1883227676153183,-0.5042873620986938
1757088060491623000,1.473622802734375,-0.2205667346715927,0.49881407618522644,-0.5884369015693665
1757088060501668900,1.4836689453125,-0.14047428965568542,0.7086181640625,-0.8611578941345215
1757088060511715800,1.4937158203125,-0.2148774117231369,0.9549778699874878,-1.1479278802871704
1757088060521763000,1.50376318359375,-0.43384358286857605,1.1263315677642822,-1.2271134853363037
1757088060531810000,1.51381005859375,-0.5481472611427307,1.1298465728759766,-1.124139428138733
1757088060541856000,1.52385595703125,-0.517341136932373,0.9771271347999573,-0.829071044921875
1757088060551903000,1.533903076171875,-0.3265618681907654,0.7437870502471924,-0.6108639240264893
1757088060561950000,1.543949951171875,-0.02810380607843399,0.5282214879989624,-0.5399713516235352
1757088060571996000,1.553995849609375,0.4426541328430176,0.43150585889816284,-0.43532803654670715
1757088060582043000,1.56404296875,0.956308901309967,0.09712068736553192,-0.36189004778862
1757088060592089900,1.57408984375,1.350824236869812,-0.04520076885819435,-0.26095542311668396
1757088060602135800,1.5841357421875,1.558980941772461,-0.11023862659931183,-0.17555451393127441
1757088060612183000,1.59418310546875,1.7268215417861938,0.269137978553772,-0.04741065949201584
1757088060622230000,1.60422998046875,1.914636254310608,0.8641558289527893,0.12798751890659332
1757088060632277000,1.614277099609375,1.9163813591003418,1.3000282049179077,0.3099544048309326
1757088060642323000,1.624322998046875,1.8966362476348877,1.4596905708312988,0.29365772008895874
1757088060652370000,1.634369873046875,1.9572169780731201,1.2163466215133667,0.11449169367551804
1757088060662417000,1.6444169921875,2.1506409645080566,0.851996898651123,0.0084864292293787
1757088060672462800,1.654462890625,2.3313164710998535,0.727742075920105,-0.05022881552577019
1757088060682509800,1.664509765625,2.287693738937378,0.6244199275970459,-0.04404335841536522
1757088060692557000,1.67455712890625,2.4025096893310547,0.4582511782646179,0.01865198090672493
1757088060702603000,1.68460302734375,2.5335636138916016,0.19165705144405365,0.20002736151218414
1757088060712650000,1.69464990234375,2.4701430797576904,0.07336343079805374,0.4810161590576172
1757088060722697000,1.704697021484375,2.3273119926452637,-0.01601305417716503,0.6154815554618835
1757088060732744000,1.714743896484375,1.877636432647705,-0.1151561513543129,0.61940598487854
1757088060742790000,1.724789794921875,1.257481575012207,0.21530938148498535,0.5507174730300903
1757088060752836900,1.7348369140625,0.8314476609230042,0.4193599820137024,0.4085654020309448
1757088060762883800,1.7448837890625,0.5696977972984314,0.4560855031013489,0.2123199850320816
1757088060772929800,1.7549296875,0.3455861508846283,0.3623952269554138,0.08865663409233093
1757088060782977000,1.76497705078125,0.23713985085487366,0.3488730490207672,0.020560136064887047
1757088060793024000,1.77502392578125,0.19588294625282288,0.37773850560188293,-0.10878559947013855
1757088060803071000,1.785071044921875,0.12346015125513077,0.47435665130615234,-0.3145808279514313
1757088060813117000,1.795116943359375,0.13516581058502197,0.44603580236434937,-0.7225736379623413
1757088060823164000,1.805163818359375,0.5338090658187866,-0.5524604916572571,-0.9727011919021606
1757088060833211000,1.8152109375,0.8940995931625366,-0.7025203108787537,-0.7480156421661377
1757088060843256800,1.8252568359375,1.0165618658065796,-0.6119118332862854,-0.41775304079055786
1757088060853303800,1.8353037109375,1.1853886842727661,-0.6324357986450195,-0.14134301245212555
1757088060863351000,1.84535107421875,2.0415327548980713,-0.8102931380271912,0.06561869382858276
1757088060873397000,1.85539697265625,2.8040406703948975,-0.8605126142501831,0.32867562770843506
1757088060883444000,1.86544384765625,3.365041732788086,-0.6921398639678955,0.5562477707862854
1757088060893491000,1.875490966796875,3.7982637882232666,-0.5543806552886963,0.6669926643371582
1757088060903538000,1.885537841796875,4.123703479766846,0.09093336760997772,0.8244776725769043
1757088060913583900,1.895583984375,3.6585426330566406,0.7719939351081848,1.0055478811264038
1757088060923630800,1.905630859375,2.4118459224700928,0.922385036945343,1.1706476211547852
1757088060933677800,1.915677734375,1.572367787361145,0.31610551476478577,1.1548845767974854
1757088060943724000,1.92572412109375,2.0374724864959717,-1.3200788497924805,0.7277974486351013
1757088060953771000,1.93577099609375,2.0060794353485107,-1.8905566930770874,0.4817253649234772
1757088060963818000,1.94581787109375,2.258329153060913,-1.643784523010254,0.38123205304145813
1757088060973865000,1.955864990234375,2.3422555923461914,-1.5402650833129883,0.293081134557724
1757088060983911000,1.965910888671875,2.1968274116516113,-1.5817549228668213,0.1681929975748062
1757088060993958000,1.9759580078125,1.854716420173645,-1.5703502893447876,0.07250829041004181
1757088061004004900,1.9860048828125,1.429636836051941,-1.4188525676727295,-0.027304857969284058
1757088061014051000,1.996051025390625,0.98222815990448,-1.084657073020935,-0.11468557268381119
1757088061024097800,2.006097900390625,0.5324985384941101,-0.6571896076202393,-0.1440035104751587
1757088061034145000,2.01614501953125,0.1153995618224144,-0.16666755080223083,-0.0873599424958229
1757088061044191000,2.02619091796875,-0.2760384976863861,0.38393354415893555,0.06239067390561104
1757088061054238200,2.03623828125,-0.5579572916030884,0.8620399236679077,0.18568864464759827
1757088061064285000,2.046284912109375,-0.5809398293495178,1.144680380821228,0.08593461662530899
1757088061074332000,2.056331787109375,-0.2769343852996826,1.3420193195343018,-0.2445381134748459
1757088061084378000,2.066378173828125,0.20685145258903503,1.6040959358215332,-0.5053942203521729
1757088061094425000,2.076425048828125,0.5995385646820068,1.7047336101531982,-0.6073299050331116
1757088061104471800,2.086471923828125,0.8845151662826538,1.482620120048523,-0.744928777217865
1757088061114518000,2.09651806640625,1.083311915397644,1.0349071025848389,-0.8018836379051208
1757088061124565000,2.10656494140625,1.2509362697601318,0.6067532896995544,-0.6848281621932983
1757088061134612000,2.116612060546875,1.342741847038269,0.49870142340660095,-0.6026557683944702
1757088061144659000,2.126658935546875,1.4199146032333374,0.6322365403175354,-0.6274260878562927
1757088061154705200,2.136705078125,1.560253620147705,0.9257435202598572,-0.6205437183380127
1757088061164752100,2.146752197265625,1.732771635055542,0.9945710897445679,-0.6017479300498962
1757088061174798800,2.156798828125,1.8097434043884277,0.5371811389923096,-0.6624197959899902
1757088061184845000,2.166844970703125,1.7440695762634277,0.23033733665943146,-0.7472518086433411
1757088061194892000,2.17689208984375,1.7691224813461304,0.22247062623500824,-0.7481825947761536
1757088061204939000,2.18693896484375,1.794952154159546,0.2807392477989197,-0.6496850848197937
1757088061214986000,2.196986083984375,1.8059054613113403,0.17047639191150665,-0.5449565052986145
1757088061225032200,2.2070322265625,1.793954610824585,0.3708462417125702,-0.4863475263118744
1757088061235079200,2.2170791015625,1.595000982284546,0.383001446723938,-0.2933919429779053
1757088061245126000,2.2271259765625,1.6260685920715332,-0.042337868362665176,0.021329257637262344
1757088061255172000,2.237172119140625,1.9653455018997192,0.01902029663324356,0.6291297078132629
1757088061265219000,2.247218994140625,2.1825783252716064,0.3876236379146576,1.2782938480377197
1757088061275266000,2.25726611328125,2.2308199405670166,0.14621366560459137,1.4782540798187256
1757088061285312800,2.267312744140625,2.008190393447876,-0.1697743833065033,1.151847004890442
1757088061295359000,2.27735888671875,1.7298136949539185,-0.4788707196712494,0.5147765278816223
1757088061305406200,2.28740625,1.787979006767273,-0.7866666316986084,0.058394335210323334
1757088061315453000,2.297452880859375,1.6563935279846191,-0.8923957347869873,-0.19799590110778809
1757088061325499100,2.3074990234375,1.623920202255249,-0.8252978920936584,-0.4309237003326416
1757088061335546000,2.317546142578125,1.919419288635254,-0.3650890290737152,-0.4256274700164795
1757088061345593000,2.327593017578125,2.090592861175537,0.10815789550542831,-0.07208910584449768
1757088061355639800,2.337639892578125,2.212620496749878,0.5373827815055847,0.28376248478889465
1757088061365686000,2.34768603515625,2.533423900604248,1.1422744989395142,0.4007921516895294
1757088061375733000,2.35773291015625,2.4806034564971924,1.6827220916748047,0.5835675597190857
1757088061385780200,2.3677802734375,2.2966582775115967,1.944425344467163,0.6901997327804565
1757088061395827000,2.377826904296875,2.202260732650757,1.7707542181015015,0.44191721081733704
1757088061405873200,2.387873046875,2.2278549671173096,1.1343090534210205,-0.038849927484989166
1757088061415920000,2.397920166015625,2.123030185699463,-0.00566853815689683,-0.36690396070480347
1757088061425967000,2.407967041015625,1.6825939416885376,-1.1140527725219727,-0.35028424859046936
1757088061436013300,2.418013427734375,0.7997496724128723,-1.2704428434371948,-0.06956123560667038
1757088061446060300,2.428060302734375,0.03349590674042702,-0.7448190450668335,0.19119100272655487
1757088061456107300,2.438107177734375,-0.42000526189804077,-0.2274549901485443,0.3666762709617615
1757088061466154000,2.448154052734375,-0.5945126414299011,-0.006757771130651236,0.42477312684059143
1757088061476200200,2.4582001953125,-0.639957070350647,0.09461279213428497,0.33142027258872986
1757088061486247200,2.4682470703125,-0.6391903758049011,0.07111865282058716,0.10738851130008698
1757088061496294100,2.478294189453125,-0.7877814173698425,0.03443413972854614,-0.14244742691516876
1757088061506341000,2.488341064453125,-0.8633416891098022,0.09118583798408508,-0.3176450729370117
1757088061516387300,2.49838720703125,-0.2272222340106964,0.417374849319458,-0.36492684483528137
1757088061526434300,2.508434326171875,0.1417827010154724,0.4618930518627167,-0.21183475852012634
1757088061536481000,2.51848095703125,0.14186392724514008,0.33017924427986145,-0.04108112305402756
1757088061546528000,2.528528076171875,0.03921584412455559,0.24306564033031464,0.054968710988759995
1757088061556574200,2.53857421875,-0.019902335479855537,0.15053890645503998,0.10546703636646271
1757088061566621200,2.54862109375,-0.008310128003358841,0.01392700057476759,0.1464861035346985
1757088061576668200,2.558668212890625,0.014427408576011658,-0.11037471145391464,0.1518893986940384
1757088061586714400,2.56871435546875,0.047016777098178864,-0.16670510172843933,0.1114807203412056
1757088061596761300,2.57876123046875,0.08076781779527664,-0.252472460269928,0.060509148985147476
1757088061606808000,2.58880810546875,0.10148508101701736,-0.37327876687049866,0.02900475263595581
1757088061616855000,2.59885498046875,0.15149950981140137,-0.6254319548606873,0.0708741694688797
1757088061626901200,2.6089013671875,0.26091867685317993,-0.9354667663574219,0.1541818529367447
1757088061636948200,2.6189482421875,0.3625371754169464,-1.1336512565612793,0.2144758105278015
1757088061646995000,2.628994873046875,0.39316168427467346,-1.1750489473342896,0.23986372351646423
1757088061657042200,2.639042236328125,0.38814693689346313,-1.0045757293701172,0.19045276939868927
1757088061667088400,2.64908837890625,0.28311318159103394,-0.5960655212402344,0.04223187640309334
1757088061677135000,2.659135009765625,0.1421225219964981,-0.10540072619915009,-0.11933758109807968
1757088061687182000,2.66918212890625,0.11452125012874603,0.1929638683795929,-0.17141969501972198
1757088061697229000,2.67922900390625,0.08456122130155563,0.37026116251945496,-0.15762265026569366
1757088061707275300,2.689275146484375,-0.02484223246574402,0.4715648591518402,-0.11251615732908249
1757088061717322000,2.699322021484375,-0.06910982728004456,0.4195501208305359,-0.00817830115556717
1757088061727369000,2.709368896484375,-0.040097884833812714,0.28763338923454285,0.09176480770111084
1757088061737416200,2.719416259765625,0.007929828017950058,0.14960306882858276,0.12577657401561737
1757088061747462400,2.72946240234375,0.04002358391880989,0.030899858102202415,0.09040579944849014
1757088061757509000,2.739509033203125,0.04615125060081482,-0.05543556064367294,0.027644144371151924
1757088061767556000,2.74955615234375,0.04851320758461952,-0.10611338913440704,-0.026585271582007408
1757088061777602300,2.759602294921875,0.05194202810525894,-0.12565593421459198,-0.05162191390991211
1757088061787649300,2.769649169921875,0.052986253052949905,-0.12247291952371597,-0.045768022537231445
1757088061797696000,2.779696044921875,0.044869471341371536,-0.12228383123874664,-0.031434886157512665
1757088061807743000,2.789742919921875,0.03940093517303467,-0.11842305213212967,-0.021522069349884987
1757088061817789200,2.7997890625,0.03660062327980995,-0.10703324526548386,-0.01708737388253212
1757088061827836200,2.809836181640625,0.0386323481798172,-0.10176897048950195,-0.020071180537343025
1757088061837883100,2.819883056640625,0.037575870752334595,-0.10351627320051193,-0.018131865188479424
1757088061847930000,2.82993017578125,0.027943484485149384,-0.10881330072879791,-0.01263723149895668
1757088061857976300,2.839976318359375,0.021627264097332954,-0.11618199944496155,0.00018242653459310532
1757088061868023000,2.85002294921875,0.02418283373117447,-0.12833693623542786,0.017544105648994446
1757088061878070000,2.860070068359375,0.017736386507749557,-0.13462784886360168,0.028563201427459717
1757088061888116200,2.8701162109375,0.01104625966399908,-0.1330278217792511,0.030972562730312347
1757088061898163200,2.8801630859375,0.005620867945253849,-0.1346358358860016,0.029340045526623726
1757088061908210200,2.890210205078125,0.0024916534312069416,-0.12503914535045624,0.026334667578339577
1757088061918257200,2.900257080078125,0.01025902945548296,-0.1124969869852066,0.015215171501040459
1757088061928303400,2.910303466796875,0.014766962267458439,-0.11819508671760559,0.0015299860388040543
1757088061938350000,2.92035009765625,0.015977367758750916,-0.13678714632987976,-0.006499710958451033
1757088061948397000,2.93039697265625,0.018624018877744675,-0.13649685680866241,-0.0056741307489573956
1757088061958444000,2.940444091796875,0.023179620504379272,-0.11271616071462631,-0.0014351775171235204
1757088061968490200,2.950490234375,0.030009297654032707,-0.07243026047945023,0.00010466222738614306
1757088061978537000,2.960536865234375,0.03274356573820114,-0.03195313736796379,-0.0008277104352600873
1757088061988584200,2.970584228515625,0.035710860043764114,-0.00010892329009948298,-0.006163087207823992
1757088061998630400,2.98063037109375,0.03549700602889061,0.018811505287885666,-0.007640342693775892
1757088062008677000,2.990677001953125,0.03775323927402496,0.03050384670495987,-0.006867227144539356
1757088062018724000,3.00072412109375,0.038605447858572006,0.043899811804294586,-0.0037052559200674295
1757088062028771000,3.01077099609375,0.04031200334429741,0.058270230889320374,0.00046046054922044277
1757088062038817300,3.0208173828125,0.040876857936382294,0.06619632989168167,0.003591272747144103
1757088062048864000,3.030864013671875,0.03995673730969429,0.07264091074466705,0.00041092574247159064
1757088062058911000,3.040910888671875,0.04127154126763344,0.07587479054927826,-0.005548163317143917
1757088062068958200,3.050958251953125,0.03875884786248207,0.07751103490591049,-0.007208644412457943
1757088062079004200,3.061004150390625,0.03527330234646797,0.07536586374044418,-0.009794041514396667
1757088062089051100,3.071051025390625,0.03266526758670807,0.06987122446298599,-0.009180715307593346
1757088062099098000,3.08109814453125,0.029500633478164673,0.06559792160987854,-0.006678142584860325
1757088062109144300,3.091144287109375,0.029512351378798485,0.06444689631462097,-0.00088949577184394
1757088062119191300,3.10119140625,0.030231138691306114,0.059671852737665176,0.00615323381498456
1757088062129238000,3.111238037109375,0.02714240550994873,0.05305682495236397,0.006607835181057453
1757088062139285000,3.121284912109375,0.024230238050222397,0.045335255563259125,0.006943926215171814
1757088062149331200,3.131331298828125,0.02388589084148407,0.03159014880657196,0.0038224351592361927
1757088062159378200,3.141378173828125,0.022948192432522774,0.011798602528870106,-0.002426938619464636
1757088062169425200,3.151425048828125,0.022528478875756264,-0.00860387459397316,-0.007381483446806669
1757088062179472100,3.16147216796875,0.019240805879235268,-0.02726304531097412,-0.007154848426580429
1757088062189518300,3.171518310546875,0.01866130158305168,-0.036561474204063416,-0.004702343605458736
1757088062199565000,3.18156494140625,0.017895109951496124,-0.041123732924461365,-0.004068511072546244
1757088062209612000,3.191612060546875,0.025412149727344513,-0.047994423657655716,-0.00583605095744133
1757088062219658200,3.201658203125,0.03295954689383507,-0.05125439912080765,-0.010055030696094036
1757088062229705200,3.211705322265625,0.039810530841350555,-0.050822433084249496,-0.004230963997542858
1757088062239752000,3.221751953125,0.0453706756234169,-0.046170689165592194,-0.001455151243135333
1757088062249799200,3.231799072265625,0.042935483157634735,-0.03976179286837578,0.002945456188172102
1757088062259845400,3.241845458984375,0.044497959315776825,-0.03127296641469002,0.003397394670173526
1757088062269892000,3.25189208984375,0.044125914573669434,-0.026755714789032936,0.0032325449865311384
1757088062279939000,3.26193896484375,0.04349261522293091,-0.028071049600839615,0.004232561681419611
1757088062289985300,3.2719853515625,0.0385708287358284,-0.0353768989443779,0.0031374699901789427
1757088062300032300,3.2820322265625,0.03555399924516678,-0.03918761759996414,-0.0027515781112015247
1757088062310079000,3.292078857421875,0.03326661139726639,-0.039194006472826004,-0.012495552189648151
1757088062320126000,3.3021259765625,0.032755281776189804,-0.042818304151296616,-0.025485651567578316
1757088062330172200,3.312172119140625,0.03093847446143627,-0.04374987632036209,-0.03338751941919327
1757088062340219100,3.32221923828125,0.02737170271575451,-0.04969192296266556,-0.030358437448740005
1757088062350266000,3.33226611328125,0.02551308274269104,-0.053822483867406845,-0.02468084543943405
1757088062360312300,3.342312255859375,0.022417690604925156,-0.05512929707765579,-0.015052186325192451
1757088062370359300,3.352359375,0.016625314950942993,-0.053344182670116425,-0.005486111622303724
1757088062380406000,3.362406005859375,0.012465192005038261,-0.04934757575392723,-0.0007099987124092877
1757088062390453000,3.372452880859375,0.0078584561124444,-0.04880721867084503,-0.001883387565612793
1757088062400499200,3.382499267578125,0.0033955303952097893,-0.04439782351255417,0.002716158051043749
1757088062410546200,3.392546142578125,0.003756921272724867,-0.04392112046480179,0.009315737523138523
1757088062420593200,3.40259326171875,0.010516290552914143,-0.043711792677640915,0.006433930713683367
1757088062430639900,3.412639892578125,0.014947524294257164,-0.043053459376096725,0.003184075467288494
1757088062440686000,3.42268603515625,0.017478592693805695,-0.04375200718641281,-0.007907457649707794
1757088062450733000,3.432733154296875,0.023664848878979683,-0.04947247728705406,-0.023010510951280594
1757088062460780000,3.442780029296875,0.027476897463202477,-0.054915979504585266,-0.0356658510863781
1757088062470826200,3.452826171875,0.027883030474185944,-0.05818847194314003,-0.04304174333810806
1757088062480873200,3.462873291015625,0.02828436903655529,-0.06173207238316536,-0.04272322729229927
1757088062490920200,3.472920166015625,0.022782543674111366,-0.064863421022892,-0.03789891302585602
1757088062500967000,3.482966796875,0.0065407236106693745,-0.06962861120700836,-0.03074805811047554
1757088062511013000,3.49301318359375,-0.0037228327710181475,-0.07791344076395035,-0.028125910088419914
1757088062521060000,3.50306005859375,-0.010496050119400024,-0.0882912427186966,-0.019157981500029564
1757088062531107000,3.513107177734375,-0.016045279800891876,-0.09414860606193542,-0.006039782892912626
1757088062541153000,3.523153076171875,-0.020476778969168663,-0.09334166347980499,0.011855593882501125
1757088062551200300,3.5332001953125,-0.023784691467881203,-0.08630666136741638,0.025196166709065437
1757088062561247200,3.543247314453125,-0.024750353768467903,-0.07581433653831482,0.03789598122239113
1757088062571294000,3.5532939453125,-0.02586488611996174,-0.06702377647161484,0.04279486835002899
1757088062581340200,3.563340087890625,-0.02509043924510479,-0.06823471188545227,0.035047199577093124
1757088062591387100,3.57338720703125,-0.02106453850865364,-0.08741533011198044,0.015529424883425236
1757088062601434000,3.58343408203125,-0.007400125730782747,-0.11350179463624954,-0.008191084489226341
1757088062611480000,3.59347998046875,0.005885053426027298,-0.14531990885734558,-0.030357373878359795
1757088062621527000,3.603527099609375,0.018488729372620583,-0.1778525561094284,-0.045454300940036774
1757088062631574300,3.61357421875,0.030125943943858147,-0.19682198762893677,-0.054725032299757004
1757088062641621000,3.62362109375,0.03644935414195061,-0.19160404801368713,-0.0635659247636795
1757088062651667200,3.633667236328125,0.0389695018529892,-0.16720975935459137,-0.06501681357622147
1757088062661714200,3.643714111328125,0.03334437310695648,-0.13401879370212555,-0.06403517723083496
1757088062671761200,3.65376123046875,0.027901139110326767,-0.10359244048595428,-0.05594955012202263
1757088062681808000,3.663807861328125,0.017470870167016983,-0.07375571131706238,-0.035956669598817825
1757088062691854000,3.67385400390625,0.011434548534452915,-0.0395205095410347,-0.012251872569322586
1757088062701901000,3.683901123046875,0.004303401801735163,-0.004171042703092098,0.005313006229698658
1757088062711948000,3.693947998046875,0.0011440940434113145,0.023609189316630363,0.010977549478411674
1757088062721994200,3.703994140625,0.0014405038673430681,0.0359867624938488,0.006699447985738516
1757088062732041200,3.714041259765625,0.0039007319137454033,0.02917972393333912,-0.005776130128651857
1757088062742088200,3.724088134765625,0.010292851366102695,0.016324911266565323,-0.01619361713528633
1757088062752135000,3.734135009765625,0.020065320655703545,0.00700944010168314,-0.024987641721963882
1757088062762181000,3.74418115234375,0.024699220433831215,0.0004756405542138964,-0.029148031026124954
1757088062772228000,3.75422802734375,0.03413666412234306,-0.0024860608391463757,-0.030975492671132088
1757088062782275000,3.764275146484375,0.035404596477746964,0.0010743191232904792,-0.028609806671738625
1757088062792321000,3.774321044921875,0.0323273129761219,0.010292585007846355,-0.02834162674844265
1757088062802368000,3.784367919921875,0.028011128306388855,0.023755131289362907,-0.02400280348956585
1757088062812415200,3.794415283203125,0.022550316527485847,0.03600620478391647,-0.019753199070692062
1757088062822462200,3.804462158203125,0.018973691388964653,0.04446094110608101,-0.013517939485609531
1757088062832508200,3.814508056640625,0.01942536234855652,0.05000138282775879,-0.012080897577106953
1757088062842555100,3.82455517578125,0.020442690700292587,0.056415338069200516,-0.014512363821268082
1757088062852602000,3.83460205078125,0.022121546790003777,0.06671697646379471,-0.01835423894226551
1757088062862648000,3.84464794921875,0.024089889600872993,0.08139978349208832,-0.022836606949567795
1757088062872695000,3.854695068359375,0.022306904196739197,0.09128303825855255,-0.03211798891425133
1757088062882742000,3.864741943359375,0.02996881864964962,0.09204550087451935,-0.04833317920565605
1757088062892789200,3.874789306640625,0.04195304214954376,0.08903320133686066,-0.06918226927518845
1757088062902835200,3.884835205078125,0.05112656578421593,0.08338996767997742,-0.08557721972465515
1757088062912882200,3.894882080078125,0.06546609103679657,0.07542897760868073,-0.08838099241256714
1757088062922929200,3.90492919921875,0.0762428417801857,0.07493123412132263,-0.07917178422212601
1757088062932975000,3.91497509765625,0.08028046041727066,0.07252267003059387,-0.0657276138663292
1757088062943022000,3.92502197265625,0.08143147826194763,0.0646279975771904,-0.05191672593355179
1757088062953069000,3.935069091796875,0.08044184744358063,0.05995521321892738,-0.043720316141843796
1757088062963116000,3.945115966796875,0.07711555808782578,0.059110723435878754,-0.038240861147642136
1757088062973162000,3.955161865234375,0.07089494913816452,0.057248108088970184,-0.03226925805211067
1757088062983209200,3.965209228515625,0.060501426458358765,0.052320729941129684,-0.024596955627202988
1757088062993256200,3.975256103515625,0.04948153346776962,0.050397127866744995,-0.018094846978783607
1757088063003302100,3.98530224609375,0.04658055305480957,0.061283864080905914,-0.019754262641072273
1757088063013349000,3.99534912109375,0.05679537355899811,0.062487080693244934,-0.03303731232881546
1757088063023396000,4.00539599609375,0.06797105818986893,0.047857802361249924,-0.05155427008867264
1757088063033443000,4.015443115234375,0.08256598562002182,0.029504895210266113,-0.06716731935739517
1757088063043489000,4.025489013671875,0.09236321598291397,0.01817048154771328,-0.07303186506032944
1757088063053536000,4.035535888671875,0.10323211550712585,0.02267628349363804,-0.06915882974863052
1757088063063583200,4.045583251953125,0.11075527966022491,0.03299949690699577,-0.06235072761774063
1757088063073629200,4.055629150390625,0.11530688405036926,0.04126248508691788,-0.054976966232061386
1757088063083676200,4.06567626953125,0.11012144386768341,0.04565989598631859,-0.048839177936315536
1757088063093723100,4.07572314453125,0.10167176276445389,0.04394641891121864,-0.04292509704828262
1757088063103770000,4.08577001953125,0.08284588158130646,0.03942783176898956,-0.039934366941452026
1757088063113816000,4.095816162109375,0.06834337115287781,0.046431414783000946,-0.0354035310447216
1757088063123863000,4.105863037109375,0.05667632818222046,0.06119198352098465,-0.03262105956673622
1757088063133910000,4.115909912109375,0.04579971358180046,0.0767376571893692,-0.030948594212532043
1757088063143956000,4.1259560546875,0.03423759713768959,0.09828129410743713,-0.04048058018088341
1757088063154003200,4.136003173828125,0.021705295890569687,0.12378852069377899,-0.05414392799139023
1757088063164050200,4.14605029296875,0.00803129468113184,0.1536119282245636,-0.06951303035020828
1757088063174097200,4.15609716796875,-0.009354885667562485,0.1829833984375,-0.0902089849114418
1757088063184143000,4.16614306640625,-0.032772328704595566,0.2094448357820511,-0.11720199137926102
1757088063194190000,4.176190185546875,-0.049499910324811935,0.228653684258461,-0.14688877761363983
1757088063204237000,4.186237060546875,-0.07279591262340546,0.25005191564559937,-0.17070303857326508
1757088063214284000,4.196283935546875,-0.09939609467983246,0.28180983662605286,-0.1813357025384903
1757088063224330000,4.206330078125,-0.10792113840579987,0.3227705955505371,-0.1913348138332367
1757088063234377200,4.216377197265625,-0.09916040301322937,0.3687855005264282,-0.20565462112426758
1757088063244424200,4.226424072265625,-0.08131642639636993,0.40811559557914734,-0.23122337460517883
1757088063254470100,4.23647021484375,-0.0660003200173378,0.4347916841506958,-0.26887115836143494
1757088063264517000,4.24651708984375,-0.0511460080742836,0.43935099244117737,-0.3018091320991516
1757088063274564000,4.256564208984375,-0.03670608252286911,0.4310421943664551,-0.330733984708786
1757088063284611000,4.266611083984375,-0.020744159817695618,0.41424939036369324,-0.35885483026504517
1757088063294657000,4.276656982421875,-0.005458415020257235,0.40593311190605164,-0.3826379179954529
1757088063304704000,4.2867041015625,-0.0023315974976867437,0.40672382712364197,-0.40236184000968933
1757088063314751200,4.296751220703125,-0.010351973585784435,0.4227760136127472,-0.42192086577415466
1757088063324797200,4.306797119140625,-0.033912159502506256,0.4143119752407074,-0.4251345098018646
1757088063334844200,4.31684423828125,-0.04110589250922203,0.3956213593482971,-0.4246807098388672
1757088063344891100,4.32689111328125,-0.02972753532230854,0.3738604187965393,-0.43147391080856323
1757088063354938000,4.336938232421875,-0.02839888446033001,0.3582894504070282,-0.4504268169403076
1757088063364984000,4.346984130859375,-0.06733829528093338,0.37525272369384766,-0.4770911931991577
1757088063375031000,4.357031005859375,-0.11467438191175461,0.44662755727767944,-0.5087053179740906
1757088063385078000,4.367078125,-0.16103442013263702,0.5277255773544312,-0.5295083522796631
1757088063395124000,4.3771240234375,-0.22411459684371948,0.514347493648529,-0.5238709449768066
1757088063405171200,4.387171142578125,-0.2885247468948364,0.4768794775009155,-0.5472503304481506
1757088063415218200,4.39721826171875,-0.32406941056251526,0.42952340841293335,-0.6042140126228333
1757088063425265200,4.40726513671875,-0.33082452416419983,0.33822280168533325,-0.6662584543228149
1757088063435311000,4.41731103515625,-0.33078911900520325,0.23923176527023315,-0.7071664929389954
1757088063445358000,4.427358154296875,-0.33644166588783264,0.15878751873970032,-0.7167291045188904
1757088063455405000,4.437405029296875,-0.33113372325897217,0.08998475223779678,-0.7294917702674866
1757088063465451000,4.447450927734375,-0.32836028933525085,0.029578398913145065,-0.7507448196411133
1757088063475498000,4.457498046875,-0.33579957485198975,-0.03774285316467285,-0.7492260336875916
1757088063485545200,4.467545166015625,-0.3582604229450226,-0.09255949407815933,-0.7291186451911926
1757088063495592200,4.47759228515625,-0.3870161473751068,-0.09646022319793701,-0.6948666572570801
1757088063505638100,4.48763818359375,-0.4147138297557831,-0.06362637877464294,-0.6440050601959229
1757088063515685000,4.49768505859375,-0.45789459347724915,0.022819561883807182,-0.5679912567138672
1757088063525732000,4.507732177734375,-0.536624550819397,0.1381741166114807,-0.4932344853878021
1757088063535778000,4.517778076171875,-0.6227464079856873,0.21174554526805878,-0.4585595726966858
1757088063545825000,4.527824951171875,-0.7078003287315369,0.240739643573761,-0.4720146656036377
1757088063555872000,4.5378720703125,-0.8100742101669312,0.27407416701316833,-0.4987504184246063
1757088063565919200,4.547919189453125,-0.9229192733764648,0.3349686563014984,-0.5072981119155884
1757088063575965000,4.55796484375,-1.032366394996643,0.39230066537857056,-0.4961799383163452
1757088063586012200,4.56801220703125,-1.1426301002502441,0.3448229134082794,-0.5219222903251648
1757088063596059100,4.57805908203125,-1.266086220741272,0.14624722301959991,-0.6064188480377197
1757088063606106000,4.588106201171875,-1.4010858535766602,-0.01991804875433445,-0.701445996761322
1757088063616152000,4.598152099609375,-1.5214418172836304,-0.002234658459201455,-0.7536023855209351
1757088063626199000,4.608198974609375,-1.620451807975769,0.053090646862983704,-0.8606351017951965
1757088063636246000,4.61824609375,-1.6894114017486572,0.20859076082706451,-0.909389078617096
1757088063646292000,4.6282919921875,-1.7543022632598877,0.21535785496234894,-0.9525154829025269
1757088063656339000,4.6383388671875,-1.793228268623352,-0.00824807584285736,-1.0760619640350342
1757088063666386200,4.64838623046875,-1.754723310470581,-0.21862448751926422,-1.1869457960128784
1757088063676433200,4.65843310546875,-1.7184497117996216,-0.35670697689056396,-1.2753322124481201
1757088063686479000,4.66847900390625,-1.7277196645736694,-0.45308759808540344,-1.3790868520736694
1757088063696526000,4.678526123046875,-1.6887189149856567,-0.5278145670890808,-1.45939040184021
1757088063706573000,4.688572998046875,-1.6587623357772827,-0.5607714653015137,-1.482773780822754
1757088063716620000,4.6986201171875,-1.6071252822875977,-0.6824179887771606,-1.579979658126831
1757088063726666000,4.708666015625,-1.570392370223999,-0.7144190669059753,-1.638627052307129
1757088063736713000,4.718712890625,-1.53708815574646,-0.6844603419303894,-1.6517934799194336
1757088063746760200,4.72876025390625,-1.4813593626022339,-0.8428582549095154,-1.6601579189300537
1757088063756806100,4.73880615234375,-1.4502675533294678,-1.0419553518295288,-1.6186765432357788
1757088063766853000,4.74885302734375,-1.418053388595581,-1.0471965074539185,-1.60262930393219
1757088063776900000,4.758900146484375,-1.3314186334609985,-1.069042682647705,-1.6271703243255615
1757088063786947000,4.768947021484375,-1.2157673835754395,-1.171919822692871,-1.605897068977356
1757088063796993000,4.778992919921875,-1.1125880479812622,-1.265626311302185,-1.5374093055725098
1757088063807040000,4.7890400390625,-1.0006356239318848,-1.2493325471878052,-1.4433467388153076
1757088063817087000,4.7990869140625,-0.9084963798522949,-1.147819995880127,-1.358730673789978
1757088063827134200,4.80913427734375,-0.8235253095626831,-1.062692403793335,-1.2751617431640625
1757088063837180200,4.81918017578125,-0.7482867240905762,-1.0413037538528442,-1.1689354181289673
1757088063847227100,4.82922705078125,-0.6821727156639099,-1.0355502367019653,-1.0473346710205078
1757088063857274000,4.839274169921875,-0.6035447120666504,-0.9914477467536926,-0.9082569479942322
1757088063867321000,4.849321044921875,-0.5332047939300537,-0.8687937259674072,-0.7679581642150879
1757088063877367000,4.859366943359375,-0.4792613983154297,-0.7607511281967163,-0.6397088766098022
1757088063887414000,4.8694140625,-0.4201461374759674,-0.7013565301895142,-0.49856558442115784
1757088063897461000,4.8794609375,-0.33742302656173706,-0.6315689086914062,-0.34358638525009155
1757088063907507000,4.8895068359375,-0.26024356484413147,-0.5260637998580933,-0.19467228651046753
1757088063917554200,4.89955419921875,-0.20224471390247345,-0.3933190703392029,-0.05281154811382294
1757088063927601200,4.90960107421875,-0.15388543903827667,-0.24095508456230164,0.07430539280176163
1757088063937648000,4.919648193359375,-0.11879029870033264,-0.12230248004198074,0.1734572798013687
1757088063947694000,4.929694091796875,-0.08189593255519867,-0.029394906014204025,0.24580630660057068
1757088063957741000,4.939740966796875,-0.048715606331825256,0.039869919419288635,0.3072696626186371
1757088063967788000,4.9497880859375,-0.014844725839793682,0.07903783023357391,0.3627893924713135
1757088063977834000,4.959833984375,0.019267437979578972,0.10384197533130646,0.39660248160362244
1757088063987881000,4.969880859375,0.05241340771317482,0.12083587050437927,0.4295295178890228
1757088063997928200,4.97992822265625,0.09366098046302795,0.1300850361585617,0.4610147476196289
1757088064007975200,4.98997509765625,0.14199841022491455,0.11699266731739044,0.4916549623012543
1757088064018021000,5.000021240234375,0.18978963792324066,0.1203588992357254,0.5138595700263977
1757088064028068000,5.010068115234375,0.21594028174877167,0.168974369764328,0.536846935749054
1757088064038115000,5.020114990234375,0.23407454788684845,0.25806722044944763,0.5899093747138977
1757088064048162000,5.030162109375,0.26646631956100464,0.31892499327659607,0.5924785137176514
1757088064058208000,5.0402080078125,0.28256484866142273,0.2149389386177063,0.510468602180481
1757088064068255000,5.0502548828125,0.23880085349082947,0.0635286420583725,0.344521164894104
1757088064078302200,5.06030224609375,0.10376660525798798,-0.08638016134500504,0.1705341935157776
1757088064088348200,5.07034814453125,-0.0437014065682888,-0.2753538191318512,0.0018226674292236567
1757088064098395100,5.08039501953125,-0.09150674939155579,-0.36002635955810547,-0.08260193467140198
1757088064108442000,5.090442138671875,-0.10119692236185074,-0.36525601148605347,-0.024775387719273567
1757088064118489000,5.100489013671875,-0.025524267926812172,-0.43843328952789307,0.07275249809026718
1757088064128535000,5.11053515625,0.15021027624607086,-0.471650630235672,0.20362450182437897
1757088064138582000,5.12058203125,0.35162222385406494,-0.3776485025882721,0.4099254608154297
1757088064148629000,5.13062890625,0.5457368493080139,-0.25840118527412415,0.6676853895187378
1757088064158675000,5.140675048828125,0.6896663308143616,-0.028860410675406456,0.8710374236106873
1757088064168722200,5.15072216796875,0.7350492477416992,0.25574150681495667,1.005695104598999
1757088064178769200,5.16076904296875,0.741646409034729,0.45304977893829346,1.1381328105926514
1757088064188816100,5.170816162109375,0.7288704514503479,0.48561811447143555,1.2575992345809937
1757088064198862000,5.180862060546875,0.7188140749931335,0.4098130762577057,1.3068863153457642
1757088064208909000,5.190908935546875,0.7057209014892578,0.3507697284221649,1.2881108522415161
1757088064218956000,5.2009560546875,0.7144036293029785,0.39950186014175415,1.249733567237854
1757088064229003000,5.2110029296875,0.7506154179573059,0.40078604221343994,1.255112648010254
1757088064239049000,5.221049072265625,0.7964468002319336,0.43000757694244385,1.279475212097168
1757088064249096200,5.23109619140625,0.843783438205719,0.5029797554016113,1.2969884872436523
1757088064259143200,5.24114306640625,0.8919991850852966,0.626497209072113,1.3639168739318848
1757088064269189000,5.251189208984375,0.9491607546806335,0.7816374897956848,1.4181079864501953
1757088064279236000,5.261236083984375,0.9943929314613342,0.9228881001472473,1.433074951171875
1757088064289283000,5.271282958984375,1.026540756225586,1.0403531789779663,1.4175792932510376
1757088064299330000,5.281330078125,1.0507105588912964,1.047598123550415,1.390916347503662
1757088064309376000,5.2913759765625,1.07949960231781,1.0578973293304443,1.368290901184082
1757088064319423000,5.301423095703125,1.1405853033065796,0.9947910308837891,1.357824683189392
1757088064329470200,5.31147021484375,1.234342098236084,0.8759757280349731,1.3024442195892334
1757088064339516200,5.32151611328125,1.3464374542236328,0.6471393704414368,1.166137456893921
1757088064349563100,5.331563232421875,1.4438508749008179,0.3237258791923523,1.01579749584198
1757088064359610000,5.341610107421875,1.4844619035720825,0.035343341529369354,0.9336448907852173
1757088064369657000,5.351656982421875,1.4828872680664062,-0.16589708626270294,0.869858980178833
1757088064379703000,5.361703125,1.4344536066055298,-0.2290952354669571,0.8198898434638977
1757088064389750000,5.37175,1.3593215942382812,-0.2373848557472229,0.8012604713439941
1757088064399797000,5.381796875,1.3125746250152588,-0.3098582625389099,0.7741087675094604
1757088064409843000,5.391843017578125,1.2877107858657837,-0.524819016456604,0.67469722032547
1757088064419890000,5.401889892578125,1.2671482563018799,-0.737238347530365,0.5541156530380249
1757088064429938000,5.41193798828125,1.220213770866394,-0.8158828020095825,0.5337209105491638
1757088064439985000,5.42198486328125,1.1487106084823608,-0.8518989086151123,0.6104772090911865
1757088064450030800,5.43203076171875,1.0674433708190918,-0.9369487762451172,0.7170169949531555
1757088064460077800,5.442077880859375,0.9989040493965149,-0.8550504446029663,0.8201633095741272
1757088064470124800,5.452124755859375,0.8947787284851074,-0.7271814346313477,0.9424929618835449
1757088064480170800,5.462170654296875,0.7348737120628357,-0.5850189924240112,1.1260745525360107
1757088064490217700,5.4722177734375,0.6225860714912415,-0.5140990018844604,1.2772417068481445
1757088064500265000,5.482264892578125,0.5316569805145264,-0.46291863918304443,1.3370389938354492
1757088064510311000,5.492310791015625,0.443932443857193,-0.43728864192962646,1.3291480541229248
1757088064520358000,5.50235791015625,0.4192156493663788,-0.5159105062484741,1.2193703651428223
1757088064530404900,5.51240478515625,0.3931318521499634,-0.6715309619903564,1.1350706815719604
1757088064540451800,5.522451904296875,0.34445005655288696,-0.7386308908462524,1.0633184909820557
1757088064550497800,5.532497802734375,0.2410176694393158,-0.62538743019104,0.9735882878303528
1757088064560544800,5.542544677734375,0.12154827266931534,-0.4044761061668396,0.9367216229438782
1757088064570591700,5.552591796875,-0.05164135619997978,-0.1260673850774765,1.0252113342285156
1757088064580637700,5.5626376953125,-0.13112126290798187,0.23615367710590363,1.2300528287887573
1757088064590685000,5.572684814453125,-0.08901029825210571,0.2829422354698181,1.23703134059906
1757088064600732000,5.58273193359375,-0.0062970444560050964,0.09497365355491638,1.0579558610916138
1757088064610779000,5.59277880859375,0.10169573128223419,-0.0866352915763855,0.8372786641120911
1757088064620824800,5.602824951171875,0.19295187294483185,-0.11299153417348862,0.6540206670761108
1757088064630871800,5.612871826171875,0.23115891218185425,-0.10897282510995865,0.543264627456665
1757088064640918800,5.622918701171875,0.23145106434822083,-0.08902068436145782,0.4763058125972748
1757088064650964700,5.63296484375,0.21695680916309357,0.037340182811021805,0.4053238034248352
1757088064661011700,5.64301171875,0.2057877779006958,0.19390395283699036,0.33782702684402466
1757088064671059000,5.653058837890625,0.19039177894592285,0.3335878252983093,0.30553939938545227
1757088064681105000,5.66310498046875,0.20329107344150543,0.46736451983451843,0.3064664602279663
1757088064691152000,5.67315185546875,0.23391741514205933,0.5214823484420776,0.27487683296203613
1757088064701198800,5.68319873046875,0.23308944702148438,0.5393455028533936,0.20930421352386475
1757088064711245800,5.693245849609375,0.20842218399047852,0.5819254517555237,0.14618916809558868
1757088064721291800,5.703291748046875,0.18766604363918304,0.6679223775863647,0.12971991300582886
1757088064731338800,5.7133388671875,0.20473051071166992,0.7703643441200256,0.19028978049755096
1757088064741385700,5.7233857421875,0.26674142479896545,0.8385926485061646,0.19139152765274048
1757088064751431700,5.733431640625,0.3184879720211029,0.9168419241905212,0.14690609276294708
1757088064761479000,5.74347900390625,0.31132006645202637,0.9097941517829895,0.10069198906421661
1757088064771526000,5.75352587890625,0.2909570038318634,0.8404734134674072,0.10409311205148697
1757088064781571800,5.76357177734375,0.31039702892303467,0.7481607794761658,0.15762610733509064
1757088064791618800,5.773618896484375,0.32998189330101013,0.7330572009086609,0.21333543956279755
1757088064801665800,5.783665771484375,0.3432452380657196,0.8505899310112,0.23670068383216858
1757088064811712800,5.793712646484375,0.35166987776756287,0.9067967534065247,0.17555025219917297
1757088064821758700,5.8037587890625,0.307426780462265,0.7708559632301331,0.04321777820587158
1757088064831805700,5.8138056640625,0.22600090503692627,0.5449474453926086,-0.08553540706634521
1757088064841853000,5.82385302734375,0.13287656009197235,0.34189289808273315,-0.2142355889081955
1757088064851899000,5.83389892578125,0.0776873379945755,0.22975276410579681,-0.35900822281837463
1757088064861945900,5.84394580078125,0.017402159050107002,0.17065909504890442,-0.4712626039981842
1757088064871992800,5.853992919921875,-0.027606327086687088,0.15450355410575867,-0.5537928938865662
1757088064882038800,5.864038818359375,-0.09379014372825623,0.19619640707969666,-0.597894549369812
1757088064892085800,5.874085693359375,-0.17823737859725952,0.3452029228210449,-0.6106471419334412
1757088064902132700,5.8841328125,-0.25818654894828796,0.579201340675354,-0.6231192350387573
1757088064912179700,5.8941796875,-0.3363625705242157,0.8389599323272705,-0.6552300453186035
1757088064922225700,5.9042255859375,-0.38997334241867065,1.0124166011810303,-0.6913241147994995
1757088064932273000,5.91427294921875,-0.45401835441589355,0.999654233455658,-0.7444877624511719
1757088064942319900,5.92431982421875,-0.5890417098999023,0.9046432971954346,-0.828464150428772
1757088064952365800,5.93436572265625,-0.6591760516166687,1.0539531707763672,-0.9911350607872009
1757088064962412800,5.944412841796875,-0.737830638885498,1.3472367525100708,-1.113521695137024
1757088064972459800,5.954459716796875,-0.8823705315589905,1.496285319328308,-1.0608742237091064
1757088064982505700,5.964505615234375,-1.0833406448364258,1.477397084236145,-0.8463994860649109
1757088064992552700,5.974552734375,-1.243064284324646,1.4789327383041382,-0.5134081840515137
1757088065002599700,5.984599609375,-1.5031142234802246,1.4827055931091309,-0.12508521974086761
1757088065012646700,5.994646728515625,-1.6475896835327148,1.7100788354873657,-0.008476043120026588
1757088065022692600,6.004692626953125,-1.5747942924499512,1.7511274814605713,-0.265279084444046
1757088065032739800,6.01473974609375,-1.769292950630188,1.2028920650482178,-0.5988162755966187
1757088065042786800,6.024786865234375,-2.049083709716797,0.1577691286802292,-1.0735681056976318
1757088065052832800,6.034832763671875,-2.3349008560180664,-0.4839480221271515,-1.3883473873138428
1757088065062879700,6.044879638671875,-2.5502982139587402,-0.586821973323822,-1.41344153881073
1757088065072926700,6.0549267578125,-2.5279929637908936,-0.463654488325119,-1.4483047723770142
1757088065082972700,6.06497265625,-2.4738962650299072,-0.29177698493003845,-1.5828615427017212
1757088065093019600,6.07501953125,-2.441488027572632,-0.4669743776321411,-1.750830054283142
1757088065103066600,6.085066650390625,-2.3210906982421875,-0.8081260919570923,-1.8114947080612183
1757088065113112600,6.095112548828125,-2.2307236194610596,-1.0934175252914429,-1.751166582107544
1757088065123159800,6.105159912109375,-2.258192777633667,-1.087450385093689,-1.5741950273513794
1757088065133206800,6.115206787109375,-2.26871919631958,-0.846765398979187,-1.4814661741256714
1757088065143253800,6.125253662109375,-2.2371926307678223,-0.6850020289421082,-1.4717376232147217
1757088065153299700,6.1352998046875,-2.1458256244659424,-0.5984019041061401,-1.4562073945999146
1757088065163346700,6.1453466796875,-2.03743839263916,-0.5439916849136353,-1.42330801486969
1757088065173393700,6.1553935546875,-1.909711480140686,-0.6283203959465027,-1.4261773824691772
1757088065183439600,6.165439697265625,-1.8055827617645264,-0.7787969708442688,-1.452655553817749
1757088065193486600,6.175486572265625,-1.6746963262557983,-0.9400860071182251,-1.5091569423675537
1757088065203533800,6.185533935546875,-1.5413308143615723,-1.1279836893081665,-1.5546724796295166
1757088065213579800,6.195579833984375,-1.396615982055664,-1.263916015625,-1.5858399868011475
1757088065223626800,6.205626708984375,-1.211767554283142,-1.3476921319961548,-1.574144959449768
1757088065233673700,6.215673828125,-1.022886872291565,-1.4250444173812866,-1.5439876317977905
1757088065243720700,6.225720703125,-0.8779643177986145,-1.5883326530456543,-1.5567222833633423
1757088065253766700,6.2357666015625,-0.7287740111351013,-1.745467185974121,-1.5406166315078735
1757088065263813600,6.245813720703125,-0.6108431220054626,-1.7833110094070435,-1.4757020473480225
1757088065273860600,6.255860595703125,-0.4911785125732422,-1.7014778852462769,-1.3451427221298218
1757088065283906800,6.26590673828125,-0.34646448493003845,-1.6116894483566284,-1.165814995765686
1757088065293953800,6.275953857421875,-0.23056183755397797,-1.4233535528182983,-0.951293408870697
1757088065304000800,6.286000732421875,-0.160267174243927,-1.158572793006897,-0.7078165411949158
1757088065314047000,6.296046875,-0.10701353847980499,-0.9112918972969055,-0.47355079650878906
1757088065324093700,6.30609375,-0.035596344619989395,-0.6806922554969788,-0.2783067226409912
1757088065334140700,6.316140625,0.02293461002409458,-0.4138086140155792,-0.11051106452941895
1757088065344187000,6.326186767578125,0.07057909667491913,-0.12224042415618896,0.06318403035402298
1757088065354233900,6.33623388671875,0.10071595758199692,0.12741254270076752,0.2501981258392334
1757088065364280600,6.346280517578125,0.1312248706817627,0.3041188716888428,0.457643985748291
1757088065374327800,6.356327880859375,0.1776549518108368,0.4147103726863861,0.6666501760482788
1757088065384374000,6.3663740234375,0.2269311547279358,0.5206647515296936,0.8647071123123169
1757088065394420700,6.376420654296875,0.2643807828426361,0.6518872380256653,1.0284736156463623
1757088065404467700,6.3864677734375,0.3295523226261139,0.7699534296989441,1.1306031942367554
1757088065414514000,6.396513916015625,0.3963550627231598,0.8661348223686218,1.209681510925293
1757088065424559900,6.406559814453125,0.5215771794319153,0.8858177065849304,1.2622443437576294
1757088065434606800,6.41660693359375,0.8491153717041016,0.6429046392440796,1.3324795961380005
1757088065444654000,6.426654052734375,0.8613206148147583,0.7886187434196472,1.2292972803115845
1757088065454700000,6.436699951171875,0.8573874235153198,0.7461061477661133,1.0856469869613647
1757088065464747000,6.4467470703125,0.8469211459159851,0.5735956430435181,0.981256365776062
1757088065474794000,6.4567939453125,0.7691012024879456,0.4505826234817505,1.1158151626586914
1757088065484840000,6.46683984375,0.4806574285030365,0.7415145635604858,1.2649879455566406
1757088065494887000,6.476886962890625,0.3692869544029236,1.0152391195297241,1.3208482265472412
1757088065504934000,6.486933837890625,0.5575886964797974,0.17598222196102142,1.2894160747528076
1757088065514979800,6.496979736328125,0.6395077705383301,-0.6894505620002747,1.2023578882217407
1757088065525026800,6.50702685546875,0.7721912860870361,-0.757781445980072,0.9172613620758057
1757088065535074000,6.517073974609375,1.0188093185424805,-0.674845814704895,0.771754264831543
1757088065545119700,6.52711962890625,1.2510651350021362,-0.7928904294967651,1.1825063228607178
1757088065555167000,6.5371669921875,1.2817176580429077,-0.4097691476345062,1.4819785356521606
1757088065565214000,6.5472138671875,1.1793936491012573,-0.06830368936061859,1.5091396570205688
1757088065575261000,6.557260986328125,1.1519644260406494,0.058578889816999435,1.439066767692566
1757088065585307000,6.567306884765625,1.215117335319519,0.03975912928581238,1.3221491575241089
1757088065595353900,6.577353759765625,1.325037956237793,-0.005636047571897507,1.2583646774291992
1757088065605400800,6.58740087890625,1.4161756038665771,0.14623577892780304,1.23686683177948
1757088065615446800,6.59744677734375,1.4448652267456055,0.3280167579650879,1.2461482286453247
1757088065625493800,6.60749365234375,1.3806524276733398,0.46230611205101013,1.2542463541030884
1757088065635541000,6.617541015625,1.3042263984680176,0.4976334869861603,1.2432277202606201
1757088065645587000,6.6275869140625,1.2660819292068481,0.48749881982803345,1.220288634300232
1757088065655634000,6.637634033203125,1.2851014137268066,0.45408254861831665,1.2076820135116577
1757088065665681000,6.647680908203125,1.3994942903518677,0.3238494396209717,1.137115478515625
1757088065675728000,6.657727783203125,1.526558756828308,0.10785163193941116,0.9971599578857422
1757088065685773800,6.66777392578125,1.639525294303894,-0.23003213107585907,0.7724474668502808
1757088065695820800,6.67782080078125,1.6878407001495361,-0.48878592252731323,0.5042181611061096
1757088065705867800,6.68786767578125,1.6495648622512817,-0.5430774092674255,0.4218372702598572
1757088065715913700,6.697913818359375,1.5425736904144287,-0.579206109046936,0.5185520648956299
1757088065725961000,6.7079609375,1.422184705734253,-0.631808340549469,0.6206294298171997
1757088065736008000,6.718008056640625,1.2827413082122803,-0.5712597966194153,0.6561650633811951
1757088065746054000,6.728053955078125,1.1965502500534058,-0.6211005449295044,0.590196430683136
1757088065756100900,6.738100830078125,1.1645069122314453,-0.7531704306602478,0.5020689964294434
1757088065766147800,6.74814794921875,1.1395673751831055,-0.8653049468994141,0.4834628105163574
1757088065776194800,6.75819482421875,1.0922741889953613,-0.9244013428688049,0.5253969430923462
1757088065786240800,6.76824072265625,0.9861800074577332,-0.9527461528778076,0.5896859169006348
1757088065796287700,6.778287841796875,0.8466716408729553,-0.9425299763679504,0.7085057497024536
1757088065806335000,6.7883349609375,0.7101233601570129,-0.9427012205123901,0.844464123249054
1757088065816381000,6.798380859375,0.5919378995895386,-0.9120847582817078,0.987689197063446
1757088065826428000,6.808427978515625,0.46723508834838867,-0.7655853033065796,1.1301627159118652
1757088065836475000,6.818474853515625,0.300883412361145,-0.5015922784805298,1.2605642080307007
1757088065846520800,6.828520751953125,0.0827859565615654,-0.2588299512863159,1.33707857131958
1757088065856567800,6.83856787109375,-0.12842507660388947,-0.0655856654047966,1.3696339130401611
1757088065866614800,6.84861474609375,-0.1820041537284851,0.11093450337648392,1.3373891115188599
1757088065876661800,6.858661865234375,-0.12315122783184052,0.07135593891143799,1.2038739919662476
1757088065886707700,6.868707763671875,-0.05312447249889374,0.04217248782515526,1.0514942407608032
1757088065896755000,6.8787548828125,0.02352636493742466,0.2343169003725052,1.053159236907959
1757088065906802000,6.888802001953125,0.17777425050735474,0.2769101560115814,0.9989333152770996
1757088065916847900,6.898847900390625,0.3149358332157135,0.09873589873313904,0.8113282918930054
1757088065926894800,6.908894775390625,0.3546278476715088,-0.12097249180078506,0.6319366693496704
1757088065936941800,6.91894189453125,0.38821378350257874,-0.14797481894493103,0.547149658203125
1757088065946987800,6.92898779296875,0.4325506091117859,0.056287772953510284,0.5500934720039368
1757088065957034800,6.93903466796875,0.4593034088611603,0.2823027968406677,0.5860973000526428
1757088065967081700,6.949081787109375,0.4833757281303406,0.4485754072666168,0.6381865739822388
1757088065977127700,6.959127685546875,0.5372293591499329,0.45476245880126953,0.6926170587539673
1757088065987175000,6.9691748046875,0.6376768946647644,0.35867878794670105,0.6933726072311401
1757088065997222000,6.979221923828125,0.7854799032211304,0.18197619915008545,0.6702545285224915
1757088066007268900,6.989268798828125,0.8613688349723816,-0.013118998147547245,0.6435621976852417
1757088066017314800,6.999314697265625,0.9165764451026917,-0.19840310513973236,0.5773954391479492
1757088066027361800,7.00936181640625,0.9254865646362305,-0.37233442068099976,0.46307018399238586
1757088066037408800,7.01940869140625,0.8802021741867065,-0.4757963716983795,0.35748809576034546
1757088066047454700,7.029454833984375,0.7951983213424683,-0.49264299869537354,0.29836511611938477
1757088066057501700,7.039501708984375,0.6763550043106079,-0.5024551153182983,0.2718048691749573
1757088066067549000,7.049548828125,0.5495699048042297,-0.39492547512054443,0.22178059816360474
1757088066077595000,7.059594970703125,0.3771960139274597,-0.19131404161453247,0.1382657289505005
1757088066087641900,7.069641845703125,0.21627770364284515,0.04912067577242851,0.04387105256319046
1757088066097688800,7.079688720703125,0.07727188616991043,0.30970245599746704,-0.0046730488538742065
1757088066107735800,7.08973583984375,-0.05794426053762436,0.5435397028923035,0.017188573256134987
1757088066117781800,7.09978173828125,-0.17132407426834106,0.6635870337486267,0.0844416469335556
1757088066127828700,7.109828857421875,-0.21203289926052094,0.742083728313446,0.14893461763858795
1757088066137875700,7.119875732421875,-0.19150231778621674,0.8145411014556885,0.16239583492279053
1757088066147922000,7.129921875,-0.14915406703948975,0.8829084634780884,0.14537504315376282
1757088066157968600,7.13996875,-0.10929932445287704,0.8880036473274231,0.14324131608009338
1757088066168016000,7.150015869140625,-0.07733553647994995,0.8352405428886414,0.15262043476104736
1757088066178062000,7.16006201171875,-0.061772286891937256,0.8280742764472961,0.1048092395067215
1757088066188108800,7.17010888671875,-0.12440664321184158,0.8365899920463562,0.008943160995841026
1757088066198155800,7.18015576171875,-0.1895933598279953,0.7170335054397583,-0.09277840703725815
1757088066208202800,7.19020263671875,-0.15595684945583344,0.5027582049369812,-0.2680434286594391
1757088066218249000,7.2002490234375,-0.27306562662124634,0.3074997663497925,-0.3885354995727539
1757088066228295700,7.210295654296875,-0.41043758392333984,0.3241354525089264,-0.517571747303009
1757088066238342700,7.2203427734375,-0.45724985003471375,0.4711049497127533,-0.8165619373321533
1757088066248388900,7.230388916015625,-0.4418405294418335,0.6781324148178101,-1.214624047279358
1757088066258435800,7.240435791015625,-0.4556322395801544,0.8671665191650391,-1.5285484790802002
1757088066268482800,7.25048291015625,-0.4620416760444641,1.005479335784912,-1.5482091903686523
1757088066278529000,7.260529052734375,-0.4912743866443634,1.394762396812439,-1.4116649627685547
1757088066288576000,7.270575927734375,-0.4940515458583832,1.8972519636154175,-1.2362964153289795
1757088066298622700,7.280622802734375,-0.5286598205566406,2.249605894088745,-1.0890249013900757
1757088066308669700,7.290669677734375,-0.7488343119621277,2.6280198097229004,-1.0018689632415771
1757088066318716000,7.3007158203125,-0.9901997447013855,2.7010416984558105,-0.9716479182243347
1757088066328763000,7.310762939453125,-1.3458369970321655,2.6423730850219727,-0.8390480875968933
1757088066338809900,7.320809814453125,-1.8543492555618286,2.4040887355804443,-0.5451527833938599
1757088066348856000,7.33085595703125,-2.138878345489502,1.9883642196655273,-0.30853599309921265
1757088066358903000,7.340903076171875,-2.032221555709839,1.508323311805725,-0.3076683282852173
1757088066368950000,7.350949951171875,-2.066093683242798,0.8868669867515564,-0.7628102898597717
1757088066378996000,7.360995849609375,-2.3084352016448975,0.18916966021060944,-1.3725333213806152
1757088066389043000,7.37104296875,-2.662304639816284,-0.3169790208339691,-1.766769528388977
1757088066399090000,7.38108984375,-2.823206901550293,-0.5508027076721191,-1.9732189178466797
1757088066409137000,7.391136962890625,-2.7737834453582764,-0.5200858116149902,-2.0755932331085205
1757088066419182800,7.401182861328125,-2.5985703468322754,-0.08692876994609833,-2.03682804107666
1757088066429230000,7.41122998046875,-2.552689790725708,0.19184640049934387,-1.8211270570755005
1757088066439277000,7.421277099609375,-2.4390480518341064,-0.44201788306236267,-1.7964144945144653
1757088066449323000,7.431322998046875,-2.4020278453826904,-1.0080560445785522,-1.763631820678711
1757088066459370000,7.441369873046875,-2.428799629211426,-0.9495261311531067,-1.6880073547363281
1757088066469417200,7.451417236328125,-2.343996286392212,-0.7499117851257324,-1.6842459440231323
1757088066479463200,7.461463134765625,-2.2423949241638184,-0.7645043134689331,-1.7276597023010254
1757088066489510100,7.47151025390625,-2.121687650680542,-0.9083653688430786,-1.694528341293335
1757088066499557000,7.48155712890625,-1.9883003234863281,-0.9713906645774841,-1.5854504108428955
1757088066509603000,7.49160302734375,-1.82168710231781,-0.8579879403114319,-1.4654592275619507
1757088066519650000,7.501650146484375,-1.6493315696716309,-0.9896482229232788,-1.4740992784500122
1757088066529697000,7.511697021484375,-1.589893102645874,-0.9788991808891296,-1.4958661794662476
1757088066539744000,7.521743896484375,-1.4792096614837646,-0.9496877789497375,-1.4765251874923706
1757088066549790000,7.5317900390625,-1.2861433029174805,-0.9875190258026123,-1.4428236484527588
1757088066559837200,7.541837158203125,-1.0842311382293701,-1.2028629779815674,-1.430542230606079
1757088066569884200,7.55188427734375,-0.9072388410568237,-1.3534098863601685,-1.4237631559371948
1757088066579930000,7.56193017578125,-0.7363550066947937,-1.4889451265335083,-1.4049698114395142
1757088066589977000,7.57197705078125,-0.5907413363456726,-1.4770828485488892,-1.297088861465454
1757088066600024000,7.582024169921875,-0.4207967519760132,-1.3211829662322998,-1.115244746208191
1757088066610070000,7.592070068359375,-0.28163301944732666,-1.0870157480239868,-0.8844112753868103
1757088066620117000,7.602116943359375,-0.1570277065038681,-0.7929468750953674,-0.597594678401947
1757088066630164000,7.6121640625,-0.044383708387613297,-0.47287726402282715,-0.2861129939556122
1757088066640211200,7.622211181640625,0.03610207885503769,-0.12023106962442398,0.0062736086547374725
1757088066650257200,7.632257080078125,0.07521486282348633,0.17338909208774567,0.28038346767425537
1757088066660304100,7.64230419921875,0.11092118918895721,0.3430103659629822,0.5099378228187561
1757088066670351000,7.65235107421875,0.19159899652004242,0.3777398467063904,0.6918626427650452
1757088066680397000,7.66239697265625,0.286986768245697,0.3648432195186615,0.8200458884239197
1757088066690444000,7.672444091796875,0.37504950165748596,0.3675580322742462,0.9245795011520386
1757088066700491000,7.682490966796875,0.450173020362854,0.4054447114467621,1.03482186794281
1757088066710537000,7.692536865234375,0.5115405321121216,0.47938844561576843,1.107614517211914
1757088066720584000,7.702583984375,0.5695534944534302,0.5387284755706787,1.1238683462142944
1757088066730631200,7.712631103515625,0.638242244720459,0.5366472005844116,1.1304221153259277
1757088066740677000,7.722677001953125,0.7142475247383118,0.5647630095481873,1.177769660949707
1757088066750724000,7.73272412109375,0.7519683241844177,0.6686236262321472,1.2313604354858398
1757088066760771000,7.74277099609375,0.6894071698188782,0.8094481229782104,1.2478123903274536
1757088066770818000,7.752818115234375,0.5694080591201782,0.9804264903068542,1.1969127655029297
1757088066780864000,7.762864013671875,0.5356213450431824,1.0194321870803833,1.1286146640777588
1757088066790911000,7.772910888671875,0.6636213660240173,0.7852833867073059,1.2009823322296143
1757088066800958000,7.7829580078125,0.7824233770370483,0.6003984808921814,1.1569621562957764
1757088066811004000,7.79300390625,0.8331885933876038,0.17593374848365784,0.9814672470092773
1757088066821051100,7.803051025390625,0.8542603254318237,-0.36505255103111267,0.9104780554771423
1757088066831098000,7.81309814453125,0.837956964969635,-0.8741631507873535,0.9236404299736023
1757088066841144000,7.82314404296875,0.9420338273048401,-0.88824063539505,0.8410643339157104
1757088066851191000,7.83319091796875,1.1196520328521729,-0.8381258249282837,0.8838800191879272
1757088066861238000,7.843238037109375,1.2638193368911743,-0.7675496339797974,1.0835055112838745
1757088066871284000,7.853283935546875,1.284244418144226,-0.38932353258132935,1.0814486742019653
1757088066881331000,7.8633310546875,1.271261215209961,-0.29674696922302246,1.1148940324783325
1757088066891378000,7.8733779296875,1.29789400100708,-0.25223225355148315,1.2159115076065063
1757088066901425000,7.8834248046875,1.3184394836425781,-0.14106763899326324,1.258541464805603
1757088066911470800,7.893470947265625,1.297393560409546,-0.12646792829036713,1.2189143896102905
1757088066921518000,7.90351806640625,1.3051127195358276,-0.15432699024677277,1.155595064163208
1757088066931565000,7.91356494140625,1.3540778160095215,-0.14225061237812042,1.0956250429153442
1757088066941611000,7.923611083984375,1.3915730714797974,-0.108265221118927,1.0610662698745728
1757088066951658000,7.933657958984375,1.4040504693984985,-0.09578591585159302,1.0651171207427979
1757088066961705000,7.943705078125,1.419189691543579,-0.0692448541522026,1.0601993799209595
1757088066971751000,7.9537509765625,1.4432111978530884,-0.04560024291276932,1.0444297790527344
1757088066981798000,7.9637978515625,1.4654659032821655,-0.030826622620224953,1.014341115951538
1757088066991844900,7.973844970703125,1.4970691204071045,-0.007272027432918549,0.9748200178146362
1757088067001892000,7.98389208984375,1.5758064985275269,-0.15284280478954315,0.8768050074577332
1757088067011938000,7.99393798828125,1.6036778688430786,-0.44363150000572205,0.6172198057174683
1757088067021985000,8.003985107421874,1.5180457830429077,-0.5970649719238281,0.3284023702144623
1757088067032032000,8.014031982421875,1.4076577425003052,-0.6087184548377991,0.19737432897090912
1757088067042078000,8.024077880859375,1.3312820196151733,-0.7436946630477905,0.1853509545326233
1757088067052125000,8.034125,1.2567342519760132,-0.8656083345413208,0.21154554188251495
1757088067062172000,8.044171875,1.2032822370529175,-1.0368714332580566,0.16773201525211334
1757088067072217900,8.0542177734375,1.1443384885787964,-1.263776421546936,0.052862148731946945
1757088067082264800,8.064264892578125,1.0696277618408203,-1.5342234373092651,-0.0275016650557518
1757088067092312000,8.07431201171875,0.994866669178009,-1.6332290172576904,0.02208399772644043
1757088067102358000,8.08435791015625,0.8931304812431335,-1.6083959341049194,0.16646434366703033
1757088067112405000,8.094405029296874,0.7789740562438965,-1.608224630355835,0.32175886631011963
1757088067122452000,8.104451904296875,0.6254380345344543,-1.6258273124694824,0.4724964499473572
1757088067132499000,8.1144990234375,0.46291518211364746,-1.5317448377609253,0.6416404843330383
1757088067142545000,8.124544921875,0.302347868680954,-1.315038800239563,0.8514893054962158
1757088067152592000,8.134591796875,0.1435057669878006,-1.0772640705108643,1.0659691095352173
1757088067162638800,8.144638916015625,-0.07222066819667816,-0.7530596852302551,1.2703144550323486
1757088067172684800,8.154684814453125,-0.19597190618515015,-0.4358510673046112,1.4260977506637573
1757088067182732000,8.16473193359375,-0.2116944044828415,-0.2061971127986908,1.5263439416885376
1757088067192779000,8.174779052734374,-0.16924521327018738,0.007729558739811182,1.5408514738082886
1757088067202825000,8.184824951171874,-0.1507120132446289,0.2240016758441925,1.456925392150879
1757088067212872000,8.194871826171875,-0.12626099586486816,0.48331713676452637,1.4567456245422363
1757088067222919000,8.2049189453125,-0.005815278738737106,0.6983903050422668,1.478736162185669
1757088067232965000,8.214965087890626,0.19464963674545288,0.4590916931629181,1.3066922426223755
1757088067243011800,8.22501171875,0.4295572340488434,0.11968858540058136,1.0675294399261475
1757088067253058800,8.235058837890625,0.6380544900894165,-0.05691175162792206,0.9049900770187378
1757088067263106000,8.24510595703125,0.7587572336196899,-0.03837908059358597,0.8072685599327087
1757088067273152000,8.255152099609376,0.7853531241416931,0.08561103790998459,0.6740100979804993
1757088067283199000,8.265198974609374,0.7746936082839966,0.2572736144065857,0.5687390565872192
1757088067293246000,8.275245849609375,0.7926598191261292,0.4635618031024933,0.5321363210678101
1757088067303292200,8.285292236328125,0.7958601117134094,0.5494279861450195,0.4852990508079529
1757088067313339000,8.2953388671875,0.761448085308075,0.6912007927894592,0.46832168102264404
1757088067323385900,8.3053857421875,0.6889398097991943,0.7866554260253906,0.4462946653366089
1757088067333432000,8.31543212890625,0.6364217400550842,0.719307005405426,0.37399277091026306
1757088067343479000,8.32547900390625,0.5513230562210083,0.6169481873512268,0.2972196936607361
1757088067353526000,8.335526123046876,0.4623628556728363,0.5242936015129089,0.21775229275226593
1757088067363572200,8.345572265625,0.40506625175476074,0.39664483070373535,0.15809589624404907
1757088067373619200,8.355619140625,0.36052224040031433,0.28871461749076843,0.16588351130485535
1757088067383666000,8.365666015625,0.3209311366081238,0.17679235339164734,0.21047760546207428
1757088067393713000,8.375712890625,0.2624585032463074,0.09324898570775986,0.2572251260280609
1757088067403759000,8.385759033203126,0.2309780865907669,0.11639132350683212,0.33382749557495117
1757088067413806000,8.39580615234375,0.2179453819990158,0.21991638839244843,0.4158153235912323
1757088067423852800,8.405852783203125,0.20405618846416473,0.38363659381866455,0.4573521018028259
1757088067433899000,8.41589892578125,0.1845109909772873,0.5687417387962341,0.4611721336841583
1757088067443946000,8.425946044921876,0.13653014600276947,0.7314994931221008,0.42866799235343933
1757088067453993000,8.435992919921874,0.07373654097318649,0.7924331426620483,0.34397414326667786
1757088067464039200,8.4460390625,-0.006724481470882893,0.7318733930587769,0.19856928288936615
1757088067474086100,8.456086181640625,-0.12396588921546936,0.6034421920776367,-0.011097658425569534
1757088067484133000,8.466133056640626,-0.2517842948436737,0.5727865695953369,-0.18849268555641174
1757088067494179800,8.476179931640624,-0.34727540612220764,0.7114874720573425,-0.3280721604824066
1757088067504226000,8.48622607421875,-0.4556974768638611,0.7451114654541016,-0.44866621494293213
1757088067514273000,8.49627294921875,-0.5497033596038818,0.6692105531692505,-0.5712997317314148
1757088067524320000,8.506320068359376,-0.5914846062660217,0.6864135265350342,-0.7107366919517517
1757088067534366000,8.516365966796876,-0.6418641805648804,0.8836514949798584,-0.8698161244392395
1757088067544413200,8.5264130859375,-0.7178609371185303,1.262113094329834,-1.0615307092666626
1757088067554460200,8.536460205078125,-0.8040466904640198,1.6243062019348145,-1.330478549003601
1757088067564506000,8.546506103515625,-0.8417349457740784,1.7980278730392456,-1.6265277862548828
1757088067574553000,8.556552978515626,-0.908035933971405,1.8250893354415894,-1.8489089012145996
1757088067584600000,8.56660009765625,-0.9212811589241028,1.9808716773986816,-1.902369499206543
1757088067594646000,8.57664599609375,-0.9546998143196106,2.3044941425323486,-1.7433550357818604
1757088067604693000,8.58669287109375,-0.9126788973808289,2.873091697692871,-1.3885506391525269
1757088067614740000,8.596739990234376,-1.1163691282272339,3.1678144931793213,-1.05539870262146
1757088067624787200,8.606787109375,-1.4073448181152344,3.122715950012207,-0.7732770442962646
1757088067634833200,8.616833251953125,-1.9185407161712646,2.8265442848205566,-0.24718528985977173
1757088067644880100,8.626880126953125,-2.4659385681152344,2.289188861846924,0.42116454243659973
1757088067654927000,8.636927001953126,-2.74684739112854,1.3601844310760498,0.9250258207321167
1757088067664973000,8.64697314453125,-2.581963300704956,0.7498811483383179,0.7789948582649231
1757088067675020000,8.65702001953125,-2.468127489089966,0.13221876323223114,-0.7038063406944275
1757088067685067000,8.66706689453125,-2.412059783935547,-0.9244982600212097,-1.8490396738052368
1757088067695113000,8.677113037109375,-2.472585439682007,-1.3158029317855835,-2.048457145690918
1757088067705160000,8.687159912109376,-2.5164756774902344,-1.3379607200622559,-1.9322839975357056
1757088067715207200,8.697207275390625,-2.394575357437134,-1.2647205591201782,-1.8760806322097778
1757088067725253000,8.707253173828125,-2.2628188133239746,-0.9626427292823792,-1.8842167854309082
1757088067735300000,8.717300048828125,-2.1147608757019043,-0.6820312738418579,-1.926584005355835
1757088067745347000,8.72734716796875,-2.027194023132324,-0.7221264839172363,-1.859263300895691
1757088067755394000,8.73739404296875,-2.013286828994751,-1.0670477151870728,-1.7356563806533813
1757088067765440000,8.74743994140625,-2.1069164276123047,-1.2692252397537231,-1.6113357543945312
1757088067775487000,8.757487060546875,-2.1930437088012695,-1.1882225275039673,-1.5237302780151367
1757088067785534000,8.767533935546876,-2.2297840118408203,-0.9810968041419983,-1.4913110733032227
1757088067795580000,8.777579833984374,-2.1705687046051025,-0.7378056049346924,-1.4423820972442627
1757088067805627100,8.787627197265625,-2.036048650741577,-0.6577999591827393,-1.356955885887146
1757088067815674000,8.797674072265625,-1.8580440282821655,-0.5791832208633423,-1.2330265045166016
1757088067825720000,8.807719970703126,-1.75266432762146,-0.47818148136138916,-1.0890333652496338
1757088067835767000,8.81776708984375,-1.6947236061096191,-0.4912336468696594,-1.0760747194290161
1757088067845814000,8.82781396484375,-1.571967363357544,-0.42726263403892517,-1.038791298866272
1757088067855860000,8.83785986328125,-1.3858590126037598,-0.40266674757003784,-0.996435821056366
1757088067865907000,8.847906982421875,-1.1961427927017212,-0.6522201299667358,-1.0103604793548584
1757088067875954000,8.857953857421874,-1.0057326555252075,-0.8005829453468323,-1.012349247932434
1757088067886001200,8.868001220703125,-0.8143608570098877,-0.9642208814620972,-1.0433663129806519
1757088067896047000,8.878047119140625,-0.659762978553772,-1.0729033946990967,-1.0805655717849731
1757088067906094000,8.888093994140625,-0.5371925830841064,-1.063141107559204,-1.074571132659912
1757088067916141000,8.89814111328125,-0.4295617640018463,-0.9260764718055725,-0.9754093885421753
1757088067926187000,8.90818701171875,-0.3320346772670746,-0.7457138895988464,-0.7976340651512146
1757088067936234000,8.91823388671875,-0.254489004611969,-0.5824442505836487,-0.6086239218711853
1757088067946281000,8.928281005859375,-0.16962498426437378,-0.4409518241882324,-0.4405156075954437
1757088067956327000,8.938326904296876,-0.07351549714803696,-0.3282167613506317,-0.29421910643577576
1757088067966374000,8.948373779296874,0.01158421766012907,-0.1998974084854126,-0.15190483629703522
1757088067976421000,8.958421142578125,0.10262331366539001,-0.05126025900244713,0.002257827902212739
1757088067986468000,8.968468017578125,0.1935497522354126,0.08510877192020416,0.16442222893238068
1757088067996514000,8.97851416015625,0.2657986581325531,0.1697743833065033,0.3128601610660553
1757088068006561000,8.98856103515625,0.32685214281082153,0.20310091972351074,0.43166565895080566
1757088068016608000,8.99860791015625,0.3759390115737915,0.25683313608169556,0.5508319735527039
1757088068026654000,9.008654052734375,0.4066300690174103,0.34027528762817383,0.6631044745445251
1757088068036701000,9.018700927734375,0.4391326308250427,0.44064050912857056,0.7486371994018555
1757088068046748000,9.028747802734374,0.4907849133014679,0.491225928068161,0.8435229659080505
1757088068056793900,9.0387939453125,0.5694136619567871,0.4802235960960388,0.9722567200660706
1757088068066840800,9.0488408203125,0.6580958366394043,0.4641495645046234,1.1607956886291504
1757088068076888000,9.05888818359375,0.7480664849281311,0.5097596645355225,1.3764076232910156
1757088068086934000,9.06893408203125,0.759118378162384,0.6532396078109741,1.5021812915802002
1757088068096981000,9.07898095703125,0.7023152709007263,0.8207063674926758,1.5014177560806274
1757088068107028000,9.089028076171875,0.6742117404937744,0.8397298455238342,1.4506515264511108
1757088068117074000,9.099073974609375,0.7006270885467529,0.5500479340553284,1.5237606763839722
1757088068127121000,9.109120849609376,0.7706607580184937,0.2851316034793854,1.5620486736297607
1757088068137168000,9.11916796875,0.8860526084899902,0.12224441766738892,1.3848179578781128
1757088068147214800,9.12921484375,0.942787230014801,-0.2804636061191559,1.2227762937545776
1757088068157260800,9.1392607421875,0.8447133898735046,-0.8404409289360046,1.2466858625411987
1757088068167308000,9.14930810546875,0.7628425359725952,-1.177247405052185,1.293224573135376
1757088068177355000,9.15935498046875,0.7466188073158264,-1.1068843603134155,1.105200171470642
1757088068187401000,9.16940087890625,0.8104707598686218,-1.1722739934921265,0.855216920375824
1757088068197448000,9.179447998046875,0.9123872518539429,-0.9771345853805542,0.8240720629692078
1757088068207495000,9.189494873046876,0.9836798310279846,-0.6771798133850098,1.0180164575576782
1757088068217540900,9.199540771484376,1.0794178247451782,-0.5852088928222656,1.1741312742233276
1757088068227587800,9.209587890625,1.1386795043945312,-0.3918910622596741,1.1702136993408203
1757088068237634800,9.219634765625,1.190395474433899,-0.2540368139743805,1.0713635683059692
1757088068247682000,9.22968212890625,1.2729604244232178,-0.15263055264949799,0.9332704544067383
1757088068257728000,9.23972802734375,1.352526068687439,-0.13066133856773376,0.8615667223930359
1757088068267775000,9.24977490234375,1.4144256114959717,-0.040524788200855255,0.843268632888794
1757088068277822000,9.259822021484375,1.4251525402069092,0.05035265162587166,0.8417019248008728
1757088068287868000,9.269867919921875,1.396470308303833,0.11985822767019272,0.8361372351646423
1757088068297915000,9.279914794921876,1.3722704648971558,0.17940464615821838,0.8264912366867065
1757088068307961900,9.2899619140625,1.3502777814865112,0.1874724179506302,0.7858482599258423
1757088068318008000,9.300008056640625,1.3794268369674683,0.12405537068843842,0.732832670211792
1757088068328054800,9.3100546875,1.4774996042251587,-0.08340221643447876,0.5987315773963928
1757088068338102000,9.32010205078125,1.575046181678772,-0.37392112612724304,0.39913833141326904
1757088068348148200,9.330148193359374,1.562406063079834,-0.5079265832901001,0.22597400844097137
1757088068358195000,9.34019482421875,1.4827375411987305,-0.5034932494163513,0.20803149044513702
1757088068368242000,9.350241943359375,1.3902018070220947,-0.5215180516242981,0.2895529866218567
1757088068378289000,9.360288818359376,1.3270726203918457,-0.6023598909378052,0.35145363211631775
1757088068388335000,9.370335205078124,1.2667094469070435,-0.6567522883415222,0.36395370960235596
1757088068398381800,9.3803818359375,1.2393227815628052,-0.6940125823020935,0.35811659693717957
1757088068408428800,9.3904287109375,1.2179917097091675,-0.851862907409668,0.3068470358848572
1757088068418475000,9.40047509765625,1.201012372970581,-1.0660029649734497,0.31786930561065674
1757088068428522200,9.410522216796876,1.1173648834228516,-1.1503058671951294,0.3968464136123657
1757088068438569200,9.4205693359375,0.9838313460350037,-1.0841909646987915,0.49666088819503784
1757088068448615400,9.430615478515625,0.8479115962982178,-1.0884411334991455,0.5235636234283447
1757088068458662100,9.440662109375,0.721545398235321,-1.1102564334869385,0.4699096977710724
1757088068468709000,9.450709228515626,0.5823646187782288,-1.1075743436813354,0.36283546686172485
1757088068478756000,9.460756103515624,0.38132551312446594,-0.895635187625885,0.3559136390686035
1757088068488802300,9.47080224609375,0.13956747949123383,-0.5395148992538452,0.4762030243873596
1757088068498849300,9.480849365234375,-0.10194899886846542,-0.15007604658603668,0.7134885191917419
1757088068508896300,9.490896240234376,-0.24750752747058868,0.20354433357715607,0.9408093094825745
1757088068518942500,9.5009423828125,-0.32462015748023987,0.5876525640487671,1.0562599897384644
1757088068528989400,9.510989501953125,-0.37762451171875,0.917535662651062,1.054407000541687
1757088068539036200,9.5210361328125,-0.3895152807235718,1.2650889158248901,1.1576577425003052
1757088068549082400,9.531082275390625,-0.3047231435775757,1.447942852973938,1.3484798669815063
1757088068559129300,9.54112939453125,-0.15811586380004883,1.1387120485305786,1.2919631004333496
1757088068569176300,9.55117626953125,-0.0290023572742939,0.5642990469932556,1.148250699043274
1757088068579222300,9.56122216796875,0.11223812401294708,0.2473437488079071,0.987838864326477
1757088068589269200,9.571269287109375,0.22896526753902435,0.21636958420276642,0.8204123377799988
1757088068599316500,9.58131640625,0.28966349363327026,0.26474857330322266,0.6567839980125427
1757088068609363200,9.59136328125,0.342388778924942,0.19256891310214996,0.5217031240463257
1757088068619409400,9.601409423828125,0.39797452092170715,0.04569505155086517,0.4197365641593933
1757088068629456400,9.611456298828125,0.4476478099822998,0.016102271154522896,0.32986366748809814
1757088068639503400,9.62150341796875,0.4784315526485443,0.044563472270965576,0.27188557386398315
1757088068649549300,9.63154931640625,0.49692294001579285,0.10297778248786926,0.2510247826576233
1757088068659596300,9.64159619140625,0.5079572200775146,0.19478599727153778,0.2510085105895996
1757088068669643300,9.651643310546875,0.5164090394973755,0.32040730118751526,0.25711488723754883
1757088068679689200,9.661689208984376,0.5330172777175903,0.4661983251571655,0.2731601595878601
1757088068689736400,9.671736328125,0.5656442046165466,0.5454252362251282,0.28863072395324707
1757088068699783400,9.681783447265625,0.5921748876571655,0.47009745240211487,0.2904278337955475
1757088068709829400,9.691829345703125,0.6051990985870361,0.3115650713443756,0.28833964467048645
1757088068719876400,9.70187646484375,0.6075171232223511,0.16476790606975555,0.27982500195503235
1757088068729923300,9.71192333984375,0.5871066451072693,0.08226610720157623,0.22397078573703766
1757088068739970300,9.72197021484375,0.568606436252594,0.10423372685909271,0.16559135913848877
1757088068750016300,9.732016357421875,0.5550429821014404,0.2312483936548233,0.12652091681957245
1757088068760063200,9.742063232421875,0.5298689007759094,0.340265691280365,0.11343015730381012
1757088068770110500,9.7521103515625,0.4997602701187134,0.38123950362205505,0.1457337737083435
1757088068780156200,9.76215625,0.44894638657569885,0.31666475534439087,0.17524531483650208
1757088068790203400,9.772203369140625,0.3683631122112274,0.2333640158176422,0.1959599256515503
1757088068800250400,9.78225048828125,0.2684729993343353,0.1790325939655304,0.1884508728981018
1757088068810296300,9.79229638671875,0.1830747425556183,0.20541228353977203,0.14642885327339172
1757088068820343300,9.80234326171875,0.12234588712453842,0.29959043860435486,0.08589652925729752
1757088068830390300,9.812390380859375,0.13260811567306519,0.33181920647621155,0.04622288793325424
1757088068840437200,9.822437255859375,0.15643781423568726,0.18048349022865295,0.032892704010009766
1757088068850483200,9.832483154296876,0.1324848085641861,-0.015628227964043617,0.06797372549772263
1757088068860530200,9.8425302734375,0.08106528967618942,-0.04580770060420036,0.11602034419775009
1757088068870577400,9.852577392578125,0.02328694611787796,0.014593323692679405,0.07451365143060684
1757088068880623400,9.862623291015625,-0.08968701213598251,0.1424064189195633,-0.04543991759419441
1757088068890670300,9.87267041015625,-0.1957833468914032,0.3207029104232788,-0.1820821911096573
1757088068900717300,9.88271728515625,-0.28988561034202576,0.5675358772277832,-0.3197455108165741
1757088068910763300,9.89276318359375,-0.3581853210926056,0.8439871668815613,-0.48154133558273315
1757088068920810200,9.902810302734375,-0.42971915006637573,1.107398271560669,-0.6690012216567993
1757088068930857200,9.912857177734375,-0.5255175828933716,1.270504117012024,-0.8311456441879272
1757088068940904200,9.922904296875,-0.6220877766609192,1.251727819442749,-0.9443220496177673
1757088068950950100,9.9329501953125,-0.7118483185768127,1.0455043315887451,-1.024241328239441
1757088068960997400,9.942997314453125,-0.813978910446167,0.7032588124275208,-1.143837571144104
1757088068971044400,9.95304443359375,-0.8408960103988647,0.47232386469841003,-1.3063812255859375
1757088068981090300,9.96309033203125,-0.8466993570327759,0.4956968426704407,-1.4245259761810303
1757088068991137300,9.97313720703125,-0.894815981388092,0.7767218351364136,-1.4234737157821655
1757088069001184300,9.983184326171875,-0.9833953976631165,1.147225022315979,-1.303454041481018
1757088069011230200,9.993230224609375,-1.0015629529953003,1.478056788444519,-1.1040281057357788
1757088069021277200,10.003277099609376,-1.0697311162948608,1.551127314567566,-0.7946433424949646
1757088069031324200,10.01332421875,-1.2046340703964233,1.4860655069351196,-0.41773679852485657
1757088069041371400,10.023371337890625,-1.3625125885009766,1.3232738971710205,-0.05945400521159172
1757088069051417300,10.033417236328125,-1.6286535263061523,0.9955700635910034,0.3078462481498718
1757088069061464300,10.04346435546875,-1.837528109550476,0.7739551067352295,0.5911983251571655
1757088069071511300,10.05351123046875,-2.0859262943267822,1.4369937181472778,0.380984902381897
1757088069081557200,10.06355712890625,-2.4100592136383057,1.5337663888931274,-0.584669291973114
1757088069091604200,10.073604248046875,-2.576641321182251,0.5204898118972778,-0.9945923686027527
1757088069101651200,10.083651123046875,-2.568300485610962,-0.09225376695394516,-1.2204310894012451
1757088069111697200,10.093697265625,-2.4826784133911133,-0.2952982187271118,-1.4275014400482178
1757088069121744100,10.103744140625,-2.300100326538086,-0.43789345026016235,-1.6796729564666748
1757088069131791400,10.113791259765625,-2.2131800651550293,-0.361034631729126,-1.7327625751495361
1757088069141837300,10.12383740234375,-2.1788620948791504,-0.3976115584373474,-1.6383156776428223
1757088069151884300,10.13388427734375,-2.096886157989502,-0.6302671432495117,-1.5482516288757324
1757088069161931300,10.14393115234375,-2.068843126296997,-0.8029577136039734,-1.5670175552368164
1757088069171978200,10.153978271484375,-2.088606357574463,-0.8337398767471313,-1.6180610656738281
1757088069182024200,10.164024169921875,-2.0901691913604736,-0.8014253377914429,-1.6394912004470825
1757088069192071200,10.1740712890625,-2.0566482543945312,-0.7658255100250244,-1.6523809432983398
1757088069202118100,10.1841181640625,-1.9962879419326782,-0.708764374256134,-1.638778567314148
1757088069212164000,10.1941640625,-1.8992586135864258,-0.6574167609214783,-1.5792864561080933
1757088069222211300,10.20421142578125,-1.7867815494537354,-0.5087111592292786,-1.5154619216918945
1757088069232258300,10.21425830078125,-1.6586161851882935,-0.7691235542297363,-1.5489469766616821
1757088069242304300,10.22430419921875,-1.560409665107727,-0.914233386516571,-1.6475006341934204
1757088069252351200,10.234351318359375,-1.4170725345611572,-0.984855592250824,-1.746085524559021
1757088069262398200,10.244398193359375,-1.2225900888442993,-1.116860032081604,-1.8257594108581543
1757088069272444200,10.254444091796875,-1.0039256811141968,-1.2065627574920654,-1.8515712022781372
1757088069282491100,10.2644912109375,-0.7842058539390564,-1.2720469236373901,-1.837680459022522
1757088069292538000,10.2745380859375,-0.6024810671806335,-1.2761441469192505,-1.775357723236084
1757088069302585300,10.28458544921875,-0.4056071639060974,-1.2275148630142212,-1.6461448669433594
1757088069312631300,10.29463134765625,-0.2283490151166916,-1.1025015115737915,-1.4404433965682983
1757088069322678300,10.30467822265625,-0.061763498932123184,-1.0275822877883911,-1.2238324880599976
1757088069332725200,10.314725341796875,0.031613852828741074,-0.8212464451789856,-0.9496858716011047
1757088069342771200,10.324771240234375,0.08966250717639923,-0.5766068696975708,-0.6647322177886963
1757088069352818200,10.334818115234375,0.140226349234581,-0.31980064511299133,-0.4002193212509155
1757088069362865200,10.344865234375,0.1794499158859253,-0.056951165199279785,-0.14691513776779175
1757088069372911000,10.3549111328125,0.2036852091550827,0.20754386484622955,0.11113450676202774
1757088069382958000,10.3649580078125,0.22549277544021606,0.43521004915237427,0.3784730136394501
1757088069393005300,10.37500537109375,0.2721303105354309,0.5689172744750977,0.6799598932266235
1757088069403052300,10.38505224609375,0.3370200991630554,0.6206235885620117,0.9396122097969055
1757088069413098200,10.39509814453125,0.3989122211933136,0.639647364616394,1.10999596118927
1757088069423145200,10.405145263671875,0.47084474563598633,0.635095477104187,1.2017897367477417
1757088069433192000,10.41519189453125,0.5664519667625427,0.6109078526496887,1.286025881767273
1757088069443238100,10.425238037109375,0.6655582785606384,0.5736733675003052,1.4033594131469727
1757088069453285000,10.43528515625,0.7919995784759521,0.5430254936218262,1.56890869140625
1757088069463332000,10.44533203125,0.9410870671272278,0.5715439319610596,1.729116439819336
1757088069473378300,10.45537841796875,1.0755375623703003,0.7174380421638489,1.8045039176940918
1757088069483425000,10.465425048828125,1.102521300315857,0.8740302920341492,1.743021845817566
1757088069493472000,10.475471923828126,1.0250381231307983,0.9377474784851074,1.5614656209945679
1757088069503519000,10.48551904296875,0.9016494154930115,0.7810702323913574,1.4499140977859497
1757088069513565200,10.495565185546875,0.7375488877296448,0.3887117803096771,1.430373191833496
1757088069523612000,10.50561181640625,0.550595760345459,0.2502354085445404,1.228503704071045
1757088069533659100,10.5156591796875,0.5897998809814453,-0.32095539569854736,0.914544403553009
1757088069543705300,10.525705322265624,0.5647371411323547,-1.1435930728912354,0.5482114553451538
1757088069553752000,10.535751953125,0.5977491736412048,-1.5136371850967407,0.26418983936309814
1757088069563799000,10.545799072265625,0.808810293674469,-1.551938772201538,0.11676949262619019
1757088069573845200,10.55584521484375,1.0069880485534668,-1.715752124786377,0.32393786311149597
1757088069583892200,10.565892333984374,1.0939162969589233,-1.565855622291565,0.6950786709785461
1757088069593939000,10.57593896484375,1.0307272672653198,-1.0606398582458496,1.0264909267425537
1757088069603985200,10.585985107421875,0.9895779490470886,-0.47634923458099365,1.186745285987854
1757088069614032100,10.5960322265625,1.017431378364563,0.03641846030950546,1.3247815370559692
1757088069624079000,10.6060791015625,1.1170352697372437,0.16076251864433289,1.4551613330841064
1757088069634126000,10.6161259765625,1.2537949085235596,0.22575829923152924,1.4440330266952515
1757088069644172300,10.62617236328125,1.304425835609436,0.1885046660900116,1.377916932106018
1757088069654219300,10.63621923828125,1.260341763496399,0.09086652100086212,1.3194963932037354
1757088069664266000,10.646265869140626,1.1600292921066284,-0.022101307287812233,1.2198710441589355
1757088069674312200,10.656312255859374,1.1007031202316284,-0.13507738709449768,1.1188541650772095
1757088069684359200,10.666359130859375,1.0964149236679077,-0.1972760558128357,1.056297779083252
1757088069694406100,10.67640625,1.1284335851669312,-0.23015783727169037,1.0154081583023071
1757088069704452000,10.6864521484375,1.1932306289672852,-0.27266642451286316,0.9772053956985474
1757088069714499300,10.696499267578124,1.2524489164352417,-0.30076757073402405,0.914998471736908
1757088069724546300,10.70654638671875,1.295610785484314,-0.4074484705924988,0.7501762509346008
1757088069734593300,10.71659326171875,1.3212783336639404,-0.48550865054130554,0.5566062331199646
1757088069744639200,10.72663916015625,1.3076504468917847,-0.49715837836265564,0.41898608207702637
1757088069754686200,10.736686279296874,1.2517224550247192,-0.4607737362384796,0.38025227189064026
1757088069764733200,10.746733154296875,1.1490626335144043,-0.4719856381416321,0.4105968475341797
1757088069774779100,10.756779052734375,1.0652461051940918,-0.42420586943626404,0.4603652060031891
1757088069784826000,10.766826171875,0.992551863193512,-0.3763491213321686,0.4817360043525696
1757088069794873300,10.776873291015624,0.9591113328933716,-0.5224893093109131,0.4392561912536621
1757088069804919300,10.786919189453124,0.9485210180282593,-0.7843257188796997,0.38603106141090393
1757088069814966300,10.79696630859375,0.9288477301597595,-1.0067214965820312,0.37773770093917847
1757088069825013200,10.80701318359375,0.8647465109825134,-1.070692539215088,0.435046523809433
1757088069835059200,10.81705908203125,0.8233226537704468,-1.0578593015670776,0.4698098301887512
1757088069845106200,10.827106201171874,0.7870978116989136,-1.0929231643676758,0.46269333362579346
1757088069855153200,10.837153076171875,0.7095414996147156,-1.0551811456680298,0.4798920452594757
1757088069865200000,10.8472001953125,0.5994168519973755,-0.9115340113639832,0.5038788914680481
1757088069875246000,10.85724609375,0.4944494068622589,-0.7536362409591675,0.5511633157730103
1757088069885293300,10.867293212890624,0.31978198885917664,-0.6246955394744873,0.6446207761764526
1757088069895340300,10.87734033203125,0.11384587734937668,-0.47893038392066956,0.7990689873695374
1757088069905386200,10.88738623046875,-0.03892156481742859,-0.228522390127182,0.9953729510307312
1757088069915433200,10.89743310546875,-0.10940638184547424,0.07516718655824661,1.1678440570831299
1757088069925480200,10.907480224609374,-0.09909994900226593,0.4676010310649872,1.2855541706085205
1757088069935526100,10.917526123046875,-0.08561050891876221,0.998971700668335,1.4179308414459229
1757088069945573000,10.927572998046875,-0.03598463162779808,1.3731212615966797,1.4836184978485107
1757088069955620000,10.9376201171875,0.03862808644771576,1.3216969966888428,1.435672640800476
1757088069965667000,10.9476669921875,0.19081123173236847,0.9043639302253723,1.301051378250122
1757088069975713000,10.957713134765624,0.3823396563529968,0.43591365218162537,1.1658711433410645
1757088069985760300,10.96776025390625,0.5704938173294067,0.1296783685684204,1.0015623569488525
1757088069995807200,10.97780712890625,0.7219344973564148,0.06621816754341125,0.8384469747543335
1757088070005853200,10.987853271484376,0.850885272026062,0.12890951335430145,0.7029656171798706
1757088070015900200,10.997900146484374,0.9366294741630554,0.20916840434074402,0.5927935838699341
1757088070025947100,11.007947021484375,0.9237512350082397,0.2802976965904236,0.48953375220298767
1757088070035993000,11.0179931640625,0.8628037571907043,0.2771940529346466,0.3933020234107971
1757088070046040000,11.0280400390625,0.7640798091888428,0.22846166789531708,0.2949804961681366
1757088070056087000,11.038087158203124,0.6333708167076111,0.20005851984024048,0.18505187332630157
1757088070066133000,11.048133056640625,0.47051772475242615,0.2522623538970947,0.08869817852973938
1757088070076180200,11.05818017578125,0.31225988268852234,0.40063342452049255,0.06216536834836006
1757088070086227200,11.068227294921876,0.18941067159175873,0.5550083518028259,0.121070496737957
1757088070096274200,11.078274169921874,0.14067882299423218,0.6272647380828857,0.1792997121810913
1757088070106320100,11.088320068359375,0.10938534885644913,0.6092132925987244,0.22803130745887756
1757088070116367000,11.0983671875,0.08530610799789429,0.5115671157836914,0.23521411418914795
1757088070126414000,11.1084140625,0.08695567399263382,0.39323145151138306,0.22325119376182556
1757088070136460000,11.1184599609375,0.11133638024330139,0.2678109407424927,0.208781436085701
1757088070146507000,11.128507080078125,0.12789325416088104,0.13579565286636353,0.16391968727111816
1757088070156554200,11.13855419921875,0.1631774753332138,0.05567071959376335,0.10707851499319077
1757088070166600200,11.14860009765625,0.18569929897785187,0.002956641372293234,0.07022515684366226
1757088070176647200,11.158647216796876,0.17142900824546814,-0.032824523746967316,0.06808584183454514
1757088070186694100,11.168694091796874,0.12460291385650635,0.014791728928685188,0.1343916356563568
1757088070196741000,11.1787412109375,0.0802687406539917,0.09100740402936935,0.2352527230978012
1757088070206787000,11.188787109375,0.0621722936630249,0.13313861191272736,0.29594936966896057
1757088070216834000,11.198833984375,0.08739589154720306,0.1299010068178177,0.28715428709983826
1757088070226881000,11.208881103515624,0.10153141617774963,0.04429369419813156,0.2161184549331665
1757088070236927000,11.218927001953125,0.1357000470161438,-0.09026011824607849,0.10299349576234818
1757088070246974200,11.22897412109375,0.1541626751422882,-0.17308096587657928,-0.09303992986679077
1757088070257021200,11.239021240234376,0.10872860997915268,-0.14544348418712616,-0.3659771978855133
1757088070267067100,11.249067138671874,0.02189864031970501,-0.07448968291282654,-0.6611153483390808
1757088070277114000,11.259114013671875,-0.08853279799222946,0.05510826036334038,-0.8931970596313477
1757088070287161000,11.2691611328125,-0.20397283136844635,0.30279821157455444,-1.0515347719192505
1757088070297208000,11.2792080078125,-0.2555212378501892,0.5170726776123047,-1.2265217304229736
1757088070307254000,11.28925390625,-0.29879575967788696,0.671932578086853,-1.4278229475021362
1757088070317301000,11.299301025390625,-0.3726010024547577,0.7255308032035828,-1.640044927597046
1757088070327348200,11.30934814453125,-0.4805964529514313,0.7167761921882629,-1.8054924011230469
1757088070337394200,11.319394287109375,-0.5980237126350403,0.9481104016304016,-1.9083576202392578
1757088070347441200,11.329441162109376,-0.629725992679596,1.4675918817520142,-1.9236105680465698
1757088070357488000,11.339488037109374,-0.7574610710144043,2.0435869693756104,-1.829021692276001
1757088070367534000,11.3495341796875,-0.9215690493583679,2.3598053455352783,-1.7009763717651367
1757088070377581000,11.3595810546875,-1.1603150367736816,2.606610059738159,-1.4547346830368042
1757088070387628000,11.3696279296875,-1.527596354484558,2.7309513092041016,-1.1696313619613647
1757088070397674000,11.379674072265624,-1.9047460556030273,2.7003469467163086,-0.8614465594291687
1757088070407721000,11.389720947265625,-2.104943037033081,2.5060393810272217,-0.5008383393287659
1757088070417768200,11.399768310546875,-2.1539065837860107,2.007087230682373,-0.20593425631523132
1757088070427815200,11.409815185546876,-2.265561580657959,1.4601444005966187,0.03858760744333267
1757088070437861400,11.419861328125,-2.3627564907073975,1.0241925716400146,0.2913154661655426
1757088070447908400,11.429908447265625,-2.4855291843414307,0.3116300702095032,0.13827665150165558
1757088070457955300,11.439955322265625,-2.6310105323791504,-0.4090050756931305,-0.8205875754356384
1757088070468001300,11.450001220703125,-2.6772148609161377,-1.1158586740493774,-1.4466238021850586
1757088070478048300,11.46004833984375,-2.5523760318756104,-1.3166841268539429,-1.6571588516235352
1757088070488095200,11.47009521484375,-2.42109751701355,-1.0574488639831543,-1.663955807685852
1757088070498141200,11.48014111328125,-2.3079144954681396,-0.7147831320762634,-1.5376710891723633
1757088070508188400,11.4901884765625,-2.2419941425323486,-0.7871564030647278,-1.4109821319580078
1757088070518235400,11.5002353515625,-2.2497828006744385,-0.9176065325737,-1.301430344581604
1757088070528282400,11.510282470703125,-2.311384677886963,-0.9149543046951294,-1.2800315618515015
1757088070538328300,11.520328369140625,-2.328875780105591,-0.9085959792137146,-1.332804799079895
1757088070548375300,11.530375244140625,-2.3034026622772217,-1.0106126070022583,-1.4485396146774292
1757088070558422300,11.54042236328125,-2.241119384765625,-1.0572848320007324,-1.5510393381118774
1757088070568468200,11.55046826171875,-2.1593844890594482,-0.9533783793449402,-1.5080983638763428
1757088070578515200,11.56051513671875,-2.019514799118042,-0.8777906894683838,-1.4142972230911255
1757088070588562400,11.5705625,-1.905956506729126,-0.712058424949646,-1.2673512697219849
1757088070598608400,11.5806083984375,-1.7756866216659546,-0.9245629906654358,-1.301499366760254
1757088070608655400,11.5906552734375,-1.733665943145752,-1.0347232818603516,-1.4070513248443604
1757088070618702300,11.600702392578125,-1.5786901712417603,-1.1383682489395142,-1.503612756729126
1757088070628749300,11.610749267578125,-1.3975880146026611,-1.2731579542160034,-1.5399422645568848
1757088070638795300,11.620795166015625,-1.1950572729110718,-1.3860373497009277,-1.5374202728271484
1757088070648842200,11.63084228515625,-0.9896714091300964,-1.4696342945098877,-1.5132917165756226
1757088070658889200,11.64088916015625,-0.8226706981658936,-1.4636341333389282,-1.4611936807632446
1757088070668935400,11.650935302734375,-0.6604660749435425,-1.385327696800232,-1.3447245359420776
1757088070678982400,11.660982421875,-0.5316399335861206,-1.2334257364273071,-1.1292364597320557
1757088070689029400,11.671029296875,-0.4122011363506317,-1.026010513305664,-0.832795262336731
1757088070699075600,11.68107568359375,-0.29524096846580505,-0.8346714377403259,-0.5413002967834473
1757088070709122300,11.691122314453125,-0.2077454775571823,-0.5879654884338379,-0.24886228144168854
1757088070719169300,11.701169189453125,-0.137572780251503,-0.3171883523464203,0.034321222454309464
1757088070729215500,11.711215576171876,-0.05559348687529564,-0.0496293380856514,0.30906304717063904
1757088070739262500,11.721262451171874,0.014882809482514858,0.1956091821193695,0.5502394437789917
1757088070749309200,11.73130908203125,0.09493769705295563,0.38642412424087524,0.7536466121673584
1757088070759356200,11.741356201171875,0.19863106310367584,0.5061202049255371,0.9233427047729492
1757088070769402400,11.75140234375,0.31067824363708496,0.5890507698059082,1.0593622922897339
1757088070779449300,11.761449462890624,0.41453513503074646,0.6788711547851562,1.1686387062072754
1757088070789496300,11.771496337890625,0.5093718767166138,0.7537174820899963,1.2562178373336792
1757088070799542500,11.78154248046875,0.608354926109314,0.7800071239471436,1.3132694959640503
1757088070809589500,11.791589599609376,0.745231568813324,0.7224447727203369,1.3643845319747925
1757088070819636200,11.80163623046875,0.9365271925926208,0.6567078232765198,1.4365922212600708
1757088070829682400,11.811682373046875,1.124812126159668,0.6425584554672241,1.501987099647522
1757088070839729400,11.8217294921875,1.142038345336914,0.6502893567085266,1.5291303396224976
1757088070849776400,11.8317763671875,1.011913537979126,0.7864687442779541,1.4992637634277344
1757088070859823400,11.8418232421875,0.9052454829216003,0.7407734394073486,1.538361668586731
1757088070869869600,11.85186962890625,0.7970278859138489,0.5390309691429138,1.6403119564056396
1757088070879916500,11.86191650390625,0.8119964599609375,0.3147723078727722,1.520356297492981
1757088070889963300,11.87196337890625,0.9143412113189697,-0.04408756643533707,1.2526785135269165
1757088070900009500,11.882009521484376,0.8707226514816284,-0.7233691215515137,1.0468816757202148
1757088070910056400,11.892056396484374,0.8431794047355652,-1.096319317817688,0.9219040870666504
1757088070920103400,11.902103515625,0.9128442406654358,-1.2723968029022217,0.8046740889549255
1757088070930149400,11.9121494140625,1.0225905179977417,-1.3223342895507812,0.7560749053955078
1757088070940196400,11.9221962890625,1.1427453756332397,-1.2154490947723389,0.8690565824508667
1757088070950243600,11.93224365234375,1.2061136960983276,-0.9401829242706299,1.0996607542037964
1757088070960290300,11.942290283203125,1.222760796546936,-0.5255149006843567,1.3300215005874634
1757088070970336500,11.95233642578125,1.250253677368164,-0.12555579841136932,1.4575328826904297
1757088070980383500,11.962383544921876,1.3782672882080078,0.10093753039836884,1.5132079124450684
1757088070990430500,11.972430419921874,1.549485206604004,0.15530863404273987,1.4423164129257202
1757088071000476400,11.982476318359375,1.635128140449524,0.20409348607063293,1.3721988201141357
1757088071010523400,11.9925234375,1.5994980335235596,0.14714577794075012,1.3089755773544312
1757088071020570400,12.0025703125,1.498393177986145,0.060567207634449005,1.2250226736068726
1757088071030616300,12.0126162109375,1.4510846138000488,-0.04603646695613861,1.1312538385391235
1757088071040663600,12.02266357421875,1.4507298469543457,-0.0938577875494957,1.0608688592910767
1757088071050710500,12.03271044921875,1.4616096019744873,-0.21441268920898438,0.9444951415061951
1757088071060757500,12.042757568359375,1.5350329875946045,-0.2745268940925598,0.8136963844299316
1757088071070803500,12.052803466796876,1.6752982139587402,-0.32132688164711,0.658707857131958
1757088071080850400,12.062850341796874,1.799190878868103,-0.5321547389030457,0.4253433048725128
1757088071090897400,12.0728974609375,1.8469408750534058,-0.7824034094810486,0.21519966423511505
1757088071100943400,12.082943359375,1.8225513696670532,-0.8584902286529541,0.16330210864543915
1757088071110990300,12.092990234375,1.7152835130691528,-0.7996668219566345,0.2689289450645447
1757088071121037600,12.10303759765625,1.5364670753479004,-0.6710460186004639,0.4317415654659271
1757088071131083500,12.11308349609375,1.3561420440673828,-0.5996370911598206,0.557091474533081
1757088071141130500,12.123130615234375,1.2300986051559448,-0.6246561408042908,0.5742254853248596
1757088071151177500,12.133177490234376,1.1460753679275513,-0.7328609228134155,0.5400872230529785
1757088071161223400,12.143223388671874,1.0660074949264526,-0.7608464956283569,0.5307866334915161
1757088071171270400,12.1532705078125,0.9810893535614014,-0.8015230894088745,0.5049670338630676
1757088071181317400,12.1633173828125,0.869929313659668,-0.8373833298683167,0.510618269443512
1757088071191364400,12.1733642578125,0.6996760368347168,-0.7726544141769409,0.5669363737106323
1757088071201410300,12.183410400390626,0.5238280892372131,-0.7542514204978943,0.6141654253005981
1757088071211457500,12.19345751953125,0.3613035976886749,-0.744337260723114,0.6519149541854858
1757088071221504500,12.20350439453125,0.19571757316589355,-0.7572475075721741,0.6714068651199341
1757088071231550500,12.213550537109375,-0.0688088908791542,-0.5622771978378296,0.7870317697525024
1757088071241597400,12.223597412109376,-0.3435765504837036,-0.27767714858055115,0.958243727684021
1757088071251644400,12.23364453125,-0.48976650834083557,-0.004588892683386803,1.1418870687484741
1757088071261690400,12.2436904296875,-0.5333816409111023,0.35792645812034607,1.309482455253601
1757088071271737300,12.2537373046875,-0.5061425566673279,0.8436620235443115,1.4180587530136108
1757088071281784300,12.263784423828126,-0.5136590600013733,1.273693323135376,1.477782964706421
1757088071291831600,12.27383154296875,-0.5423285365104675,1.54927396774292,1.5572378635406494
1757088071301877200,12.283877197265625,-0.31369295716285706,1.326029658317566,1.5007431507110596
1757088071311924500,12.293924560546875,-0.004505269695073366,0.803876519203186,1.2354971170425415
1757088071321971500,12.303971435546876,0.29298046231269836,0.21335142850875854,0.8873913884162903
1757088071332017400,12.314017333984374,0.6115683317184448,-0.10319563001394272,0.5238499045372009
1757088071342064400,12.324064453125,0.7665442824363708,-0.1551794707775116,0.2601407766342163
1757088071352111400,12.334111328125,0.8187276124954224,-0.08997756242752075,0.1128072440624237
1757088071362157300,12.3441572265625,0.7989293932914734,0.15882320702075958,0.14563602209091187
1757088071372204300,12.354204345703126,0.7370777726173401,0.39345380663871765,0.28476250171661377
1757088071382251300,12.364251220703125,0.7209187746047974,0.5138987302780151,0.4034790098667145
1757088071392298500,12.374298583984375,0.7317506670951843,0.5221878290176392,0.44319313764572144
1757088071402344400,12.384344482421875,0.7323658466339111,0.49769526720046997,0.45568203926086426
1757088071412391400,12.394391357421876,0.6946696043014526,0.33846354484558105,0.41849204897880554
1757088071422438400,12.4044384765625,0.6348563432693481,0.16725610196590424,0.35066482424736023
1757088071432484400,12.414484375,0.5500455498695374,0.04255598410964012,0.2892632484436035
1757088071442531600,12.424531494140625,0.4684212803840637,-0.07369180023670197,0.23816196620464325
1757088071452578600,12.43457861328125,0.3580950200557709,-0.11004900932312012,0.19959193468093872
1757088071462624500,12.44462451171875,0.23687273263931274,-0.08858393132686615,0.11314013600349426
1757088071472671500,12.45467138671875,0.1504984349012375,0.047754473984241486,0.06598301231861115
1757088071482718500,12.464718505859375,0.09262686967849731,0.2487829178571701,0.10390403121709824
1757088071492764400,12.474764404296875,0.05157025158405304,0.4499642252922058,0.1891603320837021
1757088071502811400,12.484811279296874,-0.003771568648517132,0.5591242909431458,0.2835044264793396
1757088071512858400,12.4948583984375,-0.050332680344581604,0.5855523943901062,0.38000646233558655
1757088071522905600,12.504905517578125,-0.07948124408721924,0.5957701802253723,0.4411965608596802
