time,seconds_elapsed,z,y,x
1757088381665596700,0.0145966796875,-1.0003662109375,-0.03009033203125,0.0342559814453125
1757088381675643600,0.0246435546875,-0.982513427734375,-0.0370941162109375,0.0405426025390625
1757088381685689600,0.034689697265625,-0.9730682373046875,-0.04522705078125,0.0447845458984375
1757088381695735800,0.04473583984375,-0.9747772216796875,-0.053070068359375,0.0414886474609375
1757088381705782500,0.054782470703125,-0.9835968017578125,-0.05828857421875,0.02679443359375
1757088381715828700,0.064828857421875,-1.0009765625,-0.063262939453125,0.0111236572265625
1757088381725874700,0.074874755859375,-1.020965576171875,-0.0684051513671875,-0.0084075927734375
1757088381735921700,0.084921630859375,-1.0289764404296875,-0.07037353515625,-0.021636962890625
1757088381745967600,0.094967529296875,-1.0289459228515625,-0.0725250244140625,-0.02960205078125
1757088381756013600,0.105013671875,-1.0211334228515625,-0.07293701171875,-0.0314788818359375
1757088381766060500,0.115060546875,-1.0030059814453125,-0.067169189453125,-0.0241546630859375
1757088381776106500,0.1251064453125,-0.98931884765625,-0.06976318359375,-0.017486572265625
1757088381786153500,0.135153564453125,-0.9777374267578125,-0.0752410888671875,-0.018310546875
1757088381796199700,0.14519970703125,-0.9675140380859375,-0.0814666748046875,-0.01324462890625
1757088381806245600,0.15524560546875,-0.948272705078125,-0.0912628173828125,-0.0099639892578125
1757088381816292900,0.16529296875,-0.9293975830078125,-0.1006317138671875,-0.011932373046875
1757088381826338800,0.1753388671875,-0.9229888916015625,-0.1106719970703125,-0.015899658203125
1757088381836384800,0.185384765625,-0.918975830078125,-0.118316650390625,-0.022369384765625
1757088381846431700,0.195431640625,-0.92376708984375,-0.1217041015625,-0.02569580078125
1757088381856477700,0.205477783203125,-0.944427490234375,-0.1240386962890625,-0.030914306640625
1757088381866524700,0.215524658203125,-0.9715576171875,-0.1252288818359375,-0.0401763916015625
1757088381876570600,0.225570556640625,-0.98907470703125,-0.1241912841796875,-0.05413818359375
1757088381886616800,0.235616943359375,-0.9873199462890625,-0.1260833740234375,-0.0610198974609375
1757088381896663600,0.24566357421875,-0.980743408203125,-0.132232666015625,-0.0489349365234375
1757088381906709800,0.255709716796875,-0.9794158935546875,-0.0861968994140625,-0.0080413818359375
1757088381916755700,0.265755615234375,-0.9996795654296875,-0.08355712890625,0.0309295654296875
1757088381926802700,0.275802734375,-1.0211181640625,-0.10369873046875,0.0162811279296875
1757088381936848600,0.2858486328125,-1.0155029296875,-0.089630126953125,-0.012725830078125
1757088381946895600,0.2958955078125,-1.0192413330078125,-0.0741729736328125,-0.0117034912109375
1757088381956941600,0.305941650390625,-1.030975341796875,-0.0669708251953125,0.003173828125
1757088381966987500,0.315987548828125,-1.0381927490234375,-0.0686187744140625,0.021820068359375
1757088381977034500,0.326034423828125,-1.0270233154296875,-0.07781982421875,0.01495361328125
1757088381987080400,0.33608056640625,-0.9959259033203125,-0.0978546142578125,0.004547119140625
1757088381997126700,0.346126708984375,-0.96502685546875,-0.1129913330078125,0.00335693359375
1757088382007174000,0.356173828125,-0.9659423828125,-0.1386260986328125,0.0272064208984375
1757088382017219800,0.3662197265625,-0.956512451171875,-0.2117156982421875,0.0350189208984375
1757088382027266800,0.376266845703125,-0.8558197021484375,-0.308349609375,-0.0065765380859375
1757088382037312800,0.386312744140625,-0.8026275634765625,-0.310577392578125,-0.0627593994140625
1757088382047358700,0.396358642578125,-0.8369293212890625,-0.300750732421875,-0.0377960205078125
1757088382057405700,0.40640576171875,-0.8929443359375,-0.31121826171875,-0.012237548828125
1757088382067451600,0.41645166015625,-0.9586334228515625,-0.2368927001953125,-0.045257568359375
1757088382077497600,0.42649755859375,-1.0198211669921875,-0.3008575439453125,0.0209808349609375
1757088382087544600,0.436544677734375,-1.025177001953125,-0.28692626953125,0.102294921875
1757088382097590800,0.4465908203125,-0.9753875732421875,-0.201385498046875,0.1135406494140625
1757088382107637800,0.4566376953125,-0.934722900390625,-0.1197967529296875,0.1064910888671875
1757088382117683700,0.46668359375,-0.9165191650390625,-0.1009674072265625,0.094696044921875
1757088382127729700,0.476729736328125,-0.9290924072265625,-0.1401824951171875,0.0921173095703125
1757088382137776600,0.486776611328125,-0.9662017822265625,-0.1611785888671875,0.0543670654296875
1757088382147822600,0.496822509765625,-0.960540771484375,-0.1219635009765625,-0.080963134765625
1757088382157868500,0.50686865234375,-0.9830780029296875,-0.105072021484375,-0.1517486572265625
1757088382167915500,0.51691552734375,-0.9912261962890625,-0.076812744140625,-0.149627685546875
1757088382177961500,0.52696142578125,-1.0417938232421875,-0.0041046142578125,-0.085296630859375
1757088382188008700,0.5370087890625,-0.96771240234375,0.0254974365234375,-0.018585205078125
1757088382198055000,0.547054931640625,-0.82086181640625,0.0318450927734375,0.0084381103515625
1757088382208100600,0.5571005859375,-0.7329254150390625,-0.1141510009765625,0.06646728515625
1757088382218147800,0.56714794921875,-0.7218780517578125,-0.3140869140625,0.11181640625
1757088382228193800,0.57719384765625,-0.717132568359375,-0.3916168212890625,0.0585174560546875
1757088382238239700,0.58723974609375,-0.734130859375,-0.35736083984375,-0.0307159423828125
1757088382248286700,0.59728662109375,-0.8157806396484375,-0.3206939697265625,-0.1369476318359375
1757088382258332700,0.607332763671875,-1.0257720947265625,-0.2730865478515625,-0.3449859619140625
1757088382268379600,0.617379638671875,-1.03887939453125,-0.1531219482421875,-0.49267578125
1757088382278425600,0.627425537109375,-0.9365997314453125,-0.0736541748046875,-0.56414794921875
1757088382288471800,0.637471923828125,-0.895355224609375,-0.09625244140625,-0.547119140625
1757088382298518800,0.647518798828125,-0.789459228515625,-0.1186370849609375,-0.4064788818359375
1757088382308564700,0.657564697265625,-0.63446044921875,-0.0561370849609375,-0.3018951416015625
1757088382318610700,0.667610595703125,-0.4771881103515625,-0.027252197265625,-0.2174530029296875
1757088382328657700,0.67765771484375,-0.4796600341796875,-0.1574554443359375,-0.075927734375
1757088382338703600,0.68770361328125,-0.4895477294921875,-0.15765380859375,-0.0884857177734375
1757088382348750600,0.69775048828125,-0.4281768798828125,-0.0465545654296875,-0.253631591796875
1757088382358796500,0.707796630859375,-0.37396240234375,0.04229736328125,-0.3560333251953125
1757088382368842500,0.717842529296875,-0.3299560546875,0.0753936767578125,-0.3846435546875
1757088382378889500,0.727889404296875,-0.2993011474609375,0.08221435546875,-0.3501739501953125
1757088382388935700,0.737935791015625,-0.2956695556640625,0.0879058837890625,-0.2931671142578125
1757088382398981600,0.747981689453125,-0.2655487060546875,0.1146087646484375,-0.2865753173828125
1757088382409028900,0.75802880859375,-0.192535400390625,0.1696014404296875,-0.3186798095703125
1757088382419074800,0.76807470703125,-0.1072540283203125,0.2126617431640625,-0.340301513671875
1757088382429121800,0.778121826171875,-0.0158538818359375,0.2401123046875,-0.3494415283203125
1757088382439167700,0.788167724609375,0.065948486328125,0.2668304443359375,-0.3447418212890625
1757088382449213700,0.798213623046875,0.105255126953125,0.3152923583984375,-0.34405517578125
1757088382459260700,0.8082607421875,0.124114990234375,0.3785858154296875,-0.3537139892578125
1757088382469306600,0.818306640625,0.1460418701171875,0.448089599609375,-0.3892059326171875
1757088382479352800,0.828352783203125,0.1639556884765625,0.5056304931640625,-0.471099853515625
1757088382489399600,0.838399658203125,0.16143798828125,0.5378265380859375,-0.6682586669921875
1757088382499445800,0.84844580078125,0.13885498046875,0.5529632568359375,-0.9344482421875
1757088382509492700,0.85849267578125,0.1248321533203125,0.57489013671875,-1.09698486328125
1757088382519538700,0.86853857421875,0.11114501953125,0.58160400390625,-1.1799468994140625
1757088382529584600,0.878584716796875,0.091827392578125,0.5912017822265625,-1.21307373046875
1757088382539631600,0.888631591796875,0.0711822509765625,0.652374267578125,-1.2088623046875
1757088382549677600,0.898677490234375,0.0207061767578125,0.6959686279296875,-1.29742431640625
1757088382559723500,0.9087236328125,-0.063079833984375,0.7244873046875,-1.3773345947265625
1757088382569770500,0.9187705078125,-0.1769256591796875,0.7402191162109375,-1.536834716796875
1757088382579816700,0.928816650390625,-0.33856201171875,0.7210540771484375,-1.7301025390625
1757088382589863700,0.93886376953125,-0.4390411376953125,0.725494384765625,-1.8391571044921875
1757088382599910000,0.948909912109375,-0.3792266845703125,0.7611846923828125,-1.8900299072265625
1757088382609955800,0.958955810546875,-0.2939453125,0.8089599609375,-1.83758544921875
1757088382620002800,0.9690029296875,-0.1952056884765625,0.81390380859375,-1.7432098388671875
1757088382630048800,0.979048828125,-0.1279144287109375,0.75897216796875,-1.7501678466796875
1757088382640094700,0.9890947265625,-0.0764617919921875,0.7008514404296875,-1.79254150390625
1757088382650141700,0.9991416015625,-0.024383544921875,0.6326446533203125,-1.820098876953125
1757088382660187600,1.009187744140625,-0.022796630859375,0.570037841796875,-1.9165802001953125
1757088382670234600,1.019234619140625,-0.065521240234375,0.5124969482421875,-2.0095977783203125
1757088382680280600,1.029280517578125,-0.1147003173828125,0.4299163818359375,-1.9886474609375
1757088382690326800,1.039326904296875,-0.1327972412109375,0.383819580078125,-1.912506103515625
1757088382700373800,1.049373779296875,-0.13427734375,0.4002685546875,-1.8409576416015625
1757088382710419700,1.059419677734375,-0.1470184326171875,0.404327392578125,-1.81634521484375
1757088382720465700,1.069465576171875,-0.1612701416015625,0.41253662109375,-1.7913970947265625
1757088382730512600,1.0795126953125,-0.1603546142578125,0.4108428955078125,-1.74932861328125
1757088382740558600,1.08955859375,-0.1303558349609375,0.407684326171875,-1.7223968505859375
1757088382750605600,1.09960546875,-0.0929412841796875,0.4274139404296875,-1.713714599609375
1757088382760651500,1.109651611328125,0.018341064453125,0.57977294921875,-1.8627777099609375
1757088382770697500,1.119697509765625,0.1654815673828125,0.542144775390625,-1.7596588134765625
1757088382780744700,1.12974462890625,0.087860107421875,0.31231689453125,-1.345123291015625
1757088382790790700,1.139790771484375,-0.0204315185546875,0.3265838623046875,-1.183349609375
1757088382800836600,1.149836669921875,-0.081024169921875,0.4649810791015625,-1.1085052490234375
1757088382810883800,1.1598837890625,-0.1618804931640625,0.597564697265625,-1.1259002685546875
1757088382820929800,1.1699296875,-0.2931060791015625,0.7027740478515625,-1.1555633544921875
1757088382830976800,1.179976806640625,-0.2888031005859375,0.7564849853515625,-1.160186767578125
1757088382841022700,1.190022705078125,-0.2019195556640625,0.7261505126953125,-1.063262939453125
1757088382851068700,1.200068603515625,-0.1286773681640625,0.62530517578125,-0.8883819580078125
1757088382861115600,1.21011572265625,-0.10736083984375,0.54229736328125,-0.7177886962890625
1757088382871161600,1.22016162109375,-0.1056365966796875,0.5011444091796875,-0.6103363037109375
1757088382881208600,1.23020849609375,-0.0850067138671875,0.5200042724609375,-0.5566558837890625
1757088382891254800,1.2402548828125,-0.0930023193359375,0.5760040283203125,-0.5413055419921875
1757088382901300700,1.25030078125,-0.065948486328125,0.632232666015625,-0.53179931640625
1757088382911347700,1.26034765625,-0.0592498779296875,0.67431640625,-0.5247802734375
1757088382921393700,1.2703935546875,-0.130615234375,0.70330810546875,-0.431304931640625
1757088382931439600,1.280439697265625,-0.2955322265625,0.586517333984375,-0.4056854248046875
1757088382941486600,1.290486572265625,-0.2973480224609375,0.5025177001953125,-0.3939208984375
1757088382951532500,1.300532470703125,-0.2318878173828125,0.515350341796875,-0.4653472900390625
1757088382961579500,1.31057958984375,-0.0818328857421875,0.50054931640625,-0.6928253173828125
1757088382971625500,1.32062548828125,0.1350250244140625,0.52984619140625,-0.838714599609375
1757088382981671700,1.330671630859375,0.105377197265625,0.560791015625,-0.93798828125
1757088382991718700,1.34071875,0.000579833984375,0.5174713134765625,-0.979766845703125
1757088383001764900,1.350764892578125,-0.0893096923828125,0.4617156982421875,-0.9168853759765625
1757088383011811800,1.360811767578125,-0.1953582763671875,0.4582061767578125,-0.804534912109375
1757088383021857800,1.37085791015625,-0.2235107421875,0.5059051513671875,-0.6591033935546875
1757088383031903700,1.38090380859375,-0.1786346435546875,0.5430755615234375,-0.5123443603515625
1757088383041950700,1.39095068359375,-0.044677734375,0.5077667236328125,-0.4189300537109375
1757088383051996700,1.40099658203125,-0.0352630615234375,0.4847259521484375,-0.44482421875
1757088383062042600,1.411042724609375,-0.242462158203125,0.4980010986328125,-0.5659637451171875
1757088383072089600,1.421089599609375,-0.3746490478515625,0.485626220703125,-0.72198486328125
1757088383082135600,1.431135498046875,-0.2780303955078125,0.465301513671875,-0.8492431640625
1757088383092182500,1.4411826171875,-0.09722900390625,0.3920135498046875,-0.9658203125
1757088383102228700,1.451228759765625,0.0155029296875,0.350799560546875,-0.979888916015625
1757088383112274700,1.461274658203125,0.0605621337890625,0.4026336669921875,-0.753021240234375
1757088383122321700,1.47132177734375,0.0221710205078125,0.4890899658203125,-0.74365234375
1757088383132367600,1.48136767578125,-0.0281829833984375,0.5363311767578125,-0.832122802734375
1757088383142413600,1.49141357421875,-0.1341400146484375,0.575439453125,-0.7732696533203125
1757088383152460500,1.50146044921875,-0.2203521728515625,0.55682373046875,-0.73046875
1757088383162506500,1.511506591796875,-0.205780029296875,0.56109619140625,-0.622711181640625
1757088383172553700,1.5215537109375,-0.20928955078125,0.56787109375,-0.527252197265625
1757088383182599700,1.531599609375,-0.2303466796875,0.5554351806640625,-0.4644775390625
1757088383192646000,1.54164599609375,-0.2108154296875,0.5428009033203125,-0.5544891357421875
1757088383202692900,1.55169287109375,-0.1679534912109375,0.53167724609375,-0.71185302734375
1757088383212738800,1.56173876953125,-0.1605224609375,0.6505889892578125,-0.76800537109375
1757088383222784800,1.57178466796875,-0.410064697265625,0.8996124267578125,-0.406097412109375
1757088383232831700,1.581831787109375,-0.2719573974609375,0.894622802734375,-1.0978546142578125
1757088383242877700,1.591877685546875,-0.01409912109375,0.655059814453125,-1.101837158203125
1757088383252924700,1.601924560546875,-0.24725341796875,0.516387939453125,-1.142852783203125
1757088383262970600,1.611970703125,-0.1038970947265625,0.487457275390625,-1.1061859130859375
1757088383273016600,1.6220166015625,0.07342529296875,0.5658416748046875,-1.0596771240234375
1757088383283064600,1.632064697265625,0.1165008544921875,0.574371337890625,-0.9829864501953125
1757088383293110500,1.642110595703125,0.1138763427734375,0.5756072998046875,-0.9361572265625
1757088383303157800,1.65215771484375,0.069000244140625,0.6060943603515625,-0.722442626953125
1757088383313203700,1.66220361328125,0.0433197021484375,0.622528076171875,-0.6090850830078125
1757088383323250000,1.67225,0.0759429931640625,0.5446014404296875,-0.6426239013671875
1757088383333297000,1.682296875,0.10882568359375,0.4689483642578125,-0.68475341796875
1757088383343342800,1.6923427734375,0.1407470703125,0.4571685791015625,-0.7045440673828125
1757088383353388800,1.702388916015625,0.0982208251953125,0.4775543212890625,-0.7367095947265625
1757088383363435800,1.712435791015625,0.032440185546875,0.5052642822265625,-0.740264892578125
1757088383373481700,1.722481689453125,-0.07073974609375,0.5433197021484375,-0.7571563720703125
1757088383383528700,1.73252880859375,-0.144927978515625,0.5700531005859375,-0.7901458740234375
1757088383393574700,1.74257470703125,-0.170440673828125,0.597137451171875,-0.8151397705078125
1757088383403620600,1.75262060546875,-0.1663360595703125,0.6156005859375,-0.865020751953125
1757088383413667600,1.76266748046875,-0.124725341796875,0.6196136474609375,-0.905059814453125
1757088383423713800,1.7727138671875,-0.0933685302734375,0.611968994140625,-0.932830810546875
1757088383433760800,1.7827607421875,-0.061004638671875,0.5971221923828125,-0.9358673095703125
1757088383443806700,1.792806640625,-0.0348968505859375,0.58642578125,-0.9514007568359375
1757088383453852700,1.802852783203125,-0.02093505859375,0.561187744140625,-1.0042572021484375
1757088383463899600,1.812899658203125,0.0296783447265625,0.5334014892578125,-0.956085205078125
1757088383473945600,1.822945556640625,0.04443359375,0.5367889404296875,-0.9482879638671875
1757088383483991600,1.832991455078125,0.067169189453125,0.5256500244140625,-0.9900054931640625
1757088383494038800,1.843038818359375,0.09906005859375,0.505828857421875,-0.9768218994140625
1757088383504084700,1.853084716796875,0.09857177734375,0.4918212890625,-0.9925994873046875
1757088383514131700,1.863131591796875,0.093719482421875,0.4882965087890625,-1.0483551025390625
1757088383524177700,1.873177734375,0.0953521728515625,0.465057373046875,-1.1710662841796875
1757088383534224000,1.883223876953125,0.113739013671875,0.364471435546875,-1.3934783935546875
1757088383544270800,1.893270751953125,0.1655426025390625,0.218963623046875,-1.6080780029296875
1757088383554316800,1.90331689453125,0.1944580078125,0.10601806640625,-1.5244140625
1757088383564362800,1.91336279296875,0.1471405029296875,0.091094970703125,-1.263336181640625
1757088383574409700,1.92340966796875,0.0744476318359375,0.216522216796875,-1.036285400390625
1757088383584455700,1.93345556640625,-0.0597076416015625,0.3050384521484375,-0.8557891845703125
1757088383594502700,1.943502685546875,-0.203887939453125,0.3367462158203125,-0.5931549072265625
1757088383604548600,1.953548583984375,-0.4208831787109375,0.5337677001953125,0.0207672119140625
1757088383614594800,1.9635947265625,-0.365020751953125,0.84283447265625,0.68115234375
1757088383624641500,1.9736416015625,-0.0719757080078125,0.73248291015625,0.14642333984375
1757088383634687700,1.983687744140625,0.0362091064453125,0.397491455078125,-0.4594573974609375
1757088383644733700,1.993733642578125,0.007354736328125,0.24041748046875,-0.755645751953125
1757088383654780700,2.00378076171875,-0.031341552734375,0.26788330078125,-0.881103515625
1757088383664826600,2.01382666015625,-0.08087158203125,0.38720703125,-0.8481903076171875
1757088383674873900,2.023873779296875,-0.0929718017578125,0.482696533203125,-0.7004547119140625
1757088383684919800,2.033919921875,-0.0540771484375,0.44500732421875,-0.609039306640625
1757088383694965500,2.043965576171875,-0.06829833984375,0.33221435546875,-0.64263916015625
1757088383705012700,2.0540126953125,-0.16693115234375,0.3242950439453125,-0.6961212158203125
1757088383715058700,2.06405859375,-0.2731170654296875,0.456451416015625,-0.842071533203125
1757088383725105700,2.074105712890625,-0.308502197265625,0.5051727294921875,-1.1109466552734375
1757088383735151900,2.08415185546875,-0.2919158935546875,0.376861572265625,-1.234161376953125
1757088383745197800,2.09419775390625,-0.1447906494140625,0.2979583740234375,-1.2000579833984375
1757088383755244800,2.104244873046875,0.0955047607421875,0.254150390625,-1.241485595703125
1757088383765290800,2.114290771484375,0.142822265625,0.2258453369140625,-1.1639404296875
1757088383775336700,2.124336669921875,0.099822998046875,0.2089385986328125,-1.1407318115234375
1757088383785383700,2.1343837890625,0.0775146484375,0.2936553955078125,-1.163909912109375
1757088383795429600,2.1444296875,0.105194091796875,0.3696136474609375,-1.076263427734375
1757088383805476600,2.1544765625,0.2250823974609375,0.3684234619140625,-0.9931640625
1757088383815522600,2.1645224609375,0.21563720703125,0.315673828125,-1.008544921875
1757088383825568800,2.17456884765625,0.179534912109375,0.2931976318359375,-1.18426513671875
1757088383835615700,2.18461572265625,0.2934417724609375,0.4272613525390625,-1.2135162353515625
1757088383845661700,2.19466162109375,0.2540283203125,0.4764556884765625,-0.97650146484375
1757088383855707600,2.204707763671875,-0.1589202880859375,0.7453460693359375,-0.684417724609375
1757088383865754600,2.214754638671875,-0.15887451171875,0.74920654296875,-0.1507720947265625
1757088383875800600,2.224800537109375,0.12298583984375,0.413543701171875,0.1349029541015625
1757088383885847800,2.234847900390625,-0.1793060302734375,0.319122314453125,-0.231109619140625
1757088383895893800,2.244893798828125,-0.098358154296875,0.2621307373046875,-0.410125732421875
1757088383905939700,2.254939697265625,-0.0842742919921875,0.44873046875,-0.5637359619140625
1757088383915986700,2.264986572265625,-0.087005615234375,0.581787109375,-0.748565673828125
1757088383926033000,2.275032958984375,-0.115478515625,0.5446929931640625,-0.6345672607421875
1757088383936078800,2.285078857421875,-0.11163330078125,0.5887603759765625,-0.8109893798828125
1757088383946125800,2.295125732421875,-0.1064453125,0.60455322265625,-1.3389129638671875
1757088383956171800,2.305171875,-0.37384033203125,0.3779296875,-1.2274322509765625
1757088383966218800,2.31521875,-0.2205657958984375,0.22998046875,-1.2186279296875
1757088383976264700,2.3252646484375,0.1946258544921875,0.1612701416015625,-1.3840179443359375
1757088383986310700,2.335310546875,0.085479736328125,0.2966766357421875,-1.4282989501953125
1757088383996357600,2.345357666015625,-0.075347900390625,0.4578857421875,-1.030364990234375
1757088384006403600,2.355403564453125,-0.0870513916015625,0.61895751953125,-0.882049560546875
1757088384016450600,2.365450439453125,-0.0831146240234375,0.745941162109375,-0.899749755859375
1757088384026496800,2.375496826171875,-0.0675811767578125,0.861785888671875,-0.837127685546875
1757088384036542700,2.385542724609375,0.0498809814453125,0.951202392578125,-0.713897705078125
1757088384046589700,2.395589599609375,0.2151031494140625,0.995361328125,-0.704864501953125
1757088384056635600,2.4056357421875,0.223236083984375,0.9855804443359375,-0.7689056396484375
1757088384066681600,2.415681640625,0.1743927001953125,0.9073028564453125,-0.9293365478515625
1757088384076728800,2.425728759765625,0.0960540771484375,0.8647613525390625,-1.0588836669921875
1757088384086774800,2.43577490234375,-0.0391845703125,0.8015899658203125,-1.1165008544921875
1757088384096821800,2.44582177734375,-0.0775146484375,0.760589599609375,-1.163818359375
1757088384106867700,2.45586767578125,-0.0573883056640625,0.7537078857421875,-1.1183319091796875
1757088384116914000,2.465913818359375,0.003448486328125,0.779205322265625,-1.038665771484375
1757088384126960600,2.475960693359375,0.139801025390625,0.8232879638671875,-0.959014892578125
1757088384137006800,2.4860068359375,0.1978912353515625,0.83026123046875,-0.911285400390625
1757088384147052800,2.496052734375,0.0704803466796875,0.8069610595703125,-1.0279388427734375
1757088384157099800,2.506099853515625,-0.0231475830078125,0.804412841796875,-1.0811767578125
1757088384167145700,2.516145751953125,-0.0373687744140625,0.7694549560546875,-0.850860595703125
1757088384177192700,2.526192626953125,0.04168701171875,0.4722900390625,-0.425811767578125
1757088384187238700,2.53623876953125,-0.105499267578125,0.0769195556640625,-0.4079437255859375
1757088384197284600,2.54628466796875,-0.3516845703125,0.443603515625,-0.5587005615234375
1757088384207331600,2.55633154296875,-0.1752471923828125,0.4309539794921875,-0.5648956298828125
1757088384217377500,2.56637744140625,-0.0013885498046875,0.6221466064453125,-0.5032958984375
1757088384227423700,2.576423828125,0.0843048095703125,0.670196533203125,-0.5078277587890625
1757088384237470700,2.586470703125,0.0466461181640625,0.6570892333984375,-0.501739501953125
1757088384247516700,2.5965166015625,0.0040435791015625,0.6525421142578125,-0.4938201904296875
1757088384257564000,2.60656396484375,-0.01025390625,0.78363037109375,-0.56060791015625
1757088384267609600,2.616609619140625,-0.0641326904296875,0.8978271484375,-0.567169189453125
1757088384277655600,2.626655517578125,-0.07562255859375,0.7378082275390625,-0.357696533203125
1757088384287702000,2.636701904296875,-0.0630035400390625,0.7303466796875,-0.416259765625
1757088384297748000,2.646748046875,-0.0923919677734375,0.6699066162109375,-0.4857330322265625
1757088384307794200,2.656794189453125,-0.130523681640625,0.6171722412109375,-0.545135498046875
1757088384317841400,2.66684130859375,-0.1431732177734375,1.00946044921875,-0.8236236572265625
1757088384327887000,2.67688720703125,-0.3741607666015625,1.08740234375,-0.893890380859375
1757088384337934300,2.686934326171875,-0.369140625,0.9435577392578125,-0.8108673095703125
1757088384347980300,2.696980224609375,-0.0205230712890625,1.0680999755859375,-0.583709716796875
1757088384358026200,2.707026123046875,0.0286712646484375,1.1356964111328125,-0.26007080078125
1757088384368073200,2.7170732421875,0.052093505859375,1.04754638671875,-0.2104034423828125
1757088384378119200,2.727119140625,0.1795654296875,0.848236083984375,-0.3731536865234375
1757088384388166100,2.737166259765625,0.180999755859375,0.807769775390625,-0.485504150390625
1757088384398212000,2.747212158203125,0.07373046875,0.8438720703125,-0.526824951171875
1757088384408258300,2.75725830078125,-0.059844970703125,0.8166961669921875,-0.5659942626953125
1757088384418305300,2.76730517578125,-0.1831207275390625,0.674102783203125,-0.571441650390625
1757088384428351200,2.777351318359375,-0.1884002685546875,0.1392059326171875,-0.392669677734375
1757088384438397200,2.787397216796875,-0.188385009765625,0.3713531494140625,-0.27349853515625
1757088384448444200,2.797444091796875,-0.2204742431640625,0.8314361572265625,-0.361114501953125
1757088384458490000,2.807489990234375,-0.10491943359375,0.77313232421875,-0.4132843017578125
1757088384468537000,2.817537109375,-0.015838623046875,0.7448883056640625,-0.383270263671875
1757088384478583000,2.8275830078125,0.0661163330078125,0.6907958984375,-0.370361328125
1757088384488629000,2.83762890625,0.007232666015625,0.8872833251953125,-0.5565948486328125
1757088384498676000,2.847676025390625,0.0034637451171875,0.5229644775390625,-0.4929046630859375
1757088384508722200,2.85772216796875,-0.020111083984375,0.2240142822265625,-0.5822296142578125
1757088384518768000,2.86776806640625,-0.1361541748046875,0.17626953125,-0.4673004150390625
1757088384528815400,2.8778154296875,-0.14752197265625,0.431427001953125,-0.5489501953125
1757088384538861300,2.887861328125,-0.2241668701171875,0.3090667724609375,-0.469573974609375
1757088384548908300,2.897908203125,-0.20416259765625,0.888946533203125,-0.4179534912109375
1757088384558954200,2.907954345703125,-0.2031402587890625,1.9852142333984375,-0.47705078125
1757088384569000200,2.918000244140625,-0.2686614990234375,1.768585205078125,-0.33740234375
1757088384579047200,2.928047119140625,-0.054412841796875,1.1585235595703125,-0.4951934814453125
1757088384589093000,2.938093017578125,0.0482177734375,0.805511474609375,-0.60736083984375
1757088384599139300,2.948139404296875,-0.0400543212890625,0.9334564208984375,-0.5104217529296875
1757088384609186000,2.95818603515625,0.045989990234375,1.064544677734375,-0.5115814208984375
1757088384619232300,2.968232177734375,-0.0852203369140625,0.781005859375,-0.4932098388671875
1757088384629279200,2.978279296875,-0.1829833984375,0.6927337646484375,-0.5516510009765625
1757088384639325200,2.9883251953125,-0.3653564453125,0.8215789794921875,-0.431427001953125
1757088384649371100,2.99837109375,-0.50177001953125,1.121185302734375,-0.3860931396484375
1757088384659418000,3.008418212890625,-0.3801727294921875,1.2518310546875,-0.3308258056640625
1757088384669464000,3.018464111328125,-0.1068572998046875,1.1317291259765625,-0.2623291015625
1757088384679510000,3.028510009765625,0.004638671875,1.1186065673828125,-0.2203369140625
1757088384689557000,3.038556884765625,-0.05224609375,0.9931640625,-0.0913543701171875
1757088384699603200,3.048603271484375,0.1016693115234375,0.99273681640625,-0.0971527099609375
1757088384709650200,3.058650146484375,0.0390167236328125,0.910369873046875,-0.2509002685546875
1757088384719696400,3.0686962890625,-0.1217498779296875,0.7448272705078125,-0.3097076416015625
1757088384729742300,3.078742431640625,-0.1636505126953125,0.5443115234375,-0.32965087890625
1757088384739789300,3.088789306640625,-0.1908721923828125,0.4260406494140625,-0.2613525390625
1757088384749835300,3.098835205078125,-0.1812744140625,0.543212890625,-0.19647216796875
1757088384759881200,3.108881103515625,-0.17559814453125,0.7311553955078125,-0.26409912109375
1757088384769928200,3.11892822265625,-0.2509307861328125,1.44482421875,-0.372039794921875
1757088384779974100,3.12897412109375,-0.1923370361328125,1.5969085693359375,-0.477264404296875
1757088384790021000,3.139021240234375,-0.164337158203125,1.3740386962890625,-0.5417633056640625
1757088384800067000,3.149067138671875,-0.2923126220703125,1.2560577392578125,-0.6248626708984375
1757088384810113300,3.15911328125,-0.22088623046875,1.3008575439453125,-0.6067352294921875
1757088384820160300,3.16916015625,-0.2371673583984375,1.2963714599609375,-0.505218505859375
1757088384830206200,3.179206298828125,-0.162078857421875,1.2324981689453125,-0.3992919921875
1757088384840252200,3.189252197265625,-0.1016693115234375,1.20111083984375,-0.237091064453125
1757088384850299100,3.199299072265625,-0.0928955078125,1.148193359375,-0.098358154296875
1757088384860345000,3.209344970703125,-0.0820159912109375,1.1312255859375,-0.021697998046875
1757088384870392000,3.21939208984375,-0.0890960693359375,1.1372222900390625,-0.061492919921875
1757088384880438000,3.22943798828125,-0.10955810546875,1.104705810546875,-0.1590118408203125
1757088384890484000,3.23948388671875,-0.135833740234375,1.0461273193359375,-0.260223388671875
1757088384900531200,3.24953125,-0.1705322265625,1.00262451171875,-0.3389892578125
1757088384910577200,3.2595771484375,-0.20977783203125,0.9650115966796875,-0.3844451904296875
1757088384920624400,3.269624267578125,-0.213470458984375,0.9307708740234375,-0.4096527099609375
1757088384930670300,3.27967041015625,-0.1903076171875,0.898284912109375,-0.42059326171875
1757088384940716300,3.28971630859375,-0.162322998046875,0.89453125,-0.412017822265625
1757088384950763300,3.29976318359375,-0.1448516845703125,0.88623046875,-0.376953125
1757088384960809200,3.309809326171875,-0.160247802734375,0.853363037109375,-0.3380279541015625
1757088384970855200,3.319855224609375,-0.1929168701171875,0.934844970703125,-0.3181610107421875
1757088384980902100,3.329902099609375,-0.2232818603515625,1.0043487548828125,-0.309814453125
1757088384990948000,3.339947998046875,-0.2449188232421875,1.0927734375,-0.3071441650390625
1757088385000995000,3.3499951171875,-0.2506866455078125,1.1329345703125,-0.3140411376953125
1757088385011041300,3.360041259765625,-0.2119293212890625,1.10491943359375,-0.3309326171875
1757088385021087200,3.370087158203125,-0.1552581787109375,1.1450958251953125,-0.31195068359375
1757088385031134200,3.38013427734375,-0.1881561279296875,1.114837646484375,-0.298980712890625
1757088385041180200,3.39018017578125,-0.126708984375,0.9654693603515625,-0.2463531494140625
1757088385051226000,3.40022607421875,-0.1146392822265625,0.7434539794921875,-0.1982879638671875
1757088385061273000,3.410273193359375,-0.085693359375,0.6649017333984375,-0.1972503662109375
1757088385071319000,3.420319091796875,-0.0530242919921875,0.63140869140625,-0.2671356201171875
1757088385081366000,3.430365966796875,-0.0347442626953125,0.658843994140625,-0.3761444091796875
1757088385091412000,3.440411865234375,-0.025390625,0.76605224609375,-0.5095062255859375
1757088385101458200,3.450458251953125,-0.0428924560546875,0.856292724609375,-0.578582763671875
1757088385111505200,3.460505126953125,-0.076568603515625,0.8983612060546875,-0.5561676025390625
1757088385121551400,3.47055126953125,-0.091064453125,0.9072113037109375,-0.5081787109375
1757088385131598300,3.480598388671875,-0.0912322998046875,0.897003173828125,-0.4676666259765625
1757088385141644300,3.490644287109375,-0.0817108154296875,0.886993408203125,-0.462249755859375
1757088385151690200,3.500690185546875,-0.0787200927734375,0.8978271484375,-0.4614715576171875
1757088385161737200,3.5107373046875,-0.072357177734375,0.8448944091796875,-0.483123779296875
1757088385171783200,3.520783203125,-0.0577239990234375,0.8740386962890625,-0.4754180908203125
1757088385181829000,3.5308291015625,-0.080718994140625,0.924774169921875,-0.4574127197265625
1757088385191876000,3.5408759765625,-0.05322265625,0.9116363525390625,-0.4677581787109375
1757088385201922300,3.55092236328125,-0.0411376953125,0.906524658203125,-0.480926513671875
1757088385211969000,3.560968994140625,-0.0687255859375,0.937591552734375,-0.4688720703125
1757088385222015200,3.57101513671875,-0.094451904296875,0.9112396240234375,-0.4446563720703125
1757088385232061200,3.581061279296875,-0.0812225341796875,0.8919219970703125,-0.4393768310546875
1757088385242108200,3.591108154296875,-0.0647125244140625,0.89208984375,-0.457550048828125
1757088385252154000,3.601154052734375,-0.048614501953125,0.888702392578125,-0.46624755859375
1757088385262200000,3.611199951171875,-0.048095703125,0.879119873046875,-0.475128173828125
1757088385272247000,3.6212470703125,-0.05926513671875,0.8719024658203125,-0.4879150390625
1757088385282292500,3.63129248046875,-0.0700225830078125,0.868621826171875,-0.4975128173828125
1757088385292339500,3.64133935546875,-0.079254150390625,0.857177734375,-0.4991912841796875
1757088385302385700,3.6513857421875,-0.0799407958984375,0.85150146484375,-0.499053955078125
1757088385312431600,3.661431640625,-0.0794677734375,0.85589599609375,-0.4928436279296875
1757088385322478600,3.671478515625,-0.0747833251953125,0.8684844970703125,-0.4847869873046875
1757088385332524500,3.681524658203125,-0.0690765380859375,0.8809051513671875,-0.4743804931640625
1757088385342571500,3.691571533203125,-0.0633697509765625,0.8899688720703125,-0.4644622802734375
1757088385352617500,3.701617431640625,-0.062530517578125,0.8937225341796875,-0.4517822265625
1757088385362663400,3.711663330078125,-0.0604400634765625,0.891357421875,-0.443267822265625
1757088385372710400,3.72171044921875,-0.0564117431640625,0.8895111083984375,-0.437744140625
1757088385382756400,3.73175634765625,-0.0569305419921875,0.890228271484375,-0.4354248046875
1757088385392802600,3.741802490234375,-0.055267333984375,0.8929901123046875,-0.4300079345703125
1757088385402849500,3.751849609375,-0.056304931640625,0.8990936279296875,-0.4264068603515625
1757088385412895500,3.7618955078125,-0.060150146484375,0.9050140380859375,-0.4243927001953125
1757088385422942500,3.7719423828125,-0.06048583984375,0.914215087890625,-0.4225921630859375
1757088385432988400,3.781988525390625,-0.0631103515625,0.921844482421875,-0.4170684814453125
1757088385443034400,3.792034423828125,-0.0633544921875,0.926666259765625,-0.4150390625
1757088385453081300,3.802081298828125,-0.0648345947265625,0.9289093017578125,-0.4146270751953125
1757088385463127300,3.812127197265625,-0.06707763671875,0.9279937744140625,-0.4163360595703125
1757088385473174500,3.822174560546875,-0.0721282958984375,0.92431640625,-0.4166107177734375
1757088385483220500,3.832220458984375,-0.0731048583984375,0.9195709228515625,-0.4194183349609375
1757088385493266700,3.8422666015625,-0.074462890625,0.9171600341796875,-0.4227142333984375
1757088385503313700,3.852313720703125,-0.07672119140625,0.9110565185546875,-0.4299163818359375
1757088385513359600,3.862359619140625,-0.0754241943359375,0.9029083251953125,-0.43365478515625
1757088385523405600,3.872405517578125,-0.0752105712890625,0.890838623046875,-0.4375762939453125
1757088385533452500,3.88245263671875,-0.075286865234375,0.88421630859375,-0.441558837890625
1757088385543498500,3.89249853515625,-0.07305908203125,0.880462646484375,-0.448028564453125
1757088385553545500,3.90254541015625,-0.0757598876953125,0.8832855224609375,-0.4548797607421875
1757088385563591400,3.91259130859375,-0.079925537109375,0.891082763671875,-0.462249755859375
1757088385573637400,3.922637451171875,-0.078582763671875,0.896392822265625,-0.468109130859375
1757088385583684400,3.932684326171875,-0.07708740234375,0.8944091796875,-0.4671630859375
1757088385593730600,3.94273046875,-0.0788726806640625,0.889678955078125,-0.462310791015625
1757088385603777500,3.952777587890625,-0.083160400390625,0.88751220703125,-0.458587646484375
1757088385613823500,3.962823486328125,-0.0845794677734375,0.8856353759765625,-0.4556427001953125
1757088385623869400,3.972869384765625,-0.0829010009765625,0.8912811279296875,-0.455963134765625
1757088385633916400,3.98291650390625,-0.081207275390625,0.892974853515625,-0.4539947509765625
1757088385643962400,3.99296240234375,-0.07855224609375,0.890716552734375,-0.4497528076171875
1757088385654009600,4.003009521484375,-0.077880859375,0.8874053955078125,-0.448028564453125
1757088385664055300,4.01305517578125,-0.078369140625,0.888397216796875,-0.4510955810546875
1757088385674101200,4.023101318359375,-0.0790252685546875,0.8907012939453125,-0.4568328857421875
1757088385684148500,4.0331484375,-0.0812530517578125,0.8904876708984375,-0.46136474609375
1757088385694194400,4.0431943359375,-0.0813140869140625,0.8895263671875,-0.4635009765625
1757088385704240600,4.05324072265625,-0.0799407958984375,0.8873748779296875,-0.4636077880859375
1757088385714287600,4.06328759765625,-0.0785369873046875,0.8881072998046875,-0.464508056640625
1757088385724333600,4.07333349609375,-0.0749664306640625,0.8895416259765625,-0.4626922607421875
1757088385734380500,4.083380615234375,-0.0718231201171875,0.8920745849609375,-0.45843505859375
1757088385744426500,4.093426513671875,-0.0700225830078125,0.8944549560546875,-0.454132080078125
1757088385754472400,4.103472412109375,-0.066650390625,0.89630126953125,-0.4489593505859375
1757088385764519400,4.11351953125,-0.063751220703125,0.8973846435546875,-0.4488983154296875
1757088385774565400,4.1235654296875,-0.0640716552734375,0.899810791015625,-0.452911376953125
1757088385784612400,4.1336123046875,-0.062530517578125,0.9024505615234375,-0.4520263671875
1757088385794658300,4.143658203125,-0.0590667724609375,0.9028472900390625,-0.4543304443359375
1757088385804704500,4.15370458984375,-0.052520751953125,0.9001312255859375,-0.455413818359375
1757088385814751500,4.16375146484375,-0.051788330078125,0.8975677490234375,-0.457763671875
1757088385824797400,4.17379736328125,-0.0527496337890625,0.8962249755859375,-0.4562225341796875
1757088385834844400,4.183844482421875,-0.0487213134765625,0.8925323486328125,-0.4572906494140625
1757088385844890400,4.193890380859375,-0.047943115234375,0.888946533203125,-0.45941162109375
1757088385854936300,4.203936279296875,-0.0492401123046875,0.8875274658203125,-0.462860107421875
1757088385864983600,4.213983642578125,-0.050384521484375,0.8891143798828125,-0.46307373046875
1757088385875029500,4.224029541015625,-0.0513458251953125,0.89337158203125,-0.46368408203125
1757088385885076500,4.234076416015625,-0.0498809814453125,0.8993377685546875,-0.4598236083984375
1757088385895122400,4.244122314453125,-0.0461578369140625,0.9017791748046875,-0.4584503173828125
1757088385905168600,4.254168701171875,-0.04376220703125,0.898834228515625,-0.4539947509765625
1757088385915215600,4.264215576171875,-0.0408477783203125,0.895904541015625,-0.4486236572265625
1757088385925261600,4.274261474609375,-0.03973388671875,0.8907928466796875,-0.4478759765625
1757088385935308500,4.28430859375,-0.0382537841796875,0.89080810546875,-0.44866943359375
1757088385945354500,4.2943544921875,-0.036407470703125,0.8917083740234375,-0.44976806640625
1757088385955400400,4.304400390625,-0.0382080078125,0.891632080078125,-0.4539794921875
1757088385965447400,4.314447509765625,-0.0407867431640625,0.8911895751953125,-0.45703125
1757088385975493400,4.324493408203125,-0.043731689453125,0.8925323486328125,-0.45770263671875
1757088385985540400,4.334540283203125,-0.0451202392578125,0.8916473388671875,-0.4577789306640625
1757088385995586300,4.34458642578125,-0.047027587890625,0.88922119140625,-0.459228515625
1757088386005632500,4.354632568359375,-0.0495147705078125,0.88671875,-0.4574127197265625
1757088386015679200,4.36467919921875,-0.04998779296875,0.8842315673828125,-0.459869384765625
1757088386025725400,4.374725341796875,-0.0488128662109375,0.8848114013671875,-0.461090087890625
1757088386035772700,4.384772705078125,-0.0518798828125,0.883880615234375,-0.4656524658203125
1757088386045818600,4.394818603515625,-0.0538330078125,0.882537841796875,-0.467620849609375
1757088386055864600,4.404864501953125,-0.0550537109375,0.8813323974609375,-0.470489501953125
1757088386065911600,4.41491162109375,-0.054290771484375,0.8799591064453125,-0.4688720703125
1757088386075957500,4.42495751953125,-0.0552825927734375,0.88092041015625,-0.466094970703125
1757088386086004500,4.43500439453125,-0.055938720703125,0.879425048828125,-0.465301513671875
1757088386096050400,4.445050537109375,-0.0543670654296875,0.88482666015625,-0.4641876220703125
1757088386106096400,4.455096435546875,-0.0501708984375,0.8888092041015625,-0.463592529296875
1757088386116143400,4.465143310546875,-0.04693603515625,0.8934326171875,-0.4615478515625
1757088386126189600,4.475189453125,-0.0445098876953125,0.8974456787109375,-0.460723876953125
1757088386136236500,4.485236572265625,-0.0438079833984375,0.8978271484375,-0.4579010009765625
1757088386146282500,4.495282470703125,-0.0419464111328125,0.90020751953125,-0.45709228515625
1757088386156328400,4.505328369140625,-0.03741455078125,0.899139404296875,-0.4539947509765625
1757088386166375400,4.51537548828125,-0.0353851318359375,0.8954620361328125,-0.452423095703125
1757088386176421400,4.52542138671875,-0.0389862060546875,0.8909149169921875,-0.4534912109375
1757088386186468400,4.53546826171875,-0.0446624755859375,0.88800048828125,-0.458160400390625
1757088386196514300,4.545514404296875,-0.047821044921875,0.8900299072265625,-0.4644927978515625
1757088386206560300,4.555560302734375,-0.0475006103515625,0.8908233642578125,-0.4693145751953125
1757088386216607500,4.565607421875,-0.0464019775390625,0.889373779296875,-0.4721527099609375
1757088386226653700,4.57565380859375,-0.043365478515625,0.8871612548828125,-0.4715728759765625
1757088386236700400,4.585700439453125,-0.03997802734375,0.8855438232421875,-0.468292236328125
1757088386246746600,4.59574658203125,-0.036376953125,0.884857177734375,-0.4661102294921875
1757088386256793600,4.605793701171875,-0.0354461669921875,0.8839874267578125,-0.465576171875
1757088386266839600,4.615839599609375,-0.0350341796875,0.8853759765625,-0.467559814453125
1757088386276885500,4.625885498046875,-0.03369140625,0.885223388671875,-0.4685516357421875
1757088386286934000,4.63593408203125,-0.03216552734375,0.8864898681640625,-0.4690704345703125
1757088386296980000,4.64597998046875,-0.03118896484375,0.887847900390625,-0.4705047607421875
1757088386307027000,4.65602685546875,-0.0286865234375,0.890838623046875,-0.4709625244140625
1757088386317073000,4.666072998046875,-0.0267486572265625,0.891204833984375,-0.4707183837890625
1757088386327118800,4.676118896484375,-0.0267486572265625,0.8876495361328125,-0.46990966796875
1757088386337165800,4.686165771484375,-0.0262908935546875,0.88885498046875,-0.4670257568359375
1757088386347211800,4.696211669921875,-0.0276947021484375,0.886260986328125,-0.4675140380859375
1757088386357259000,4.706259033203125,-0.0321197509765625,0.885040283203125,-0.4640655517578125
1757088386367305000,4.716304931640625,-0.0321044921875,0.886077880859375,-0.4629364013671875
1757088386377351000,4.726350830078125,-0.0362548828125,0.8876190185546875,-0.4615936279296875
1757088386387398000,4.73639794921875,-0.03387451171875,0.8876190185546875,-0.4579010009765625
1757088386397444000,4.746444091796875,-0.0330963134765625,0.8865814208984375,-0.45379638671875
1757088386407491000,4.756490966796875,-0.0310821533203125,0.8873138427734375,-0.4536285400390625
1757088386417537000,4.766537109375,-0.0252685546875,0.888671875,-0.4533233642578125
1757088386427584000,4.776583984375,-0.0222625732421875,0.8926239013671875,-0.4569549560546875
1757088386437630000,4.7866298828125,-0.02838134765625,0.896575927734375,-0.4608917236328125
1757088386447676000,4.796676025390625,-0.0330352783203125,0.8964080810546875,-0.46282958984375
1757088386457723000,4.806722900390625,-0.039581298828125,0.8933258056640625,-0.4608612060546875
1757088386467768800,4.816768798828125,-0.03521728515625,0.8935699462890625,-0.459625244140625
1757088386477815800,4.82681591796875,-0.0311279296875,0.892364501953125,-0.4587554931640625
1757088386487861800,4.83686181640625,-0.0275421142578125,0.89068603515625,-0.4578857421875
1757088386497908000,4.846907958984375,-0.0247344970703125,0.893096923828125,-0.458404541015625
1757088386507955000,4.856954833984375,-0.021148681640625,0.8952178955078125,-0.4598236083984375
1757088386518001000,4.8670009765625,-0.0192413330078125,0.8941192626953125,-0.462890625
1757088386528048000,4.877048095703125,-0.0211181640625,0.89447021484375,-0.466400146484375
1757088386538093800,4.88709375,-0.0223846435546875,0.891632080078125,-0.4663238525390625
1757088386548141000,4.89714111328125,-0.0212860107421875,0.8880615234375,-0.4666900634765625
1757088386558187000,4.90718701171875,-0.022369384765625,0.8850860595703125,-0.466278076171875
1757088386568233000,4.91723291015625,-0.02850341796875,0.8829345703125,-0.466522216796875
1757088386578280000,4.927280029296875,-0.0336151123046875,0.8834228515625,-0.467071533203125
1757088386588326000,4.937325927734375,-0.0338592529296875,0.88385009765625,-0.468841552734375
1757088386598372900,4.947372802734375,-0.030181884765625,0.883544921875,-0.4697265625
1757088386608418800,4.957418701171875,-0.0269927978515625,0.884033203125,-0.47027587890625
1757088386618465000,4.967465087890625,-0.0238189697265625,0.8836822509765625,-0.4703826904296875
1757088386628512000,4.977511962890625,-0.022857666015625,0.887969970703125,-0.469451904296875
1757088386638558000,4.987557861328125,-0.0208587646484375,0.8897705078125,-0.469970703125
1757088386648605000,4.99760498046875,-0.016693115234375,0.891143798828125,-0.4674530029296875
1757088386658651000,5.00765087890625,-0.012054443359375,0.8894195556640625,-0.4695587158203125
1757088386668696800,5.01769677734375,-0.008453369140625,0.8887786865234375,-0.469635009765625
1757088386678743800,5.027743896484375,-0.0157470703125,0.890533447265625,-0.467437744140625
1757088386688789800,5.037789794921875,-0.0333251953125,0.884613037109375,-0.4671630859375
1757088386698837000,5.0478369140625,-0.04541015625,0.880523681640625,-0.4686279296875
1757088386708882700,5.057882568359375,-0.043426513671875,0.87884521484375,-0.475006103515625
1757088386718930000,5.067929931640625,-0.031585693359375,0.87908935546875,-0.4773406982421875
1757088386728976100,5.07797607421875,-0.0192413330078125,0.8786163330078125,-0.47894287109375
1757088386739022000,5.08802197265625,-0.01934814453125,0.881805419921875,-0.4788665771484375
1757088386749069000,5.098069091796875,-0.0206756591796875,0.883575439453125,-0.473876953125
1757088386759115000,5.108114990234375,-0.0192413330078125,0.8859100341796875,-0.47259521484375
1757088386769162000,5.118161865234375,-0.019989013671875,0.887908935546875,-0.4722137451171875
1757088386779208000,5.1282080078125,-0.0238189697265625,0.8864898681640625,-0.4714202880859375
1757088386789254000,5.13825390625,-0.0229949951171875,0.88336181640625,-0.4703521728515625
1757088386799300900,5.14830078125,-0.0205535888671875,0.88336181640625,-0.4707794189453125
1757088386809346800,5.158346923828125,-0.019195556640625,0.8827362060546875,-0.4723052978515625
1757088386819393800,5.168393798828125,-0.0149383544921875,0.8824462890625,-0.475067138671875
1757088386829440000,5.17843994140625,-0.010528564453125,0.88238525390625,-0.4763031005859375
1757088386839486700,5.18848681640625,-0.0119171142578125,0.882659912109375,-0.4776153564453125
1757088386849533000,5.198532958984375,-0.0170440673828125,0.881927490234375,-0.4799652099609375
1757088386859579000,5.208578857421875,-0.01641845703125,0.8840179443359375,-0.48095703125
1757088386869625900,5.2186259765625,-0.0134124755859375,0.88580322265625,-0.47918701171875
1757088386879671800,5.228671875,-0.01312255859375,0.8896331787109375,-0.4805755615234375
1757088386889719000,5.238718994140625,-0.01641845703125,0.89208984375,-0.4777679443359375
1757088386899765000,5.248764892578125,-0.022216796875,0.8857879638671875,-0.47802734375
1757088386909811000,5.25881103515625,-0.0236968994140625,0.8798370361328125,-0.4775238037109375
1757088386919858000,5.26885791015625,-0.01959228515625,0.87457275390625,-0.4794464111328125
1757088386929903900,5.27890380859375,-0.017822265625,0.873809814453125,-0.4798431396484375
1757088386939950800,5.288950927734375,-0.0199737548828125,0.875518798828125,-0.48052978515625
1757088386949997000,5.2989970703125,-0.017242431640625,0.8753662109375,-0.4793548583984375
1757088386960043000,5.30904296875,-0.0155029296875,0.8777618408203125,-0.47601318359375
1757088386970090000,5.319090087890625,-0.0169219970703125,0.878570556640625,-0.474517822265625
1757088386980136000,5.329135986328125,-0.0163726806640625,0.8813934326171875,-0.4729766845703125
1757088386990183000,5.339182861328125,-0.01708984375,0.882293701171875,-0.471893310546875
1757088387000228900,5.349228759765625,-0.01922607421875,0.8845062255859375,-0.467559814453125
1757088387010275800,5.35927587890625,-0.02374267578125,0.887603759765625,-0.464630126953125
1757088387020321800,5.36932177734375,-0.026763916015625,0.889984130859375,-0.4614105224609375
1757088387030367700,5.37936767578125,-0.0258026123046875,0.8946990966796875,-0.459564208984375
1757088387040414700,5.389414794921875,-0.021728515625,0.89849853515625,-0.4575042724609375
1757088387050461000,5.3994609375,-0.0176239013671875,0.8984222412109375,-0.457489013671875
1757088387060508000,5.4095078125,-0.0142974853515625,0.89605712890625,-0.4576568603515625
1757088387070554000,5.41955419921875,-0.01385498046875,0.8945465087890625,-0.4599456787109375
1757088387080600000,5.42960009765625,-0.01580810546875,0.8925933837890625,-0.46221923828125
1757088387090647000,5.43964697265625,-0.016845703125,0.8894805908203125,-0.463226318359375
1757088387100693000,5.44969287109375,-0.018890380859375,0.891571044921875,-0.4633941650390625
1757088387110740000,5.459739990234375,-0.0202178955078125,0.8934326171875,-0.46295166015625
1757088387120786000,5.469785888671875,-0.0202178955078125,0.895050048828125,-0.462066650390625
1757088387130832000,5.479831787109375,-0.018646240234375,0.8973236083984375,-0.46185302734375
1757088387140878800,5.48987890625,-0.0191650390625,0.896484375,-0.4611968994140625
1757088387150924800,5.4999248046875,-0.020721435546875,0.894989013671875,-0.4588165283203125
1757088387160971800,5.5099716796875,-0.0167083740234375,0.8952789306640625,-0.4555511474609375
1757088387171018000,5.52001806640625,-0.01068115234375,0.8929290771484375,-0.457275390625
1757088387181065000,5.53006494140625,-0.0102081298828125,0.8889007568359375,-0.4595947265625
1757088387191111000,5.54011083984375,-0.0139923095703125,0.888031005859375,-0.4634246826171875
1757088387201156900,5.550156982421875,-0.01611328125,0.8865203857421875,-0.4694671630859375
1757088387211203800,5.560203857421875,-0.0158538818359375,0.883544921875,-0.477264404296875
1757088387221249800,5.570249755859375,-0.01885986328125,0.882476806640625,-0.483306884765625
1757088387231297000,5.580297119140625,-0.02398681640625,0.881591796875,-0.4815521240234375
1757088387241343000,5.590343017578125,-0.019775390625,0.8828125,-0.4754638671875
1757088387251389000,5.600388916015625,-0.01263427734375,0.8836822509765625,-0.4688873291015625
1757088387261436000,5.610435791015625,-0.0087432861328125,0.8837738037109375,-0.464569091796875
1757088387271482000,5.620482177734375,-0.008758544921875,0.884307861328125,-0.466217041015625
1757088387281528800,5.63052880859375,-0.008575439453125,0.8846588134765625,-0.4685821533203125
1757088387291574000,5.640573974609375,-0.01025390625,0.8868560791015625,-0.471710205078125
1757088387301621000,5.65062109375,-0.0128021240234375,0.8862152099609375,-0.474151611328125
1757088387311667000,5.6606669921875,-0.0148773193359375,0.8823089599609375,-0.4755706787109375
1757088387321713000,5.670712890625,-0.016326904296875,0.8776702880859375,-0.4779052734375
1757088387331759900,5.680759765625,-0.018402099609375,0.8736114501953125,-0.4770050048828125
1757088387341805800,5.690805908203125,-0.0152587890625,0.8740234375,-0.4795684814453125
1757088387351853000,5.70085302734375,-0.0113372802734375,0.8768310546875,-0.4805908203125
1757088387361899300,5.710899169921875,-0.01025390625,0.8804168701171875,-0.479034423828125
1757088387371945200,5.7209453125,-0.0138092041015625,0.8849334716796875,-0.4760284423828125
1757088387381992200,5.7309921875,-0.01788330078125,0.8878173828125,-0.474822998046875
1757088387392038100,5.7410380859375,-0.0183868408203125,0.887786865234375,-0.47320556640625
1757088387402085000,5.751085205078125,-0.0154876708984375,0.8875885009765625,-0.4713287353515625
1757088387412131000,5.761131103515625,-0.0124969482421875,0.885955810546875,-0.4730377197265625
1757088387422177000,5.771177001953125,-0.009185791015625,0.885528564453125,-0.4719696044921875
1757088387432224000,5.78122412109375,-0.0093536376953125,0.88519287109375,-0.470367431640625
1757088387442270000,5.79127001953125,-0.01116943359375,0.8831634521484375,-0.4731292724609375
1757088387452317000,5.80131689453125,-0.014068603515625,0.884429931640625,-0.47515869140625
1757088387462363000,5.81136279296875,-0.014617919921875,0.883209228515625,-0.476531982421875
1757088387472409000,5.8214091796875,-0.014984130859375,0.880279541015625,-0.4757080078125
1757088387482456000,5.8314560546875,-0.0149078369140625,0.87823486328125,-0.4724273681640625
1757088387492502000,5.841501953125,-0.0118865966796875,0.8828582763671875,-0.471160888671875
1757088387502549000,5.851549072265625,-0.01123046875,0.8884429931640625,-0.470977783203125
1757088387512595000,5.861594970703125,-0.0116119384765625,0.8895263671875,-0.4730682373046875
1757088387522642200,5.87164208984375,-0.0113525390625,0.888763427734375,-0.4769439697265625
1757088387532688100,5.881688232421875,-0.01348876953125,0.89007568359375,-0.4751129150390625
1757088387542734000,5.891734130859375,-0.0118865966796875,0.8911590576171875,-0.47088623046875
1757088387552781000,5.901781005859375,-0.0099029541015625,0.8932952880859375,-0.465911865234375
1757088387562827000,5.911826904296875,-0.0076446533203125,0.89471435546875,-0.4600677490234375
1757088387572874000,5.9218740234375,-0.0056304931640625,0.8966064453125,-0.4574432373046875
1757088387582920200,5.931920166015625,-0.0037994384765625,0.8994293212890625,-0.4571075439453125
1757088387592966100,5.941966064453125,-0.0018157958984375,0.8988037109375,-0.4578704833984375
1757088387603013000,5.95201318359375,-0.0021209716796875,0.8949127197265625,-0.46038818359375
1757088387613059000,5.96205908203125,-0.003326416015625,0.8891448974609375,-0.4629669189453125
1757088387623106000,5.97210595703125,-0.00555419921875,0.885955810546875,-0.462493896484375
1757088387633152000,5.982152099609375,-0.0064849853515625,0.8843841552734375,-0.4631500244140625
1757088387643198000,5.992197998046875,-0.0048370361328125,0.88360595703125,-0.4642791748046875
1757088387653245000,6.002244873046875,-0.00469970703125,0.8819732666015625,-0.4662017822265625
1757088387663291000,6.012290771484375,-0.004791259765625,0.8780364990234375,-0.4734344482421875
1757088387673337900,6.022337890625,-0.005645751953125,0.87628173828125,-0.478973388671875
1757088387683384000,6.032384033203125,-0.006744384765625,0.8758087158203125,-0.4836273193359375
1757088387693431000,6.04243115234375,-0.0091705322265625,0.8752899169921875,-0.489105224609375
1757088387703477200,6.052477294921875,-0.009796142578125,0.8758544921875,-0.488861083984375
1757088387713523200,6.062523193359375,-0.0088653564453125,0.876190185546875,-0.4879913330078125
1757088387723570200,6.072570068359375,-0.0063934326171875,0.878265380859375,-0.4842071533203125
1757088387733616000,6.0826162109375,-0.009307861328125,0.8806610107421875,-0.479583740234375
1757088387743663000,6.0926630859375,-0.00933837890625,0.8819427490234375,-0.477386474609375
1757088387753709000,6.102708984375,-0.0107269287109375,0.884368896484375,-0.4748382568359375
1757088387763755000,6.112755126953125,-0.0116729736328125,0.887451171875,-0.4740753173828125
1757088387773802000,6.122802001953125,-0.0089111328125,0.8884124755859375,-0.4698486328125
1757088387783848000,6.132847900390625,-0.003082275390625,0.8885498046875,-0.466827392578125
1757088387793895000,6.14289501953125,0.0008087158203125,0.886138916015625,-0.465057373046875
1757088387803941000,6.152941162109375,-0.0000457763671875,0.8858795166015625,-0.4645843505859375
1757088387813987000,6.162987060546875,-0.00250244140625,0.8888092041015625,-0.464019775390625
1757088387824034000,6.173033935546875,-0.0043487548828125,0.890411376953125,-0.46630859375
1757088387834080000,6.183080078125,-0.0095672607421875,0.8888092041015625,-0.4681243896484375
1757088387844127000,6.193126953125,-0.0107879638671875,0.88824462890625,-0.466400146484375
1757088387854173000,6.2031728515625,-0.0105743408203125,0.886962890625,-0.4683685302734375
1757088387864220200,6.21322021484375,-0.0088043212890625,0.8854827880859375,-0.46966552734375
1757088387874266000,6.22326611328125,-0.00946044921875,0.88531494140625,-0.4728240966796875
1757088387884312000,6.23331201171875,-0.0079803466796875,0.8840484619140625,-0.4771728515625
1757088387894359000,6.243359130859375,-0.0053253173828125,0.8843841552734375,-0.4781036376953125
1757088387904405000,6.253405029296875,-0.006866455078125,0.8837432861328125,-0.4788360595703125
1757088387914452000,6.263451904296875,-0.0109405517578125,0.883697509765625,-0.477752685546875
1757088387924498200,6.273498291015625,-0.0116729736328125,0.881591796875,-0.474456787109375
1757088387934544100,6.283544189453125,-0.009490966796875,0.881927490234375,-0.47113037109375
1757088387944591000,6.293591064453125,-0.003814697265625,0.883453369140625,-0.46917724609375
1757088387954637000,6.303636962890625,0.0003204345703125,0.88494873046875,-0.4686126708984375
1757088387964684000,6.31368408203125,-0.00067138671875,0.8841094970703125,-0.469940185546875
1757088387974730000,6.32372998046875,-0.00262451171875,0.8828887939453125,-0.4751739501953125
1757088387984777000,6.33377685546875,-0.0049285888671875,0.881134033203125,-0.480133056640625
1757088387994823000,6.343822998046875,-0.0064697265625,0.8817291259765625,-0.482269287109375
1757088388004868900,6.353868896484375,-0.00958251953125,0.8815765380859375,-0.4832000732421875
1757088388014915800,6.363915771484375,-0.0106048583984375,0.880401611328125,-0.4794921875
1757088388024962000,6.373962158203125,-0.005462646484375,0.8824615478515625,-0.4778900146484375
1757088388035009000,6.384009033203125,-0.00140380859375,0.88214111328125,-0.4774322509765625
1757088388045055200,6.39405517578125,-0.002349853515625,0.88287353515625,-0.47943115234375
1757088388055101200,6.40410107421875,-0.00531005859375,0.8827056884765625,-0.4799041748046875
1757088388065148200,6.414148193359375,-0.005950927734375,0.8820343017578125,-0.481781005859375
1757088388075194000,6.424194091796875,-0.0051727294921875,0.881378173828125,-0.4836273193359375
1757088388085241000,6.434240966796875,-0.0080108642578125,0.880584716796875,-0.4819183349609375
1757088388095287000,6.444287109375,-0.012359619140625,0.8797607421875,-0.4794158935546875
1757088388105333000,6.4543330078125,-0.012664794921875,0.878143310546875,-0.4784393310546875
1757088388115380000,6.4643798828125,-0.0118560791015625,0.87921142578125,-0.4782867431640625
1757088388125426200,6.47442626953125,-0.0097503662109375,0.883941650390625,-0.47772216796875
1757088388135473000,6.484472900390625,-0.0069732666015625,0.8868865966796875,-0.4778900146484375
1757088388145519000,6.49451904296875,-0.0063934326171875,0.888671875,-0.4741058349609375
1757088388155566000,6.504566162109375,-0.0083465576171875,0.8867340087890625,-0.4696807861328125
1757088388165612000,6.514612060546875,-0.00640869140625,0.8871612548828125,-0.4677734375
1757088388175658000,6.524657958984375,-0.0068511962890625,0.8873138427734375,-0.4678802490234375
1757088388185705000,6.534705078125,-0.012115478515625,0.8869171142578125,-0.468109130859375
1757088388195751000,6.5447509765625,-0.0157318115234375,0.885589599609375,-0.47015380859375
1757088388205798100,6.554798095703125,-0.015625,0.884246826171875,-0.474609375
1757088388215844000,6.564843994140625,-0.014617919921875,0.8818359375,-0.476348876953125
1757088388225891000,6.57489111328125,-0.0108489990234375,0.878662109375,-0.4784088134765625
1757088388235937000,6.58493701171875,-0.0071563720703125,0.87890625,-0.4786529541015625
1757088388245983200,6.594983154296875,-0.0058746337890625,0.8822021484375,-0.4778289794921875
1757088388256030200,6.6050302734375,-0.005615234375,0.883209228515625,-0.4760284423828125
1757088388266076200,6.615076171875,-0.0078887939453125,0.8853912353515625,-0.475067138671875
1757088388276123100,6.625123046875,-0.0143585205078125,0.8854827880859375,-0.4760589599609375
1757088388286168600,6.63516845703125,-0.016815185546875,0.8871002197265625,-0.4775238037109375
1757088388296214500,6.645214599609375,-0.0135040283203125,0.8885040283203125,-0.4775390625
1757088388306261800,6.65526171875,-0.0110931396484375,0.88861083984375,-0.477081298828125
1757088388316307700,6.6653076171875,-0.009979248046875,0.884307861328125,-0.4731903076171875
1757088388326354700,6.675354736328125,-0.010955810546875,0.88275146484375,-0.4673004150390625
1757088388336400600,6.685400634765625,-0.0127410888671875,0.884246826171875,-0.464813232421875
1757088388346446800,6.69544677734375,-0.00982666015625,0.8849029541015625,-0.466705322265625
1757088388356493800,6.705493896484375,-0.0131988525390625,0.88604736328125,-0.4718780517578125
1757088388366539800,6.715539794921875,-0.0155792236328125,0.8871307373046875,-0.4772186279296875
1757088388376586800,6.725586669921875,-0.0145263671875,0.8877410888671875,-0.48028564453125
1757088388386632700,6.7356328125,-0.0151824951171875,0.886383056640625,-0.4810943603515625
1757088388396679700,6.7456796875,-0.0137481689453125,0.8828277587890625,-0.479278564453125
1757088388406725600,6.7557255859375,-0.0142059326171875,0.8799896240234375,-0.4763336181640625
1757088388416771600,6.765771484375,-0.0103912353515625,0.880950927734375,-0.4732818603515625
1757088388426818600,6.775818603515625,-0.009033203125,0.8802947998046875,-0.47344970703125
1757088388436864500,6.785864501953125,-0.012298583984375,0.8807373046875,-0.4762725830078125
1757088388446911500,6.795911376953125,-0.016326904296875,0.8806610107421875,-0.4796142578125
1757088388456957700,6.805957763671875,-0.0131072998046875,0.8803558349609375,-0.4803009033203125
1757088388467003600,6.816003662109375,-0.0110626220703125,0.8809051513671875,-0.48126220703125
1757088388477051000,6.82605078125,-0.012542724609375,0.8792266845703125,-0.4841766357421875
1757088388487096800,6.836096923828125,-0.0136260986328125,0.880096435546875,-0.4826202392578125
1757088388497143800,6.846143798828125,-0.0111236572265625,0.881317138671875,-0.478851318359375
1757088388507189800,6.856189697265625,-0.0071563720703125,0.8838348388671875,-0.47796630859375
1757088388517236700,6.86623681640625,-0.0027923583984375,0.884796142578125,-0.47784423828125
1757088388527282700,6.87628271484375,-0.0008392333984375,0.8866424560546875,-0.4781036376953125
1757088388537328600,6.88632861328125,-0.003143310546875,0.8869476318359375,-0.4791259765625
1757088388547375600,6.896375732421875,-0.004486083984375,0.8851318359375,-0.478607177734375
1757088388557421600,6.906421630859375,-0.0050048828125,0.886444091796875,-0.478271484375
1757088388567468500,6.916468505859375,-0.001739501953125,0.887176513671875,-0.477142333984375
1757088388577514800,6.9265146484375,-0.0032501220703125,0.885833740234375,-0.47552490234375
1757088388587561700,6.936561767578125,-0.0077362060546875,0.8830718994140625,-0.4702911376953125
1757088388597607700,6.946607666015625,-0.0081634521484375,0.87994384765625,-0.467681884765625
1757088388607653600,6.956653564453125,-0.0084686279296875,0.8759613037109375,-0.46893310546875
1757088388617700600,6.96670068359375,-0.0102996826171875,0.876251220703125,-0.4726715087890625
1757088388627746600,6.97674658203125,-0.0151824951171875,0.883941650390625,-0.4766693115234375
1757088388637793800,6.986793701171875,-0.016937255859375,0.887451171875,-0.4810943603515625
1757088388647839700,6.99683984375,-0.010589599609375,0.8870391845703125,-0.4837493896484375
1757088388657885700,7.0068857421875,-0.0063629150390625,0.8834686279296875,-0.4836883544921875
1757088388667932700,7.0169326171875,-0.0056610107421875,0.882965087890625,-0.481048583984375
1757088388677979000,7.026978759765625,-0.007171630859375,0.8837127685546875,-0.4767913818359375
1757088388688025600,7.037025634765625,-0.008758544921875,0.88507080078125,-0.4748077392578125
1757088388698071800,7.04707177734375,-0.00775146484375,0.886749267578125,-0.4701995849609375
1757088388708118800,7.057118896484375,-0.0048675537109375,0.8867340087890625,-0.4671630859375
1757088388718164700,7.067164794921875,-0.0024871826171875,0.8841705322265625,-0.467559814453125
1757088388728210700,7.077210693359375,-0.0051422119140625,0.883209228515625,-0.4702606201171875
1757088388738257700,7.087257568359375,-0.0057220458984375,0.88299560546875,-0.4745025634765625
1757088388748303600,7.0973037109375,-0.010894775390625,0.88018798828125,-0.4757843017578125
1757088388758350600,7.1073505859375,-0.0124359130859375,0.8830718994140625,-0.4766693115234375
1757088388768396500,7.117396484375,-0.0143890380859375,0.8836517333984375,-0.4766845703125
1757088388778442500,7.1274423828125,-0.015533447265625,0.883544921875,-0.4763946533203125
1757088388788489500,7.137489501953125,-0.01263427734375,0.8863677978515625,-0.4752655029296875
1757088388798535700,7.14753564453125,-0.0115966796875,0.8873291015625,-0.476104736328125
1757088388808582700,7.157582763671875,-0.0101776123046875,0.8898773193359375,-0.4751739501953125
1757088388818628900,7.16762890625,-0.0152435302734375,0.8889312744140625,-0.4718170166015625
1757088388828675800,7.17767578125,-0.0213623046875,0.889404296875,-0.471649169921875
1757088388838721800,7.1877216796875,-0.027435302734375,0.887969970703125,-0.474365234375
1757088388848767700,7.197767822265625,-0.034881591796875,0.8886871337890625,-0.47332763671875
1757088388858814700,7.207814697265625,-0.031829833984375,0.89013671875,-0.4730682373046875
1757088388868860700,7.217860595703125,-0.02392578125,0.888641357421875,-0.4710235595703125
1757088388878907600,7.22790771484375,-0.021240234375,0.884735107421875,-0.46661376953125
1757088388888953600,7.23795361328125,-0.016571044921875,0.881072998046875,-0.4641265869140625
1757088388898999800,7.247999755859375,-0.0132293701171875,0.884185791015625,-0.463226318359375
1757088388909046500,7.258046630859375,-0.0083770751953125,0.8858184814453125,-0.4654693603515625
1757088388919092700,7.2680927734375,-0.005218505859375,0.884490966796875,-0.4704742431640625
1757088388929139700,7.2781396484375,-0.00390625,0.885345458984375,-0.479644775390625
1757088388939185700,7.288185546875,-0.0079803466796875,0.8822174072265625,-0.483642578125
1757088388949231600,7.298231689453125,-0.0066375732421875,0.8807373046875,-0.4871063232421875
1757088388959278600,7.308278564453125,-0.0074005126953125,0.880584716796875,-0.4919891357421875
1757088388969324500,7.318324462890625,-0.0105133056640625,0.88427734375,-0.495758056640625
1757088388979371800,7.328371826171875,-0.0101165771484375,0.887664794921875,-0.49468994140625
1757088388989417700,7.338417724609375,-0.011138916015625,0.889190673828125,-0.48907470703125
1757088388999464700,7.348464599609375,-0.009857177734375,0.8897552490234375,-0.4795989990234375
1757088389009510700,7.3585107421875,-0.005523681640625,0.8865509033203125,-0.4733428955078125
1757088389019556900,7.368556884765625,-0.0044708251953125,0.8816070556640625,-0.470062255859375
1757088389029603800,7.378603759765625,-0.0083160400390625,0.8798828125,-0.47283935546875
1757088389039649800,7.38864990234375,-0.0114288330078125,0.8805084228515625,-0.47784423828125
1757088389049696800,7.39869677734375,-0.01275634765625,0.882049560546875,-0.482421875
1757088389059742700,7.40874267578125,-0.012359619140625,0.8855133056640625,-0.4874420166015625
1757088389069788700,7.41878857421875,-0.008148193359375,0.88824462890625,-0.48968505859375
1757088389079835600,7.428835693359375,-0.001953125,0.89227294921875,-0.4889984130859375
1757088389089881600,7.438881591796875,0.0059814453125,0.8974609375,-0.484130859375
1757088389099928600,7.448928466796875,0.020294189453125,0.90386962890625,-0.4785003662109375
1757088389109974500,7.458974609375,0.02716064453125,0.908203125,-0.4770355224609375
1757088389120020700,7.469020751953125,0.0276336669921875,0.9102783203125,-0.477752685546875
1757088389130067700,7.479067626953125,0.0214385986328125,0.9072418212890625,-0.47479248046875
1757088389140113700,7.48911376953125,0.016357421875,0.90057373046875,-0.467864990234375
1757088389150161000,7.499160888671875,0.0182037353515625,0.8964385986328125,-0.46453857421875
1757088389160206600,7.50920654296875,0.0164031982421875,0.8880767822265625,-0.459747314453125
1757088389170252500,7.51925244140625,0.0130157470703125,0.8797149658203125,-0.4595947265625
1757088389180299800,7.5292998046875,0.0062713623046875,0.874755859375,-0.464202880859375
1757088389190345700,7.539345703125,-0.00177001953125,0.8737945556640625,-0.4689178466796875
1757088389200392700,7.549392822265625,-0.00927734375,0.8739166259765625,-0.4739837646484375
1757088389210438700,7.559438720703125,-0.0117950439453125,0.880767822265625,-0.4776458740234375
1757088389220484600,7.569484619140625,-0.003662109375,0.8907928466796875,-0.473602294921875
1757088389230531600,7.579531494140625,0.01153564453125,0.9031829833984375,-0.4630584716796875
1757088389240577800,7.589577880859375,0.0348663330078125,0.911865234375,-0.4539031982421875
1757088389250624800,7.599624755859375,0.0539398193359375,0.9119415283203125,-0.4503631591796875
1757088389260670700,7.609670654296875,0.06298828125,0.9095611572265625,-0.45501708984375
1757088389270717700,7.6197177734375,0.0604095458984375,0.9052886962890625,-0.462890625
1757088389280763600,7.629763671875,0.0628509521484375,0.907806396484375,-0.470245361328125
1757088389290809900,7.639809814453125,0.067108154296875,0.9080047607421875,-0.477691650390625
1757088389300856800,7.64985693359375,0.0720367431640625,0.9072723388671875,-0.488800048828125
1757088389310902800,7.65990283203125,0.0810699462890625,0.9048309326171875,-0.4955902099609375
1757088389320949800,7.66994970703125,0.0909881591796875,0.902801513671875,-0.498443603515625
1757088389330995700,7.67999560546875,0.1089019775390625,0.8990631103515625,-0.50323486328125
1757088389341042000,7.6900419921875,0.123931884765625,0.8949127197265625,-0.517120361328125
1757088389351088600,7.700088623046875,0.146636962890625,0.8889617919921875,-0.5340423583984375
1757088389361134800,7.710134765625,0.1796417236328125,0.891571044921875,-0.5491943359375
1757088389371181800,7.720181884765625,0.215850830078125,0.9000091552734375,-0.56951904296875
1757088389381227800,7.730227783203125,0.2473907470703125,0.9109649658203125,-0.600677490234375
1757088389391273700,7.740273681640625,0.2556915283203125,0.920013427734375,-0.6262969970703125
1757088389401320700,7.75032080078125,0.2281341552734375,0.92144775390625,-0.62335205078125
1757088389411366700,7.76036669921875,0.1950225830078125,0.9085540771484375,-0.63525390625
1757088389421414000,7.770413818359375,0.17486572265625,0.8909759521484375,-0.6519927978515625
1757088389431459800,7.7804599609375,0.1816253662109375,0.86151123046875,-0.6996612548828125
1757088389441505800,7.790505859375,0.189453125,0.8329010009765625,-0.716156005859375
1757088389451552800,7.800552734375,0.2201080322265625,0.81884765625,-0.739013671875
1757088389461599000,7.810598876953125,0.2488555908203125,0.825836181640625,-0.7602081298828125
1757088389471646000,7.82064599609375,0.2380828857421875,0.839813232421875,-0.7895660400390625
1757088389481692000,7.83069189453125,0.21600341796875,0.8585205078125,-0.8208465576171875
1757088389491737900,7.84073779296875,0.22784423828125,0.869781494140625,-0.85028076171875
1757088389501784800,7.850784912109375,0.245574951171875,0.863433837890625,-0.857574462890625
1757088389511830800,7.860830810546875,0.2825164794921875,0.8549652099609375,-0.8609619140625
1757088389521877800,7.870877685546875,0.31658935546875,0.840301513671875,-0.8236236572265625
1757088389531923700,7.880923828125,0.321746826171875,0.83074951171875,-0.7586212158203125
1757088389541969700,7.8909697265625,0.31951904296875,0.805419921875,-0.7144012451171875
1757088389552016600,7.9010166015625,0.3233642578125,0.8022308349609375,-0.65313720703125
1757088389562062800,7.911062744140625,0.3132781982421875,0.815216064453125,-0.6024322509765625
1757088389572109800,7.92110986328125,0.3202056884765625,0.8187103271484375,-0.5811004638671875
1757088389582155800,7.93115576171875,0.3419036865234375,0.8086090087890625,-0.5683441162109375
1757088389592201700,7.94120166015625,0.33685302734375,0.7858428955078125,-0.5716705322265625
1757088389602249000,7.9512490234375,0.343048095703125,0.7671966552734375,-0.596954345703125
1757088389612295000,7.961294921875,0.3513641357421875,0.7509307861328125,-0.641510009765625
1757088389622342000,7.971341796875,0.3656463623046875,0.7432708740234375,-0.6763916015625
1757088389632387800,7.981387939453125,0.3845977783203125,0.720306396484375,-0.687042236328125
1757088389642433800,7.991433837890625,0.3980560302734375,0.7037200927734375,-0.68060302734375
1757088389652480800,8.001480712890626,0.4009552001953125,0.6958160400390625,-0.6894378662109375
1757088389662526700,8.011526611328126,0.3936920166015625,0.7123565673828125,-0.683319091796875
1757088389672573700,8.02157373046875,0.38751220703125,0.677215576171875,-0.64971923828125
1757088389682620000,8.031619873046875,0.401031494140625,0.61444091796875,-0.6037445068359375
1757088389692665900,8.041665771484375,0.39056396484375,0.61798095703125,-0.5779266357421875
1757088389702712800,8.051712890625,0.4050445556640625,0.6391448974609375,-0.57257080078125
1757088389712758800,8.0617587890625,0.4062652587890625,0.6203460693359375,-0.543701171875
1757088389722805800,8.0718056640625,0.4199371337890625,0.585479736328125,-0.54534912109375
1757088389732851700,8.081851806640625,0.4530487060546875,0.543212890625,-0.53814697265625
1757088389742897700,8.091897705078125,0.4809112548828125,0.510894775390625,-0.5217742919921875
1757088389752944600,8.101944580078126,0.4844970703125,0.4972686767578125,-0.5080413818359375
1757088389762990600,8.111990478515626,0.4806976318359375,0.4761199951171875,-0.4797210693359375
1757088389773037800,8.122037841796875,0.4928131103515625,0.4601593017578125,-0.443450927734375
1757088389783084000,8.132083984375,0.500762939453125,0.46221923828125,-0.396148681640625
1757088389793129700,8.142129638671875,0.53076171875,0.4510498046875,-0.369384765625
1757088389803177000,8.152177001953126,0.5481414794921875,0.44537353515625,-0.351226806640625
1757088389813223000,8.162222900390624,0.5534820556640625,0.454681396484375,-0.32843017578125
1757088389823268900,8.172268798828124,0.5616302490234375,0.4744720458984375,-0.339996337890625
1757088389833315800,8.18231591796875,0.5644378662109375,0.4638519287109375,-0.354522705078125
1757088389843361800,8.19236181640625,0.567901611328125,0.458282470703125,-0.3684844970703125
1757088389853408800,8.20240869140625,0.566192626953125,0.4568023681640625,-0.3697357177734375
1757088389863454700,8.212454833984374,0.567626953125,0.4691009521484375,-0.348663330078125
1757088389873501000,8.2225009765625,0.575439453125,0.4703826904296875,-0.29962158203125
1757088389883548000,8.2325478515625,0.585418701171875,0.463470458984375,-0.2702484130859375
1757088389893593900,8.24259375,0.5858612060546875,0.449249267578125,-0.27886962890625
1757088389903640800,8.252640869140626,0.6065521240234375,0.4314117431640625,-0.3245391845703125
1757088389913686800,8.262686767578124,0.6294403076171875,0.4135284423828125,-0.3762359619140625
1757088389923732700,8.272732666015624,0.64404296875,0.4007720947265625,-0.4076080322265625
1757088389933779700,8.28277978515625,0.6584625244140625,0.395538330078125,-0.4222412109375
1757088389943825700,8.29282568359375,0.6673431396484375,0.4024810791015625,-0.4278106689453125
1757088389953872600,8.30287255859375,0.672821044921875,0.410797119140625,-0.4232940673828125
1757088389963918600,8.312918701171874,0.6808013916015625,0.41656494140625,-0.4236602783203125
1757088389973964800,8.32296484375,0.6751861572265625,0.4132080078125,-0.4353485107421875
1757088389984011800,8.33301171875,0.6622161865234375,0.4054718017578125,-0.4392547607421875
1757088389994058000,8.34305810546875,0.656005859375,0.394683837890625,-0.4410247802734375
1757088390004105000,8.35310498046875,0.6557464599609375,0.3881072998046875,-0.4399871826171875
1757088390014151000,8.36315087890625,0.6603851318359375,0.3905181884765625,-0.436798095703125
1757088390024196900,8.37319677734375,0.661651611328125,0.3965911865234375,-0.434295654296875
1757088390034243800,8.383243896484375,0.664825439453125,0.410888671875,-0.4276580810546875
1757088390044289800,8.393289794921875,0.6495208740234375,0.423095703125,-0.41632080078125
1757088390054336800,8.403336669921876,0.6363677978515625,0.417999267578125,-0.402587890625
1757088390064382700,8.4133828125,0.6366729736328125,0.4041595458984375,-0.396484375
1757088390074428700,8.4234287109375,0.620330810546875,0.418060302734375,-0.3998565673828125
1757088390084475600,8.4334755859375,0.6004180908203125,0.4541168212890625,-0.403045654296875
1757088390094521900,8.44352197265625,0.6004638671875,0.4923095703125,-0.390960693359375
1757088390104568800,8.45356884765625,0.7276611328125,0.5569000244140625,-0.4129791259765625
1757088390114614800,8.46361474609375,0.9730072021484375,0.6925048828125,-0.5457611083984375
1757088390124660700,8.47366064453125,1.32733154296875,0.94793701171875,-0.893280029296875
1757088390134707700,8.483707763671875,1.36199951171875,1.2679290771484375,-1.3285980224609375
1757088390144753700,8.493753662109375,0.9286651611328125,1.3670501708984375,-1.6708526611328125
1757088390154801000,8.50380078125,0.55145263671875,1.0957794189453125,-1.61474609375
1757088390164846800,8.513846923828124,0.418487548828125,0.6889495849609375,-0.917266845703125
1757088390174892800,8.523892822265625,0.685333251953125,0.4829254150390625,-0.2388458251953125
1757088390184939800,8.533939697265625,1.0178070068359375,0.4203033447265625,0.138092041015625
1757088390194986000,8.543986083984375,0.98114013671875,0.415924072265625,0.0883636474609375
1757088390205032700,8.55403271484375,0.798828125,0.463897705078125,-0.2587738037109375
1757088390215079000,8.564078857421874,0.5988616943359375,0.591644287109375,-0.6497955322265625
1757088390225124900,8.574124755859375,0.413360595703125,0.7288665771484375,-0.7890167236328125
1757088390235171800,8.584171875,0.443389892578125,0.802520751953125,-0.7906646728515625
1757088390245217800,8.5942177734375,0.5145111083984375,0.8781890869140625,-0.8387603759765625
1757088390255264800,8.6042646484375,0.4208984375,0.9777374267578125,-0.84393310546875
1757088390265310700,8.614310791015624,0.3315887451171875,0.9753570556640625,-0.759063720703125
1757088390275356700,8.624356689453125,0.351898193359375,0.8873138427734375,-0.6331329345703125
1757088390285403600,8.634403564453125,0.383392333984375,0.820770263671875,-0.542449951171875
1757088390295449900,8.644449951171875,0.3613739013671875,0.74176025390625,-0.46234130859375
1757088390305496800,8.654496826171876,0.3171234130859375,0.6685638427734375,-0.38739013671875
1757088390315543000,8.66454296875,0.3290252685546875,0.6076812744140625,-0.31787109375
1757088390325589000,8.674589111328125,0.3536224365234375,0.5911712646484375,-0.2891693115234375
1757088390335636000,8.684635986328125,0.3661651611328125,0.6309661865234375,-0.2868804931640625
1757088390345682000,8.694681884765625,0.3181304931640625,0.70147705078125,-0.3136444091796875
1757088390355729000,8.70472900390625,0.259552001953125,0.7734375,-0.3419036865234375
1757088390365774800,8.71477490234375,0.221588134765625,0.8247833251953125,-0.3734130859375
1757088390375820800,8.72482080078125,0.164093017578125,0.8883514404296875,-0.4405670166015625
1757088390385867800,8.73486767578125,0.119659423828125,0.9385986328125,-0.5328521728515625
1757088390395913700,8.744913818359375,0.12176513671875,0.9545745849609375,-0.631500244140625
1757088390405961000,8.7549609375,0.1474456787109375,0.976470947265625,-0.74432373046875
1757088390416007200,8.765007080078124,0.199737548828125,0.9397735595703125,-0.8230743408203125
1757088390426052900,8.775052978515625,0.2226104736328125,0.8555145263671875,-0.8149871826171875
1757088390436100000,8.78510009765625,0.2170257568359375,0.776824951171875,-0.762786865234375
1757088390446146000,8.79514599609375,0.17291259765625,0.74346923828125,-0.7122344970703125
1757088390456193000,8.805193115234376,0.17462158203125,0.7352142333984375,-0.660736083984375
1757088390466239000,8.815239013671874,0.1542816162109375,0.7342529296875,-0.6156158447265625
1757088390476286000,8.825285888671875,0.088287353515625,0.731231689453125,-0.5931243896484375
1757088390486332000,8.835331787109375,0.0234527587890625,0.7040863037109375,-0.5709381103515625
1757088390496377900,8.8453779296875,0.0007171630859375,0.670562744140625,-0.5771331787109375
1757088390506424800,8.8554248046875,0.01861572265625,0.631500244140625,-0.5904083251953125
1757088390516470800,8.865470703125,0.048828125,0.598052978515625,-0.6078338623046875
1757088390526517800,8.875517822265625,0.094268798828125,0.58392333984375,-0.6324005126953125
1757088390536564000,8.88556396484375,0.125823974609375,0.6000823974609375,-0.6471405029296875
1757088390546610000,8.89560986328125,0.135955810546875,0.630462646484375,-0.6790313720703125
1757088390556657000,8.905656982421876,0.158355712890625,0.6448211669921875,-0.6786956787109375
1757088390566702800,8.915702880859374,0.146453857421875,0.655975341796875,-0.664031982421875
1757088390576750000,8.92575,0.111297607421875,0.664764404296875,-0.6568603515625
1757088390586795800,8.935795654296875,0.07489013671875,0.6705169677734375,-0.63983154296875
1757088390596841700,8.945841796875,0.00732421875,0.6841583251953125,-0.634735107421875
1757088390606889000,8.955888916015626,0.0109100341796875,0.68487548828125,-0.5693817138671875
1757088390616935000,8.965934814453124,0.0171356201171875,0.701263427734375,-0.5213775634765625
1757088390626982000,8.97598193359375,0.0253448486328125,0.708740234375,-0.4644012451171875
1757088390637028000,8.986028076171875,0.0210113525390625,0.7163543701171875,-0.4107208251953125
1757088390647074000,8.996073974609375,-0.026947021484375,0.729736328125,-0.2971038818359375
1757088390657121000,9.00612109375,-0.0182037353515625,0.8211669921875,-0.2929229736328125
1757088390667167000,9.0161669921875,-0.006622314453125,0.8499298095703125,-0.31939697265625
1757088390677214000,9.0262138671875,0.0282440185546875,0.8433837890625,-0.321258544921875
1757088390687260000,9.036260009765625,0.0593414306640625,0.839691162109375,-0.3584442138671875
1757088390697305900,9.046305908203125,0.0730743408203125,0.8468170166015625,-0.4055023193359375
1757088390707352800,9.056352783203126,0.0883026123046875,0.8538360595703125,-0.4822998046875
1757088390717398800,9.066398681640624,0.111572265625,0.8644866943359375,-0.543212890625
1757088390727445800,9.07644580078125,0.1264801025390625,0.8797454833984375,-0.5854034423828125
1757088390737492000,9.086491943359375,0.14093017578125,0.890869140625,-0.61322021484375
1757088390747538700,9.09653857421875,0.14398193359375,0.88653564453125,-0.6364288330078125
1757088390757585000,9.1065849609375,0.144256591796875,0.852813720703125,-0.6453704833984375
1757088390767630800,9.116630859375,0.13714599609375,0.8285369873046875,-0.64605712890625
1757088390777678000,9.126677978515625,0.1201171875,0.832977294921875,-0.653533935546875
1757088390787724000,9.13672412109375,0.1085968017578125,0.8292388916015625,-0.6651611328125
1757088390797771000,9.14677099609375,0.0986328125,0.7919158935546875,-0.68475341796875
1757088390807817000,9.15681689453125,0.059326171875,0.747894287109375,-0.7032318115234375
1757088390817863000,9.16686279296875,-0.011016845703125,0.743682861328125,-0.729583740234375
1757088390827910000,9.176909912109375,-0.1035919189453125,0.8085479736328125,-0.7588653564453125
1757088390837955800,9.186955810546875,-0.204345703125,0.945587158203125,-0.8009796142578125
1757088390848002800,9.1970029296875,-0.2869873046875,1.1100921630859375,-0.854827880859375
1757088390858049000,9.207049072265624,-0.3251190185546875,1.2223052978515625,-0.8997344970703125
1757088390868095000,9.217094970703124,-0.314544677734375,1.2008209228515625,-0.9013519287109375
1757088390878142000,9.227141845703125,-0.2813568115234375,1.1023101806640625,-0.8732452392578125
1757088390888188000,9.23718798828125,-0.2248077392578125,1.1004638671875,-0.84588623046875
1757088390898235000,9.24723486328125,-0.14459228515625,1.1728668212890625,-0.7901153564453125
1757088390908280800,9.25728076171875,-0.056182861328125,1.3026123046875,-0.72705078125
1757088390918326800,9.267326904296874,0.0450592041015625,1.4628143310546875,-0.6496429443359375
1757088390928373800,9.277373779296875,0.154083251953125,1.58819580078125,-0.5480194091796875
1757088390938419700,9.287419677734375,0.2285003662109375,1.631927490234375,-0.459808349609375
1757088390948467000,9.297467041015626,0.27435302734375,1.5923004150390625,-0.426849365234375
1757088390958513000,9.307512939453124,0.31353759765625,1.4064483642578125,-0.474151611328125
1757088390968559000,9.31755908203125,0.339019775390625,1.1879730224609375,-0.5533294677734375
1757088390978606000,9.327606201171875,0.35089111328125,1.004150390625,-0.658172607421875
1757088390988652000,9.337652099609375,0.3730926513671875,0.838653564453125,-0.7843170166015625
1757088390998699000,9.347698974609376,0.3748626708984375,0.7204742431640625,-0.923675537109375
1757088391008745000,9.357744873046874,0.3450775146484375,0.6641845703125,-1.0398712158203125
1757088391018791000,9.367791015625,0.29266357421875,0.677001953125,-1.1123199462890625
1757088391028838000,9.377837890625,0.2381591796875,0.741363525390625,-1.2169036865234375
1757088391038883800,9.3878837890625,0.1316375732421875,0.79949951171875,-1.295257568359375
1757088391048930800,9.397930908203126,-0.0192413330078125,0.8300933837890625,-1.3411407470703125
1757088391058976800,9.407976806640624,-0.235687255859375,0.8338165283203125,-1.2850494384765625
1757088391069023700,9.418023681640625,-0.40008544921875,0.8514404296875,-1.0542449951171875
1757088391079070000,9.428070068359375,-0.3958892822265625,0.8614349365234375,-0.84075927734375
1757088391089116000,9.438115966796875,-0.236297607421875,0.8426971435546875,-0.724517822265625
1757088391099163000,9.448162841796876,0.018310546875,0.846588134765625,-0.7029266357421875
1757088391109208800,9.458208740234374,0.2928619384765625,0.8935089111328125,-0.762725830078125
1757088391119256000,9.468256103515625,0.458709716796875,0.9643707275390625,-0.752899169921875
1757088391129302000,9.478302001953125,0.465057373046875,1.0050201416015625,-0.712646484375
1757088391139348000,9.488347900390625,0.3529205322265625,1.0146331787109375,-0.5760345458984375
1757088391149395000,9.49839501953125,0.1142578125,0.99835205078125,-0.481719970703125
1757088391159441000,9.50844091796875,-0.0701141357421875,0.9149322509765625,-0.489044189453125
1757088391169488000,9.51848779296875,-0.071136474609375,0.8235321044921875,-0.534881591796875
1757088391179534000,9.5285341796875,0.0052642822265625,0.810882568359375,-0.57061767578125
1757088391189580000,9.538580078125,0.099761962890625,0.819976806640625,-0.582000732421875
1757088391199627000,9.548626953125,0.1326904296875,0.8073577880859375,-0.5555267333984375
1757088391209673000,9.5586728515625,0.117706298828125,0.7752532958984375,-0.5177001953125
1757088391219720000,9.568719970703125,0.099273681640625,0.729736328125,-0.4451751708984375
1757088391229766000,9.578765869140625,0.116058349609375,0.668731689453125,-0.3873138427734375
1757088391239811800,9.588811767578125,0.1243438720703125,0.5908660888671875,-0.3083343505859375
1757088391249858800,9.59885888671875,0.1195068359375,0.464996337890625,-0.2341766357421875
1757088391259904800,9.60890478515625,0.1118011474609375,0.3474578857421875,-0.203338623046875
1757088391269951700,9.61895166015625,0.1573028564453125,0.257720947265625,-0.21990966796875
1757088391279998000,9.628998046875,0.1859893798828125,0.151397705078125,-0.22747802734375
1757088391290043600,9.639043701171875,0.1754608154296875,0.06494140625,-0.232940673828125
1757088391300091000,9.6490908203125,0.1835784912109375,0.0737152099609375,-0.228302001953125
1757088391310136600,9.659136474609374,0.1684722900390625,0.12713623046875,-0.2093353271484375
1757088391320183800,9.669183837890625,0.1982879638671875,0.208587646484375,-0.215118408203125
1757088391330229800,9.679229736328125,0.251129150390625,0.26483154296875,-0.2068939208984375
1757088391340276700,9.68927685546875,0.2758026123046875,0.320037841796875,-0.19921875
1757088391350322700,9.69932275390625,0.276519775390625,0.3608245849609375,-0.1782379150390625
1757088391360368600,9.70936865234375,0.2648468017578125,0.37548828125,-0.1513671875
1757088391370415600,9.71941552734375,0.3020172119140625,0.3751373291015625,-0.134063720703125
1757088391380461600,9.729461669921875,0.3656768798828125,0.3520965576171875,-0.14324951171875
1757088391390508500,9.739508544921875,0.423309326171875,0.326446533203125,-0.1834716796875
1757088391400554800,9.7495546875,0.4609375,0.3065338134765625,-0.2399444580078125
1757088391410600700,9.7596005859375,0.4619140625,0.301177978515625,-0.268585205078125
1757088391420647700,9.769647705078125,0.4730682373046875,0.30950927734375,-0.3044586181640625
1757088391430693600,9.779693603515625,0.509246826171875,0.3219146728515625,-0.3534393310546875
1757088391440740600,9.78974072265625,0.5504302978515625,0.34527587890625,-0.3894805908203125
1757088391450786600,9.79978662109375,0.6034088134765625,0.377044677734375,-0.4541473388671875
1757088391460832500,9.80983251953125,0.755889892578125,0.428497314453125,-0.5514373779296875
1757088391470879500,9.81987939453125,0.9807891845703125,0.507110595703125,-0.67022705078125
1757088391480925400,9.829925537109375,1.12432861328125,0.656951904296875,-0.8237457275390625
1757088391490972700,9.83997265625,1.207000732421875,0.9754638671875,-0.974029541015625
1757088391501019000,9.850018798828126,1.1065521240234375,1.347015380859375,-1.1254425048828125
1757088391511064800,9.86006494140625,0.903900146484375,1.561798095703125,-1.3985748291015625
1757088391521111800,9.87011181640625,0.6497802734375,1.5001373291015625,-1.4513702392578125
1757088391531157800,9.88015771484375,0.7790374755859375,1.1623077392578125,-1.2628326416015625
1757088391541204700,9.890204833984376,0.69775390625,0.8172454833984375,-0.9521942138671875
1757088391551250700,9.900250732421876,0.449188232421875,0.594268798828125,-0.5871124267578125
1757088391561296600,9.910296630859374,0.2537994384765625,0.3975982666015625,-0.3630523681640625
1757088391571343600,9.920343505859375,0.32012939453125,0.27685546875,-0.2592315673828125
1757088391581389600,9.9303896484375,0.4450836181640625,0.3051605224609375,-0.2957000732421875
1757088391591436500,9.9404365234375,0.505645751953125,0.394012451171875,-0.3729095458984375
1757088391601482800,9.950482666015626,0.3603515625,0.542816162109375,-0.422515869140625
1757088391611528700,9.96052880859375,0.301055908203125,0.6922454833984375,-0.372650146484375
1757088391621575700,9.97057568359375,0.3923187255859375,0.7928924560546875,-0.326202392578125
1757088391631621600,9.98062158203125,0.3976898193359375,0.904266357421875,-0.3533935546875
1757088391641668600,9.990668701171876,0.341156005859375,0.989715576171875,-0.43341064453125
1757088391651714600,10.000714599609376,0.279937744140625,1.0006103515625,-0.4929656982421875
1757088391661760500,10.010760498046874,0.222198486328125,0.954345703125,-0.5374908447265625
1757088391671807700,10.020807861328125,0.193328857421875,0.904083251953125,-0.5726470947265625
1757088391681853700,10.030853759765625,0.1229705810546875,0.858917236328125,-0.6056365966796875
1757088391691900700,10.040900634765626,0.06536865234375,0.809844970703125,-0.6655731201171875
1757088391701946600,10.050946533203126,0.01483154296875,0.7840423583984375,-0.70843505859375
1757088391711992800,10.060992919921874,0.042510986328125,0.77880859375,-0.7526092529296875
1757088391722039800,10.071039794921875,0.0921783447265625,0.815338134765625,-0.81121826171875
1757088391732085800,10.081085693359375,0.1244964599609375,0.87225341796875,-0.8492279052734375
1757088391742132700,10.0911328125,0.1305389404296875,0.889984130859375,-0.8481292724609375
1757088391752178700,10.1011787109375,0.1403961181640625,0.856658935546875,-0.800140380859375
1757088391762225700,10.1112255859375,0.1334381103515625,0.7964630126953125,-0.72247314453125
1757088391772271600,10.121271728515625,0.1366729736328125,0.7414093017578125,-0.6511993408203125
1757088391782317600,10.131317626953125,0.1194000244140625,0.7106170654296875,-0.6009521484375
1757088391792364500,10.141364501953126,0.065399169921875,0.689788818359375,-0.588623046875
1757088391802410500,10.151410400390626,0.0036773681640625,0.65753173828125,-0.603515625
1757088391812457500,10.16145751953125,-0.0430755615234375,0.6489715576171875,-0.62310791015625
1757088391822503700,10.171503662109375,-0.0623321533203125,0.6392364501953125,-0.630584716796875
1757088391832549600,10.181549560546875,-0.0901336669921875,0.619476318359375,-0.615997314453125
1757088391842596900,10.191596923828126,-0.056243896484375,0.6143646240234375,-0.5819549560546875
1757088391852642800,10.201642822265624,-0.014923095703125,0.61773681640625,-0.581329345703125
1757088391862689800,10.211689697265625,0.0172119140625,0.61761474609375,-0.59808349609375
1757088391872735700,10.22173583984375,0.08197021484375,0.633544921875,-0.5823822021484375
1757088391882781700,10.23178173828125,0.133941650390625,0.6214599609375,-0.5675811767578125
1757088391892828700,10.24182861328125,0.111236572265625,0.604461669921875,-0.589935302734375
1757088391902874600,10.25187451171875,0.0856475830078125,0.6228179931640625,-0.5468292236328125
1757088391912921600,10.261921630859375,0.05950927734375,0.7138214111328125,-0.555755615234375
1757088391922967600,10.271967529296875,0.037750244140625,0.7782135009765625,-0.5126800537109375
1757088391933013800,10.282013671875,0.01806640625,0.822509765625,-0.4631805419921875
1757088391943060700,10.292060791015626,0.0253448486328125,0.8249664306640625,-0.4452362060546875
1757088391953106700,10.302106689453124,0.0130767822265625,0.7957763671875,-0.4161376953125
1757088391963153700,10.312153564453125,0.031219482421875,0.7574005126953125,-0.35809326171875
1757088391973199600,10.32219970703125,0.0493316650390625,0.7399139404296875,-0.3381195068359375
1757088391983245600,10.33224560546875,0.056793212890625,0.718109130859375,-0.3524627685546875
1757088391993292500,10.34229248046875,0.058990478515625,0.700042724609375,-0.3721771240234375
1757088392003338500,10.35233837890625,0.0555419921875,0.700927734375,-0.392364501953125
1757088392013385700,10.3623857421875,0.09088134765625,0.7220611572265625,-0.4670257568359375
1757088392023431700,10.372431640625,0.132171630859375,0.7225494384765625,-0.553741455078125
1757088392033478700,10.382478759765625,0.15472412109375,0.7218780517578125,-0.6511688232421875
1757088392043524900,10.39252490234375,0.1498870849609375,0.7294921875,-0.747406005859375
1757088392053570800,10.40257080078125,0.1120758056640625,0.755828857421875,-0.8133087158203125
1757088392063617800,10.41261767578125,0.0783233642578125,0.7806396484375,-0.8509368896484375
1757088392073663700,10.422663818359375,0.0600738525390625,0.8035430908203125,-0.8615570068359375
1757088392083710700,10.432710693359375,0.025360107421875,0.851348876953125,-0.8508758544921875
1757088392093756700,10.442756591796876,-0.0212249755859375,0.906707763671875,-0.82293701171875
1757088392103802600,10.452802734375,-0.052215576171875,0.9508209228515625,-0.7882843017578125
1757088392113849600,10.462849609375,-0.0679779052734375,1.0146026611328125,-0.75823974609375
1757088392123895600,10.4728955078125,-0.041412353515625,1.1467742919921875,-0.730865478515625
1757088392133942500,10.482942626953125,-0.0075531005859375,1.3262481689453125,-0.7400970458984375
1757088392143988700,10.49298876953125,-0.0241851806640625,1.45526123046875,-0.8297119140625
1757088392154034700,10.50303466796875,-0.1136322021484375,1.4449310302734375,-0.9505157470703125
1757088392164081700,10.51308154296875,-0.2613372802734375,1.262725830078125,-1.0536041259765625
1757088392174127600,10.523127685546875,-0.394256591796875,1.0747528076171875,-1.10345458984375
1757088392184174800,10.5331748046875,-0.333892822265625,1.0450439453125,-1.021270751953125
1757088392194220800,10.543220703125,-0.1392822265625,1.090057373046875,-0.8536376953125
1757088392204267800,10.553267822265624,0.03558349609375,1.2002716064453125,-0.72894287109375
1757088392214313700,10.563313720703125,0.2001953125,1.3182373046875,-0.60333251953125
1757088392224359700,10.573359619140625,0.337890625,1.3536376953125,-0.4802703857421875
1757088392234406700,10.58340673828125,0.4313812255859375,1.3114776611328125,-0.451141357421875
1757088392244452600,10.59345263671875,0.4701080322265625,1.2440948486328125,-0.503509521484375
1757088392254499600,10.60349951171875,0.4520721435546875,1.176666259765625,-0.5849456787109375
1757088392264545800,10.6135458984375,0.3837127685546875,1.1034393310546875,-0.6941680908203125
1757088392274591700,10.623591796875,0.3219451904296875,1.01983642578125,-0.8066558837890625
1757088392284638700,10.633638671875,0.2553253173828125,0.9546051025390625,-0.8763580322265625
1757088392294684400,10.643684326171876,0.1150665283203125,0.897308349609375,-0.9482574462890625
1757088392304731400,10.6537314453125,-0.0144805908203125,0.8689727783203125,-1.1208038330078125
1757088392314777300,10.66377734375,-0.1099700927734375,0.869384765625,-1.331695556640625
1757088392324824600,10.673824462890625,-0.1541595458984375,0.898406982421875,-1.384307861328125
1757088392334870500,10.68387060546875,-0.163360595703125,0.961822509765625,-1.2111968994140625
1757088392344916500,10.69391650390625,-0.165008544921875,0.985443115234375,-0.97900390625
1757088392354963500,10.70396337890625,-0.1351776123046875,0.9721832275390625,-0.7738800048828125
1757088392365009700,10.714009765625,-0.0803680419921875,0.9946746826171875,-0.6070556640625
1757088392375056400,10.724056396484375,-0.05670166015625,1.017425537109375,-0.571258544921875
1757088392385102600,10.7341025390625,-0.00616455078125,1.025665283203125,-0.5548095703125
1757088392395148500,10.7441484375,0.0458984375,1.0323028564453125,-0.5127410888671875
1757088392405195500,10.754195556640624,0.0847320556640625,1.0168914794921875,-0.4822540283203125
1757088392415241500,10.764241455078125,0.047454833984375,0.9175567626953125,-0.5317230224609375
1757088392425288400,10.774288330078125,0.0274658203125,0.773101806640625,-0.6328125
1757088392435334400,10.78433447265625,0.100494384765625,0.6199798583984375,-0.6954498291015625
1757088392445380400,10.79438037109375,0.1708526611328125,0.5709228515625,-0.6442413330078125
1757088392455427300,10.80442724609375,0.176177978515625,0.6202239990234375,-0.5484771728515625
1757088392465473500,10.8144736328125,0.1540679931640625,0.6327056884765625,-0.435394287109375
1757088392475520300,10.824520263671875,0.1226654052734375,0.5978851318359375,-0.3422393798828125
1757088392485566500,10.83456640625,0.0838470458984375,0.555419921875,-0.257049560546875
1757088392495613700,10.84461376953125,0.03656005859375,0.491546630859375,-0.2086334228515625
1757088392505659600,10.85465966796875,0.033416748046875,0.422607421875,-0.21160888671875
1757088392515705300,10.864705322265625,0.0664520263671875,0.3519744873046875,-0.2178955078125
1757088392525752600,10.874752685546875,0.0743255615234375,0.266448974609375,-0.225250244140625
1757088392535798500,10.884798583984375,0.081634521484375,0.1805419921875,-0.2430877685546875
1757088392545845500,10.894845458984374,0.12750244140625,0.1294708251953125,-0.2625274658203125
1757088392555891500,10.904891357421874,0.1844329833984375,0.1292572021484375,-0.2843170166015625
1757088392565937400,10.9149375,0.238433837890625,0.1634674072265625,-0.2809906005859375
1757088392575984400,10.924984375,0.2410888671875,0.2357025146484375,-0.2435455322265625
1757088392586030600,10.935030517578125,0.26239013671875,0.29168701171875,-0.2042999267578125
1757088392596077600,10.94507763671875,0.2964019775390625,0.351715087890625,-0.17803955078125
1757088392606123500,10.95512353515625,0.3267669677734375,0.410980224609375,-0.1520233154296875
1757088392616169500,10.96516943359375,0.338714599609375,0.4487152099609375,-0.13055419921875
1757088392626216400,10.975216552734375,0.3220367431640625,0.4733123779296875,-0.145904541015625
1757088392636262400,10.985262451171875,0.315704345703125,0.4746246337890625,-0.195220947265625
1757088392646309400,10.995309326171874,0.3524322509765625,0.454925537109375,-0.264862060546875
1757088392656355300,11.005355224609374,0.4194793701171875,0.4582977294921875,-0.279632568359375
1757088392666402600,11.015402587890625,0.4617767333984375,0.4874725341796875,-0.2217559814453125
1757088392676448500,11.025448486328125,0.4860687255859375,0.4947357177734375,-0.1824798583984375
1757088392686494500,11.035494384765625,0.55340576171875,0.4512481689453125,-0.218109130859375
1757088392696541400,11.04554150390625,0.60809326171875,0.3833465576171875,-0.3238525390625
1757088392706587600,11.055587646484375,0.6278076171875,0.3267822265625,-0.42755126953125
1757088392716634600,11.065634521484375,0.660186767578125,0.2903289794921875,-0.487945556640625
1757088392726680600,11.0756806640625,0.781494140625,0.2615203857421875,-0.542633056640625
1757088392736726500,11.0857265625,0.8169403076171875,0.2706756591796875,-0.61993408203125
1757088392746773500,11.0957734375,0.73077392578125,0.367523193359375,-0.7310333251953125
1757088392756819500,11.1058193359375,0.5584564208984375,0.606353759765625,-0.8857421875
1757088392766866400,11.115866455078125,0.744842529296875,0.9438934326171875,-1.1464080810546875
1757088392776912400,11.125912353515625,0.7950592041015625,1.34619140625,-1.5693817138671875
1757088392786958300,11.135958251953125,0.5993804931640625,1.6447601318359375,-1.8464508056640625
1757088392797005300,11.14600537109375,0.556060791015625,1.7818756103515625,-1.9572601318359375
1757088392807051500,11.156051513671875,0.492919921875,1.622467041015625,-1.6500396728515625
1757088392817098500,11.166098388671875,0.283966064453125,1.190948486328125,-1.0987396240234375
1757088392827144400,11.17614453125,0.1881103515625,0.7207183837890625,-0.6536712646484375
1757088392837191700,11.186191650390626,0.26934814453125,0.4048614501953125,-0.3546600341796875
1757088392847237400,11.1962373046875,0.3432769775390625,0.2542877197265625,-0.2022857666015625
1757088392857283300,11.206283447265625,0.4586334228515625,0.1706390380859375,-0.1290283203125
1757088392867330600,11.21633056640625,0.4334869384765625,0.20404052734375,-0.1238555908203125
1757088392877376500,11.22637646484375,0.30999755859375,0.3455047607421875,-0.1567230224609375
1757088392887423500,11.236423583984376,0.2757720947265625,0.4988555908203125,-0.17254638671875
1757088392897469400,11.246469482421874,0.3193206787109375,0.6405029296875,-0.21435546875
1757088392907515600,11.256515625,0.306488037109375,0.818328857421875,-0.304168701171875
1757088392917562400,11.266562255859375,0.2369842529296875,1.01239013671875,-0.4538116455078125
1757088392927608600,11.276608642578125,0.1692962646484375,1.1663665771484375,-0.67950439453125
1757088392937655600,11.286655517578126,0.1349029541015625,1.2392578125,-0.7903900146484375
1757088392947701500,11.296701416015624,0.0743408203125,1.2264404296875,-0.90887451171875
1757088392957747500,11.30674755859375,0.0038909912109375,1.11065673828125,-0.9565582275390625
1757088392967794400,11.31679443359375,-0.023651123046875,0.9138641357421875,-0.8693084716796875
1757088392977840400,11.32684033203125,-0.000457763671875,0.7368927001953125,-0.8032073974609375
1757088392987887400,11.336887451171876,0.034393310546875,0.631927490234375,-0.7714996337890625
1757088392997933300,11.346933349609374,0.0373687744140625,0.551239013671875,-0.7494659423828125
1757088393007980300,11.356980224609375,0.04296875,0.510955810546875,-0.727935791015625
1757088393018026200,11.367026123046875,0.041717529296875,0.5078125,-0.6892242431640625
1757088393028072400,11.377072509765625,0.01007080078125,0.51995849609375,-0.63616943359375
1757088393038119700,11.38711962890625,-0.036468505859375,0.522216796875,-0.617095947265625
1757088393048165600,11.39716552734375,-0.06024169921875,0.545440673828125,-0.6332855224609375
1757088393058212600,11.407212646484375,-0.0403289794921875,0.5816497802734375,-0.686737060546875
1757088393068258600,11.417258544921875,-0.0316925048828125,0.6395721435546875,-0.7431488037109375
1757088393078305500,11.427305419921876,-0.0520172119140625,0.686798095703125,-0.736572265625
1757088393088351500,11.4373515625,-0.110443115234375,0.6962432861328125,-0.6851959228515625
1757088393098397400,11.4473974609375,-0.083892822265625,0.71234130859375,-0.6273193359375
1757088393108444400,11.4574443359375,-0.0576629638671875,0.7205047607421875,-0.5931396484375
1757088393118490400,11.467490478515625,-0.00311279296875,0.710968017578125,-0.55889892578125
1757088393128537300,11.477537353515626,0.0858306884765625,0.7198944091796875,-0.5276947021484375
1757088393138583300,11.487583251953126,0.1096954345703125,0.673065185546875,-0.5313262939453125
1757088393148629500,11.49762939453125,0.0763397216796875,0.630889892578125,-0.5217437744140625
1757088393158676500,11.507676513671875,-0.0151824951171875,0.6551513671875,-0.492034912109375
1757088393168722400,11.517722412109375,-0.0236053466796875,0.683197021484375,-0.4124908447265625
1757088393178769400,11.527769287109376,-0.0612640380859375,0.7602386474609375,-0.3813018798828125
1757088393188815400,11.5378154296875,-0.0809783935546875,0.8381500244140625,-0.3651885986328125
1757088393198862600,11.547862548828125,-0.08197021484375,0.882415771484375,-0.30462646484375
1757088393208908500,11.557908447265625,-0.01531982421875,0.8878326416015625,-0.240325927734375
1757088393218954500,11.56795458984375,0.02691650390625,0.8800811767578125,-0.221038818359375
1757088393229001500,11.57800146484375,0.04693603515625,0.8699798583984375,-0.23858642578125
1757088393239047400,11.58804736328125,0.0587158203125,0.8408355712890625,-0.3064117431640625
1757088393249094400,11.598094482421875,0.0532684326171875,0.801422119140625,-0.406768798828125
1757088393259140600,11.608140625,0.0456695556640625,0.7693939208984375,-0.5287933349609375
1757088393269186600,11.6181865234375,0.0077667236328125,0.7378692626953125,-0.6476593017578125
1757088393279233500,11.628233642578126,-0.0484771728515625,0.7038116455078125,-0.7322540283203125
1757088393289279500,11.638279541015624,-0.105438232421875,0.6760101318359375,-0.792724609375
1757088393299327000,11.648326904296875,-0.14910888671875,0.665557861328125,-0.829010009765625
1757088393309373000,11.658373046875,-0.1453399658203125,0.677642822265625,-0.8343505859375
1757088393319420000,11.668419921875,-0.079193115234375,0.7128448486328125,-0.8099822998046875
1757088393329465900,11.6784658203125,0.0104522705078125,0.770233154296875,-0.77264404296875
1757088393339511800,11.68851171875,0.073944091796875,0.8369903564453125,-0.7374725341796875
1757088393349558800,11.698558837890625,0.0932464599609375,0.896728515625,-0.7025909423828125
1757088393359604700,11.708604736328125,0.1067352294921875,0.953094482421875,-0.679290771484375
1757088393369652000,11.71865185546875,0.0865020751953125,0.9995880126953125,-0.67401123046875
1757088393379698000,11.728697998046876,0.0536651611328125,1.034210205078125,-0.6862335205078125
1757088393389745000,11.738744873046874,0.0085296630859375,1.07904052734375,-0.69927978515625
1757088393399791000,11.748791015625,-0.032196044921875,1.1440582275390625,-0.71087646484375
1757088393409837000,11.758837158203125,-0.0767669677734375,1.23492431640625,-0.7312164306640625
1757088393419884000,11.768884033203125,-0.1510467529296875,1.31683349609375,-0.7605133056640625
1757088393429930000,11.778929931640626,-0.246612548828125,1.3552398681640625,-0.7977142333984375
1757088393439977000,11.78897705078125,-0.343109130859375,1.344970703125,-0.848785400390625
1757088393450023000,11.79902294921875,-0.4488525390625,1.269317626953125,-0.9340972900390625
1757088393460070000,11.80906982421875,-0.4601898193359375,1.18408203125,-0.9309539794921875
1757088393470115800,11.81911572265625,-0.291229248046875,1.1364288330078125,-0.82421875
1757088393480161800,11.829161865234376,-0.061431884765625,1.1581573486328125,-0.7199554443359375
1757088393490208800,11.839208740234374,0.14306640625,1.23114013671875,-0.65899658203125
1757088393500255000,11.8492548828125,0.3152008056640625,1.3022308349609375,-0.6035308837890625
1757088393510302000,11.859302001953125,0.4393157958984375,1.3104705810546875,-0.5790557861328125
1757088393520348000,11.869347900390625,0.4978179931640625,1.2658233642578125,-0.599853515625
1757088393530393900,11.879393798828126,0.495849609375,1.20745849609375,-0.6508026123046875
1757088393540441000,11.889441162109375,0.4419708251953125,1.135162353515625,-0.7003631591796875
1757088393550487000,11.899487060546875,0.334564208984375,1.060333251953125,-0.7269744873046875
1757088393560534000,11.909533935546875,0.2126007080078125,1.0023651123046875,-0.7917633056640625
1757088393570580000,11.919580078125,0.0105438232421875,0.9430694580078125,-0.83551025390625
1757088393580627000,11.929626953125,-0.269195556640625,0.862060546875,-0.9548797607421875
1757088393590673000,11.9396728515625,-0.38336181640625,0.7902374267578125,-1.179534912109375
1757088393600718800,11.94971875,-0.26873779296875,0.775146484375,-1.3185882568359375
1757088393610765800,11.959765869140625,-0.0960693359375,0.7938079833984375,-1.365631103515625
1757088393620812000,11.96981201171875,0.14697265625,0.85015869140625,-1.16619873046875
1757088393630859000,11.97985888671875,0.274749755859375,0.90869140625,-0.8229217529296875
1757088393640905000,11.989905029296875,0.214019775390625,0.9492340087890625,-0.7519073486328125
1757088393650952000,11.999951904296875,0.1408843994140625,1.0331573486328125,-0.7716522216796875
1757088393660998000,12.009997802734375,0.1191253662109375,1.083099365234375,-0.752655029296875
1757088393671043800,12.0200439453125,0.17193603515625,1.0748291015625,-0.7429962158203125
1757088393681090800,12.0300908203125,0.1256103515625,1.02508544921875,-0.6649932861328125
1757088393691136800,12.04013671875,-0.0643463134765625,0.941162109375,-0.5609130859375
1757088393701184000,12.05018408203125,-0.2735443115234375,0.862884521484375,-0.51373291015625
1757088393711230000,12.06022998046875,-0.255340576171875,0.8177337646484375,-0.5544281005859375
1757088393721276000,12.07027587890625,-0.0591888427734375,0.768310546875,-0.620941162109375
1757088393731323000,12.080322998046874,0.193817138671875,0.70684814453125,-0.6380462646484375
1757088393741369000,12.090369140625,0.288726806640625,0.6828765869140625,-0.5415496826171875
1757088393751416000,12.100416015625,0.2281036376953125,0.643585205078125,-0.4333343505859375
1757088393761462000,12.1104619140625,0.1001739501953125,0.57977294921875,-0.3422393798828125
1757088393771509000,12.120509033203126,0.025299072265625,0.497802734375,-0.2612152099609375
1757088393781555000,12.130554931640624,0.0266876220703125,0.4051513671875,-0.229339599609375
1757088393791601000,12.140600830078125,0.0405731201171875,0.2633056640625,-0.248077392578125
1757088393801647900,12.15064794921875,0.0672454833984375,0.1139678955078125,-0.2637939453125
1757088393811693800,12.16069384765625,0.117156982421875,0.0703887939453125,-0.2917938232421875
1757088393821740800,12.17074072265625,0.17401123046875,0.0838623046875,-0.3144989013671875
1757088393831786800,12.180786865234374,0.1688232421875,0.135284423828125,-0.27587890625
1757088393841833700,12.190833740234375,0.1360015869140625,0.199920654296875,-0.22137451171875
1757088393851880000,12.2008798828125,0.1535186767578125,0.2340240478515625,-0.17041015625
1757088393861926000,12.21092578125,0.2253875732421875,0.2712554931640625,-0.0926666259765625
1757088393871973000,12.22097314453125,0.280731201171875,0.3173980712890625,-0.0147705078125
1757088393882019000,12.23101904296875,0.314239501953125,0.31060791015625,0.0509796142578125
1757088393892066000,12.241066162109375,0.3649444580078125,0.2759246826171875,0.0780792236328125
1757088393902112000,12.251112060546875,0.4230804443359375,0.2603759765625,0.007904052734375
1757088393912159000,12.261158935546876,0.4478912353515625,0.2601165771484375,-0.21630859375
1757088393922205000,12.271204833984376,0.454345703125,0.2693634033203125,-0.4388427734375
1757088393932251000,12.2812509765625,0.463897705078125,0.2798919677734375,-0.548675537109375
1757088393942297900,12.2912978515625,0.44134521484375,0.292510986328125,-0.5686187744140625
1757088393952344000,12.301343994140625,0.3996429443359375,0.31732177734375,-0.5176849365234375
1757088393962390800,12.311390869140626,0.4496002197265625,0.35797119140625,-0.438995361328125
1757088393972437000,12.32143701171875,0.5091552734375,0.402557373046875,-0.3836517333984375
1757088393982484000,12.33148388671875,0.4923858642578125,0.45654296875,-0.3614349365234375
1757088393992530000,12.341530029296875,0.498687744140625,0.50323486328125,-0.3526763916015625
1757088394002576000,12.351575927734375,0.4921722412109375,0.540863037109375,-0.3242950439453125
1757088394012622800,12.361622802734376,0.4719085693359375,0.614501953125,-0.2617340087890625
1757088394022668800,12.371668701171876,0.5469818115234375,0.68829345703125,-0.1696319580078125
1757088394032716000,12.381716064453125,0.675872802734375,0.7398681640625,-0.134368896484375
1757088394042762000,12.391761962890625,0.8451995849609375,0.8031158447265625,-0.2806854248046875
1757088394052809000,12.40180908203125,0.8784942626953125,0.8782806396484375,-0.61956787109375
1757088394062855000,12.41185498046875,0.7905731201171875,0.957183837890625,-1.123870849609375
1757088394072901000,12.421901123046876,0.6633148193359375,1.0986785888671875,-1.6659698486328125
1757088394082948000,12.431947998046875,0.6264495849609375,1.2475128173828125,-2.0030364990234375
1757088394092994000,12.441994140625,0.735443115234375,1.332916259765625,-2.1311492919921875
1757088394103041000,12.452041015625,0.7479095458984375,1.2905120849609375,-2.0619354248046875
1757088394113087000,12.4620869140625,0.5484619140625,1.0535430908203125,-1.5999298095703125
1757088394123134000,12.472134033203124,0.472076416015625,0.7459869384765625,-0.93902587890625
1757088394133180000,12.482179931640625,0.47747802734375,0.5385894775390625,-0.4730377197265625
1757088394143225900,12.492225830078125,0.379974365234375,0.3624420166015625,-0.23638916015625
1757088394153272800,12.50227294921875,0.3234405517578125,0.2507476806640625,-0.14208984375
1757088394163318800,12.51231884765625,0.3352508544921875,0.2165679931640625,-0.1644439697265625
1757088394173365800,12.52236572265625,0.3830413818359375,0.2617340087890625,-0.2302398681640625
1757088394183411700,12.53241162109375,0.3553619384765625,0.34710693359375,-0.2973480224609375
1757088394193459000,12.542458984375,0.317474365234375,0.4377899169921875,-0.3150634765625
1757088394203505200,12.552505126953125,0.2879486083984375,0.538360595703125,-0.3302154541015625
1757088394213550800,12.56255078125,0.2732086181640625,0.6678466796875,-0.41424560546875
1757088394223598000,12.57259814453125,0.2356109619140625,0.8292236328125,-0.5732269287109375
1757088394233644000,12.58264404296875,0.1989593505859375,0.972869873046875,-0.7005462646484375
1757088394243691000,12.59269091796875,0.188934326171875,1.0499267578125,-0.7682342529296875
1757088394253737000,12.602737060546875,0.1987762451171875,1.062713623046875,-0.82110595703125
1757088394263784000,12.612783935546876,0.17608642578125,1.0363616943359375,-0.8604888916015625
1757088394273830000,12.622829833984374,0.1651763916015625,0.960174560546875,-0.864776611328125
1757088394283875800,12.632875732421875,0.172576904296875,0.8653411865234375,-0.84033203125
1757088394293923300,12.64292333984375,0.1548004150390625,0.7821807861328125,-0.8038177490234375
1757088394303969300,12.65296923828125,0.12103271484375,0.731170654296875,-0.7588653564453125
1757088394314016300,12.663016357421874,0.1157989501953125,0.6826934814453125,-0.695587158203125
1757088394324062500,12.6730625,0.134674072265625,0.642425537109375,-0.634552001953125
1757088394334109200,12.683109130859375,0.147369384765625,0.6128692626953125,-0.598876953125
1757088394344155400,12.6931552734375,0.1349639892578125,0.6027374267578125,-0.579010009765625
1757088394354202400,12.703202392578126,0.110687255859375,0.6060333251953125,-0.5823211669921875
1757088394364248300,12.713248291015624,0.121063232421875,0.6209564208984375,-0.586212158203125
1757088394374294300,12.723294189453124,0.0779266357421875,0.6377716064453125,-0.5906524658203125
1757088394384341200,12.73334130859375,0.025390625,0.652069091796875,-0.5968170166015625
1757088394394387200,12.74338720703125,-0.0003204345703125,0.6626739501953125,-0.600677490234375
1757088394404434400,12.753434326171876,0.0388336181640625,0.666656494140625,-0.6095428466796875
1757088394414480400,12.76348046875,0.062652587890625,0.6696319580078125,-0.630615234375
1757088394424527400,12.77352734375,0.0850830078125,0.67620849609375,-0.672454833984375
1757088394434573300,12.7835732421875,0.08599853515625,0.6751861572265625,-0.70623779296875
1757088394444620300,12.793620361328125,0.0621337890625,0.66424560546875,-0.7468109130859375
1757088394454666500,12.80366650390625,0.0927276611328125,0.64019775390625,-0.7621307373046875
1757088394464712400,12.81371240234375,0.097442626953125,0.61358642578125,-0.743377685546875
1757088394474759400,12.823759521484375,0.076171875,0.5953216552734375,-0.7301483154296875
1757088394484805400,12.833805419921875,0.0814971923828125,0.6137542724609375,-0.70880126953125
1757088394494852400,12.843852294921875,0.0850982666015625,0.636260986328125,-0.6552581787109375
1757088394504898300,12.853898193359376,0.0524444580078125,0.6605224609375,-0.6063995361328125
1757088394514945300,12.8639453125,0.03509521484375,0.69732666015625,-0.565826416015625
1757088394524991200,12.8739912109375,0.0175018310546875,0.713653564453125,-0.4835968017578125
1757088394535037200,12.884037109375,0.0308685302734375,0.7411041259765625,-0.4187774658203125
1757088394545084200,12.894084228515625,0.03558349609375,0.774017333984375,-0.390380859375
1757088394555130400,12.90413037109375,0.0047607421875,0.783935546875,-0.3942108154296875
1757088394565177300,12.91417724609375,-0.0185394287109375,0.7916259765625,-0.4067535400390625
1757088394575223600,12.9242236328125,-0.042877197265625,0.803955078125,-0.41119384765625
1757088394585270500,12.9342705078125,-0.059967041015625,0.810516357421875,-0.45654296875
1757088394595316500,12.94431640625,-0.0496368408203125,0.803955078125,-0.518341064453125
1757088394605363500,12.954363525390624,-0.02978515625,0.8039703369140625,-0.5758514404296875
1757088394615409400,12.964409423828124,-0.00335693359375,0.7994384765625,-0.632232666015625
1757088394625456400,12.974456298828125,0.029693603515625,0.783966064453125,-0.6622161865234375
1757088394635502300,12.98450244140625,0.0550689697265625,0.7760772705078125,-0.658660888671875
