time,seconds_elapsed,z,y,x
1757088381670619600,0.01961962890625,-0.015727730485796926,0.1258277621705085,0.08952785684242844
1757088381680666600,0.02966650390625,0.1584171225428581,0.07113719075769186,0.13878001832729206
1757088381690712600,0.039712646484375,0.2503741062283516,0.002752221317589283,0.17449658907577395
1757088381700758800,0.0497587890625,0.23315993657708167,-0.0626569471821189,0.14500831825761124
1757088381710805800,0.0598056640625,0.146244454190135,-0.09901384339444338,0.011556363085284828
1757088381720851700,0.069851806640625,-0.024812369695305824,-0.12640592738464473,-0.12451775728417559
1757088381730898700,0.079898681640625,-0.22185820583999155,-0.14706296749878675,-0.29280003842236474
1757088381740944600,0.089944580078125,-0.30201135448515415,-0.1281425419189036,-0.3964197499107569
1757088381750990600,0.099990478515625,-0.3039858694285154,-0.10376056299749761,-0.44924452745169396
1757088381761037600,0.11003759765625,-0.2302957793176174,-0.05771079601682722,-0.4470075621798634
1757088381771083500,0.12008349609375,-0.05592062466442585,0.05039842717684805,-0.35971820497922596
1757088381781129500,0.13012939453125,0.07465630479454993,0.07520414793565869,-0.28397965790592133
1757088381791176400,0.140176513671875,0.18453765222728252,0.06844064515009522,-0.2860986776201986
1757088381801222700,0.15022265625,0.2812561512261629,0.04940598207339644,-0.23464869556380435
1757088381811270000,0.160269775390625,0.46679859658181666,-0.011252703963592648,-0.20350818229289724
1757088381821315800,0.17031591796875,0.6493342613369226,-0.0755707892909646,-0.22580789331384002
1757088381831361800,0.18036181640625,0.7103273669600486,-0.15502828382216394,-0.2701435133203864
1757088381841408800,0.19040869140625,0.7484948927909135,-0.2187180081181228,-0.34235403239801526
1757088381851454700,0.200454833984375,0.7007195806592702,-0.24582236120812592,-0.3897157587600872
1757088381861500700,0.210500732421875,0.4972860893040895,-0.26381818275637925,-0.46363392200581727
1757088381871547600,0.220547607421875,0.2299433126181364,-0.26774456241987643,-0.58385633844994
1757088381881593600,0.230593505859375,0.055981999462842935,-0.24320436072945592,-0.7561679116368293
1757088381891640600,0.240640625,0.06991407870352268,-0.2393069148994982,-0.8636999925296753
1757088381901686800,0.250686767578125,0.1301882224023342,-0.2698164002578705,-0.7837915393605828
1757088381911732700,0.260732666015625,0.13816811524033545,0.21614443130306898,-0.4231064986431971
1757088381921779700,0.27077978515625,-0.06668751787245274,0.27982334194406866,-0.09214563812538981
1757088381931825700,0.28082568359375,-0.2842980031400919,0.12363843543268739,-0.29560459271539
1757088381941871600,0.29087158203125,-0.23882044655680654,0.31010296406932175,-0.6546911121949553
1757088381951918600,0.300918701171875,-0.2882622305959463,0.5195489206470549,-0.7377592715039849
1757088381961964500,0.310964599609375,-0.419462260389328,0.6583290303058922,-0.6943928618557751
1757088381972011500,0.321011474609375,-0.509879613417387,0.7234270870298147,-0.6144549633964895
1757088381982057500,0.331057373046875,-0.42390813388228415,0.7299540045805275,-0.7817654403604567
1757088381992103700,0.341103759765625,-0.14607377379834652,0.6457308300174772,-0.9736552819814532
1757088382002150700,0.351150634765625,0.12721826668083666,0.6246094237945974,-1.0546798796989023
1757088382012196900,0.36119677734375,0.08713409357368945,0.5082613645657896,-0.8700224004842341
1757088382022242800,0.371242919921875,0.15422960772514344,-0.0979506711423397,-0.8192587201915681
1757088382032289800,0.381289794921875,1.127469075447321,-0.9850237212792038,-1.2389641416870056
1757088382042335700,0.391335693359375,1.6443939312011002,-0.9898362361274659,-1.798389730170369
1757088382052382700,0.4013828125,1.3087930263251066,-0.9053042878761887,-1.567697645011544
1757088382062428700,0.4114287109375,0.7636264109492301,-1.0412601338945329,-1.3402142927661538
1757088382072474600,0.421474609375,0.12458441104590892,-0.35658436393290754,-1.6955004335820674
1757088382082521600,0.431521484375,-0.4719242690324783,-1.0241067545197904,-1.0810739656277
1757088382092567800,0.44156787109375,-0.5201245285779238,-0.9208445329658687,-0.30102146666496993
1757088382102613800,0.45161376953125,-0.02229892556965351,-0.11201514459103346,-0.16381240571513772
1757088382112660700,0.46166064453125,0.39394729538261886,0.6625136225141585,-0.13571451154313982
1757088382122706700,0.471706787109375,0.5967144317835569,0.832405202012509,-0.06243913971297443
1757088382132753700,0.481753662109375,0.497896914678812,0.45377617953196164,0.2029153857652098
1757088382142799600,0.491799560546875,0.14755670583248137,0.2848059526622295,0.22809540146281942
1757088382152845600,0.501845458984375,0.19086685524880884,0.7451726165004074,-0.595772474758327
1757088382162892500,0.511892578125,-0.08536065416038036,1.0277125239267946,-0.6944281523648649
1757088382172938500,0.5219384765625,-0.2654483412414789,1.4376432781219481,-0.06370601784363389
1757088382182984700,0.531984619140625,-0.8604162216186523,2.2443017521984876,1.0114303744286297
1757088382193031700,0.54203173828125,-0.21414193237423895,2.607517370839417,1.9556972840361295
1757088382203077600,0.55207763671875,1.171672958832979,2.7204087137430903,2.392268061745167
1757088382213124900,0.562124755859375,2.001774121686816,1.3075082472115753,3.0677620157331225
1757088382223170800,0.5721708984375,2.087629865887761,-0.6678253190562129,3.6105566412806507
1757088382233216800,0.582216796875,2.1056389853090045,-1.4671230551064014,3.2250960192143916
1757088382243263700,0.592263671875,1.892863665112853,-1.1803159917548298,2.5448086934700607
1757088382253309700,0.602309814453125,1.0280214437454938,-0.8677389657221733,1.7356769611477851
1757088382263355600,0.612355712890625,-1.1010445943802594,-0.43134222940579053,-0.08607961608469486
1757088382273402600,0.622402587890625,-1.3156775251418351,0.7455624926008284,-1.3095987897500394
1757088382283448600,0.632448486328125,-0.41578211057186126,1.5610820262640714,-1.7828651210412383
1757088382293495600,0.64249560546875,-0.14126783482134342,1.4101501449100673,-1.3662117805927991
1757088382303541800,0.652541748046875,0.7271312022447586,1.2854413768321276,0.3089244948744774
1757088382313587700,0.662587646484375,2.024083568650484,1.9905773126289248,1.6995117150500416
1757088382323634700,0.672634765625,3.2982623777121303,2.3661843569397925,2.9260557894945145
1757088382333680600,0.6826806640625,2.9582804812729355,1.1980439561471343,4.727387418335676
1757088382343726600,0.6927265625,2.487000355362892,1.3294333710327744,5.030520470327138
1757088382353773600,0.702773681640625,2.65479905423522,2.5722166326165197,3.839073720487952
1757088382363819500,0.712819580078125,2.6944214550495147,3.6040079502895472,3.2559184429794548
1757088382373865700,0.72286572265625,2.5805425624132154,4.081593606084585,3.3812878669232127
1757088382383912400,0.732912353515625,2.290387649938464,4.2792590354323385,4.102704198652505
1757088382393958700,0.742958740234375,1.6991741536587475,4.4331893679499625,5.016107329571247
1757088382404006000,0.753005859375,1.3392325882524252,4.751542785426974,5.403095891857147
1757088382414051800,0.7630517578125,1.3787366233840583,5.29579579308927,5.377900660324096
1757088382424097800,0.773097900390625,1.5260256181910634,5.663515591281652,5.421948476365208
1757088382434144800,0.783144775390625,1.7345092325426636,5.813730702668428,5.552762137189507
1757088382444190700,0.793190673828125,1.8762977302372454,5.888973867440224,5.781708255463839
1757088382454236700,0.803236572265625,1.6647084049552678,6.109200672686099,5.935460893326997
1757088382464283600,0.81328369140625,1.3481488851577044,6.408613827371597,5.959138121512532
1757088382474329600,0.82332958984375,1.1739794822096823,6.708918962460756,5.709266704109311
1757088382484376600,0.83337646484375,1.0772364332914353,6.845016701167822,4.988941090226173
1757088382494422800,0.8434228515625,0.8964695317745208,6.706414286163449,3.1238012983411547
1757088382504468700,0.85346875,0.6176151809930801,6.397737628570199,0.5658423236578702
1757088382514515700,0.863515625,0.49492279423885044,6.16543050943017,-0.992496541377902
1757088382524561700,0.873561767578125,0.425702616083622,5.794798623183369,-1.7876240060061215
1757088382534607600,0.883607666015625,0.3340554289996624,5.459214669442177,-2.1117671128004787
1757088382544654600,0.893654541015625,0.24470771449711173,5.634509861549735,-2.088490866631269
1757088382554700500,0.903700439453125,-0.15149755241274832,5.6432934719860555,-2.9946675534278153
1757088382564747500,0.91374755859375,-0.9177893831789493,5.5080263388842345,-3.835885153579712
1757088382574793500,0.92379345703125,-2.0294962413489817,5.258330278047919,-5.475329937940836
1757088382584839700,0.933839599609375,-3.6380677485406396,4.68706680612415,-7.459376679757237
1757088382594886700,0.94388671875,-4.643814816635847,4.367832806420326,-8.627950503531098
1757088382604932900,0.953932861328125,-4.057458697259426,4.36990405973643,-9.235495541408657
1757088382614979800,0.963979736328125,-3.1976188142240045,4.497253843842446,-8.84093157543242
1757088382625025800,0.97402587890625,-2.1768635620892045,4.204134236343204,-8.048962282574177
1757088382635071700,0.98407177734375,-1.440719032305479,3.328220585863292,-8.263593459770084
1757088382645118700,0.99411865234375,-0.8515490245521068,2.434468496353924,-8.834718692266941
1757088382655164700,1.00416455078125,-0.26532383807897564,1.4600418646737932,-9.266335500830412
1757088382665210600,1.014210693359375,-0.1946907974511385,0.5664864667803049,-10.373103149032593
1757088382675257600,1.024257568359375,-0.5784130514174699,-0.24271570042967794,-11.436498103976248
1757088382685303800,1.0343037109375,-1.0343179135411977,-1.2644447660326956,-11.370150193321704
1757088382695350500,1.0443505859375,-1.1803887647300957,-1.903339466419816,-10.752967558526992
1757088382705396700,1.054396728515625,-1.1487304746627807,-1.9087036238014696,-10.172852963888644
1757088382715442700,1.064442626953125,-1.2071645434528588,-2.015751209113002,-10.044069932109117
1757088382725489700,1.07448974609375,-1.2597826194405555,-2.065286516654491,-9.90445103353858
1757088382735535600,1.08453564453125,-1.1491881553024053,-2.1960487395524977,-9.58933995898366
1757088382745581600,1.09458154296875,-0.7435878315269947,-2.3227573031455275,-9.412158514738083
1757088382755628500,1.104628662109375,-0.25634156326539814,-2.198314346396923,-9.395569198986887
1757088382765674500,1.114674560546875,0.9640998103898017,-0.7362509127676486,-10.89775246155858
1757088382775721700,1.1247216796875,2.5052199026644226,-1.1230793160557746,-9.913198988139628
1757088382785767700,1.134767578125,1.806789894247055,-3.389094156759977,-5.866515367394685
1757088382795813600,1.144813720703125,0.8010171071887016,-3.2657161988943813,-4.302141313847899
1757088382805860900,1.15486083984375,0.2886842554003,-1.9349591780424118,-3.6034219670951364
1757088382815906800,1.16490673828125,-0.36928061776831744,-0.6701923404484987,-3.8273306757241485
1757088382825952800,1.174952880859375,-1.4670787775732577,0.3191600576847792,-4.191512362918258
1757088382835999700,1.184999755859375,-1.1991811434835196,0.806534993827343,-4.321733318546414
1757088382846045700,1.195045654296875,-0.12232961785644292,0.4831774844527244,-3.45160409668684
1757088382856092700,1.2050927734375,0.7942869221508503,-0.5239607457399368,-1.80996969332695
1757088382866138600,1.215138671875,1.1743915701419114,-1.3624544738858937,-0.2141705739468336
1757088382876184600,1.2251845703125,1.3328969554901122,-1.8025176237553358,0.7555670231342315
1757088382886231600,1.2352314453125,1.6378867412641644,-1.6620687041014433,1.2001380058169364
1757088382896277800,1.24527783203125,1.6239692750707269,-1.1611083101987838,1.2768898215860127
1757088382906324700,1.25532470703125,1.9216998834967611,-0.660917147102952,1.3040472931027411
1757088382916370700,1.26537060546875,1.9990069950610398,-0.2959042697817087,1.3176988018363713
1757088382926416600,1.275416748046875,1.278605101071298,-0.04574760569632053,2.205889750087261
1757088382936463600,1.285463623046875,-0.3512251749873161,-1.2136907303512097,2.437639235344529
1757088382946509600,1.295509521484375,-0.3710983347147703,-2.0610417186915875,2.5281232238680125
1757088382956555500,1.305555419921875,0.2642643921539187,-1.9582371777772902,1.8050082715272902
1757088382966602500,1.3156025390625,1.7185381948202847,-2.1317396412491796,-0.4502618878006935
1757088382976648400,1.3256484375,3.838247206535935,-1.8790677794724702,-1.9168220483273266
1757088382986695700,1.33569580078125,3.552836565978825,-1.6075947711139917,-2.9285715717077254
1757088382996742000,1.345741943359375,2.5519910061895845,-2.05087279137671,-3.3701614927530286
1757088383006787800,1.355787841796875,1.7084025852531193,-2.6037013196825978,-2.7760592892944813
1757088383016834800,1.365834716796875,0.7106734039187431,-2.631068050035834,-1.6839105335533617
1757088383026880800,1.375880859375,0.4834194765150547,-2.1463766538888214,-0.2591658999711275
1757088383036926700,1.3859267578125,0.9623778819680213,-1.7648638926655054,1.1826105324327945
1757088383046973700,1.3959736328125,2.2796184186428783,-2.0996225014984606,2.110248524931073
1757088383057019600,1.40601953125,2.3312860620379445,-2.3128747915565966,1.8883125776797531
1757088383067066600,1.416066650390625,0.2295490526035428,-2.155121101358533,0.7606646385341882
1757088383077112600,1.426112548828125,-1.1501964555621147,-2.227382035449147,-0.6815063461452722
1757088383087158800,1.43615869140625,-0.29947204526588317,-2.359173016873002,-1.8195786486715078
1757088383097205800,1.446205810546875,1.3634861550211905,-2.994315671250224,-2.835588752105832
1757088383107251700,1.456251708984375,2.3491188019789755,-3.31198870524764,-2.8454367769032713
1757088383117298700,1.466298583984375,2.6588071208328006,-2.724896672812104,-0.5018441909998655
1757088383127344600,1.4763447265625,2.134554990930855,-1.7943974456638097,-0.2886497686088085
1757088383137390600,1.486390625,1.4825591091692447,-1.2381769368320703,-1.0290490332275628
1757088383147437600,1.4964375,0.280346781296283,-0.7532260129660368,-0.32299393675923344
1757088383157483500,1.5064833984375,-0.7409362941049039,-0.8253893319010734,0.22848317693769932
1757088383167529500,1.516529541015625,-0.7949789960682392,-0.6689186672508716,1.4158213224142788
1757088383177576700,1.52657666015625,-1.0414870745182037,-0.48980420911610123,2.474049688374996
1757088383187623000,1.536622802734375,-1.4609405670791864,-0.5030056359946727,3.1994834390521047
1757088383197669600,1.546669677734375,-1.4744880309164523,-0.5148007032066584,2.4196879835903644
1757088383207715800,1.5567158203125,-1.2440502127796411,-0.5084405205249786,0.9728454999685286
1757088383217761800,1.56676171875,-1.3330220431745052,0.7504939576536417,0.4946335289686918
1757088383227808800,1.576808837890625,-3.8846407089203594,3.262661487498879,4.094883880290388
1757088383237854700,1.586854736328125,-2.5710429126620293,3.2942110564947127,-2.6335464228481054
1757088383247900700,1.596900634765625,-0.049789583696657785,1.0180465776979923,-2.6237153491854666
1757088383257947600,1.60694775390625,-2.305941777423024,-0.2776058120250702,-2.9842274079561233
1757088383267993600,1.61699365234375,-0.8640800048232078,-0.5064958161979913,-2.5898919900387525
1757088383278040600,1.62704052734375,0.8929764289617538,0.30754385417103763,-2.1052964554816485
1757088383288087600,1.637087646484375,1.3102940785378216,0.4286375004917383,-1.3295453069746495
1757088383298133500,1.647133544921875,1.2607973494410514,0.47083472023010253,-0.851104787915945
1757088383308180700,1.6571806640625,0.7844307140469551,0.7860492551594972,1.2553326542943715
1757088383318226700,1.667226806640625,0.4923340198546648,0.9528250407248735,2.370883328410983
1757088383328273000,1.67727294921875,0.7750602436333894,0.19004794008135795,2.0430758538901803
1757088383338320000,1.68731982421875,1.0590075336396694,-0.5468132135391235,1.6330881088107823
1757088383348365800,1.69736572265625,1.3199065410137176,-0.6484586475461721,1.4473305593997239
1757088383358412800,1.707412841796875,0.8357365383923053,-0.4240624476611614,1.1461252606004475
1757088383368458800,1.717458740234375,0.11802315283417701,-0.1218792437404394,1.1283388440191746
1757088383378504700,1.727504638671875,-0.9497381806254387,0.28121991086900233,0.9791992529094219
1757088383388551700,1.7375517578125,-1.7042437120079994,0.567254528543353,0.6691074678212404
1757088383398597600,1.74759765625,-1.9495757324159144,0.8455524144858121,0.4317220225036144
1757088383408644600,1.75764453125,-1.8739643188536166,1.0242471859037876,-0.05775660791993141
1757088383418690600,1.767690673828125,-1.4094494492948055,1.047407696738839,-0.4586234734326601
1757088383428736800,1.77773681640625,-1.033383263039589,0.945961000174284,-0.7455997558712959
1757088383438783700,1.78778369140625,-0.642839638620615,0.7655676081448793,-0.7957026341676712
1757088383448829700,1.79782958984375,-0.3127233026355505,0.6234943021595478,-0.9706582190573215
1757088383458875600,1.807875732421875,-0.10565641408092341,0.34148879387080666,-1.510807883054018
1757088383468922600,1.817922607421875,0.451323964074254,0.03883388078510761,-1.0581009401887655
1757088383478968600,1.827968505859375,0.647136459031701,0.048317163923382755,-0.9976426720947027
1757088383489015800,1.838015869140625,0.9076829997062683,-0.07554010189175606,-1.4170003030657767
1757088383499061800,1.848061767578125,1.245859308028221,-0.2747586059004068,-1.2915700888454913
1757088383509107700,1.858107666015625,1.2643635174900292,-0.4059416845589876,-1.4431968205958603
1757088383519154700,1.86815478515625,1.2454273463517427,-0.4186152881711721,-1.9772803164213895
1757088383529201000,1.878200927734375,1.3010919504284857,-0.5984551379710435,-3.152369221177697
1757088383539246800,1.888246826171875,1.5415034655690192,-1.4950398205578326,-5.281371546417475
1757088383549293800,1.8982939453125,2.1350509577542542,-2.79051568467021,-7.312518477582931
1757088383559339800,1.90833984375,2.5278297938793894,-3.743796652469039,-6.4110542062610385
1757088383569386800,1.91838671875,2.1847399945527313,-3.7332472014039753,-3.7742911594539876
1757088383579432700,1.9284326171875,1.5902017377644777,-2.352483163845539,-1.4793185198128223
1757088383589478700,1.938478759765625,0.3739362615544349,-1.348745974268019,0.3490215274631977
1757088383599525600,1.948525634765625,-0.9922748614512383,-0.9307976255729794,2.971562572172284
1757088383609571600,1.958571533203125,-3.146421710950136,1.032661086244881,9.010060061603784
1757088383619618600,1.96861865234375,-2.696682970240712,4.02745372735709,15.479296992242336
1757088383629664800,1.978664794921875,0.02551613405048847,2.904017560687661,10.22933414504528
1757088383639710700,1.988710693359375,0.9162819012254476,-0.3987020886942744,4.291607644873857
1757088383649757700,1.9987578125,0.4922118547797203,-1.927817197333276,1.4003414292097092
1757088383659803600,2.0088037109375,0.024637049661017953,-1.6198726534068584,0.19244097269773483
1757088383669849600,2.018849609375,-0.5039256003838032,-0.3904848799690604,0.5449409899264573
1757088383679896800,2.028896728515625,-0.6422340008776635,0.612531301857531,2.0255057104080914
1757088383689942500,2.038942626953125,-0.2743079212571494,0.3052154112234711,2.9509774647831915
1757088383699989800,2.04898974609375,-0.4184802270820364,-0.7474129427731037,2.645746563729644
1757088383710035700,2.05903564453125,-1.3750479979991912,-0.7868135175302624,2.1379899338155983
1757088383720082000,2.06908203125,-2.3994331310689447,0.5413625469177961,0.7203612697184085
1757088383730128600,2.079128662109375,-2.742459802031517,1.055361870613694,-1.9007476963609455
1757088383740174800,2.0891748046875,-2.5927678377360106,-0.16949468913525342,-3.094248456120491
1757088383750220800,2.099220703125,-1.1856593986093997,-0.9126876761257648,-2.7457506602704522
1757088383760267800,2.109267822265625,1.1234890659004448,-1.3143907002016901,-3.13910349689126
1757088383770313700,2.119313720703125,1.5479431432276964,-1.5693325527369975,-2.3684108008176086
1757088383780360700,2.129360595703125,1.1069997033923864,-1.7085808644294738,-2.129458252313733
1757088383790406700,2.13940673828125,0.8855068237334489,-0.8406912381902336,-2.3414169954299924
1757088383800452600,2.14945263671875,1.16588969925642,-0.05224690458774566,-1.4642892929852007
1757088383810499600,2.15949951171875,2.3514999980270863,-0.014233984796702862,-0.6295750833779573
1757088383820545800,2.1695458984375,2.277622276389599,-0.47133828583806753,-0.756989164891839
1757088383830592500,2.179592529296875,1.9730173982799053,-0.6150728030338883,-2.4516502250403165
1757088383840638700,2.189638671875,3.1638457239598035,0.7869491266086697,-2.7077210816055532
1757088383850684700,2.1996845703125,2.822310168337822,1.363420104047656,-0.3506371459662914
1757088383860731600,2.209731689453125,-1.2669465197205543,4.088436603847145,2.546184950259328
1757088383870777600,2.219777587890625,-1.3826748396158217,4.159862548418343,7.793997341424227
1757088383880823600,2.229823486328125,1.2338508903265,0.8071823518201708,10.575955625629424
1757088383890870800,2.239870849609375,-1.8806465730965136,-0.2573565124616027,6.936007470169663
1757088383900916700,2.249916748046875,-1.2216834826707839,-1.017185576954484,5.101192089399695
1757088383910963700,2.259963623046875,-1.1972867080390452,0.577351851926744,3.4947242764890194
1757088383921009700,2.270009765625,-1.307925011318922,1.6113395106002688,1.5586550913780928
1757088383931055900,2.280055908203125,-1.648577354365587,0.943092459000647,2.5267075118511912
1757088383941102800,2.290102783203125,-1.6559458373069762,1.0717930731937289,0.6345113707363605
1757088383951148800,2.300148681640625,-1.6033330220162867,0.9506319145947694,-4.699544302642345
1757088383961194800,2.31019482421875,-4.144462442451715,-1.527954832687974,-3.7578105647742746
1757088383971241700,2.32024169921875,-2.529298697388172,-3.2019886998713014,-3.811013162651658
1757088383981287700,2.33028759765625,1.6551064638733863,-4.045798654603958,-5.545163937145471
1757088383991334700,2.340334716796875,0.680169544583559,-2.8253759856492278,-6.053357204911112
1757088384001380600,2.350380615234375,-0.7864099051654339,-1.3192103754431008,-2.2039590742856263
1757088384011426600,2.360426513671875,-0.76491352815032,0.19533318700790403,-0.7980740394741296
1757088384021473500,2.3704736328125,-0.5863181254535913,1.3843798899680375,-1.0168915624439716
1757088384031519700,2.380519775390625,-0.3265396830746904,2.4724106889963147,-0.4434001853376627
1757088384041565700,2.390565673828125,0.8765420115113258,3.3017753542691466,0.7258680504411459
1757088384051612700,2.40061279296875,2.489999537178874,3.6865544238120314,0.7769003185421228
1757088384061658600,2.41065869140625,2.523524790161848,3.544190610447526,0.11410977878272532
1757088384071705900,2.420705810546875,1.977400727930665,2.73706408046782,-1.4882751487284898
1757088384081751800,2.430751708984375,1.1528577837258576,2.293276941639185,-2.778493238443136
1757088384091797800,2.4407978515625,-0.20645605404675005,1.6642092232614754,-3.350471872898936
1757088384101844700,2.4508447265625,-0.5890683009445667,1.275040978848934,-3.803835818368196
1757088384111890700,2.460890625,-0.37132396016418934,1.2414882533371447,-3.330799788701534
1757088384121937000,2.47093701171875,0.2638303846508264,1.5430267296135425,-2.5094126781791446
1757088384131984000,2.48098388671875,1.6430957080841064,2.0389783554434775,-1.679536556252837
1757088384142029800,2.49102978515625,2.256951828804612,2.1790549346536396,-1.1576683988779783
1757088384152076800,2.501076904296875,1.0667542022436856,2.03677295435369,-2.2389269272923467
1757088384162122800,2.511122802734375,0.2098696618825197,2.107812822216749,-2.693101604622602
1757088384172168700,2.521168701171875,0.08688041107356548,1.8253619082480668,-0.3916249899148941
1757088384182215700,2.531215576171875,0.7190314824193715,-1.119934003767371,3.7611020075351
1757088384192261600,2.54126171875,-0.8883996225655079,-5.093189984729886,3.8706267966151233
1757088384202307600,2.5513076171875,-3.3876182389885185,-1.6284902596265076,2.2941221602916717
1757088384212354600,2.5613544921875,-1.690189467692375,-1.9196885436743496,2.1020897683948276
1757088384222400800,2.57140087890625,-0.0008458020327321719,-0.2478244217455387,2.538337743890285
1757088384232447700,2.58144775390625,0.8238380108058452,-0.014703648135066031,2.284941659492254
1757088384242493700,2.59149365234375,0.44235681376457214,-0.41194589340984816,2.091626826569438
1757088384252539600,2.60153955078125,0.023475568133592604,-0.7393623227864503,1.8811399095714092
1757088384262587000,2.6115869140625,-0.1003249990582466,0.28123218582868575,0.9333119464814662
1757088384272632600,2.621632568359375,-0.5924409922480582,1.1298498331040143,0.5425660774886608
1757088384282679000,2.631678955078125,-0.6547206305503844,-0.7475713482052088,2.1873317646116015
1757088384292725000,2.64172509765625,-0.4510112448632717,-1.1454413699895143,1.1260288135111332
1757088384302771200,2.651771240234375,-0.6127741707026958,-2.0560937408953905,-0.10693155771642923
1757088384312818200,2.661818115234375,-0.852533359414339,-2.8333985485851763,-1.2191633165434002
1757088384322864000,2.671864013671875,-0.9128396518170833,0.8762216935157775,-4.267670888969302
1757088384332910000,2.68191015625,-3.0882185283064842,1.6231711104303597,-5.011037186700105
1757088384342957300,2.691957275390625,-2.9063685077279806,0.26401743165552616,-4.097448177820444
1757088384353003300,2.702003173828125,0.6326894160062074,1.5437673188477754,-1.7597390969976783
1757088384363050200,2.71205029296875,1.2124007636059075,2.2424381502836943,1.4724194079488515
1757088384373096200,2.72209619140625,1.5036515815585851,1.3932617000818253,1.9784794630780815
1757088384383142100,2.73214208984375,2.775537311246991,-0.5546317783355712,0.3916732129707932
1757088384393189000,2.742189208984375,2.7809856397807597,-0.9450216734975576,-0.6938736602872609
1757088384403235000,2.752235107421875,1.7073269188456237,-0.5800245782673359,-1.07001904925853
1757088384413281300,2.76228125,0.3788223530955612,-0.8299205455899238,-1.4140411609992385
1757088384423328300,2.772328369140625,-0.8408908524155616,-2.219493328025937,-1.4462383802488445
1757088384433374200,2.782374267578125,-0.9207060743432491,-7.493476517757773,0.25241291857957837
1757088384443421200,2.792421142578125,-0.9306096287202089,-5.254184264284372,1.3418907015457748
1757088384453467100,2.802467041015625,-1.2552863309346138,-0.7807686844080686,0.39886020186543464
1757088384463513000,2.81251318359375,-0.14852401649467648,-1.392726862552762,-0.19904080935418605
1757088384473560000,2.82256005859375,0.6851509131927043,-1.7055834361791609,0.01975187143534422
1757088384483606000,2.83260595703125,1.442755506569147,-2.2619120815604923,0.09419102634787559
1757088384493652200,2.84265234375,0.827245773422718,-0.3467190957397222,-1.7526403709083795
1757088384503699000,2.852698974609375,0.7734562425028533,-3.9100808551251887,-1.1018450971081852
1757088384513745200,2.8627451171875,0.570432574057579,-6.811789554348588,-1.9115800560206173
1757088384523792400,2.87279248046875,-0.49209137020520866,-7.234969373956322,-0.6950166928425431
1757088384533838300,2.88283837890625,-0.49412609090320764,-4.672289800491929,-1.3837331164970994
1757088384543884300,2.89288427734375,-1.1334298835478722,-5.798473512303829,-0.4723480474025011
1757088384553931300,2.90293115234375,-0.9007043928653001,-0.04124678714573383,0.17211071685254573
1757088384563977200,2.912977294921875,-0.9084048842400312,10.751835924148558,-0.31717005291134115
1757088384574024200,2.923024169921875,-1.5282343802817164,8.63788620661199,1.0674643963396548
1757088384584070100,2.933070068359375,0.5896662668377161,2.6521973473042246,-0.4902642278432846
1757088384594116000,2.9431162109375,1.612593163923174,-0.8251607838422059,-1.6255901542708278
1757088384604163000,2.9531630859375,0.7527810456775128,0.4013122711926698,-0.7338681092843413
1757088384614209300,2.963209228515625,1.5677800625979899,1.656131130746007,-0.8010270440608263
1757088384624255200,2.973255126953125,0.21500015663877128,-1.1438853727191687,-0.6445207235753536
1757088384634302200,2.98330224609375,-0.8151625369191169,-2.0090502501696346,-1.1993509470924735
1757088384644348200,2.99334814453125,-2.638922270667553,-0.7308078449308871,0.018237082958221434
1757088384654395100,3.00339501953125,-3.9566391926825046,2.2178549131691456,0.4800383096441626
1757088384664441000,3.013441162109375,-2.7070085494220257,3.499619647315144,1.0098740848973393
1757088384674487000,3.023487060546875,0.04052848280854523,2.3123621658593416,1.6452458718553185
1757088384684534000,3.033533935546875,1.207587810366228,2.1647633744508026,1.9975421832054852
1757088384694580000,3.043580078125,0.7280017014689744,0.9014742081940174,3.1685029021158813
1757088384704626200,3.053626220703125,2.298032757864147,0.8544307174682617,2.9976719959408045
1757088384714673400,3.06367333984375,1.7189602196246385,-0.00025426702201366424,1.3705150307446718
1757088384724719400,3.07371923828125,0.15877718802690505,-1.6673726557284592,0.684404990196228
1757088384734766300,3.083766357421875,-0.2475998192094266,-3.6682320006579157,0.4029275974348187
1757088384744812300,3.093812255859375,-0.5126062619023025,-4.8554801297634835,1.003322763557732
1757088384754858200,3.103858154296875,-0.41780733278915283,-3.7283939161539075,1.583130776464939
1757088384764905200,3.1139052734375,-0.3513344805806875,-1.9047779747903346,0.8650152398467064
1757088384774951200,3.123951171875,-1.0627848602212966,5.064736628183722,-0.2823930463016033
1757088384784997000,3.1339970703125,-0.4730285770125687,6.518050353646278,-1.4257947271570564
1757088384795044000,3.144044189453125,-0.1690016449213028,4.301671942770481,-2.159381973673403
1757088384805090300,3.15409033203125,-1.3711930761367082,3.12841726770401,-3.047084261624515
1757088384815137000,3.164136962890625,-0.6040038581393659,3.564740062001347,-2.9117133758872744
1757088384825183200,3.174183349609375,-0.69385670915246,3.528701364892721,-1.9288392338573932
1757088384835229200,3.184229248046875,0.10327625007927417,2.9166368037641046,-0.8800283923223614
1757088384845276200,3.194276123046875,0.7440688930422067,2.6254402732819315,0.7332987849637865
1757088384855322000,3.204322021484375,0.8738438584685325,2.1238012494653464,2.120219299325347
1757088384865368000,3.2143681640625,1.0225117404133082,1.9721043750882148,2.8908702020838857
1757088384875415000,3.2244150390625,0.9834539877444505,2.0392039808928963,2.5069416118904946
1757088384885461000,3.2344609375,0.7950146519035101,1.722355122759938,1.5492264610365032
1757088384895508200,3.24450830078125,0.5336041878759861,1.146333350393176,0.5543403941735625
1757088384905554200,3.25455419921875,0.18011399056613445,0.7175812836110591,-0.21644377957582472
1757088384915600100,3.26460009765625,-0.21982348514199257,0.3485077327221632,-0.6539142826035619
1757088384925647400,3.2746474609375,-0.268382787258178,0.016494623205065725,-0.8828805668830871
1757088384935693300,3.284693359375,-0.05092003989815712,-0.29418577542603014,-0.9617238019734621
1757088384945740300,3.294740234375,0.21222309314087032,-0.32040684287548066,-0.840918032683432
1757088384955786200,3.3047861328125,0.36545214552134275,-0.3898527195453644,-0.4532365196973085
1757088384965832200,3.314832275390625,0.18469255052804945,-0.7005214277386665,-0.023014964884519575
1757088384975879200,3.324879150390625,-0.17960998656675217,0.10888532213270663,0.22303075675070286
1757088384985925000,3.334925048828125,-0.540243772020936,0.7982353675156831,0.35706980936229227
1757088384995971300,3.344971435546875,-0.8369634498387575,1.6704671146124601,0.43639673631638287
1757088385006018000,3.35501806640625,-1.0000310285359622,2.0681156026005745,0.42495998102277516
1757088385016064300,3.365064208984375,-0.7524957989953458,1.797396042957902,0.3217600110501051
1757088385026110200,3.375110107421875,-0.3507645717382431,2.195794472530484,0.5724018283039332
1757088385036157200,3.3851572265625,-0.8407634266436099,1.9059137008219955,0.7661682043865322
1757088385046203100,3.395203125,-0.40427871978282925,0.4535165056824684,1.3532327642932533
1757088385056250000,3.40525,-0.4341436966925859,-1.7064590499699115,1.8952017526715992
1757088385066296000,3.415296142578125,-0.26923304741196336,-2.4624498514741657,1.958134886446595
1757088385076342000,3.425342041015625,-0.01898578243367374,-2.785059757351875,1.2958672015175223
1757088385086389000,3.435388916015625,0.14895597817115486,-2.5188947922736404,0.22167203561812637
1757088385096435000,3.44543505859375,0.2674303819041699,-1.470900235557556,-1.0973317113369703
1757088385106482200,3.455482177734375,0.133361007219553,-0.5837608421862125,-1.7748688615903256
1757088385116528400,3.4655283203125,-0.16333002902567387,-0.16291794109344482,-1.540899362196028
1757088385126574300,3.47557421875,-0.2813642877757549,-0.06300795257687568,-1.0440104555159806
1757088385136621300,3.485621337890625,-0.26803718869090076,-0.14665128142535686,-0.6118211077615618
1757088385146667300,3.495667236328125,-0.16532558675706385,-0.22656009992063045,-0.5193456531599163
1757088385156713200,3.505713134765625,-0.12790858703255653,-0.10061550643742084,-0.4694651854425668
1757088385166760200,3.51576025390625,-0.05948562366962432,-0.5993284136742353,-0.638301995190978
1757088385176806100,3.52580615234375,0.08967157616205514,-0.29698738884329795,-0.5279828408628702
1757088385186853000,3.53585302734375,-0.1299585052996874,0.21122341457903385,-0.3295385360971093
1757088385196899000,3.545899169921875,0.14040208483748137,0.08790624698996544,-0.41936259940713644
1757088385206945300,3.5559453125,0.25115619651675225,0.041433834150433536,-0.5395183803558349
1757088385216992300,3.5659921875,-0.03272036634087563,0.34933600023984906,-0.41238311578333375
1757088385227038200,3.5760380859375,-0.2985118949968368,0.09348317033946514,-0.16743658756166696
1757088385237085200,3.586085205078125,-0.17880290796756743,-0.09386077148020266,-0.10975333713889121
1757088385247131100,3.596131103515625,-0.021683497085049748,-0.09027940586209296,-0.28320056329220533
1757088385257177000,3.606177001953125,0.13565868970267475,-0.12193535784184932,-0.36513036622107026
1757088385267224000,3.61622412109375,0.1415945825576782,-0.21442893262207507,-0.4492383899718523
1757088385277270000,3.62627001953125,0.03221365892775357,-0.2832686600923538,-0.5705892259240151
1757088385287315500,3.6363154296875,-0.0742786671211943,-0.31295828043520446,-0.6593667027905583
1757088385297362700,3.64636279296875,-0.16674714399278162,-0.4223234950393438,-0.6695598877638578
1757088385307408600,3.65640869140625,-0.17599077315628528,-0.47501931243836876,-0.6616539369449019
1757088385317455600,3.66645556640625,-0.1737578264724463,-0.42920624029040333,-0.5947443007543682
1757088385327501600,3.67650146484375,-0.1299882428508252,-0.30308161406517026,-0.5098670461967587
1757088385337547500,3.686547607421875,-0.07588727136161177,-0.17842296873927116,-0.40162469814270735
1757088385347594500,3.696594482421875,-0.021166012549586593,-0.08662789761722087,-0.2981517564475536
1757088385357640400,3.706640380859375,-0.013171689327433704,-0.04694762913584709,-0.16783552375137806
1757088385367687400,3.7166875,0.007843699237704277,-0.06749824973344802,-0.07894844903051852
1757088385377733400,3.7267333984375,0.04821253450512886,-0.08313128767311573,-0.019800971274077893
1757088385387779600,3.736779541015625,0.04395549811515957,-0.07361351774334907,0.00794336021989584
1757088385397826600,3.74682666015625,0.06115384914278984,-0.044100423011183734,0.06593436141759157
1757088385407872500,3.75687255859375,0.05164546809587627,0.018077508482336996,0.10592471876144409
1757088385417918500,3.76691845703125,0.014375840952806173,0.07849953621923923,0.1304614863857627
1757088385427965400,3.77696533203125,0.01137538049519062,0.17113047364354134,0.1529907135799527
1757088385438011400,3.787011474609375,-0.014393267011642456,0.24822832637131212,0.2118260566473007
1757088385448058400,3.797058349609375,-0.016987959679961202,0.2976233486592769,0.23606325680315493
1757088385458104300,3.807104248046875,-0.031905542826652526,0.32151509637832637,0.24402678302824496
1757088385468150300,3.817150390625,-0.05439089434649795,0.3142483202457428,0.23082331032305956
1757088385478197500,3.827197509765625,-0.10453644274082034,0.27964696246385573,0.23119068233072756
1757088385488243500,3.837243408203125,-0.11536825441122055,0.23438158732652664,0.206420690472424
1757088385498290400,3.84729052734375,-0.13046236316859722,0.21183716256320476,0.17657821765542028
1757088385508336600,3.857336669921875,-0.15481471413671968,0.1530149712383747,0.10835194590836762
1757088385518382600,3.867382568359375,-0.14444821842312813,0.07403145089447498,0.07388941207528114
1757088385528429600,3.8774296875,-0.14480357119943946,-0.043544542694091797,0.0373661463201046
1757088385538475500,3.8874755859375,-0.1479740544617176,-0.10782967559993266,-0.000023088614642620085
1757088385548521500,3.897521484375,-0.1281144118029624,-0.14409282911419868,-0.06209142225384712
1757088385558568400,3.907568359375,-0.15551504442580044,-0.11577917329967022,-0.12787497702389955
1757088385568614400,3.917614501953125,-0.1962585582245141,-0.03851239374577999,-0.1985416276603937
1757088385578661400,3.927661376953125,-0.1825211247731,0.014433014500141143,-0.25431641411334277
1757088385588707300,3.937707275390625,-0.16757424246668814,-0.004250643181800842,-0.24351971028894184
1757088385598753500,3.94775341796875,-0.18549860621392725,-0.05015080909132957,-0.19489128845930098
1757088385608800500,3.957800537109375,-0.22857607938554136,-0.07121931608319282,-0.15787614753395318
1757088385618846500,3.967846435546875,-0.24416644722726194,-0.08967559475004673,-0.12887275588959454
1757088385628893400,3.9778935546875,-0.22985388076901433,-0.034306758749485015,-0.13172025427520273
1757088385638939400,3.987939453125,-0.2155915466606617,-0.017646715849637985,-0.11200082380473612
1757088385648985300,3.9979853515625,-0.19176058921813963,-0.03978548242151737,-0.07009148109704255
1757088385659032600,4.008032470703125,-0.18704934278726576,-0.07233107671737671,-0.05308277088999748
1757088385669078300,4.018078369140625,-0.19338376997318119,-0.06281915200650692,-0.0833890618264675
1757088385679124500,4.02812451171875,-0.20100480290353298,-0.04041442797482014,-0.13988222568184136
1757088385689171500,4.03817138671875,-0.22358893862273543,-0.042756607186794277,-0.1847252837538719
1757088385699217700,4.0482177734375,-0.2245452529668808,-0.05259703319966793,-0.20646365283131599
1757088385709264600,4.0582646484375,-0.21097554076518862,-0.0742401252090931,-0.20862521477937698
1757088385719310600,4.068310546875,-0.196741300240159,-0.06753215200304985,-0.2184770389690995
1757088385729356500,4.0783564453125,-0.16105678686406463,-0.05384381839036941,-0.20152298155874013
1757088385739403500,4.088403564453125,-0.12970767234377562,-0.02933423103392124,-0.16051175673454998
1757088385749449500,4.098449462890625,-0.11195281994454562,-0.006266659179329872,-0.11888503036051988
1757088385759496400,4.108496337890625,-0.07924246354103089,0.01160802020728588,-0.0685796152293682
1757088385769542400,4.11854248046875,-0.05160743764042854,0.02210895595550537,-0.0681245649382472
1757088385779588400,4.12858837890625,-0.056156734975241124,0.045907764694094653,-0.10728022502362727
1757088385789635300,4.13863525390625,-0.043005576979182655,0.07186579729318618,-0.09819996972829102
1757088385799681500,4.148681640625,-0.011883293484710157,0.07580313674211502,-0.12032704586237668
1757088385809728500,4.158728515625,0.04874444942474365,0.049319034442305565,-0.13017887005209922
1757088385819774500,4.1687744140625,0.051978645572997625,0.02448445291519165,-0.1520955183058977
1757088385829820400,4.1788203125,0.03812134860157966,0.011725509107112883,-0.1355836517050862
1757088385839867400,4.188867431640625,0.0725362439006567,-0.023980595046281812,-0.14438742814660072
1757088385849913300,4.198913330078125,0.0742921476572752,-0.058578445696830746,-0.16329875710457561
1757088385859960600,4.208960693359375,0.05518354256153107,-0.07165069323778152,-0.19461627091020345
1757088385870006500,4.219006591796875,0.03739939100258052,-0.05488718996345997,-0.19347937583476305
1757088385880052500,4.229052490234375,0.021428572475910186,-0.011650105783343315,-0.19566841031163928
1757088385890099500,4.239099365234375,0.029203298130631446,0.04852174658477306,-0.15366788218915461
1757088385900145400,4.2491455078125,0.0587678307890892,0.07425064660310744,-0.13578414271324873
1757088385910192400,4.2591923828125,0.07481463716141878,0.04701543367505073,-0.08791706064492463
1757088385920238600,4.269238525390625,0.09541318855397403,0.01974222682416439,-0.03140489982813596
1757088385930284500,4.279284423828125,0.09794482592344284,-0.02912380315363407,-0.020594459739327428
1757088385940331500,4.28933154296875,0.10400222626626492,-0.02774433149397373,-0.02497720486819744
1757088385950377500,4.29937744140625,0.11374971329867839,-0.01764730037152767,-0.032303309972584245
1757088385960424400,4.309424560546875,0.08789338750839233,-0.017175591206550597,-0.07028904949575662
1757088385970470400,4.319470458984375,0.05475625706017017,-0.020295769053697586,-0.0969596142783761
1757088385980516400,4.329516357421875,0.018542203384637832,-0.005915946045517921,-0.10036854593902826
1757088385990563300,4.339563232421875,-0.002021897749044001,-0.013349895438551902,-0.09793284322470426
1757088386000609300,4.349609375,-0.02726798268649727,-0.03596037117540836,-0.10914017367660998
1757088386010656300,4.35965625,-0.05781038393378257,-0.05942541791498661,-0.08858838403522967
1757088386020702500,4.369702392578125,-0.06832534820735454,-0.0827267985254526,-0.10994213770925998
1757088386030748400,4.37974853515625,-0.062274962127208705,-0.07596388026177883,-0.119250356541574
1757088386040795600,4.389795654296875,-0.0971837784230709,-0.08396715397536754,-0.16130319937318563
1757088386050841600,4.399841552734375,-0.12055530166029929,-0.09598609307110309,-0.17793197035193442
1757088386060888600,4.409888671875,-0.13635145773980767,-0.10667875199913977,-0.2034732388436794
1757088386070934500,4.4199345703125,-0.13221768240332601,-0.1190296995282173,-0.1850911944568157
1757088386080980500,4.42998046875,-0.1448842717528343,-0.10847031159102916,-0.15534896714389324
1757088386091027500,4.44002734375,-0.15384440779983996,-0.12199556359648704,-0.14508417823910713
1757088386101073400,4.450073486328125,-0.1404191090375185,-0.06786825208961964,-0.13169745792150497
1757088386111120400,4.460120361328125,-0.10101411383356898,-0.027556699967384336,-0.12322335182577371
1757088386121166600,4.47016650390625,-0.07094396974053234,0.019081132566928862,-0.10046236170232295
1757088386131212500,4.480212646484375,-0.04885839466061443,0.0596434445798397,-0.08984627514183521
1757088386141259500,4.490259521484375,-0.04396185479070991,0.06450023696124553,-0.059788406008481974
1757088386151305500,4.500305419921875,-0.02819090621769428,0.08879004408717155,-0.049775838299095626
1757088386161352400,4.5103525390625,0.013052958318591117,0.07900573217570782,-0.0177636202275753
1757088386171398400,4.5203984375,0.029259412232041357,0.043377369433641434,-0.0011786883905529975
1757088386181444400,4.5304443359375,-0.010088847815990447,-0.0009779051214456557,-0.01084726496785879
1757088386191491300,4.5404912109375,-0.06981529450416564,-0.029369302347302437,-0.055924131795763964
1757088386201537300,4.550537353515625,-0.10480535934269428,-0.0090495678961277,-0.11687076792865991
1757088386211584500,4.56058447265625,-0.10556176720056683,-0.0007248071432113647,-0.16276976479440927
1757088386221630500,4.57063037109375,-0.09864391410350799,-0.014327216038107871,-0.1890828944414854
1757088386231677400,4.580677490234375,-0.07263269001245498,-0.03532382683753967,-0.18171791863143444
1757088386241723600,4.5907236328125,-0.04314823685288429,-0.050420858204364774,-0.1477478444904089
1757088386251769600,4.60076953125,-0.011530899850465357,-0.056311669808626175,-0.12440583960860967
1757088386261816600,4.610816650390625,-0.006257927883602679,-0.06396539943218231,-0.11715163069665431
1757088386271862500,4.620862548828125,-0.0063409299919381735,-0.04951835640668869,-0.13466244520694018
1757088386281909500,4.630909423828125,0.0024911957612261176,-0.05022445884943008,-0.14251111288070678
1757088386291957000,4.64095703125,0.013232370006106792,-0.03709259007573128,-0.1458893571421504
1757088386302003000,4.6510029296875,0.018714016287587582,-0.023066987332701683,-0.15826865398287773
1757088386312050000,4.6610498046875,0.03919040260519832,0.00693944387435913,-0.16113661063462495
1757088386322095900,4.671095947265625,0.0540185904353857,0.011206453669071198,-0.1571194839477539
1757088386332142800,4.681142822265625,0.04974043819215149,-0.022999767315387724,-0.14759703784286976
1757088386342188800,4.691188720703125,0.05012158299684524,-0.01049742861688137,-0.11769845092445612
1757088386352234800,4.70123486328125,0.03265782249867916,-0.03541793486177921,-0.12121990304887294
1757088386362282000,4.711281982421875,-0.013960099758766591,-0.047149873709678644,-0.0867158681616187
1757088386372327700,4.72132763671875,-0.01686343825114891,-0.03693301559984684,-0.075357438801229
1757088386382375000,4.731375,-0.06077213808251544,-0.0218026664853096,-0.06194383047670125
1757088386392421000,4.741421142578125,-0.04050263598123565,-0.021726678639650342,-0.02537935592830181
1757088386402467000,4.751467041015625,-0.03516838054750115,-0.03165010676085949,0.015514087735116481
1757088386412514000,4.76151416015625,-0.017069244755245745,-0.024186346751451492,0.01781681171953678
1757088386422560000,4.77156005859375,0.0385772756755352,-0.010612579429149628,0.021397592815756795
1757088386432607000,4.78160693359375,0.06667875004410743,0.028192075261473656,-0.014032617005705832
1757088386442653000,4.79165283203125,0.005030395382642746,0.06683481738865375,-0.05275865350216627
1757088386452700000,4.801699951171875,-0.04250818538367748,0.06502513761818408,-0.07196195114403962
1757088386462745900,4.811745849609375,-0.10874441582467406,0.03469195867478847,-0.05273819523602724
1757088386472791800,4.821791748046875,-0.0680722319628112,0.03707973059415817,-0.04049801460504532
1757088386482838800,4.8318388671875,-0.03021684082103893,0.025254852765798568,-0.03183598472177982
1757088386492885000,4.841885009765625,0.002673603123426437,0.008877718460559845,-0.023003274446725844
1757088386502931700,4.851931640625,0.02804360670149326,0.03253624194562435,-0.027928455889225004
1757088386512978000,4.86197802734375,0.06092760263886302,0.05333177721500396,-0.04171791178882122
1757088386523024000,4.87202392578125,0.07713175499737263,0.042585926795005793,-0.07158902617841958
1757088386533071000,4.882071044921875,0.05594806066062301,0.04612286874949932,-0.10565788451880216
1757088386543116800,4.89211669921875,0.040464112335443496,0.01849310354590416,-0.10433189661204814
1757088386553164000,4.9021640625,0.04785190276550129,-0.01633680229485035,-0.10736644200235605
1757088386563210000,4.9122099609375,0.03369538538549095,-0.04530161549448967,-0.10270604897588491
1757088386573257000,4.922257080078125,-0.030011655371449886,-0.06619418139755726,-0.10449760856777429
1757088386583303000,4.932302978515625,-0.08371464051902294,-0.06109188982248306,-0.10907295365929603
1757088386593348900,4.942348876953125,-0.08973872311413288,-0.05658756414055824,-0.12562047609537838
1757088386603395800,4.952395751953125,-0.057308279630541796,-0.059250645869970316,-0.13346008367985487
1757088386613442000,4.962442138671875,-0.029775545060634612,-0.05414017098844051,-0.13802227702885866
1757088386623489000,4.972489013671875,-0.002308897996880114,-0.057255672660470006,-0.13824439534693955
1757088386633535000,4.982534912109375,0.0035381109982728955,-0.01481529181599617,-0.12816577666401863
1757088386643581000,4.992580810546875,0.01943708813143894,0.003242342922091484,-0.1322884095519781
1757088386653628000,5.0026279296875,0.05630288371397182,0.017071546310186383,-0.10669482635110616
1757088386663673900,5.012673828125,0.09729249949455261,0.00046352585852146145,-0.12653846772313118
1757088386673720800,5.022720947265625,0.1278659169346094,-0.005700257468223571,-0.12682722153663634
1757088386683766800,5.032766845703125,0.05212183516966179,0.011438508859276771,-0.10521686275303363
1757088386693814000,5.04281396484375,-0.12349020433472468,-0.04682429501712322,-0.10277180768847465
1757088386703859700,5.052859619140625,-0.24419222098933532,-0.08714812209904194,-0.11746990286558866
1757088386713906000,5.062906005859375,-0.226682283261884,-0.103671971398592,-0.18005524611622095
1757088386723953000,5.072952880859375,-0.11266427441583945,-0.10115034396648406,-0.20260756192505358
1757088386733999000,5.0829990234375,0.006236245774757117,-0.105579850846529,-0.21781915958225725
1757088386744046000,5.093046142578125,0.0034644795064814387,-0.07396364635527133,-0.21632979780733583
1757088386754092000,5.103092041015625,-0.010862188542354852,-0.056199441605806345,-0.1665519136816263
1757088386764138000,5.113137939453125,0.002207154655456543,-0.032982232147455215,-0.15331161609739064
1757088386774185000,5.12318505859375,-0.006326280412077903,-0.013235913670063017,-0.14923954435288905
1757088386784231000,5.13323095703125,-0.04535595776392147,-0.027166823866963386,-0.1414244866877794
1757088386794278000,5.14327783203125,-0.03890868132067844,-0.057931964486837385,-0.1310550683647394
1757088386804323800,5.15332373046875,-0.01675531996786594,-0.05791325978636741,-0.13513503115475178
1757088386814369800,5.163369873046875,-0.005454155486356467,-0.06395955421328545,-0.14984218642115593
1757088386824416800,5.173416748046875,0.03425711092147976,-0.06657645871341228,-0.17640490691512822
1757088386834463000,5.183462890625,0.07592413277328014,-0.06687690296471119,-0.18788111743628977
1757088386844510000,5.193510009765625,0.061532016539108,-0.06382277609109878,-0.20001871447563171
1757088386854556000,5.203555908203125,0.010908932027220725,-0.07053074929714202,-0.222125916865468
1757088386864603100,5.21360302734375,0.016024101350177077,-0.04947159465551376,-0.23072598742842673
1757088386874648800,5.22364892578125,0.043331210470665245,-0.031322774502635,-0.21203706904947756
1757088386884694800,5.23369482421875,0.04347673815488815,0.006862871506810188,-0.22433248699903488
1757088386894742000,5.243741943359375,0.008812233742605894,0.031461890712380404,-0.19572540119588375
1757088386904788000,5.2537880859375,-0.04955867015076801,-0.02995557780265808,-0.1974681532099843
1757088386914835000,5.2638349609375,-0.06493685654653236,-0.08792378264665603,-0.1917401309520006
1757088386924881000,5.273880859375,-0.02520341483950615,-0.13920388802886008,-0.20990619450062512
1757088386934927000,5.283927001953125,-0.007858330551255495,-0.1463444074332714,-0.21313480115830896
1757088386944973800,5.293973876953125,-0.028709377133846282,-0.1292868896484375,-0.21929858448505402
1757088386955020000,5.30402001953125,-0.001539027869235724,-0.13066577678620814,-0.20756255398392676
1757088386965067000,5.31406689453125,0.01603106081392616,-0.1070657054901123,-0.17460574853867292
1757088386975113000,5.324113037109375,0.00296350771440193,-0.09901508550345897,-0.15973872653543947
1757088386985159000,5.334158935546875,0.009237802210915833,-0.07117956859469414,-0.14436258596628904
1757088386995206000,5.344205810546875,0.0026946459114551543,-0.062117725738883016,-0.13330401633530856
1757088387005251800,5.354251953125,-0.017840210861433295,-0.040001170998811716,-0.09001198709756135
1757088387015298800,5.364298828125,-0.06130759666608646,-0.009087561818957328,-0.06027122108936309
1757088387025344800,5.3743447265625,-0.08958324029147624,0.014829904863238335,-0.02763619494438171
1757088387035391700,5.384391845703125,-0.07900807026326656,0.06160977621674537,-0.008526420804858208
1757088387045437700,5.394437744140625,-0.0388081618219614,0.09932897375822067,0.012555822451412678
1757088387055484000,5.40448388671875,0.0009960253000259398,0.09884206702411175,0.01322889940738678
1757088387065531100,5.41453125,0.03271395486639812,0.07584405327439307,0.011997311785817146
1757088387075577000,5.4245771484375,0.035872692891955375,0.06123568220734596,-0.010006137968599796
1757088387085624000,5.4346240234375,0.015149090347625314,0.04239595718085765,-0.031633740147948265
1757088387095670000,5.444669921875,0.0026619126856327053,0.01220540157854557,-0.0407733244150877
1757088387105716000,5.454716064453125,-0.02031914992928505,0.03309446035027504,-0.04156038313955068
1757088387115763000,5.464762939453125,-0.03660683411909267,0.05158697937428951,-0.03664338500350713
1757088387125809000,5.474808837890625,-0.04017711208760738,0.06759586488902568,-0.027553777357935905
1757088387135855900,5.48485595703125,-0.028642723372112957,0.09018588235974312,-0.02475537881106138
1757088387145901800,5.49490185546875,-0.03757657420039177,0.08258943588137627,-0.016965163326263428
1757088387155948800,5.50494873046875,-0.0565630142211914,0.06875964797139167,0.00811287156790495
1757088387165995000,5.5149951171875,-0.020573992340033872,0.0723661480307579,0.04171878857165575
1757088387176041000,5.525041015625,0.03537995007210411,0.04980360308885574,0.025837913350760935
1757088387186088000,5.535087890625,0.03713819191628136,0.010508534532785415,0.003585457271337509
1757088387196134000,5.5451337890625,-0.0022901567637920377,0.002041150438785553,-0.03378478070199489
1757088387206180900,5.555180908203125,-0.02488775475276634,-0.012738485541939735,-0.0929199834987521
1757088387216226800,5.565226806640625,-0.023956647915113715,-0.04176876519322395,-0.16905191380381585
1757088387226272800,5.575272705078125,-0.05480654420899227,-0.05194353772699833,-0.22768910395056008
1757088387236320000,5.585320068359375,-0.10625146649777889,-0.06010404782891273,-0.20944646803438663
1757088387246366000,5.595365966796875,-0.06550327652394772,-0.04754325694143772,-0.1485878024458885
1757088387256413000,5.605412841796875,0.004340677819121628,-0.03850771757066249,-0.08311199845075606
1757088387266459000,5.615458984375,0.04204933570027351,-0.037248072898387906,-0.040055531534552574
1757088387276505000,5.625505126953125,0.040897845843899994,-0.031849428725242615,-0.055876493261754506
1757088387286551000,5.635551025390625,0.04121290314244106,-0.028425884017348288,-0.07906389210373163
1757088387296597000,5.645596923828125,0.02296179165886715,-0.007058686339855193,-0.11003799929916858
1757088387306644000,5.65564404296875,-0.0036339725881814953,-0.01366845986843109,-0.1345627842247486
1757088387316690000,5.66568994140625,-0.02556347119039856,-0.052230537974834436,-0.14892887096852064
1757088387326737200,5.675737060546875,-0.04112520659267902,-0.0978945570409298,-0.17212386859506368
1757088387336782800,5.685782958984375,-0.06280394530422054,-0.1377571963518858,-0.16337416042834518
1757088387346829000,5.6958291015625,-0.03386485106772743,-0.13355857561826706,-0.18815905759483575
1757088387356876000,5.7058759765625,0.0021989713490009307,-0.10571545992493629,-0.19752543635517358
1757088387366922200,5.715922119140625,0.0101432083517313,-0.0701964027762413,-0.18151421275287866
1757088387376969200,5.72596923828125,-0.027149881865317,-0.025551205363869664,-0.15129881497025488
1757088387387015200,5.73601513671875,-0.06927753436565398,0.003146481332182884,-0.1386225810095668
1757088387397061000,5.74606103515625,-0.07597206356823444,0.0032978725016117095,-0.12185177121162413
1757088387407108000,5.756108154296875,-0.04942307020551525,0.0018494272589683531,-0.1024468135178089
1757088387417154000,5.766154052734375,-0.02231412313878536,-0.013705869269371031,-0.11827858889997005
1757088387427201000,5.776200927734375,0.007740823385119438,-0.017530980515480042,-0.10704787757247686
1757088387437247000,5.7862470703125,0.0037041152149438856,-0.020512626674771307,-0.09068769440203904
1757088387447293000,5.79629296875,-0.016238018095493315,-0.04014204077422619,-0.11720511444956064
1757088387457340000,5.80633984375,-0.0464765044927597,-0.02742050636708736,-0.1364887838512659
1757088387467386000,5.81638623046875,-0.05340718053877353,-0.03910217633247375,-0.14936960047334433
1757088387477433000,5.82643310546875,-0.05866379502587951,-0.06758008279800415,-0.1407709912151098
1757088387487479000,5.83647900390625,-0.059707741987705225,-0.08748188409805298,-0.10827449675798416
1757088387497526000,5.846526123046875,-0.03155892134606838,-0.04201017273366451,-0.09557605096548795
1757088387507572000,5.856572021484375,-0.025983167040348053,0.012900982627272605,-0.09348638520985841
1757088387517618000,5.866617919921875,-0.03020167065137066,0.023645664003491402,-0.1137470829501748
1757088387527665200,5.8766650390625,-0.02832768433988094,0.016378303349018096,-0.15132891784757374
1757088387537711000,5.886711181640625,-0.05031273078792728,0.029620646759867666,-0.13263795364201067
1757088387547758000,5.896758056640625,-0.03532966292328201,0.040789106506109236,-0.09012859921455382
1757088387557804000,5.906803955078125,-0.01566634655422531,0.0623667320638895,-0.040142625296115876
1757088387567850200,5.916850341796875,0.006792153491312638,0.07685644518733024,0.01826397096514702
1757088387577897000,5.92689697265625,0.026463059511780736,0.09597732524275779,0.04508914178758859
1757088387587943200,5.936943115234375,0.04355331052243709,0.12427344540059566,0.04957300920337438
1757088387597990100,5.946990234375,0.061469490963220595,0.11881927164793014,0.04342413118481636
1757088387608036000,5.9570361328125,0.05677462027841247,0.08139934931397437,0.020178280153870583
1757088387618082000,5.96708203125,0.043002681769197804,0.025575170761346817,-0.003661445116996765
1757088387628129000,5.97712890625,0.018901675213640556,-0.004984218153357506,0.0023830957442522046
1757088387638175000,5.987175048828125,0.007287234398722648,-0.01982932058572769,-0.0029240707531571386
1757088387648222000,5.997221923828125,0.0214355776054319,-0.02708206819295883,-0.013241466628015041
1757088387658268000,6.007267822265625,0.021639584878087044,-0.04292494949102402,-0.03175561296194791
1757088387668315000,6.01731494140625,0.019862044678395613,-0.08152209891080855,-0.10265431878864764
1757088387678360800,6.02736083984375,0.010322647438710555,-0.09871697933971882,-0.15692951433360575
1757088387688407000,6.037406982421875,-0.0017746084570884704,-0.1032879405170679,-0.20241788457185028
1757088387698454000,6.0474541015625,-0.02652735691964626,-0.10824527066349983,-0.25587591851502656
1757088387708500200,6.057500244140625,-0.033126618187362324,-0.10248071578741073,-0.2530409873500466
1757088387718547200,6.067547119140625,-0.024160636921459807,-0.0989437738329172,-0.2440399347707629
1757088387728593200,6.07759326171875,0.000015197569131851195,-0.07834463791847228,-0.2064516701325774
1757088387738639000,6.08763916015625,-0.028509479780727997,-0.05474982731938362,-0.16091916849166155
1757088387748686000,6.09768603515625,-0.028778346150252036,-0.042166824600100516,-0.13934475780427455
1757088387758732000,6.10773193359375,-0.04248538446340244,-0.018355740901827813,-0.11431786857545376
1757088387768779000,6.117779052734375,-0.05186521179378032,0.01187339314520359,-0.10683160447329282
1757088387778825000,6.127824951171875,-0.02442424716055393,0.021360183414816856,-0.06527239037752151
1757088387788871200,6.13787109375,0.033716391640901566,0.022820319095253942,-0.035439562171697615
1757088387798918000,6.14791796875,0.07264613401591777,-0.000772153416275978,-0.01799684446156025
1757088387808964000,6.157964111328125,0.06421908649888355,-0.0032429274439811705,-0.013218962535262106
1757088387819011000,6.168010986328125,0.03980069369038101,0.0255453601449728,-0.007565759079158306
1757088387829057000,6.17805712890625,0.021510994628933258,0.04133797256052494,-0.029855040037631987
1757088387839104000,6.18810400390625,-0.029750995141267774,0.025653496694564817,-0.047607846610248084
1757088387849150000,6.19814990234375,-0.042107203367352485,0.020105799439549446,-0.03071487173736095
1757088387859196000,6.20819580078125,-0.040683883432811124,0.00750935271680355,-0.05006020819842815
1757088387869243100,6.2182431640625,-0.02397299626171589,-0.006966331881284714,-0.06269611014872789
1757088387879289000,6.2282890625,-0.03092645952827297,-0.008519406542181968,-0.0934843393832445
1757088387889336000,6.238336181640625,-0.01679682102203369,-0.020745850908756254,-0.13575608566254377
1757088387899382000,6.248382080078125,0.009103343909978866,-0.017372575083374975,-0.14472761988639832
1757088387909428200,6.25842822265625,-0.005688557897275313,-0.023726328024268148,-0.15204612620621918
1757088387919475200,6.26847509765625,-0.04465162715315819,-0.02429623686671257,-0.14166764779388905
1757088387929521200,6.278521240234375,-0.05098140556341968,-0.044964930886030194,-0.1093921026110649
1757088387939568000,6.288568115234375,-0.029772028796141964,-0.041543724265694616,-0.07652122188359499
1757088387949614000,6.298614013671875,0.025441324381763115,-0.026549568751454353,-0.05730389571636915
1757088387959660000,6.308659912109375,0.06619185244315304,-0.011983867782354354,-0.051958735296130175
1757088387969707000,6.31870703125,0.057462013454106634,-0.02034253080487251,-0.06523761132508515
1757088387979753000,6.3287529296875,0.0393862585374387,-0.032387188863754274,-0.11671996128112078
1757088387989800000,6.338800048828125,0.01740003847903572,-0.04956745624542236,-0.16530805110037325
1757088387999846000,6.348845947265625,0.002740238618850708,-0.04361000914573669,-0.18603110565543174
1757088388009892900,6.358892822265625,-0.026970433645183218,-0.0448690692961216,-0.1947171009361744
1757088388019939000,6.36893896484375,-0.03593289864659309,-0.05601765529811382,-0.1576560750424862
1757088388029985000,6.378985107421875,0.01545942580527626,-0.035464112091064454,-0.14128478595614433
1757088388040032300,6.3890322265625,0.05589197395867668,-0.03822656254172325,-0.13608020305037496
1757088388050078200,6.399078125,0.046841237018769605,-0.030626024410128593,-0.1548857335463166
1757088388060125200,6.409125244140625,0.01788520078063011,-0.03187047151327133,-0.15875906784832478
1757088388070171100,6.419171142578125,0.011718494844436645,-0.038032501274347305,-0.17635960646867752
1757088388080217000,6.429217041015625,0.01956570121347904,-0.04405950647890568,-0.19369009597599504
1757088388090264000,6.43926416015625,-0.008001529281074182,-0.05140402402281761,-0.17610329362004995
1757088388100310000,6.44931005859375,-0.05038520236909389,-0.05910276183187961,-0.15083733493834733
1757088388110357000,6.45935693359375,-0.052980479559302324,-0.07440788299143314,-0.14020283593833446
1757088388120403000,6.46940283203125,-0.0445727166980505,-0.06322597924172878,-0.13736498216390608
1757088388130450000,6.479449951171875,-0.023643325915932652,-0.016031097346544263,-0.130294897647202
1757088388140496100,6.48949609375,0.003629890068108216,0.0137029466599226,-0.13031272556483744
1757088388150542000,6.4995419921875,0.009190437671542167,0.032015432941913606,-0.09166793761104344
1757088388160589000,6.509589111328125,-0.010139692087238654,0.013710545444488525,-0.046937400002777574
1757088388170635000,6.519635009765625,0.0087631613033358,0.018317162457108495,-0.02743716524094343
1757088388180682000,6.529681884765625,0.0045329718210967256,0.020085341173410414,-0.02796966468244791
1757088388190728000,6.53972802734375,-0.04699205279946327,0.01638473308980465,-0.029852994211018082
1757088388200774000,6.54977392578125,-0.08219371456205844,0.0035170682102441788,-0.04962210904210806
1757088388210821000,6.559821044921875,-0.08049861021512188,-0.009418985730409621,-0.09288432766348123
1757088388220867000,6.5698671875,-0.06962241141372359,-0.03278115661740303,-0.10942658940255641
1757088388230914000,6.5799140625,-0.0316407544106245,-0.06352466992735863,-0.12891922537982464
1757088388240960000,6.5899599609375,0.0054226004374679174,-0.060765142086148256,-0.13063333582133055
1757088388251007000,6.600007080078125,0.018121338490908964,-0.028158172991871833,-0.1220122224703431
1757088388261053200,6.61005322265625,0.020165420672297478,-0.018102058401703834,-0.10400310304909943
1757088388271099100,6.62009912109375,-0.002761281406879425,0.0032832594543695448,-0.09459025479853153
1757088388281146000,6.63014599609375,-0.06687514939904213,0.003945522755384445,-0.10475275237262248
1757088388291191600,6.640191650390625,-0.09185761496424674,0.01947860745191574,-0.11972878770828246
1757088388301238800,6.65023876953125,-0.06062310326695442,0.03295885127186775,-0.12040332596898078
1757088388311284700,6.66028466796875,-0.03850830209255218,0.03374327964782715,-0.11639262902289628
1757088388321330700,6.67033056640625,-0.028911028052633625,-0.008755553385615348,-0.07878653646707534
1757088388331377700,6.680377685546875,-0.03929389037913643,-0.024254151290655133,-0.02146247474551201
1757088388341423900,6.690423828125,-0.057464346975088114,-0.009810030874609946,0.0025192893445491788
1757088388351470600,6.700470703125,-0.029632921719551085,-0.0035778584867715833,-0.016409575270116328
1757088388361516800,6.710516845703125,-0.06372281828138511,0.007458499312400817,-0.06747779146730899
1757088388371563800,6.720563720703125,-0.08804594772160053,0.01797229454219341,-0.12004647535532713
1757088388381609700,6.730609619140625,-0.07853227857821621,0.023932664251327514,-0.1501613353729248
1757088388391655700,6.74065576171875,-0.08567454241514205,0.010606734210252761,-0.15809680454730987
1757088388401702700,6.75070263671875,-0.07221885764771141,-0.024319033220410347,-0.14039748172760008
1757088388411748600,6.76074853515625,-0.07770867810249328,-0.052320554345846176,-0.11182488271594047
1757088388421795600,6.770795654296875,-0.0417284423159901,-0.04324877461791038,-0.08255582587271929
1757088388431841500,6.780841552734375,-0.029767361754179,-0.05022971954643726,-0.085223291516304
1757088388441887700,6.7908876953125,-0.0628676673233509,-0.046558337557315824,-0.1141656006231904
1757088388451934500,6.8009345703125,-0.10331892017722129,-0.04806757307648658,-0.14837532873898743
1757088388461980700,6.810980712890625,-0.07280746662404854,-0.05182137265205383,-0.15654869832247495
1757088388472028000,6.82102783203125,-0.053712885487079615,-0.047075639429688454,-0.1671858276709914
1757088388482073900,6.831073974609375,-0.06865969929483254,-0.06397592082619667,-0.19660218403041363
1757088388492120800,6.841120849609375,-0.07939034757912158,-0.055746437141299246,-0.18190964181125163
1757088388502166800,6.851166748046875,-0.05485621030330658,-0.043972412717342375,-0.14532529351860285
1757088388512212700,6.861212646484375,-0.016256727362540548,-0.01952303111553192,-0.13710340861827133
1757088388522259700,6.871259765625,0.025561142235994337,-0.010450666865706443,-0.13657149369865654
1757088388532305700,6.8813056640625,0.04318681073102634,0.007316460493206977,-0.13974573982059954
1757088388542352600,6.8913525390625,0.01850069776389282,0.009943301865458488,-0.15044775109887124
1757088388552398600,6.901398681640625,0.0027957681983709335,-0.00817863028049469,-0.14593378080576658
1757088388562444800,6.91144482421875,-0.005329670590162277,0.004425999748706817,-0.14311638529747725
1757088388572491500,6.921491455078125,0.023155250138044356,0.011564765587449073,-0.13209317924082278
1757088388582537700,6.931537841796875,0.0038461540341377257,-0.0014355857610702514,-0.11587474262863397
1757088388592584700,6.941584716796875,-0.04508826957133133,-0.028362755653262135,-0.06421206766963004
1757088388602630700,6.951630615234375,-0.05361877746284008,-0.059035541814565655,-0.03859042741805315
1757088388612677600,6.961677734375,-0.06035071606636047,-0.09819792390167713,-0.051045712104439735
1757088388622723600,6.9717236328125,-0.08174538627266884,-0.09549100303053855,-0.08795183969736099
1757088388632769500,6.98176953125,-0.13251228143572807,-0.020142039796710014,-0.12727671886980532
1757088388642816800,6.991816650390625,-0.1516822613298893,0.014299743509292601,-0.17061609438061714
1757088388652862700,7.00186279296875,-0.09049977061450482,0.010509703576564788,-0.1961728527024388
1757088388662909700,7.01190966796875,-0.049448213779926295,-0.024309096348285673,-0.19519699340760707
1757088388672955600,7.02195556640625,-0.04297989454865456,-0.029191607692837712,-0.16920213592946529
1757088388683001900,7.032001953125,-0.058520578029751774,-0.022058102551102635,-0.12783201466500757
1757088388693048800,7.042048828125,-0.07513444370031357,-0.00916764131784439,-0.10919307290762663
1757088388703094800,7.0520947265625,-0.06669570117890834,0.006739537388086319,-0.06505553275644779
1757088388713141800,7.062141845703125,-0.040221535751223565,0.005917699611186981,-0.03655950611233711
1757088388723187700,7.072187744140625,-0.018919220003485678,-0.01983458128273487,-0.041619127589464185
1757088388733234700,7.082234619140625,-0.0470867453455925,-0.029828152030706403,-0.06918693347275257
1757088388743280600,7.09228076171875,-0.055142626029253,-0.03217909907102585,-0.11127455535680054
1757088388753326600,7.10232666015625,-0.10835165364742279,-0.059581485259532926,-0.12359335418194532
1757088388763373600,7.11237353515625,-0.12599018619060515,-0.03078384532034397,-0.13128770807683468
1757088388773419500,7.12241943359375,-0.14754033921957016,-0.024191022926568984,-0.12970599184334278
1757088388783466500,7.132466552734375,-0.16165186668038367,-0.023838556227087974,-0.12419219685792922
1757088388793512700,7.1425126953125,-0.13721300647258758,0.005538929426670074,-0.10989245334863662
1757088388803558700,7.15255859375,-0.1320236211359501,0.016974515676498412,-0.11430763944238424
1757088388813606000,7.16260595703125,-0.12390695017576217,0.044162382331490516,-0.10101941106319427
1757088388823651800,7.17265185546875,-0.17990999242663383,0.03691898707449436,-0.06426321333497763
1757088388833698800,7.18269873046875,-0.24595745882987974,0.04343406805694103,-0.05909428626447916
1757088388843744800,7.192744873046875,-0.31109774726033207,0.031038112342357635,-0.0826052179723978
1757088388853791700,7.202791748046875,-0.3892740428745746,0.039490883389115335,-0.06978402258306741
1757088388863837700,7.212837646484375,-0.36433483192920685,0.05483867464661598,-0.06514671817123889
1757088388873883600,7.222883544921875,-0.2913514287829399,0.04096154046356678,-0.04365589411407709
1757088388883930600,7.2329306640625,-0.26876550296545026,0.0030780922710895537,0.00034369887113571166
1757088388893976600,7.2429765625,-0.22660510810613632,-0.032850130200386046,0.024656594611704347
1757088388904023600,7.2530234375,-0.19817045626044272,-0.002807458636164665,0.03250467776358128
1757088388914069800,7.26306982421875,-0.1564005220234394,0.012320552390813826,0.008744739730656146
1757088388924115700,7.27311572265625,-0.13282442525797522,-0.0018459201276302337,-0.042642040896415705
1757088388934162700,7.28316259765625,-0.12897593313627875,0.005395721563696861,-0.1349044372692704
1757088388944208600,7.293208740234375,-0.1791489449262619,-0.02626899824440479,-0.1762035391241312
1757088388954255600,7.303255615234375,-0.17737784360051154,-0.04133855708241462,-0.21149141786545514
1757088388964301600,7.313301513671875,-0.19714869373096153,-0.04279518563151359,-0.2596183199137449
1757088388974348800,7.323348876953125,-0.24034604868888854,-0.0060644146054983136,-0.2959565844908357
1757088388984394800,7.333394775390625,-0.24920972035778685,0.02788286318182945,-0.28450083223581313
1757088388994440400,7.3434404296875,-0.2717910065327771,0.04349894998669624,-0.2286234621912241
1757088389004487700,7.35348779296875,-0.27163084753500294,0.04926116677522659,-0.1357280286118388
1757088389014533600,7.36353369140625,-0.24141924914466215,0.01756196017563343,-0.07538724941760301
1757088389024580600,7.37358056640625,-0.24349428358674047,-0.03188976073563099,-0.04558218600153923
1757088389034626800,7.383626708984375,-0.2937666549648158,-0.050420858204364774,-0.07646890717446804
1757088389044672800,7.3936728515625,-0.33668928463459014,-0.04648351875543594,-0.13032909217774868
1757088389054719700,7.4037197265625,-0.36237668359875674,-0.033815175840258595,-0.18052578623741863
1757088389064765700,7.413765625,-0.37194647597670555,-0.0022848960667848587,-0.23513299021571873
1757088389074812700,7.423812744140625,-0.3452747421503067,0.022275544694066046,-0.2622171042352915
1757088389084858600,7.433858642578125,-0.30013094756603237,0.059877837857604026,-0.2600643101155758
1757088389094904600,7.443904541015625,-0.2384872690796852,0.109296825543046,-0.2161567793279886
1757088389104951600,7.45395166015625,-0.11428805795907973,0.17085048765838146,-0.1645125168085098
1757088389114997500,7.46399755859375,-0.06301964301466942,0.21195172885358332,-0.15396861870139836
1757088389125044500,7.47404443359375,-0.075163706327416,0.23083412397801875,-0.16507833399772642
1757088389135090700,7.484090576171875,-0.15401804733369498,0.19949439834058283,-0.14047931479215622
1757088389145136600,7.49413671875,-0.22337971631884573,0.13248305534124374,-0.07728373068869114
1757088389155183900,7.504183837890625,-0.22581370200011877,0.09039689476191996,-0.049418987685441965
1757088389165229600,7.5142294921875,-0.26470311236474664,0.006888005948066711,-0.00730067840218544
1757088389175276800,7.52427685546875,-0.31985622325539587,-0.07644318821132183,-0.010505904184281826
1757088389185322800,7.53432275390625,-0.4084382140824571,-0.125839379543066,-0.059466334447264665
1757088389195368700,7.54436865234375,-0.5098176906296983,-0.1351601655960083,-0.1079109241425991
1757088389205415700,7.554415771484375,-0.605403349673748,-0.13284253630340098,-0.15787994692623614
1757088389215461600,7.564461669921875,-0.6514543222308159,-0.06341185720264911,-0.1919447136133909
1757088389225508600,7.574508544921875,-0.5935083657512441,0.038103812944889064,-0.14874211622476577
1757088389235554800,7.584554931640625,-0.4679109417378902,0.1634375810533762,-0.04090893349349498
1757088389245601500,7.5946015625,-0.2643886395880952,0.2527753221511841,0.053638066685199735
1757088389255647700,7.604647705078125,-0.10471000920943915,0.2579647074878216,0.09314911607950925
1757088389265693700,7.614693603515625,-0.04479658858180046,0.23946985037624835,0.05269990905225277
1757088389275740700,7.62474072265625,-0.09984335302114486,0.20312427927553653,-0.01831131723821163
1757088389285786600,7.63478662109375,-0.10607793656177818,0.23407646690011022,-0.0831520382001996
1757088389295833900,7.644833740234375,-0.09387063528709114,0.24329846875369548,-0.14707009135931728
1757088389305879800,7.6548798828125,-0.07362871531248093,0.24449440053999422,-0.24477672461271285
1757088389315925800,7.66492578125,-0.011370046732947229,0.22966683376431463,-0.2986459697052836
1757088389325972700,7.67497265625,0.06046418637819588,0.21932781057953835,-0.3131049954295158
1757088389336018700,7.685018798828125,0.21064408032111823,0.19265899936258793,-0.34597119998186826
1757088389346065700,7.695065673828125,0.33221645006947215,0.1628361080288887,-0.4666323001042008
1757088389356112000,7.70511181640625,0.5280279221136123,0.11633563813865185,-0.6156736915364861
1757088389366157800,7.71515771484375,0.8219279394008219,0.15531331130862236,-0.7453583483308553
1757088389376204800,7.725204833984375,1.1437853464107959,0.2537280928313732,-0.9226119810298085
1757088389386250800,7.735250732421875,1.4151217958427964,0.38087797045111654,-1.2001362522512673
1757088389396297700,7.745297607421875,1.4523008951582013,0.49363282749354837,-1.4175047454565763
1757088389406343700,7.75534375,1.1313828148249536,0.5358879148989916,-1.3495701501324773
1757088389416389600,7.7653896484375,0.750778619813919,0.44276130291223526,-1.4204717785686254
1757088389426436900,7.775436767578125,0.4932943893194198,0.3102794166147709,-1.5296759573921561
1757088389436482800,7.78548291015625,0.4971699155785143,0.0684141955345869,-1.9323036950975656
1757088389446529800,7.79552978515625,0.507353455940634,-0.15760639068186283,-2.019971457156539
1757088389456575700,7.80557568359375,0.731653063583374,-0.23294132539033888,-2.1623966453194616
1757088389466622000,7.8156220703125,0.9266017813183367,-0.0938157632946968,-2.281935463413596
1757088389476669000,7.8256689453125,0.7293925713054835,0.1208072305947542,-2.476054013934731
1757088389486715000,7.83571484375,0.4183108983971178,0.3886100260078907,-2.6841251019626853
1757088389496761900,7.845761962890625,0.43673824323043225,0.5887964982658624,-2.8719799159139394
1757088389506807800,7.855807861328125,0.5098214534893631,0.6192272923648358,-2.844631890261173
1757088389516853800,7.865853759765625,0.764512546133995,0.6322083544909953,-2.7818250132143496
1757088389526900700,7.875900634765625,0.9812918412744999,0.5860159276366234,-2.3263521127671
1757088389536946700,7.88594677734375,0.9063536507986485,0.5892220302015543,-1.6090280187875032
1757088389546993700,7.89599365234375,0.7514213016316295,0.4379232152312994,-1.1036176597386598
1757088389557039600,7.90603955078125,0.648911944271624,0.5035644389212132,-0.4397083450824022
1757088389567085800,7.9160859375,0.40376346373707056,0.727262719669938,0.11183306602239608
1757088389577132800,7.9261328125,0.3228524824619293,0.8582757024586201,0.36903263435661793
1757088389587178800,7.9361787109375,0.385875340346992,0.8570657421469688,0.537436897906661
1757088389597226000,7.94622607421875,0.18525339928120374,0.7324357383936643,0.542825020685792
1757088389607272000,7.95627197265625,0.09352584043741226,0.6498679298222064,0.32849896391630173
1757088389617318000,7.96631787109375,0.021787176655232905,0.5914110646784305,-0.07997428494691848
1757088389627364900,7.97636474609375,0.005901040737330913,0.6176444070875644,-0.4003191685020923
1757088389637410800,7.986410888671875,0.030765140619874,0.4933218618482351,-0.49215690972208975
1757088389647457800,7.996457763671875,-0.0034510172367095944,0.4304214612990617,-0.4266185618847608
1757088389657503700,8.006503662109376,-0.14381927286982535,0.4514420374959707,-0.5198287605017423
1757088389667550000,8.016550048828124,-0.3881754339829087,0.7094301258593797,-0.4782604863166809
1757088389677597000,8.026596923828125,-0.6285854878187179,0.4563584511101246,-0.18256138371825217
1757088389687643000,8.036642822265625,-0.6822323223322629,-0.0735556500762701,0.21706571086645124
1757088389697689900,8.04668994140625,-0.9726111066907643,0.04184416851699352,0.40553427280187604
1757088389707735800,8.05673583984375,-1.0162292991429567,0.32514380826950073,0.382553794708848
1757088389717781800,8.06678173828125,-1.1834446451693772,0.20834172166287898,0.5798959834516048
1757088389727828700,8.076828857421875,-1.220095921218395,-0.07136895368695259,0.47283612318038937
1757088389737874700,8.086874755859375,-1.0567115316569804,-0.42953707967996596,0.4484796805590391
1757088389747921700,8.096921630859375,-0.935427331200242,-0.6938128700107336,0.5129664735168218
1757088389757967600,8.106967529296876,-1.0447621506661176,-0.7791337766826152,0.5485930826932192
1757088389768013800,8.117013916015624,-1.2177514039188622,-0.9411772730290889,0.7277291681379079
1757088389778060800,8.127060791015625,-1.224932255333662,-1.0553139398187399,0.9871306304305791
1757088389788106800,8.137106689453125,-1.2617898676097392,-0.9959352836549281,1.3593699518740177
1757088389798154000,8.147154052734376,-1.071498181900382,-1.06907767675519,1.5360574751228093
1757088389808200000,8.157199951171876,-0.9920505511760711,-1.0932996793419123,1.6353952167093753
1757088389818246000,8.167245849609374,-1.020012909334898,-0.974322002261877,1.78680625988245
1757088389828292900,8.17729296875,-1.011916696640849,-0.7544920873790979,1.6078461155265569
1757088389838338800,8.1873388671875,-1.0474766703218221,-0.8341922315597534,1.4081135245159269
1757088389848384800,8.197384765625,-1.0687596968472004,-0.8663502878427505,1.2208654442861675
1757088389858431700,8.207431640625,-1.1345973198920487,-0.8591828804314136,1.164754265485704
1757088389868477700,8.217477783203124,-1.1643144127637146,-0.719379272943735,1.3312743227243422
1757088389878524700,8.227524658203125,-1.1260656383901835,-0.6919248643070459,1.774187601327896
1757088389888571000,8.23757080078125,-1.0614099186062813,-0.7494254516392945,2.025849993801117
1757088389898616800,8.247616943359375,-1.084488011854887,-0.8822814319461584,1.9087015779748557
1757088389908663800,8.257663818359376,-0.9013444443345069,-1.0532038157969712,1.4362141221016644
1757088389918709800,8.267709716796874,-0.6876099237173795,-1.2266788067400454,0.9154831520631909
1757088389928756700,8.2777568359375,-0.5459300009638071,-1.3518559229820966,0.6054664780378342
1757088389938802700,8.287802734375,-0.39761867737174034,-1.4049422010034323,0.47022214128971096
1757088389948848600,8.2978486328125,-0.2964186490446329,-1.3403700678497552,0.432502359226346
1757088389958895600,8.3078955078125,-0.2228454633116722,-1.263886547628045,0.500246692675352
1757088389968941600,8.317941650390624,-0.11999766777753829,-1.2136679339975118,0.5253346644416451
1757088389978988800,8.32798876953125,-0.14548749834299088,-1.2550532528311014,0.4438616653695702
1757088389989035000,8.338034912109375,-0.23790099362432957,-1.3422364462435246,0.44245676700770853
1757088389999081000,8.3480810546875,-0.25812895813882347,-1.4627321266710758,0.4659118768751621
1757088390009128000,8.3581279296875,-0.21344576680362223,-1.5453431898623704,0.5213976172536611
1757088390019174000,8.368173828125,-0.11378069295883178,-1.5430466033577919,0.6028682782381772
1757088390029220900,8.378220947265625,-0.040189971569180485,-1.5079390496194363,0.682273238864541
1757088390039266800,8.388266845703125,0.05889116490781307,-1.3956705147892237,0.805744135710597
1757088390049312800,8.398312744140625,-0.016064999616146085,-1.3085989650577305,0.9775561618775128
1757088390059359700,8.40835986328125,-0.06467208639681339,-1.395372993147373,1.17284609426558
1757088390069405700,8.41840576171875,0.02647474994957447,-1.5722884799331425,1.2957295466125012
1757088390079452700,8.42845263671875,-0.034489714100956914,-1.482694718247652,1.3302502403736114
1757088390089499000,8.438498779296875,-0.11849953817427157,-1.182613455042243,1.3697849629044532
1757088390099544800,8.448544921875,-0.002660159119963646,-0.8649912744492292,1.5562591361522673
1757088390109591800,8.458591796875,1.3468471549093723,-0.28010405858159065,1.3991910901308058
1757088390119637800,8.4686376953125,3.8122353979229926,1.0275409667521715,0.13623042517602443
1757088390129684700,8.478684814453125,7.28342565408945,3.5472400611460206,-3.2599937295943495
1757088390139730700,8.488730712890625,7.592435489159822,6.710867758440971,-7.534700508549809
1757088390149776600,8.498776611328125,3.3283202468454838,7.701298014938831,-10.887246265113353
1757088390159824000,8.508823974609374,-0.35928047114908696,5.036269243112206,-10.329814626926183
1757088390169869800,8.518869873046874,-1.6302981858313084,1.0097656560868025,-3.493848078176379
1757088390179916800,8.528916748046875,1.0368845491588115,-1.0748749648571014,3.143919372740388
1757088390189962800,8.538962646484375,4.353846951165795,-1.7692928150236606,6.81295918264985
1757088390200009000,8.549009033203125,4.05840153106749,-1.9002783252835274,6.295223010513186
1757088390210056000,8.559055908203124,2.353496140280366,-1.5175842453211545,2.8779660045862197
1757088390220102000,8.569101806640624,0.5013724818348885,-0.3530558975458145,-0.9471388117820024
1757088390230148900,8.57914892578125,-1.1925099951565266,0.9045563921183347,-2.290546639892459
1757088390240194800,8.58919482421875,-0.7751414921760559,1.54776837118268,-2.281025362831354
1757088390250240800,8.59924072265625,0.040158991909027095,2.218038453042507,-2.7270927215516565
1757088390260287700,8.609287841796874,-0.7561877853810787,3.1179765377104283,-2.7576860127359626
1757088390270333700,8.619333740234374,-1.5032611209362745,3.0133810217261314,-1.9088474161863327
1757088390280380700,8.629380615234375,-1.1763801136106251,2.071100755891204,-0.6595826836287975
1757088390290427000,8.639427001953125,-0.7437929987102746,1.3461620952546596,0.24455109916329382
1757088390300473000,8.64947314453125,-0.8341703119888901,0.5052694892734289,1.0503326442748309
1757088390310519800,8.659519775390624,-1.1343623420923947,-0.2736263870000839,1.8141648069292307
1757088390320566000,8.66956591796875,-0.8754939637631177,-0.9266472278952598,2.5330951670616866
1757088390330613000,8.679613037109375,-0.4868801383629441,-1.139565171432495,2.8570956505149603
1757088390340659000,8.689658935546875,-0.20851210979372262,-0.7972352505624294,2.926557309275865
1757088390350705000,8.699704833984375,-0.5138695598363876,-0.15472528228759766,2.711392463594675
1757088390360751900,8.709751953125,-0.916611279310286,0.4962362879902124,2.4726298847049475
1757088390370797800,8.7197978515625,-1.1197805667713283,0.935740634933114,2.183388579943776
1757088390380844800,8.7298447265625,-1.5230258518531918,1.4860270775407551,1.5231792888492346
1757088390390890800,8.739890869140625,-1.811146335890889,1.8983453113943338,0.5953741230905055
1757088390400938000,8.74993798828125,-1.65945442994982,1.9710884760439396,-0.41240532761514187
1757088390410984000,8.75998388671875,-1.2927771265476942,2.105530264237523,-1.5666770697921513
1757088390421030000,8.77002978515625,-0.6774380737930535,1.6724427985996007,-2.3869600184649227
1757088390431077000,8.7800771484375,-0.35452860044687984,0.778110278853774,-2.3536557147562505
1757088390441123000,8.790123046875,-0.31079350361675023,-0.05880465566813945,-1.8868945275753735
1757088390451169000,8.8001689453125,-0.645972675949335,-0.44838031183779237,-1.4357733925968408
1757088390461216000,8.810216064453124,-0.5273468810468912,-0.5877168863356113,-0.9705722943395375
1757088390471262000,8.820261962890624,-0.6165557350680232,-0.6495727462679147,-0.5589139856994152
1757088390481309000,8.830308837890625,-1.1467327249743045,-0.7272650577574968,-0.3632558045208454
1757088390491355000,8.84035498046875,-1.663437946628034,-1.0388596486240624,-0.16900632109642028
1757088390501401900,8.85040185546875,-1.768052605704218,-1.4107792365938425,-0.25315116972625257
1757088390511447800,8.86044775390625,-1.4788858274839818,-1.8348714948713778,-0.408027843183279
1757088390521494000,8.870493896484374,-1.0729401974022388,-2.201093163460493,-0.6033715515851974
1757088390531541000,8.880541015625,-0.5183855759561061,-2.374237899535894,-0.8660632875949144
1757088390541587000,8.8905869140625,-0.09807561269626021,-2.245651267111301,-1.0272592272013426
1757088390551634000,8.900634033203126,0.11623451585173607,-1.9719056376457214,-1.3494851021975278
1757088390561680000,8.910679931640624,0.4539876303255558,-1.848866117954254,-1.3477619316667317
1757088390571725800,8.920725830078124,0.45450653963312504,-1.749746987554431,-1.1968027239143848
1757088390581773000,8.93077294921875,0.2213946069162339,-1.6667063007742167,-1.111893905174732
1757088390591818800,8.94081884765625,-0.02498611882701516,-1.6055179648399351,-0.920704978364706
1757088390601866000,8.950865966796876,-0.5736931832887232,-1.4594950444459915,-0.8371896598100662
1757088390611912000,8.960911865234374,-0.4235270256102085,-1.4360644844979047,-0.15902970148324966
1757088390621958100,8.970958251953125,-0.24721304838154465,-1.2572872954934835,0.3487719366163015
1757088390632004900,8.9810048828125,-0.04990293527748436,-1.1651432648032902,0.9430331300288438
1757088390642051000,8.991051025390625,0.026125790381431577,-1.0739596035778523,1.498892404332757
1757088390652098000,9.00109814453125,-0.327892230194807,-0.9329214858591556,2.629991945236921
1757088390662144000,9.01114404296875,-0.12565700871348381,-0.028794132807850835,2.682031929075718
1757088390672190000,9.02118994140625,0.10416064996467903,0.2584422618716955,2.4276047480642795
1757088390682237000,9.03123681640625,0.5544283647179603,0.195077750942111,2.4062024790734053
1757088390692283000,9.041282958984375,0.9537865792334079,0.1545142698854208,2.029682119309902
1757088390702329900,9.051329833984376,1.167189675939083,0.2157347545236349,1.5497031386375426
1757088390712375800,9.061375732421874,1.3811597588777542,0.27361586560606954,0.7748457240998744
1757088390722421800,9.071421875,1.6648972055256366,0.365474065092206,0.1534241365611553
1757088390732468700,9.08146875,1.8597417322337626,0.5012251823186874,-0.2862397848576307
1757088390742515000,9.091514892578125,2.041200707668066,0.5963111116796732,-0.5846235964953899
1757088390752562000,9.10156201171875,2.0985113253861662,0.5397217939734459,-0.8368184884101152
1757088390762607900,9.11160791015625,2.112289675369859,0.19325462716817854,-0.9497989709019661
1757088390772655000,9.121655029296875,2.0382775136977433,-0.06337386327981949,-0.9842653041273355
1757088390782701000,9.131701171875,1.8582599692434072,-0.04041384345293045,-1.0875362935096025
1757088390792747000,9.1417470703125,1.73046477945745,-0.0988876597315073,-1.2334762117952107
1757088390802794000,9.1517939453125,1.6213006403833627,-0.48725394011139866,-1.4591197813928127
1757088390812840000,9.16183984375,1.2322399479985235,-0.9407996718883513,-1.6743366495221852
1757088390822887000,9.171886962890625,0.5498644178032874,-1.00232878408432,-1.9658944145321844
1757088390832932900,9.181932861328125,-0.3387164796132594,-0.38489831200838087,-2.285525596860051
1757088390842979000,9.19197900390625,-1.2994424296557903,0.9426800788074732,-2.7286089713335038
1757088390853025800,9.20202587890625,-2.0821745230913162,2.5442513518482444,-3.27959450212121
1757088390863072000,9.212072021484374,-2.4359575658679007,3.6411721442967653,-3.7286627962231633
1757088390873119000,9.222118896484375,-2.3211633119523523,3.437260514035821,-3.73508493822515
1757088390883165000,9.2321650390625,-1.9875527041107415,2.486137016531825,-3.4363492444097994
1757088390893211000,9.2422109375,-1.420531984323263,2.486431031042337,-3.1401772636026144
1757088390903257900,9.2522578125,-0.6152982092875987,3.2131805404931306,-2.5692595363765953
1757088390913303800,9.2623037109375,0.274070039114356,4.495777633810043,-1.9379776490807532
1757088390923350800,9.272350830078125,1.28513800997138,6.066652739813923,-1.1820675115972756
1757088390933396700,9.282396728515625,2.3525644123882055,7.283864045506715,-0.20497136844694613
1757088390943443000,9.29244287109375,3.045184273222089,7.6892177010446785,0.6281430047482252
1757088390953490000,9.302489990234376,3.416217141485214,7.270906364256144,0.9147808490127325
1757088390963536100,9.3125361328125,3.6823172246336933,5.414954671955108,0.4115051639050245
1757088390973583000,9.3225830078125,3.7755584029108284,3.236908622083068,-0.4077075251877308
1757088390983629000,9.332629150390625,3.7010681023329495,1.4014648802816867,-1.477543326833844
1757088390993675000,9.342675048828125,3.705681149086356,-0.24515081862211227,-2.748324894672632
1757088391003722000,9.352721923828126,3.507611815112829,-1.414707808214426,-4.13585594214797
1757088391013768000,9.362767822265624,3.014416794514656,-1.9634645570367573,-5.280735002079606
1757088391023815000,9.37281494140625,2.3201953437030314,-1.81819450083673,-5.974385375005006
1757088391033860900,9.38286083984375,1.6220412296175957,-1.1466922468334435,-6.952216846692561
1757088391043906800,9.39290673828125,0.4311339934825897,-0.512949522382021,-7.637306312021613
1757088391053953800,9.402953857421876,-1.164543983735889,-0.12148118433356285,-7.959908034592867
1757088391064000000,9.413,-3.3577930095672603,0.03064531363248825,-7.243577043303847
1757088391074047000,9.423046875,-5.000278476798534,0.33106267692446706,-4.7968490770965815
1757088391084093000,9.433093017578125,-4.965872349327802,0.5611714092373847,-2.5181127019852396
1757088391094140000,9.443139892578126,-3.412880690538883,0.5133043271690607,-1.1977893968641757
1757088391104185900,9.453185791015626,-0.9793805277604609,0.6944757178336382,-0.8147153776735067
1757088391114231800,9.463231689453124,1.5758603470705448,1.3035785065472125,-1.246210021162033
1757088391124279000,9.473279052734375,2.987208469593525,2.1480752745002505,-1.0223901598602532
1757088391134325000,9.483324951171875,2.762441098308563,2.690896203532815,-0.5388824205398559
1757088391144372000,9.4933720703125,1.3435340848386288,2.916046436655521,0.8478150987207889
1757088391154418000,9.50341796875,-1.2941487071618436,2.8692887771338222,1.790302869826555
1757088391164463900,9.5134638671875,-3.3508643793478607,2.1558546763300894,1.731883998605609
1757088391174510800,9.5235107421875,-3.583802782128751,1.3696587061762808,1.3016688735336064
1757088391184557000,9.53355712890625,-3.0692399793311953,1.371691088786721,0.9714636902213096
1757088391194604000,9.54360400390625,-2.39341840082407,1.6036019020855425,0.8772557127386331
1757088391204650000,9.55364990234375,-2.3224641654178497,1.6331623430907725,1.1511217537134886
1757088391214696000,9.563696044921874,-2.714295783820748,1.4733774393260477,1.5288877296239136
1757088391224743000,9.573742919921875,-3.1298359023302793,1.178711771428585,2.23746562256813
1757088391234788900,9.583788818359375,-3.1914258048027753,0.7269675361156464,2.7914433209091425
1757088391244835800,9.5938359375,-3.3286136768341064,0.10091595068871974,3.539049155905843
1757088391254881800,9.6038818359375,-3.589162555596232,-1.0101011716514825,4.220829058295488
1757088391264927700,9.613927734375,-3.8729081855505703,-2.0574106687128544,4.456688316959142
1757088391274974700,9.623974609375,-3.6247774743348358,-2.844150828745961,4.216421763247252
1757088391285021000,9.63402099609375,-3.534907818317413,-3.8056057506501673,4.0513872683912515
1757088391295068000,9.64406787109375,-3.8232781854629514,-4.584913130334019,3.8936575435906646
1757088391305113900,9.65411376953125,-3.9162750335901975,-4.442517168265581,3.8282255787372588
1757088391315159600,9.66415966796875,-4.221128918024897,-3.876692380264401,3.8990141021877527
1757088391325206800,9.674206787109375,-4.067965478226542,-3.0502240209549663,3.7259284028232096
1757088391335252700,9.684252685546875,-3.669876845255494,-2.4831068550556896,3.6940737134009596
1757088391345299700,9.6942998046875,-3.529537231194973,-1.9372452431529759,3.6625124539673326
1757088391355345700,9.704345703125,-3.6055689159959554,-1.5412842698603868,3.7709663989454505
1757088391365392600,9.714392578125,-3.7831916742682457,-1.4089017522841691,3.9506729777544733
1757088391375438600,9.7244384765625,-3.4589965450257063,-1.429366448163986,4.0565281384110445
1757088391385484800,9.73448486328125,-2.8511113154083487,-1.6772142507851122,3.925792803519964
1757088391395531800,9.74453173828125,-2.2801234455555677,-1.9543354941636322,3.5136481726676223
1757088391405577700,9.75457763671875,-1.8866127880245447,-2.1791057880580422,2.9607442410379647
1757088391415624700,9.764624755859375,-1.8350480204820632,-2.2657681724667547,2.696882876726985
1757088391425670700,9.774670654296875,-1.6637077034801244,-2.2215648736029863,2.381726209464669
1757088391435716600,9.784716552734375,-1.225745325282216,-2.139680371120572,1.9590046550184488
1757088391445763600,9.794763671875,-0.7191945640265941,-1.9509107804119585,1.6822458152115345
1757088391455809500,9.8048095703125,-0.08302665825486183,-1.6771838556468486,1.1389490853607653
1757088391465856800,9.814856689453125,1.5290443814903496,-1.1996084289848803,0.2820382415145635
1757088391475902500,9.82490234375,3.838441267803311,-0.43888358469605443,-0.7869207772970199
1757088391485948700,9.83494873046875,5.3171986466020345,1.038140686699748,-2.215244438409805
1757088391495995600,9.84499560546875,6.165066352292895,4.171358632683754,-3.6442432223051786
1757088391506041900,9.855041748046874,5.213946361920237,7.809397155129909,-5.101819281387328
1757088391516088800,9.8650888671875,3.2953345075666904,9.868300692749022,-7.758803862968087
1757088391526134800,9.875134765625,0.8979524638086557,9.172447841343283,-8.272859885287284
1757088391536180700,9.8851806640625,2.256310023769736,5.760321768563985,-6.434226407533884
1757088391546227700,9.895227783203126,1.5521598841398954,2.268501981344819,-3.407781906095147
1757088391556273700,9.905273681640624,-0.7700935611367226,-0.04298866237699985,0.1519172391295433
1757088391566320600,9.915320556640625,-2.5488866104334593,-2.10533094227314,2.333534133225679
1757088391576366600,9.92536669921875,-1.7545143480867147,-3.4143145227342844,3.3443349775791167
1757088391586412500,9.93541259765625,-0.3924795609176159,-3.239486948138475,2.990837766006589
1757088391596459500,9.94545947265625,0.339863823017478,-2.4489228459030388,2.2577824344098567
1757088391606505700,9.955505615234374,-0.932305399787426,-1.0631377653121947,1.8095599434822798
1757088391616552700,9.965552734375,-1.3527321212947367,0.32785248270630835,2.336817392680049
1757088391626598700,9.9755986328125,-0.29148411525189877,1.238147710737586,2.826166259244084
1757088391636644600,9.98564453125,-0.07275134795606136,2.2508809844583273,2.584489254212379
1757088391646691600,9.995691650390626,-0.46221009974777694,3.0066613580822943,1.8153835350692271
1757088391656737500,10.005737548828124,-0.8907412172555923,3.028368747499585,1.2421429178535937
1757088391666784800,10.01578466796875,-1.2822004952147603,2.4884406172990796,0.8106798385471106
1757088391676830700,10.025830810546875,-1.3896715666353703,1.9092741171658039,0.4652800087124109
1757088391686876700,10.035876708984375,-1.8989739646866917,1.3796575376212596,0.13690671700239182
1757088391696923600,10.045923583984376,-2.2809704177737236,0.8096633549809455,-0.4637205043107271
1757088391706969900,10.055969970703124,-2.6000866363167763,0.4650362630844116,-0.9100526514470577
1757088391717016600,10.0660166015625,-2.161349474354088,0.3232476192593574,-1.3785142128050327
1757088391727062800,10.076062744140625,-1.5133856245875357,0.596744242399931,-1.9902888510763643
1757088391737108700,10.086108642578125,-1.03815529974699,1.0792004268407822,-2.395442015606165
1757088391747155700,10.09615576171875,-0.8228206504568457,1.18481944065392,-2.413757424497604
1757088391757201700,10.10620166015625,-0.5755085621476173,0.7933861739188433,-1.9744120675086974
1757088391767248600,10.11624853515625,-0.5057680864453316,0.1397252815544605,-1.2510299886643885
1757088391777294600,10.126294677734375,-0.3516672196663916,-0.46313247528970236,-0.5986135434031487
1757088391787341600,10.136341552734375,-0.4113479275166988,-0.8285545179337263,-0.16022037257254124
1757088391797387500,10.146387451171876,-0.8374037409521639,-1.0959265207141637,-0.09817103589475154
1757088391807433700,10.156433837890624,-1.3399755155742168,-1.4741577760487794,-0.304784910851717
1757088391817480400,10.16648046875,-1.6966659702301023,-1.6171686551451683,-0.556874004304409
1757088391827526700,10.176526611328125,-1.78475941035524,-1.7667898922920227,-0.6863678147017955
1757088391837574000,10.186573974609376,-1.9579276734367013,-2.008900028043985,-0.5940700547546148
1757088391847619800,10.196619873046876,-1.5241628930591047,-2.1002432637453077,-0.30266309639215466
1757088391857665800,10.206665771484374,-1.010545992809534,-2.098673822471499,-0.3256359757006168
1757088391867712800,10.216712646484375,-0.5822259607691318,-2.1208634424477815,-0.5048498025566339
1757088391877758700,10.2267587890625,0.16502565396241842,-1.975231567198038,-0.35249475653171536
1757088391887805700,10.2368056640625,0.7826877428371459,-2.0901713670641184,-0.19012977314591406
1757088391897851600,10.2468515625,0.6637783817529678,-2.2413205444306135,-0.376557769164443
1757088391907897600,10.256897705078124,0.5152981313347816,-2.040077841117978,0.08516893098056316
1757088391917944600,10.266944580078125,0.36504444150328635,-1.1232523345351217,0.03917991774380207
1757088391927990800,10.27699072265625,0.26179449490904805,-0.47127311164736746,0.4950970548272133
1757088391938037800,10.287037841796876,0.18228899651765823,-0.021575871992111206,1.0039578465908765
1757088391948083700,10.297083740234376,0.3728665134310722,0.014755670583248138,1.1963520575374365
1757088391958129700,10.307129638671874,0.37568270336296405,-0.26352351065874097,1.4891665446102618
1757088391968176600,10.3171767578125,0.672939008808136,-0.6380225937277079,2.0544716926515103
1757088391978222600,10.32722265625,0.9592343232452869,-0.8126298035711049,2.2375848650336265
1757088391988269600,10.33726953125,1.1239783107221126,-1.0338789376020432,2.0775152991086245
1757088391998315500,10.3473154296875,1.2189373257678002,-1.2236328631728888,1.8577333150207995
1757088392008362800,10.35736279296875,1.2477999207019805,-1.230795594409108,1.6287421885609625
1757088392018408700,10.36740869140625,1.6570476610690354,-1.0394096837222575,0.8645674960792065
1757088392028454700,10.37745458984375,2.129900150862336,-1.0502449659913777,-0.019229016605019567
1757088392038501600,10.387501708984376,2.424907179543376,-1.0716571718543768,-1.0089712908387183
1757088392048547800,10.3975478515625,2.4562194326519964,-1.011293596306443,-1.9884289024233817
1757088392058594800,10.4075947265625,2.167914531958103,-0.7676333085030317,-2.673082898944616
1757088392068640800,10.417640869140625,1.919512602585554,-0.5405120675683022,-3.0845488998830315
1757088392078686700,10.427686767578125,1.8179459329031407,-0.33448446806669235,-3.2353964639544484
1757088392088733700,10.437733642578126,1.544574689707905,0.11335866815447806,-3.180204738086462
1757088392098779600,10.447779541015626,1.1413637452870606,0.6342337228387593,-2.955337998080253
1757088392108826600,10.45782666015625,0.8779226522147655,1.0453630391687154,-2.6612644508570433
1757088392118872600,10.46787255859375,0.7503191856086253,1.6496230640262364,-2.4089830497026443
1757088392128918500,10.47791845703125,1.0227215837717056,2.9232272880703207,-2.1813585354208946
1757088392138965500,10.487965576171876,1.3527287602938711,4.659759404742718,-2.310748300921917
1757088392149011700,10.49801171875,1.1735609645366667,5.9052586472868915,-3.218299198681116
1757088392159058700,10.50805859375,0.2681932560354471,5.795252212169766,-4.40978861861825
1757088392169104600,10.518104736328125,-1.2100975281648336,4.015288950049877,-5.400792291089892
1757088392179152000,10.52815185546875,-2.534610832321644,2.191329894337058,-5.851161730918288
1757088392189197800,10.53819775390625,-1.9650320986144243,1.918238929387927,-5.00877216437757
1757088392199243800,10.548243896484376,-0.09517711477577685,2.3647061010807753,-3.3465567452818155
1757088392209290800,10.558290771484375,1.5594874505490064,3.4371956321060657,-2.1226889043092725
1757088392219336700,10.568336669921875,3.088115652453899,4.578627766454219,-0.8965589636236428
1757088392229383700,10.5783837890625,4.320644938787818,4.907113286367059,0.30418869852423663
1757088392239429600,10.5884296875,5.08387562841773,4.472483267462254,0.5829454341500997
1757088392249475800,10.598475830078126,5.274194786655903,3.7877754949271676,0.0579746345847845
1757088392259522600,10.6085224609375,4.872063015773892,3.1021137826681136,-0.7569768899321556
1757088392269568800,10.61856884765625,3.947016793334484,2.366666587498784,-1.8415794680774211
1757088392279615700,10.62861572265625,3.0685294929742812,1.544596170887351,-2.9458412709385153
1757088392289661400,10.638661376953126,2.1445488539397717,0.9219131851106882,-3.6126691033899783
1757088392299707400,10.648707275390626,0.5251216792780906,0.39830665963590145,-4.276790014970302
1757088392309754400,10.65875439453125,-0.9478361463963985,0.18612755176723003,-5.888482869052886
1757088392319800300,10.66880029296875,-2.040417448335886,0.2886439233899116,-7.825446372655033
1757088392329847600,10.67884765625,-2.5911224086165427,0.7052040325969458,-8.161382208573817
1757088392339893500,10.6888935546875,-2.7676152860760688,1.4832330629080532,-6.254190742900967
1757088392349940500,10.6989404296875,-2.8518285237669945,1.8836369870841503,-3.7598511306911706
1757088392359986400,10.708986328125,-2.6368694297909734,1.9237287589758634,-1.5445891566246748
1757088392370032600,10.71903271484375,-2.206413335569948,2.3119641064524648,0.2732645679503679
1757088392380079600,10.72907958984375,-2.1063174690924584,2.7039965081244706,0.7902607353746891
1757088392390125600,10.73912548828125,-1.7743606198072432,2.955900308138132,1.1004495510965584
1757088392400172500,10.749172607421874,-1.4840589923381804,3.1889222975492477,1.6307020904570817
1757088392410218500,10.759218505859375,-1.3871253892838955,3.195885122299194,2.0035195040494203
1757088392420264400,10.769264404296875,-2.057303116685152,2.3678701180696486,1.556530354309082
1757088392430311400,10.7793115234375,-2.5367127730369567,1.0911112293869256,0.58913669000566
1757088392440357400,10.789357421875,-2.0698297130420804,-0.26693945658206936,0.0029109190106391906
1757088392450404400,10.799404296875,-1.6177233664184807,-0.5974795709371566,0.5327513704389334
1757088392460450300,10.8094501953125,-1.803048661892116,0.03904664675295353,1.4902613541096448
1757088392470497300,10.819497314453125,-2.261779979613423,0.31239480133354663,2.6017630450963973
1757088392480543500,10.82954345703125,-2.8118057254582642,0.11556348472237586,3.5006244404435156
1757088392490589400,10.83958935546875,-3.4281486945584416,-0.165358904504776,4.306210755243897
1757088392500636700,10.84963671875,-4.118925850135088,-0.6666033760458231,4.7374616531044245
1757088392510682600,10.8596826171875,-4.36644632049799,-1.2267834361582994,4.654320428559184
1757088392520729600,10.8697294921875,-4.252570350471139,-1.8124749541461467,4.5270594917804
1757088392530775600,10.879775634765625,-4.3843560711979865,-2.557815182298422,4.3704210693478585
1757088392540821500,10.889821533203126,-4.522920492279529,-3.3223791663587092,4.08863417224586
1757088392550868500,10.899868408203124,-4.283026279011368,-3.7593396740376948,3.770633221468329
1757088392560914400,10.90991455078125,-3.92397201783359,-3.7072815700203177,3.421308911666274
1757088392570961400,10.91996142578125,-3.571902793237567,-3.3273306512862444,3.321578955891728
1757088392581007400,10.93000732421875,-3.6993040152698753,-2.587112296192348,3.5620530148744582
1757088392591053600,10.940053466796876,-3.622020284581184,-2.0179992803007365,3.826643862503767
1757088392601100500,10.9501005859375,-3.3971167196959255,-1.417313314537704,3.9767648658663033
1757088392611146500,10.960146484375,-3.1841672119766473,-0.8292728953361511,4.142953791454434
1757088392621193500,10.970193359375,-3.1290374454289673,-0.45607671155929563,4.285098409110307
1757088392631239400,10.980239501953125,-3.3342081358402966,-0.2156888695552945,4.085230501282215
1757088392641285400,10.990285400390626,-3.414074284237623,-0.20808044037818907,3.5759669739365574
1757088392651332400,11.000332275390624,-3.0419056899428365,-0.4118845186114311,2.8978058465659617
1757088392661378300,11.01037841796875,-2.3433570235818624,-0.3953115694731474,2.7865771761775013
1757088392671425500,11.020425537109375,-1.8651953214645385,-0.1305465343207121,3.408610173612833
1757088392681471200,11.03047119140625,-1.5417682539850472,-0.08400982407331466,3.868425487178564
1757088392691518500,11.0405185546875,-0.7709428714424371,-0.5393050298660993,3.615083178794384
1757088392701564700,11.050564697265624,-0.09679214875698089,-1.2407476641029118,2.6929963906824588
1757088392711610600,11.060610595703125,0.26152035414278507,-1.8413158487051724,1.8034616266071795
1757088392721657600,11.07065771484375,0.7639519896417856,-2.254425525197387,1.3416414029598236
1757088392731703600,11.08070361328125,2.1459780099600554,-2.598038471615314,0.9292156170785426
1757088392741750500,11.09075048828125,2.6810212907284496,-2.5742478461831806,0.2780360201358795
1757088392751796500,11.10079638671875,2.017242908975482,-1.7005641467124222,-0.7257043843120337
1757088392761842400,11.110842529296875,0.5011468563854694,0.549606059128046,-2.183003964540362
1757088392771889400,11.120889404296875,2.487382632678747,3.761808694499731,-4.7021062620848415
1757088392781935400,11.130935302734375,3.133000796101987,7.600388493990898,-8.829518785536289
1757088392791982300,11.140982421875,1.3673583202794193,10.415212105965614,-11.537017164301872
1757088392802028500,11.151028564453124,1.0862848321437835,11.657788739061354,-12.616142772340774
1757088392812075300,11.1610751953125,0.5918225680887699,10.00844332293272,-9.598395372098684
1757088392822121500,11.17112158203125,-1.3417217747196555,5.693842925006151,-4.193321458166838
1757088392832167400,11.18116748046875,-2.167720762951672,0.9950620079517364,0.16174188305139542
1757088392842214700,11.191214599609374,-1.2498439937502146,-2.1944091556519267,3.081281422519684
1757088392852260400,11.20126025390625,-0.389700451593101,-3.7625481146901842,4.5676936999857425
1757088392862307600,11.2113076171875,0.884085558758676,-4.668606728065013,5.283821862179041
1757088392872353500,11.221353515625,0.7867036274150013,-4.42334601932764,5.334974541789293
1757088392882399500,11.2313994140625,-0.27100392954200503,-3.1204864747047423,5.008592131635546
1757088392892446500,11.241446533203124,-0.45560354108959433,-1.7062796017497777,4.838298108816146
1757088392902492400,11.251492431640624,0.12164280463606118,-0.4136784162908792,4.4009769511312244
1757088392912539400,11.261539306640625,0.15715543204396962,1.2239578573435543,3.4825381641328335
1757088392922585600,11.271585693359375,-0.34518940195441244,3.0120091488510368,1.9693337413311003
1757088392932631600,11.281631591796875,-0.820194101345539,4.402956142249703,-0.2978197480142116
1757088392942678500,11.291678466796874,-0.9716764561891555,5.0044683297038075,-1.4420324529916047
1757088392952724500,11.301724365234374,-1.3865475893959402,4.780478372532129,-2.6537270410895344
1757088392962771500,11.311771484375,-1.912209293834865,3.560062717840075,-3.166795221415162
1757088392972817400,11.3218173828125,-2.03293089197278,1.5503993042081594,-2.360931258717179
1757088392982864400,11.331864501953126,-1.6636613801203668,-0.26424831780195235,-1.7688287046432494
1757088392992910300,11.341910400390624,-1.176056726875156,-1.3729711917251348,-1.518154154163599
1757088393002956300,11.351956298828124,-0.9956627503238618,-2.2409137171953915,-1.3628776677340269
1757088393013003300,11.362003173828125,-0.7926898622177541,-2.707580211830139,-1.212097323679924
1757088393023049500,11.372049560546875,-0.6681039168018847,-2.8059043924599885,-0.8946271187782288
1757088393033096400,11.382096435546876,-0.8550525026284158,-2.75172330493927,-0.4399012373059988
1757088393043142700,11.392142578125,-1.2030829001624137,-2.7923627738416195,-0.3217944978415966
1757088393053188600,11.402188720703125,-1.344167706567049,-2.6247324172735214,-0.5515016636162996
1757088393063235600,11.412235595703125,-1.065159042006731,-2.325074932438135,-1.1439438249081373
1757088393073281500,11.422281494140625,-0.8984323562800883,-1.8050626320630312,-1.7574147457033396
1757088393083328500,11.43232861328125,-1.0148783959906547,-1.3817483724206685,-1.7432576255351304
1757088393093374500,11.44237451171875,-1.5076514648497104,-1.3208312546432017,-1.2798346428662537
1757088393103421400,11.45242138671875,-1.1727543973941355,-1.1865887884140014,-0.7424784089803695
1757088393113467400,11.46246728515625,-0.8439479018986225,-1.1227040530025958,-0.4276245240569114
1757088393123513300,11.472513427734375,-0.2395347505723126,-1.225648294648528,-0.1030313354074955
1757088393133560300,11.482560302734376,0.7051508411049843,-1.1388345190703868,0.20420038407444951
1757088393143606500,11.4926064453125,1.0178151070296764,-1.586543799778819,0.18753508047759532
1757088393153653500,11.502653564453125,0.7752198181092739,-1.9746137275606392,0.32027123379707334
1757088393163699500,11.512699462890625,-0.032739071041345595,-1.7045318812996149,0.658415977936983
1757088393173746400,11.522746337890625,-0.019427151259314268,-1.3994547095030545,1.4799071333557365
1757088393183792400,11.53279248046875,-0.28290621998813004,-0.6176940914481878,1.8189958803474902
1757088393193838300,11.54283837890625,-0.3585275704225525,0.1696376047372818,2.0027415054142472
1757088393203885600,11.552885498046875,-0.2487567341595888,0.6231757377296686,2.614015208426118
1757088393213931500,11.562931640625,0.5083254427779466,0.6879325798004865,3.2500457515537735
1757088393223978500,11.572978515625,1.0065222171861679,0.6132850428342819,3.4306425572007893
1757088393234024400,11.5830244140625,1.2704396225333212,0.5060819747000932,3.2374779464036223
1757088393244070700,11.593070556640624,1.4429296940922736,0.2052472627788782,2.542045950758457
1757088393254117400,11.603117431640625,1.4388941549658774,-0.20036065978109835,1.5221142899662254
1757088393264163600,11.61316357421875,1.4120928034104405,-0.5346165797889232,0.28766192661523815
1757088393274210600,11.62321044921875,1.0940006672181188,-0.8628361422419547,-0.9160352329879998
1757088393284256500,11.633256591796876,0.6048948156297207,-1.2133125446885824,-1.7823948731809853
1757088393294304000,11.643303955078125,0.11697174408510326,-1.4985533816367387,-2.409074819639325
1757088393304350000,11.653349853515625,-0.2352016715377569,-1.6099094777971505,-2.7952847987681624
1757088393314396000,11.66339599609375,-0.12314487976208328,-1.4994477001279591,-2.877833318117261
1757088393324443000,11.67344287109375,0.5916654778309166,-1.164860356208682,-2.6719378205627202
1757088393334488800,11.68348876953125,1.52455364594236,-0.6155056414932012,-2.340921905389428
1757088393344535800,11.693535888671875,2.189144805382937,0.024621815559267995,-2.0303823765337468
1757088393354581800,11.703581787109375,2.4076567695349453,0.5952870293289423,-1.7205980499595404
1757088393364627700,11.713627685546875,2.5603759726971385,1.1316443153053521,-1.5241875891089438
1757088393374675000,11.723675048828126,2.3807458201251923,1.5697294431000948,-1.5066893418192862
1757088393384721200,11.73372119140625,2.078584243514389,1.8900626362174748,-1.6636901678234337
1757088393394768000,11.743767822265625,1.655091120173782,2.3093431102991104,-1.8308786258429288
1757088393404814000,11.75381396484375,1.2694823218084872,2.926265048331022,-1.9831565149784087
1757088393414861000,11.763861083984375,0.8361528641082346,3.7973523015677926,-2.217239996141195
1757088393424907000,11.773906982421876,0.09879954305663705,4.583657577314972,-2.530231594324112
1757088393434953000,11.783952880859376,-0.8606377554148436,4.949206461209059,-2.9067338339090347
1757088393445000000,11.794,-1.8406342961817979,4.845730889165401,-3.401713399836421
1757088393455046000,11.8040458984375,-2.9185645569562912,4.110266158339381,-4.214974487048387
1757088393465092900,11.8140927734375,-3.0798481748461723,3.2847862255454063,-4.151966534471511
1757088393475138800,11.824138916015626,-1.489676393828541,2.8226503600776196,-3.077886519384384
1757088393485185800,11.834185791015624,0.677389704606682,3.031477819430828,-2.039654647269845
1757088393495231700,11.844231689453125,2.5768103901475667,3.7347646202296017,-1.4365776947170494
1757088393505278000,11.85427783203125,4.137686664706468,4.414890910193324,-0.8928425734490155
1757088393515325000,11.864324951171875,5.206417135459184,4.478044408720732,-0.653483197709918
1757088393525371000,11.874370849609376,5.60848343988955,4.023758672231436,-0.8571206872045993
1757088393535418000,11.884418212890624,5.388215718111396,3.437269281864166,-1.3553273984849452
1757088393545464000,11.894464111328125,4.6337832519650455,2.719498028638959,-1.8374977517217397
1757088393555511000,11.904510986328125,3.348623614683747,1.9879981097906827,-2.086134658893943
1757088393565557000,11.914556884765625,1.9370552735388278,1.4397276831805705,-2.689657601648569
1757088393575603000,11.92460302734375,-0.22953243026230483,0.8978869973570108,-3.0623499275565145
1757088393585650000,11.93464990234375,-3.119135060095787,0.16634148580133915,-4.143378738868236
1757088393595695900,11.94469580078125,-4.337956723594665,-0.4406570241093635,-6.2048459894955155
1757088393605742800,11.954742919921875,-3.2742613243997094,-0.4481692994356155,-7.366435945731401
1757088393615789000,11.9647890625,-1.6311691234469412,-0.08444237027168273,-7.580742128756642
1757088393625835000,11.9748349609375,0.6726992817681282,0.6609364363253116,-5.382209755694866
1757088393635882000,11.984882080078124,1.7862099014244972,1.4201795176237821,-1.8067232587516306
1757088393645928000,11.994927978515625,1.0070772937856614,2.004651722949743,-0.9217296452373266
1757088393655975000,12.004974853515625,0.09139569654092192,3.022230683135986,-0.9371195220708847
1757088393666020900,12.015020751953125,-0.347917804004997,3.71324603138268,-0.5878881512492895
1757088393676067800,12.02506787109375,-0.09915727045312524,3.833679752489924,-0.3579477612406015
1757088393686113800,12.03511376953125,-0.8584862764693796,3.5365988401442765,0.503033108523488
1757088393696159700,12.04515966796875,-3.0310072793096303,2.882157611057162,1.57885792145133
1757088393706207000,12.05520703125,-5.371878915816545,2.262458609527349,2.0685855581998824
1757088393716253000,12.0652529296875,-5.460621029108762,1.9619833785682916,1.6860335170567036
1757088393726300000,12.0752998046875,-3.7899776811465617,1.6324293526411056,1.054472812819481
1757088393736346000,12.08534619140625,-1.5741373226702213,1.205208148688078,0.9054390201717615
1757088393746393000,12.09539306640625,-0.9234925632566213,1.156184297800064,1.8567203385859727
1757088393756439000,12.10543896484375,-1.7872627714782952,0.9498650218755006,2.907956653702259
1757088393766485000,12.115485107421875,-3.2846675676017996,0.48304655154943466,3.7779134416043756
1757088393776532000,12.125531982421874,-4.240235769554973,-0.1831570115238428,4.5356543016463515
1757088393786578000,12.135577880859374,-4.435390677386522,-0.9706792618453502,4.798348375743627
1757088393796625000,12.145625,-4.505337489315867,-2.251727372154593,4.550203051480651
1757088393806670800,12.1556708984375,-4.450101339784264,-3.6146491712912914,4.317285691487789
1757088393816717800,12.1657177734375,-4.165338641741871,-3.948619844616949,3.950946533998847
1757088393826763800,12.175763671875,-3.799990833377838,-3.7353146553277967,3.6297207759559154
1757088393836810000,12.18581005859375,-4.035690517565608,-3.1659958877310155,3.897241831818223
1757088393846857000,12.19585693359375,-4.5369443414568895,-2.48568956502527,4.304907271429896
1757088393856903000,12.20590283203125,-4.530692295324802,-2.124557036268711,4.6693753743499515
1757088393866950100,12.2159501953125,-3.9737265210837123,-1.7490078596249221,5.2951148250877855
1757088393876996000,12.22599609375,-3.5597260332316156,-1.2999459952637553,5.925471414232254
1757088393887041800,12.236041748046874,-3.335201823052764,-1.379561968292296,6.450465010151267
1757088393897089000,12.246089111328125,-2.908171173235774,-1.7398700289234519,6.624337475979328
1757088393907135000,12.256135009765625,-2.3708301369190217,-1.9159452654927969,5.881560960835218
1757088393917182000,12.266181884765626,-2.1262159093916413,-1.9396713012561202,3.6678818720459936
1757088393927228000,12.276227783203124,-2.0320850887984037,-1.8660729810819028,1.5068880792617796
1757088393937275000,12.28627490234375,-1.8832593859434126,-1.7772735846444963,0.47967386024594305
1757088393947320800,12.29632080078125,-2.031027104178071,-1.669020130674541,0.3518307396650314
1757088393957367000,12.306366943359375,-2.3537264419049024,-1.4474752285674213,0.9260551072210073
1757088393967414000,12.3164140625,-1.7653525529652834,-1.0778133563965557,1.7772183473259209
1757088393977460000,12.3264599609375,-1.07004739857018,-0.6772635940089822,2.40352595334053
1757088393987507000,12.3365068359375,-1.1130179407685994,-0.19312281748205423,2.7049644763737914
1757088393997553000,12.346552978515625,-0.9284288506150246,0.21035218470245598,2.8650492398679255
1757088394007599900,12.356599853515625,-0.8832365407139062,0.514243653845787,3.1936294523268938
1757088394017645800,12.366645751953126,-0.9929290875762701,1.1573115482643246,3.826324713551998
1757088394027691800,12.37669189453125,-0.17861176930963993,1.7860633325606583,4.724747132959962
1757088394037739000,12.386739013671875,1.1635761616170406,2.1859096228539943,5.054723183691501
1757088394047784700,12.39678466796875,2.906061049214005,2.7024486941605805,3.606234686428308
1757088394057832000,12.40683203125,3.3230326618313786,3.351928501448035,0.28695816226005555
1757088394067878000,12.4168779296875,2.56212661575675,4.059765220636129,-4.630041142827272
1757088394077924900,12.4269248046875,1.4300544304281473,5.393161942341924,-9.898707521450518
1757088394087971000,12.43697119140625,1.1921645427197218,6.797304517400264,-13.154693184447288
1757088394098017000,12.44701708984375,2.370140985611081,7.575204368373751,-14.379014029884338
1757088394108064000,12.45706396484375,2.579931152516603,7.089352696275711,-13.695230970978736
1757088394118110000,12.46710986328125,0.7004267351925373,4.683609066885709,-9.179645643892883
