time,seconds_elapsed,z,y,x
1757088381670619600,0.01961962890625,-9.794513572004437,-0.4209131167847663,0.24640856359824537
1757088381680666600,0.02966650390625,-9.793582428634165,-0.43490620549768205,0.2588070948624052
1757088381690712600,0.039712646484375,-9.792913735592364,-0.4462780788615346,0.2646897779591381
1757088381700758800,0.0497587890625,-9.79245897756219,-0.45778263869434593,0.26185632636519146
1757088381710805800,0.0598056640625,-9.792034030148386,-0.47260180296786125,0.25120728738317266
1757088381720851700,0.069851806640625,-9.791413852423428,-0.4939915412707254,0.23360355215873568
1757088381730898700,0.079898681640625,-9.790393861725926,-0.5237624101562425,0.21034971875073388
1757088381740944600,0.089944580078125,-9.78880045505464,-0.5619860500885173,0.18423360951310022
1757088381750990600,0.099990478515625,-9.786526664903759,-0.6074669676726684,0.15894755789143963
1757088381761037600,0.11003759765625,-9.783602301889657,-0.6575569499548525,0.13830518562346697
1757088381771083500,0.12008349609375,-9.780207983276247,-0.7091031589273363,0.122841878227517
1757088381781129500,0.13012939453125,-9.776559982162713,-0.7593472723253071,0.11249497313038445
1757088381791176400,0.140176513671875,-9.772865803819894,-0.8063035962242633,0.10653353484217076
1757088381801222700,0.15022265625,-9.769327692821621,-0.8483211485467851,0.10476325550032779
1757088381811270000,0.160269775390625,-9.766177119836211,-0.8837298041235655,0.10579483617092482
1757088381821315800,0.17031591796875,-9.763611068740486,-0.9112892075046897,0.10879129630685783
1757088381831361800,0.18036181640625,-9.761756380784512,-0.9302932562474161,0.11422112106955609
1757088381841408800,0.19040869140625,-9.760568632304668,-0.9415718983698635,0.12298529615304432
1757088381851454700,0.200454833984375,-9.75978011227548,-0.9476871663797646,0.13772603402864186
1757088381861500700,0.210500732421875,-9.758955351889133,-0.9525858251415192,0.16046811852222306
1757088381871547600,0.220547607421875,-9.757668819209933,-0.96033125163652,0.18986052775047718
1757088381881593600,0.230593505859375,-9.75549147517085,-0.9746960962712764,0.22525367523087186
1757088381891640600,0.240640625,-9.752214645457267,-0.9971485319022089,0.2652991785617545
1757088381901686800,0.250686767578125,-9.74799556645751,-1.0269430739242582,0.30390378063563256
1757088381911732700,0.260732666015625,-9.74295698776841,-1.0614472549419849,0.3442474814618006
1757088381921779700,0.27077978515625,-9.73682009244859,-1.0992388601325451,0.3954610244138166
1757088381931825700,0.28082568359375,-9.729450440463424,-1.1405755905840544,0.4552679159270599
1757088381941871600,0.29087158203125,-9.719861358863115,-1.189074248554185,0.5298933506593108
1757088381951918600,0.300918701171875,-9.707080787745118,-1.2469373125232754,0.6229872294202446
1757088381961964500,0.310964599609375,-9.690952075242995,-1.3150884732075034,0.7255174834378063
1757088381972011500,0.321011474609375,-9.671312724271417,-1.3963472450070082,0.8284366637077182
1757088381982057500,0.331057373046875,-9.64774947785437,-1.4931056376248597,0.9284102189797907
1757088381992103700,0.341103759765625,-9.620622985997796,-1.6053567829288542,1.0182472879018634
1757088382002150700,0.351150634765625,-9.590898878863454,-1.7326758796356618,1.0876001525260508
1757088382012196900,0.36119677734375,-9.559792961981891,-1.8677189947232602,1.136826247987896
1757088382022242800,0.371242919921875,-9.53441185248792,-1.9782709348939358,1.1626769477549939
1757088382032289800,0.381289794921875,-9.520193357521295,-2.03885297549814,1.174470407531783
1757088382042335700,0.391335693359375,-9.515481526568532,-2.055887404668331,1.1829301928412168
1757088382052382700,0.4013828125,-9.51626595494449,-2.0440528822287916,1.1970453004986048
1757088382062428700,0.4114287109375,-9.520418982970714,-2.0107484323896467,1.2202049345508217
1757088382072474600,0.421474609375,-9.525566282731294,-1.9665392883069812,1.2516751547001301
1757088382082521600,0.431521484375,-9.529104978251457,-1.9262978788115084,1.2868256707973778
1757088382092567800,0.44156787109375,-9.53342751762569,-1.892940968132764,1.3041919622704385
1757088382102613800,0.45161376953125,-9.542985619565844,-1.8629019498303532,1.2772658152915537
1757088382112660700,0.46166064453125,-9.560447626498341,-1.8373184496320782,1.180035348182544
1757088382122706700,0.471706787109375,-9.58469651709199,-1.8225570799604056,0.9910900355808436
1757088382132753700,0.481753662109375,-9.60918097000718,-1.8284968452729284,0.7004468281324953
1757088382142799600,0.491799560546875,-9.6227594135046,-1.8654279611766338,0.3050633807332255
1757088382152845600,0.501845458984375,-9.610553427404165,-1.9412258372217415,-0.1982046507909894
1757088382162892500,0.511892578125,-9.555341243270039,-2.0581170634165407,-0.7937178170260042
1757088382172938500,0.5219384765625,-9.455160036596656,-2.1909189754486085,-1.4036403246246278
1757088382182984700,0.531984619140625,-9.356091175079346,-2.2845542676098645,-1.8479045794457196
1757088382193031700,0.54203173828125,-9.275874898070096,-2.3574729349568484,-2.1379558854155243
1757088382203077600,0.55207763671875,-9.22157749069333,-2.408115180826932,-2.3095184668660163
1757088382213124900,0.562124755859375,-9.189316558557747,-2.4269470148079098,-2.4159406137555837
1757088382223170800,0.5721708984375,-9.166835262158513,-2.41231497060433,-2.514011988668144
1757088382233216800,0.582216796875,-9.13830708681047,-2.373326045387983,-2.65123580879569
1757088382243263700,0.592263671875,-9.092228057202696,-2.3241966882988807,-2.8460291898384686
1757088382253309700,0.602309814453125,-9.028096653553844,-2.2771945524968205,-3.0786744548916816
1757088382263355600,0.612355712890625,-8.958342733848095,-2.2467219650827346,-3.297076675058901
1757088382273402600,0.622402587890625,-8.872249089238046,-2.247175846330076,-3.5219001604452727
1757088382283448600,0.632448486328125,-8.769123645806312,-2.28338273961246,-3.749536365164816
1757088382293495600,0.64249560546875,-8.639167478594183,-2.3540641494266685,-3.999194139817357
1757088382303541800,0.652541748046875,-8.469081545567512,-2.4488737460643053,-4.295120621430874
1757088382313587700,0.662587646484375,-8.246015132981539,-2.5410940568611022,-4.660091705437004
1757088382323634700,0.672634765625,-7.97787916009128,-2.6334371172547337,-5.058541280674934
1757088382333680600,0.6826806640625,-7.662138555461167,-2.742154389344156,-5.47198413464427
1757088382343726600,0.6927265625,-7.287823596787452,-2.8754890930786727,-5.898268934530019
1757088382353773600,0.702773681640625,-6.853779268816113,-3.02876066942662,-6.326349970182776
1757088382363819500,0.712819580078125,-6.36173984799385,-3.189212512667477,-6.747412651506066
1757088382373865700,0.72286572265625,-5.816305521592498,-3.342234205907583,-7.153352582499385
1757088382383912400,0.732912353515625,-5.225529247686267,-3.4730116263747215,-7.536737567335367
1757088382393958700,0.742958740234375,-4.598702001711726,-3.5711271326899525,-7.891094610607624
1757088382404006000,0.753005859375,-3.943376098744571,-3.6276147435873747,-8.213439728069305
1757088382414051800,0.7630517578125,-3.266863615363836,-3.6325735350385306,-8.503081430324912
1757088382424097800,0.773097900390625,-2.5778277504965663,-3.578015723159909,-8.759165730893612
1757088382434144800,0.783144775390625,-1.8899824105881153,-3.4590330776438116,-8.97961231637001
1757088382444190700,0.793190673828125,-1.2295637145265936,-3.272261090493202,-9.162470637208223
1757088382454236700,0.803236572265625,-0.6325084334161132,-3.017238866198063,-9.309488998380303
1757088382464283600,0.81328369140625,-0.13099643351268023,-2.695955532748997,-9.427887414267659
1757088382474329600,0.82332958984375,0.2582018407119438,-2.3146606520600614,-9.526073063209653
1757088382484376600,0.83337646484375,0.5306192172484472,-1.886474986989051,-9.608852468705177
1757088382494422800,0.8434228515625,0.6866960237428545,-1.4321375203125177,-9.67718015500009
1757088382504468700,0.85346875,0.7440872324164957,-0.9750204328548162,-9.729649177905916
1757088382514515700,0.863515625,0.7292622959893197,-0.527684004046768,-9.765249483597279
1757088382524561700,0.873561767578125,0.6642582011591642,-0.09121170914298854,-9.783702255132793
1757088382534607600,0.883607666015625,0.5664638896223158,0.33849421516470607,-9.784422386100887
1757088382544654600,0.893654541015625,0.45335148784648627,0.7630963226605206,-9.766398069110512
1757088382554700500,0.903700439453125,0.3545559268452227,1.1818271269701421,-9.728718619057535
1757088382564747500,0.91374755859375,0.2991872735077515,1.5967667953684925,-9.671152565273642
1757088382574793500,0.92379345703125,0.2944478056293912,2.0007396640725434,-9.595870237535237
1757088382584839700,0.933839599609375,0.3179089616451412,2.384058159543574,-9.507133384940028
1757088382594886700,0.94388671875,0.33829208018872886,2.74683670194149,-9.408019515237212
1757088382604932900,0.953932861328125,0.33851485609393567,3.0947683883413672,-9.29936741733849
1757088382614979800,0.963979736328125,0.3150002711242065,3.4359327725633975,-9.179624601104855
1757088382625025800,0.97402587890625,0.2625500990493223,3.7775349636808038,-9.046085314708948
1757088382635071700,0.98407177734375,0.1863069634547457,4.114753532886505,-8.899689469349385
1757088382645118700,0.99411865234375,0.10171451718788593,4.438535697413981,-8.744107862493395
1757088382655164700,1.00416455078125,0.026202972387045154,4.744082532548904,-8.582736566320062
1757088382665210600,1.014210693359375,-0.028867981212062292,5.023675134477019,-8.422128071212768
1757088382675257600,1.024257568359375,-0.06413084652642718,5.268593313387036,-8.270924533310533
1757088382685303800,1.0343037109375,-0.09050782605679705,5.480484251964092,-8.131819429481029
1757088382695350500,1.0443505859375,-0.12190704506281763,5.66732316687107,-8.002309836992621
1757088382705396700,1.054396728515625,-0.16808069415148347,5.833997245627641,-7.880775461167096
1757088382715442700,1.064442626953125,-0.23459395143557338,5.9808478490173815,-7.768191869038343
1757088382725489700,1.07448974609375,-0.32173703203331677,6.1108887719035145,-7.6631532854616635
1757088382735535600,1.08453564453125,-0.4233537148699164,6.2250412207841865,-7.56571348645091
1757088382745581600,1.09458154296875,-0.5347660712622105,6.3207748003989455,-7.4787845600605
1757088382755628500,1.104628662109375,-0.6551012273658067,6.389813849833607,-7.410231248316168
1757088382765674500,1.114674560546875,-0.7842357029315083,6.421881889745593,-7.369857736873627
1757088382775721700,1.1247216796875,-0.8823999437592923,6.439703377640247,-7.343158530518412
1757088382785767700,1.134767578125,-0.9451766448635608,6.45187604599297,-7.3246373699218035
1757088382795813600,1.144813720703125,-1.0013816394273192,6.468409832164645,-7.302554132929444
1757088382805860900,1.15486083984375,-1.0832600774951278,6.4948658774137495,-7.267301033240556
1757088382815906800,1.16490673828125,-1.218225085845217,6.530300763410329,-7.213979777419567
1757088382825952800,1.174952880859375,-1.4073098069176078,6.572699643200636,-7.1406935919344425
1757088382835999700,1.184999755859375,-1.6330096367470919,6.612048487770557,-7.0558122457236045
1757088382846045700,1.195045654296875,-1.8578252310879528,6.6379264408707614,-6.975443993023037
1757088382856092700,1.2050927734375,-2.0561808346569537,6.656109747815131,-6.902081235170364
1757088382866138600,1.215138671875,-2.227241896326095,6.680574911507963,-6.824931944516301
1757088382876184600,1.2251845703125,-2.3688380863189695,6.717065444037318,-6.740921535921096
1757088382886231600,1.2352314453125,-2.4715175395488735,6.761568018108606,-6.659066844055056
1757088382896277800,1.24527783203125,-2.5360101777255535,6.8097776300042865,-6.585283230441808
1757088382906324700,1.25532470703125,-2.568433314685523,6.86100162128508,-6.519217059338092
1757088382916370700,1.26537060546875,-2.5800495181992646,6.908688670611381,-6.46403527034223
1757088382926416600,1.275416748046875,-2.5595029892548915,6.942843453669548,-6.435545673438907
1757088382936463600,1.285463623046875,-2.5469562268927692,6.96546152819097,-6.416054206505417
1757088382946509600,1.295509521484375,-2.544889649751782,6.989056923311948,-6.391167018008232
1757088382956555500,1.305555419921875,-2.538307056491077,7.0120981916815035,-6.368506857910752
1757088382966602500,1.3156025390625,-2.5210449560448525,7.040451594984531,-6.344033510911465
1757088382976648400,1.3256484375,-2.5141037586048243,7.075083932426572,-6.30815847993195
1757088382986695700,1.33569580078125,-2.5194389821529386,7.107075984492898,-6.269950622090697
1757088382996742000,1.345741943359375,-2.5463047772467133,7.125532847681641,-6.238069044661522
1757088383006787800,1.355787841796875,-2.5842314800590276,7.131585571849346,-6.215514683026075
1757088383016834800,1.365834716796875,-2.626483644855022,7.124535653337836,-6.2058811777621505
1757088383026880800,1.375880859375,-2.6753110963881013,7.1076114065438505,-6.204430394431948
1757088383036926700,1.3859267578125,-2.7141853091835975,7.090615263557433,-6.206992353874445
1757088383046973700,1.3959736328125,-2.717757322451472,7.079113041812181,-6.218548936155438
1757088383057019600,1.40601953125,-2.677098856587708,7.066412550193071,-6.250547417962551
1757088383067066600,1.416066650390625,-2.6072902840852734,7.038842990744113,-6.310872415065765
1757088383077112600,1.426112548828125,-2.5238553372904655,6.989748412707447,-6.398745928829908
1757088383087158800,1.43615869140625,-2.427074732840806,6.922220936879516,-6.508651241660118
1757088383097205800,1.446205810546875,-2.316976966178417,6.838655349442362,-6.635873015472293
1757088383107251700,1.456251708984375,-2.197086704298109,6.752156631162762,-6.7639902768194675
1757088383117298700,1.466298583984375,-2.064895179249346,6.67338353869915,-6.882770970022678
1757088383127344600,1.4763447265625,-1.9171315526679158,6.590730389931798,-7.004087319183349
1757088383137390600,1.486390625,-1.7589397633135317,6.497789071384072,-7.131288050207496
1757088383147437600,1.4964375,-1.5958109559483826,6.396358741432428,-7.260190324452519
1757088383157483500,1.5064833984375,-1.4199803417898713,6.285964183780551,-7.391933375081419
1757088383167529500,1.516529541015625,-1.22303372823596,6.171392632704973,-7.522531931850314
1757088383177576700,1.52657666015625,-1.0109422255855054,6.058717270639538,-7.6446274486899375
1757088383187623000,1.536622802734375,-0.7979887723434717,5.949964050453901,-7.75445209749937
1757088383197669600,1.546669677734375,-0.59290528529156,5.837859766274691,-7.857370035660266
1757088383207715800,1.5567158203125,-0.40301078220624476,5.722413770452142,-7.953740159612893
1757088383217761800,1.56676171875,-0.24116562144346534,5.629603969329596,-8.026192232361435
1757088383227808800,1.576808837890625,-0.1367204006500542,5.559522132843733,-8.077337897709011
1757088383237854700,1.586854736328125,-0.09594811741458252,5.479041067418455,-8.13272894554138
1757088383247900700,1.596900634765625,-0.08847569917468354,5.405895751708746,-8.181617187350987
1757088383257947600,1.60694775390625,-0.11878576210397294,5.341641598463058,-8.223329838442801
1757088383267993600,1.61699365234375,-0.1548026583727449,5.286818705907463,-8.258086094525456
1757088383278040600,1.62704052734375,-0.17292015180559828,5.241467406052351,-8.286586212822794
1757088383288087600,1.637087646484375,-0.16781073636999352,5.2040217647552485,-8.31025993387699
1757088383298133500,1.647133544921875,-0.1440520495792385,5.173944606399536,-8.329461477953195
1757088383308180700,1.6571806640625,-0.10776925978274084,5.157705419260263,-8.340074641904234
1757088383318226700,1.667226806640625,-0.06751275774941314,5.152089917466044,-8.343967557689547
1757088383328273000,1.67727294921875,-0.03031369564150227,5.150668360230326,-8.345064705276489
1757088383338320000,1.68731982421875,0.008207428258360596,5.145625689888,-8.348225215134024
1757088383348365800,1.69736572265625,0.06035065670085605,5.13175030927062,-8.356547053277492
1757088383358412800,1.707412841796875,0.1274808722729329,5.107269948008656,-8.370777238681912
1757088383368458800,1.717458740234375,0.20010683115050196,5.076829801559448,-8.387857552820444
1757088383378504700,1.727504638671875,0.2560180669320747,5.046926246204972,-8.404366789072752
1757088383388551700,1.7375517578125,0.28298533137263726,5.023056125795841,-8.417790918791294
1757088383398597600,1.74759765625,0.2781236984193325,5.0103655710488555,-8.425513621997833
1757088383408644600,1.75764453125,0.24276532999137415,5.012731715658306,-8.425199149221182
1757088383418690600,1.767690673828125,0.18631147523308172,5.028926479133963,-8.416981355974078
1757088383428736800,1.77773681640625,0.11775082043251021,5.055404151692986,-8.402344927856326
1757088383438783700,1.78778369140625,0.0445889874128392,5.090200739786028,-8.382020517230034
1757088383448829700,1.79782958984375,-0.029498027310485484,5.127378670057654,-8.359397182011604
1757088383458875600,1.807875732421875,-0.09964619561438448,5.161882997205853,-8.337590423873067
1757088383468922600,1.817922607421875,-0.16027869689734653,5.192047833845019,-8.317892036190628
1757088383478968600,1.827968505859375,-0.2113915924864821,5.215783514219522,-8.301884319719672
1757088383489015800,1.838015869140625,-0.24897817662423474,5.230405913811921,-8.291637066471576
1757088383499061800,1.848061767578125,-0.27441211228398604,5.235245170536637,-8.287779806521534
1757088383509107700,1.858107666015625,-0.29770465200087054,5.229061513465642,-8.290880110624432
1757088383519154700,1.86815478515625,-0.32635340325497086,5.207168246087432,-8.303571249893308
1757088383529201000,1.878200927734375,-0.36600649146847425,5.15911002536118,-8.331867954573035
1757088383539246800,1.888246826171875,-0.4261047306111082,5.069283623963594,-8.3839833417356
1757088383549293800,1.8982939453125,-0.5116324484340846,4.9378147141009565,-8.457339669847489
1757088383559339800,1.90833984375,-0.6208482446301729,4.783479015652835,-8.538340959754585
1757088383569386800,1.91838671875,-0.7417845814973115,4.626584280371666,-8.614805775275826
1757088383579432700,1.9284326171875,-0.8601197228901087,4.475840176674724,-8.683168532884121
1757088383589478700,1.938478759765625,-0.959467985870689,4.340151018768549,-8.741445949807762
1757088383599525600,1.948525634765625,-1.0071826538562774,4.233149318425357,-8.788423974081873
1757088383609571600,1.958571533203125,-0.9810325327511876,4.20181193087548,-8.806403282886743
1757088383619618600,1.96861865234375,-0.8829480791613459,4.237929246178269,-8.799474360406398
1757088383629664800,1.978664794921875,-0.731356784050539,4.279185677935183,-8.793411114844679
1757088383639710700,1.988710693359375,-0.5611921597644687,4.296761958897114,-8.79734553168416
1757088383649757700,1.9987578125,-0.4200867489632219,4.285506989911198,-8.810694842600823
1757088383659803600,2.0088037109375,-0.331992505120486,4.246910132752359,-8.83311417967975
1757088383669849600,2.018849609375,-0.28915335248308255,4.187688128454983,-8.86284471655488
1757088383679896800,2.028896728515625,-0.2695080466947518,4.121103486435115,-8.894618157434463
1757088383689942500,2.038942626953125,-0.25600770993484184,4.058815664826334,-8.923612196728586
1757088383699989800,2.04898974609375,-0.2512978882760741,4.005322559569776,-8.947882714632152
1757088383710035700,2.05903564453125,-0.26198731406740844,3.967061510236561,-8.964607054939865
1757088383720082000,2.06908203125,-0.27893053955649955,3.934896439690888,-8.978262070804833
1757088383730128600,2.079128662109375,-0.2829135265117511,3.898691153843701,-8.99391848962009
1757088383740174800,2.0891748046875,-0.2699492693899199,3.865243934533,-9.008739626654982
1757088383750220800,2.099220703125,-0.23425180520070715,3.8346608724817632,-9.022797962623834
1757088383760267800,2.109267822265625,-0.18690741356592624,3.8067540439024565,-9.03571005116701
1757088383770313700,2.119313720703125,-0.147335117237363,3.7841181414633986,-9.045945029455423
1757088383780360700,2.129360595703125,-0.1280702164682094,3.7575685727119446,-9.057299367162585
1757088383790406700,2.13940673828125,-0.1253480340958573,3.7204672148078677,-9.07264014415741
1757088383800452600,2.14945263671875,-0.13428827813230454,3.6769182881996034,-9.090249450606107
1757088383810499600,2.15949951171875,-0.14419543097214774,3.627233343054354,-9.110036101093888
1757088383820545800,2.1695458984375,-0.16294367832290008,3.5670404478982087,-9.133457308691739
1757088383830592500,2.179592529296875,-0.21238124284464865,3.49035906701684,-9.162022308918834
1757088383840638700,2.189638671875,-0.2861648929905146,3.403054000790417,-9.192809076848626
1757088383850684700,2.1996845703125,-0.33114341401048003,3.3090143656119704,-9.225572113287448
1757088383860731600,2.209731689453125,-0.2915293608994223,3.220911427006125,-9.258029444777964
1757088383870777600,2.219777587890625,-0.175351945529785,3.1873440884470936,-9.27256650417447
1757088383880823600,2.229823486328125,-0.027771708124666474,3.248295985276997,-9.253010155311227
1757088383890870800,2.239870849609375,0.12225461639147252,3.386877065232396,-9.202418032193183
1757088383900916700,2.249916748046875,0.2571191600417718,3.5878099719434973,-9.123151603254675
1757088383910963700,2.259963623046875,0.37083873393051325,3.8231907994404435,-9.02308554739356
1757088383921009700,2.270009765625,0.45469146774597463,4.094042461030185,-8.899575487580895
1757088383931055900,2.280055908203125,0.5161195672528818,4.3985210824117065,-8.749686539408565
1757088383941102800,2.290102783203125,0.5611973108636215,4.7019732833549375,-8.587599788442253
1757088383951148800,2.300148681640625,0.5594615731121972,4.978009361845254,-8.430705345422028
1757088383961194800,2.31019482421875,0.47834056581556794,5.234177833566069,-8.279186165699363
1757088383971241700,2.32024169921875,0.366287463834323,5.457326663738489,-8.139644424018263
1757088383981287700,2.33028759765625,0.2535208432888612,5.62731907326281,-8.02741563667655
1757088383991334700,2.340334716796875,0.1581004212765023,5.734779915550351,-7.953470695021748
1757088384001380600,2.350380615234375,0.0474990981393028,5.809535589066147,-7.900469757196307
1757088384011426600,2.360426513671875,-0.08876883690236136,5.874565987381339,-7.8518761144191025
1757088384021473500,2.3704736328125,-0.2287576282312162,5.930804591953754,-7.806640549898147
1757088384031519700,2.380519775390625,-0.3362051178468391,5.978822480669617,-7.766019201174378
1757088384041565700,2.390565673828125,-0.38737668482065196,6.026333588907122,-7.72681297994554
1757088384051612700,2.40061279296875,-0.38055816391222175,6.074606329166889,-7.689260955664515
1757088384061658600,2.41065869140625,-0.3343268663521856,6.121052438521385,-7.654498269841074
1757088384071705900,2.420705810546875,-0.2671927554897032,6.160536892169714,-7.625401939216256
1757088384081751800,2.430751708984375,-0.21088894019396975,6.187135560759901,-7.605608274465799
1757088384091797800,2.4407978515625,-0.17781338547356426,6.196703015050292,-7.598661231806874
1757088384101844700,2.4508447265625,-0.17109058002457023,6.1837950181603425,-7.609323495596647
1757088384111890700,2.460890625,-0.19146292144581675,6.149861184376478,-7.636290997499227
1757088384121937000,2.47093701171875,-0.2300121766032651,6.098366559460759,-7.676419009748101
1757088384131984000,2.48098388671875,-0.27211621989915147,6.034717970892786,-7.725186255526542
1757088384142029800,2.49102978515625,-0.3163016725789755,5.963025776600837,-7.778988572862744
1757088384152076800,2.501076904296875,-0.3755782200751826,5.876811135959625,-7.841709525191783
1757088384162122800,2.511122802734375,-0.436869870253466,5.780782372790575,-7.90962044737935
1757088384172168700,2.521168701171875,-0.45334290268123145,5.720413536545634,-7.952467070937156
1757088384182215700,2.531215576171875,-0.3102213662846014,5.751517115339636,-7.936888978055119
1757088384192261600,2.54126171875,-0.14619456890011207,5.847513729804754,-7.871188133132457
1757088384202307600,2.5513076171875,-0.06122943056307267,5.978754091608524,-7.77310302195549
1757088384212354600,2.5613544921875,-0.028398397788801228,6.14590338666141,-7.6418234971851104
1757088384222400800,2.57140087890625,-0.012771424263739027,6.348997270798683,-7.473983881780505
1757088384232447700,2.58144775390625,0.002910238019804819,6.587085895949602,-7.265030165699124
1757088384242493700,2.59149365234375,0.015084810064424527,6.855789439594745,-7.012009928876161
1757088384252539600,2.60153955078125,0.016178134284552653,7.138613863050937,-6.723861095526814
1757088384262587000,2.6115869140625,-0.00023174364617470927,7.403557761901617,-6.430998093137145
1757088384272632600,2.621632568359375,-0.036485975085245446,7.6748267721205945,-6.104595809239148
1757088384282679000,2.631678955078125,-0.08688342501455917,7.982998402801155,-5.695136471948027
1757088384292725000,2.64172509765625,-0.16684254892496392,8.307695051825046,-5.20814205955565
1757088384302771200,2.651771240234375,-0.2932817575247027,8.62563345876038,-4.6564819905072445
1757088384312818200,2.661818115234375,-0.4274664108857512,8.885790123334527,-4.1267894231170414
1757088384322864000,2.671864013671875,-0.491210166923888,9.023204205337166,-3.8093180491715666
1757088384332910000,2.68191015625,-0.5810448977584018,9.040602499383688,-3.755032624493539
1757088384342957300,2.691957275390625,-0.7136643293630331,8.98912190299332,-3.854443139055371
1757088384353003300,2.702003173828125,-0.8339520661283284,8.930714722210169,-3.964497797228396
1757088384363050200,2.71205029296875,-0.9312318522717803,8.894938475430012,-4.022842726430297
1757088384373096200,2.72209619140625,-0.9927888753879814,8.879658488711714,-4.041832089060545
1757088384383142100,2.73214208984375,-1.0146017710063606,8.872985586819052,-4.051060520654916
1757088384393189000,2.742189208984375,-1.0059843839824198,8.8665388948977,-4.067295908401906
1757088384403235000,2.752235107421875,-0.9842779444131999,8.855583785641192,-4.096369442673027
1757088384413281300,2.76228125,-0.965700669715181,8.838972842580079,-4.1364661830008025
1757088384423328300,2.772328369140625,-0.9549098111096769,8.830183386924862,-4.157689880554377
1757088384433374200,2.782374267578125,-0.9268694192785769,8.858619792336224,-4.103186721472442
1757088384443421200,2.792421142578125,-0.9168163003630936,8.895914042463898,-4.023995111335814
1757088384453467100,2.802467041015625,-0.9068271865945309,8.934370906630157,-3.940183147922158
1757088384463513000,2.81251318359375,-0.8803841469574719,8.974564385330677,-3.8538933962181208
1757088384473560000,2.82256005859375,-0.8404743805691599,9.01044116987586,-3.7783486181512473
1757088384483606000,2.83260595703125,-0.7943756964128464,9.03630509445071,-3.7261949448049068
1757088384493652200,2.84265234375,-0.7563173300448804,9.047996116766333,-3.705690501436591
1757088384503699000,2.852698974609375,-0.7394882872536778,9.038611617827415,-3.731898709404468
1757088384513745200,2.8627451171875,-0.7676551550086588,9.008619215145707,-3.7981419906407594
1757088384523792400,2.87279248046875,-0.8431250412084161,8.963582388067245,-3.887634922300279
1757088384533838300,2.88283837890625,-0.952570116115734,8.903143409195541,-3.9996290241032835
1757088384543884300,2.89288427734375,-1.0648959340911357,8.829382007414102,-4.132598986178636
1757088384553931300,2.90293115234375,-1.1014468185056001,8.758834306982159,-4.270834321436285
1757088384563977200,2.912977294921875,-1.0837205346137284,8.716465237808228,-4.361099991033971
1757088384574024200,2.923024169921875,-1.1064349091164767,8.706011063811182,-4.376251675197482
1757088384584070100,2.933070068359375,-1.1232741079755126,8.70903830267787,-4.365924926972389
1757088384594116000,2.9431162109375,-1.1397384821727872,8.724528717276453,-4.330584441260993
1757088384604163000,2.9531630859375,-1.14557990167737,8.752769307854772,-4.271659958605468
1757088384614209300,2.963209228515625,-1.1167721056703477,8.7834859331578,-4.215872897192836
1757088384624255200,2.973255126953125,-1.0507260275065897,8.802935899037122,-4.192214958229661
1757088384634302200,2.98330224609375,-0.979291826563701,8.802447823259234,-4.2104973416343325
1757088384644348200,2.99334814453125,-0.9440007329519837,8.787744759646058,-4.24909039940089
1757088384654395100,3.00339501953125,-0.9640434770926832,8.777215766847133,-4.266318305316567
1757088384664441000,3.013441162109375,-1.02121205599159,8.776648780614137,-4.254166679751873
1757088384674487000,3.023487060546875,-1.088440329677239,8.786108682876824,-4.217815263432264
1757088384684534000,3.033533935546875,-1.1620979788232595,8.805019135051966,-4.158308889235556
1757088384694580000,3.043580078125,-1.2403604183509944,8.838137560799717,-4.064382943564653
1757088384704626200,3.053626220703125,-1.300997404012829,8.88099178314209,-3.950414326818287
1757088384714673400,3.06367333984375,-1.336336574549973,8.92793298253715,-3.8310061493664977
1757088384724719400,3.07371923828125,-1.3527357745565474,8.971632423532009,-3.7215994337081906
1757088384734766300,3.083766357421875,-1.357263627244532,9.006102848410606,-3.6356983890607952
1757088384744812300,3.093812255859375,-1.3592100851371884,9.033511079818009,-3.5663153484940526
1757088384754858200,3.103858154296875,-1.3598873998768626,9.055492025479674,-3.5098642702147362
1757088384764905200,3.1139052734375,-1.3706947712257505,9.074963034147023,-3.4549428857207296
1757088384774951200,3.123951171875,-1.398005533608049,9.104149965664744,-3.366071300829947
1757088384784997000,3.1339970703125,-1.4131534183792769,9.142274236875773,-3.2545705355018377
1757088384795044000,3.144044189453125,-1.4425952014409005,9.173044638192653,-3.153501147817075
1757088384805090300,3.15409033203125,-1.4954146452195942,9.189301360988617,-3.080725249941647
1757088384815137000,3.164136962890625,-1.5621502400174736,9.192313402286171,-3.0383263701513408
1757088384825183200,3.174183349609375,-1.631960566085577,9.184359812933206,-3.0256618266284465
1757088384835229200,3.184229248046875,-1.692727023345977,9.170041364723444,-3.0356884228631853
1757088384845276200,3.194276123046875,-1.7411041007630526,9.153433344271779,-3.0583678721830245
1757088384855322000,3.204322021484375,-1.7848378824189304,9.136129158249497,-3.084783293160796
1757088384865368000,3.2143681640625,-1.8268140067525207,9.121429017245768,-3.1036548746302723
1757088384875415000,3.2244150390625,-1.8571878099672494,9.113136405196785,-3.10998115504235
1757088384885461000,3.2344609375,-1.8694127930290996,9.111107529717684,-3.1085999298170206
1757088384895508200,3.24450830078125,-1.865678282675892,9.112671125772595,-3.1062600886926055
1757088384905554200,3.25455419921875,-1.85246355792433,9.11480638423562,-3.107905225551128
1757088384915600100,3.26460009765625,-1.8373941452167928,9.115023241856694,-3.116205144123733
1757088384925647400,3.2746474609375,-1.8250475816018878,9.111250737580656,-3.1344404735162854
1757088384935693300,3.284693359375,-1.8153601541936397,9.103351508763431,-3.1628871080607173
1757088384945740300,3.294740234375,-1.8040674835458397,9.09276114116609,-3.199596251776814
1757088384955786200,3.3047861328125,-1.7859617718823253,9.080803576868773,-3.2434102590620517
1757088384965832200,3.314832275390625,-1.7561868113435803,9.069154055607319,-3.291906871205568
1757088384975879200,3.324879150390625,-1.7122577993765473,9.058812109813093,-3.343124140484631
1757088384985925000,3.334925048828125,-1.6494031376652418,9.05106134955585,-3.3953117161005735
1757088384995971300,3.344971435546875,-1.564869581978768,9.045978931725024,-3.4484520623967048
1757088385006018000,3.35501806640625,-1.4583648713722823,9.042176616832613,-3.5046515040025112
1757088385016064300,3.365064208984375,-1.325820879624039,9.038160951450466,-3.567100069130957
1757088385026110200,3.375110107421875,-1.1717978273216634,9.033758917099236,-3.631592999568581
1757088385036157200,3.3851572265625,-1.004417938383296,9.026908905074,-3.69816741245538
1757088385046203100,3.395203125,-0.8383119418382644,9.014503597009181,-3.769131876994669
1757088385056250000,3.40525,-0.6900836934197694,8.997252017956972,-3.8397424135297533
1757088385066296000,3.415296142578125,-0.5711317353028804,8.982907266262172,-3.8924996057271954
1757088385076342000,3.425342041015625,-0.5010045618379488,8.977062631887197,-3.9155721460178494
1757088385086389000,3.435388916015625,-0.48968069233428685,8.97994841645658,-3.910389190421998
1757088385096435000,3.44543505859375,-0.5164273180278017,8.983307663756609,-3.8992178080663082
1757088385106482200,3.455482177734375,-0.5539925671165808,8.98112388997674,-3.899089797772467
1757088385116528400,3.4655283203125,-0.5875517223691568,8.972831862449645,-3.913241657243669
1757088385126574300,3.47557421875,-0.6116732237234711,8.95971168411374,-3.9395203000992534
1757088385136621300,3.485621337890625,-0.6266460441887378,8.943247456046938,-3.9744218098714947
1757088385146667300,3.495667236328125,-0.635983781376481,8.924994006475806,-4.013775915138424
1757088385156713200,3.505713134765625,-0.6440718838293105,8.90529152714014,-4.056024865064025
1757088385166760200,3.51576025390625,-0.6500960394896567,8.884911586934328,-4.099523815050721
1757088385176806100,3.52580615234375,-0.6557504850547761,8.868378385284542,-4.134275687219202
1757088385186853000,3.53585302734375,-0.6616244185894727,8.857713198885321,-4.156147911809384
1757088385196899000,3.545899169921875,-0.6623379006210715,8.85219355868101,-4.1677784361094234
1757088385206945300,3.5559453125,-0.6545791031878441,8.848536205217242,-4.176759614944458
1757088385216992300,3.5659921875,-0.6412475471235811,8.845296200382709,-4.185681172546744
1757088385227038200,3.5760380859375,-0.6277450184065848,8.842726057633756,-4.193153408123552
1757088385237085200,3.586085205078125,-0.6177178376499564,8.840627624049782,-4.199061463123559
1757088385247131100,3.596131103515625,-0.6129297265905886,8.83869344111681,-4.203833207570016
1757088385257177000,3.606177001953125,-0.612404460607469,8.837129260540008,-4.207196838784218
1757088385267224000,3.61622412109375,-0.613252528804168,8.835649835637211,-4.210177315899729
1757088385277270000,3.62627001953125,-0.613406038865447,8.833710392007232,-4.21422279189825
1757088385287315500,3.6363154296875,-0.6124082965323702,8.831228512063621,-4.219567075535655
1757088385297362700,3.64636279296875,-0.6104708256637678,8.828366108369826,-4.225834319236874
1757088385307408600,3.65640869140625,-0.6079609252020717,8.825396152648329,-4.232393531621993
1757088385317455600,3.66645556640625,-0.6055547043105587,8.822677541339397,-4.238400078560412
1757088385327501600,3.67650146484375,-0.6033853609148413,8.820004522737861,-4.244268678332865
1757088385337547500,3.686547607421875,-0.6015223435219377,8.81715088687241,-4.250458472883701
1757088385347594500,3.696594482421875,-0.6002785540059209,8.814239383339881,-4.256666387613118
1757088385357640400,3.706640380859375,-0.600043283945322,8.811372887992858,-4.262635232889652
1757088385367687400,3.7166875,-0.6005582111975177,8.808728510963917,-4.268023940190672
1757088385377733400,3.7267333984375,-0.6014228652028366,8.806254814326763,-4.273002605386078
1757088385387779600,3.736779541015625,-0.6022534342754632,8.803770011773706,-4.278001728847623
1757088385397826600,3.74682666015625,-0.6031413595585152,8.801341907843947,-4.282871672971546
1757088385407872500,3.75687255859375,-0.6038081529041752,8.799018433332442,-4.287547263567149
1757088385417918500,3.76691845703125,-0.6042472749738023,8.796655211332439,-4.292331575234234
1757088385427965400,3.77696533203125,-0.6045388783315196,8.794256918019055,-4.297204149706661
1757088385438011400,3.787011474609375,-0.6045080813344568,8.791977867171168,-4.301870680212974
1757088385448058400,3.797058349609375,-0.6043071154022589,8.78986832767129,-4.3062060790687795
1757088385458104300,3.807104248046875,-0.6039044528855011,8.787973307704926,-4.310129389992356
1757088385468150300,3.817150390625,-0.6034162309771404,8.786261243090033,-4.313685036647319
1757088385478197500,3.827197509765625,-0.6028002179706469,8.784799938365817,-4.316745885522663
1757088385488243500,3.837243408203125,-0.6015457609301432,8.783528603255748,-4.319509505017101
1757088385498290400,3.84729052734375,-0.5997689605159685,8.782430286625027,-4.3219887546122076
1757088385508336600,3.857336669921875,-0.5975631940999999,8.781397436445951,-4.324391431839764
1757088385518382600,3.867382568359375,-0.595210347363539,8.780475060904026,-4.32659011092782
1757088385528429600,3.8774296875,-0.5927603603955358,8.779687125396729,-4.3285234170779585
1757088385538475500,3.8874755859375,-0.5903377728911117,8.77902953827083,-4.330189888985455
1757088385548521500,3.897521484375,-0.5883506907271221,8.778483010303974,-4.331568483862281
1757088385558568400,3.907568359375,-0.5874358043719082,8.777851726663112,-4.332972213180363
1757088385568614400,3.917614501953125,-0.5875430276060477,8.777050347152352,-4.3345805251598355
1757088385578661400,3.927661376953125,-0.588112899915874,8.77617882501483,-4.336266578550637
1757088385588707300,3.937707275390625,-0.5883951874559745,8.775408425164223,-4.337785166420042
1757088385598753500,3.94775341796875,-0.5879782041529193,8.774920349386333,-4.338828830254077
1757088385608800500,3.957800537109375,-0.5869489341704175,8.77473973212242,-4.339332103601098
1757088385618846500,3.967846435546875,-0.5852749730762093,8.774791754570602,-4.339455437719821
1757088385628893400,3.9778935546875,-0.5831274031208827,8.774788831961155,-4.3397506212741135
1757088385638939400,3.987939453125,-0.5807795248204842,8.774739147600531,-4.340166800859571
1757088385648985300,3.9979853515625,-0.5785739776002243,8.774730964294076,-4.340476889722049
1757088385659032600,4.008032470703125,-0.5767011694656685,8.774805198574066,-4.340576550704241
1757088385669078300,4.018078369140625,-0.5751549994695931,8.77501913358569,-4.340347125862539
1757088385679124500,4.02812451171875,-0.5739681643052026,8.77521027224362,-4.3401179932817815
1757088385689171500,4.03817138671875,-0.5732311552675441,8.775456940481066,-4.339717011265456
1757088385699217700,4.0482177734375,-0.5728737201320007,8.775870781978965,-4.338928198975324
1757088385709264600,4.0582646484375,-0.5729759383974596,8.776414387336374,-4.337813807992637
1757088385719310600,4.068310546875,-0.5734436289744451,8.776889603632688,-4.336790894685685
1757088385729356500,4.0783564453125,-0.574112468146719,8.777266620251536,-4.335937784987688
1757088385739403500,4.088403564453125,-0.574636455488205,8.777596875119208,-4.335199826101959
1757088385749449500,4.098449462890625,-0.5747340341111645,8.777872184929251,-4.334628748215735
1757088385759496400,4.108496337890625,-0.5743748819425701,8.778104824641346,-4.334207600194215
1757088385769542400,4.11854248046875,-0.5735782151395454,8.77822815876007,-4.3340641000702975
1757088385779588400,4.12858837890625,-0.5721713074836879,8.778221144497394,-4.3342628375127905
1757088385789635300,4.13863525390625,-0.5702091040326283,8.778151001870631,-4.334664111790061
1757088385799681500,4.148681640625,-0.5673637245388701,8.778103071075677,-4.3351323138237
1757088385809728500,4.158728515625,-0.5637968989027664,8.777953433471918,-4.33590475950092
1757088385819774500,4.1687744140625,-0.5598485996684059,8.777648313045502,-4.337032302226126
1757088385829820400,4.1788203125,-0.5554185082664713,8.777239147722721,-4.338431063108146
1757088385839867400,4.188867431640625,-0.550329331901297,8.776733536288141,-4.340101918929815
1757088385849913300,4.198913330078125,-0.5444533890726044,8.776165381011367,-4.341990216894447
1757088385859960600,4.208960693359375,-0.538064162959531,8.775322500446439,-4.344490801538527
1757088385870006500,4.219006591796875,-0.5315026490194723,8.774121892485022,-4.347723207588493
1757088385880052500,4.229052490234375,-0.5249591821927577,8.772632530710101,-4.351519092740118
1757088385890099500,4.239099365234375,-0.5183688074843957,8.770968981412052,-4.355661307111382
1757088385900145400,4.2491455078125,-0.5114216917602346,8.76918209799528,-4.3600776622489095
1757088385910192400,4.2591923828125,-0.5039755039401352,8.767538422441483,-4.364251148541271
1757088385920238600,4.269238525390625,-0.49599301728624845,8.766081209370494,-4.368090872834623
1757088385930284500,4.279284423828125,-0.4876012557117268,8.76481747304499,-4.3715684858173125
1757088385940331500,4.28933154296875,-0.47914355276152487,8.76358822351098,-4.374966896083951
1757088385950377500,4.29937744140625,-0.47078481667377053,8.76231922648847,-4.378414698450267
1757088385960424400,4.309424560546875,-0.46258609345331786,8.761099329304695,-4.38172893756479
1757088385970470400,4.319470458984375,-0.45473727964907884,8.759880016642809,-4.3849858935341235
1757088385980516400,4.329516357421875,-0.44740335656441743,8.758668302765487,-4.388161016438901
1757088385990563300,4.339563232421875,-0.44045656963381913,8.757424440184234,-4.391345491693913
1757088386000609300,4.349609375,-0.433915331296809,8.756242536923288,-4.394353733599186
1757088386010656300,4.35965625,-0.4277635306688025,8.755166432124376,-4.3970980638712645
1757088386020702500,4.369702392578125,-0.42188773397058243,8.75407629880011,-4.399835964402556
1757088386030748400,4.37974853515625,-0.41641554963719096,8.752999609479307,-4.402498753871023
1757088386040795600,4.389795654296875,-0.4115839647622779,8.75187498936355,-4.4051875545635815
1757088386050841600,4.399841552734375,-0.40736638359986244,8.750725819328427,-4.407862034469843
1757088386060888600,4.409888671875,-0.40354079742971805,8.749598276603221,-4.410452927745879
1757088386070934500,4.4199345703125,-0.40019309443701057,8.74848008622825,-4.412973093873262
1757088386080980500,4.42998046875,-0.3972527666687965,8.747348451849819,-4.415481277301907
1757088386091027500,4.44002734375,-0.39472679185513404,8.746209803208709,-4.417964910811185
1757088386101073400,4.450073486328125,-0.3927397096911445,8.745053618910909,-4.420428086054325
1757088386111120400,4.460120361328125,-0.39099414466544985,8.743797481369972,-4.42306603334248
1757088386121166600,4.47016650390625,-0.3893415186202153,8.742498673731088,-4.425775584562123
1757088386131212500,4.480212646484375,-0.38763420324567704,8.741291636028885,-4.428311240519583
1757088386141259500,4.490259521484375,-0.3856478517340496,8.740175199219584,-4.4306858606964346
1757088386151305500,4.500305419921875,-0.38316264732219274,8.739230027323961,-4.432768219928443
1757088386161352400,4.5103525390625,-0.379964216607064,8.73853970697224,-4.434404004436731
1757088386171398400,4.5203984375,-0.37626916148141026,8.738104822686314,-4.435576263086498
1757088386181444400,4.5304443359375,-0.37223497406188394,8.73786809132099,-4.436382318772376
1757088386191491300,4.5404912109375,-0.3681737525049597,8.737679290750622,-4.437094558694959
1757088386201537300,4.550537353515625,-0.36415867164470256,8.737261357599497,-4.438247528122365
1757088386211584500,4.56058447265625,-0.36026016636881975,8.736718921285867,-4.439634598566592
1757088386221630500,4.57063037109375,-0.356403965864703,8.736104588779806,-4.441153478696942
1757088386231677400,4.580677490234375,-0.35263730680756267,8.735403747034072,-4.442832225564122
1757088386241723600,4.5907236328125,-0.3489021753998473,8.734639192402362,-4.444630214896798
1757088386251769600,4.60076953125,-0.3452051475128159,8.733797480881213,-4.44657462696284
1757088386261816600,4.610816650390625,-0.3413500795198604,8.732921282568574,-4.4485915197432035
1757088386271862500,4.620862548828125,-0.3372273005014285,8.732092430528997,-4.450533593721688
1757088386281909500,4.630909423828125,-0.3328910979280248,8.731301572412251,-4.452411370292306
1757088386291957000,4.64095703125,-0.32866829260122027,8.730589624750614,-4.45412051229775
1757088386302003000,4.6510029296875,-0.32457309570945797,8.729882353264093,-4.455807442471385
1757088386312050000,4.6610498046875,-0.3205093534018844,8.729204307872056,-4.45742861393243
1757088386322095900,4.671095947265625,-0.3163330540979281,8.72852801604569,-4.459050662176311
1757088386332142800,4.681142822265625,-0.31205497491993006,8.727868675354122,-4.460643192064762
1757088386342188800,4.691188720703125,-0.3079472108075395,8.727187122830747,-4.46225968735069
1757088386352234800,4.70123486328125,-0.304250164654199,8.726669236436486,-4.463526638546586
1757088386362282000,4.711281982421875,-0.30102707442184906,8.726429582461714,-4.4642119904622435
1757088386372327700,4.72132763671875,-0.2979738973963074,8.726388081407546,-4.464497529405355
1757088386382375000,4.731375,-0.29476700938008726,8.726371130272746,-4.464743028599024
1757088386392421000,4.741421142578125,-0.291692844365444,8.726293973383306,-4.46509461851567
1757088386402467000,4.751467041015625,-0.28939536281172185,8.7260449670583,-4.465737008072436
1757088386412514000,4.76151416015625,-0.2877427002338692,8.725763227507471,-4.4663934261545535
1757088386422560000,4.77156005859375,-0.28637725709956136,8.7255066223979,-4.466981162914633
1757088386432607000,4.78160693359375,-0.2849997582012787,8.725458107081055,-4.467164702787995
1757088386442653000,4.79165283203125,-0.2833566123704426,8.725571504327654,-4.467045168061555
1757088386452700000,4.801699951171875,-0.281457190223597,8.725735170456767,-4.466845846097171
1757088386462745900,4.811745849609375,-0.27941565619232134,8.72584038439691,-4.466766058859228
1757088386472791800,4.821791748046875,-0.2772910835200921,8.725847398659587,-4.46688559358567
1757088386482838800,4.8318388671875,-0.27504385258257386,8.725850905790924,-4.467018572315573
1757088386492885000,4.841885009765625,-0.2727692769804038,8.725768488204478,-4.467321939176321
1757088386502931700,4.851931640625,-0.2706063267928548,8.725752706113457,-4.467484436261653
1757088386512978000,4.86197802734375,-0.26832521185204383,8.725757966810464,-4.467611862033605
1757088386523024000,4.87202392578125,-0.26582504733307283,8.72572874071598,-4.46781732147783
1757088386533071000,4.882071044921875,-0.2630464677315205,8.72563521721363,-4.468165696524084
1757088386543116800,4.89211669921875,-0.25998265971411016,8.72543063455224,-4.468742911890149
1757088386553164000,4.9021640625,-0.256596597472392,8.72524475659132,-4.469299376729131
1757088386563210000,4.9122099609375,-0.25306391156790775,8.725029652535914,-4.469919554454088
1757088386573257000,4.922257080078125,-0.24951105965822934,8.724823316308855,-4.47052190426141
1757088386583303000,4.932302978515625,-0.24593678136803207,8.724511181619762,-4.471334097427129
1757088386593348900,4.942348876953125,-0.24230691869938745,8.724196708843111,-4.47214453702718
1757088386603395800,4.952395751953125,-0.23867508326936512,8.723866453975438,-4.47298391046077
1757088386613442000,4.962442138671875,-0.23493322985991835,8.723544382414222,-4.473808670847117
1757088386623489000,4.972489013671875,-0.23127518227640537,8.723219388243555,-4.474634600277245
1757088386633535000,4.982534912109375,-0.22769505876731125,8.722826005011797,-4.475584448347986
1757088386643581000,4.992580810546875,-0.22399150980794802,8.72242619203925,-4.476550370770693
1757088386653628000,5.0026279296875,-0.22000614823251963,8.722064957511424,-4.477453749351203
1757088386663673900,5.012673828125,-0.2155059142038226,8.721762759694457,-4.478259512776136
1757088386673720800,5.022720947265625,-0.21076533208061007,8.72164176366329,-4.47871894698143
1757088386683766800,5.032766845703125,-0.20654793358128518,8.721710737246275,-4.4787811985626815
1757088386693814000,5.04281396484375,-0.20331819441244006,8.721915904429554,-4.478533361281454
1757088386703859700,5.052859619140625,-0.20112910513663662,8.722136853703857,-4.478200768326222
1757088386713906000,5.062906005859375,-0.19918626397317274,8.722200566589832,-4.478163651186228
1757088386723953000,5.072952880859375,-0.1970854740353301,8.72207314081788,-4.478506181013584
1757088386733999000,5.0829990234375,-0.19492908145273102,8.721863297459482,-4.479006531751155
1757088386744046000,5.093046142578125,-0.19320479667708276,8.721519598588348,-4.479746536463499
1757088386754092000,5.103092041015625,-0.19189656362272797,8.721115693962574,-4.480594093203544
1757088386764138000,5.113137939453125,-0.19090046525746582,8.720792453357577,-4.48126424755007
1757088386774185000,5.12318505859375,-0.1896991083773784,8.720648076450825,-4.481595379200577
1757088386784231000,5.13323095703125,-0.1882283965039998,8.720662104976176,-4.481628989209234
1757088386794278000,5.14327783203125,-0.18659511448005214,8.720750952303408,-4.481523483008146
1757088386804323800,5.15332373046875,-0.18480682455748318,8.720733416646718,-4.481633957645297
1757088386814369800,5.163369873046875,-0.18278973084772004,8.720643984797597,-4.481890270493924
1757088386824416800,5.173416748046875,-0.18075203274134546,8.720417190304397,-4.48241137175858
1757088386834463000,5.183462890625,-0.17917398803597315,8.720119668662548,-4.483056683924794
1757088386844510000,5.193510009765625,-0.17839920427119357,8.71976077222228,-4.483788505330682
1757088386854556000,5.203555908203125,-0.17805420849211512,8.719284971404075,-4.4847249093979595
1757088386864603100,5.21360302734375,-0.1770339620662853,8.718725583955646,-4.485850990818441
1757088386874648800,5.22364892578125,-0.1748625545776449,8.71808377892077,-4.487181947161257
1757088386884694800,5.23369482421875,-0.17216489472519605,8.717458340498805,-4.488503843414783
1757088386894742000,5.243741943359375,-0.169822404985968,8.716952729064225,-4.489578194648027
1757088386904788000,5.2537880859375,-0.16831375398868695,8.716567529138922,-4.490378405115008
1757088386914835000,5.2638349609375,-0.16745014116298407,8.716176483994722,-4.491168094187975
1757088386924881000,5.273880859375,-0.16693110399125144,8.715832785123586,-4.49185695323497
1757088386934927000,5.283927001953125,-0.16691853677062315,8.715492593383788,-4.49251950879693
1757088386944973800,5.293973876953125,-0.16716653844863175,8.715193318176269,-4.4930888331174845
1757088386955020000,5.30402001953125,-0.16755135478144512,8.715075829276442,-4.493302475868165
1757088386965067000,5.31406689453125,-0.16806301236432045,8.714971199858189,-4.493490107394755
1757088386975113000,5.324113037109375,-0.16891162855029104,8.714850203827023,-4.493692059707642
1757088386985159000,5.334158935546875,-0.1697986953168176,8.714695305526256,-4.493953633253276
1757088386995206000,5.344205810546875,-0.17028894478548318,8.71446325033605,-4.494388517539203
1757088387005251800,5.354251953125,-0.17070326120741663,8.714045901706815,-4.495184051831067
1757088387015298800,5.364298828125,-0.17152849651779978,8.713508141568303,-4.49619439791739
1757088387025344800,5.3743447265625,-0.17288104363791643,8.712933556550741,-4.497255305147171
1757088387035391700,5.384391845703125,-0.17402931862389667,8.712391120237111,-4.4982589292317625
1757088387045437700,5.394437744140625,-0.17427563980147243,8.711932270553708,-4.499140095980465
1757088387055484000,5.40448388671875,-0.173827731637191,8.711670404747128,-4.4996635353326795
1757088387065531100,5.41453125,-0.17292426172513514,8.711473420870304,-4.5000773768305775
1757088387075577000,5.4245771484375,-0.17174367363844065,8.711268253687024,-4.500520152162015
1757088387085624000,5.4346240234375,-0.17017362957643345,8.710953196388482,-4.501187676160037
1757088387095670000,5.444669921875,-0.16786193683426825,8.710619434389471,-4.501925050523877
1757088387105716000,5.454716064453125,-0.1649319660632871,8.71023072733283,-4.5027840054407715
1757088387115763000,5.464762939453125,-0.16166306392783297,8.709993411445618,-4.503361220806837
1757088387125809000,5.474808837890625,-0.15809245716575532,8.709846696451306,-4.503772139695286
1757088387135855900,5.48485595703125,-0.1542146658843383,8.709552097418904,-4.50447531952858
1757088387145901800,5.49490185546875,-0.15036853011650964,8.708919060212374,-4.505831410312652
1757088387155948800,5.50494873046875,-0.14664476948617958,8.708084362953901,-4.507565979020297
1757088387165995000,5.5149951171875,-0.14327936644,8.70732039284408,-4.509149156558514
1757088387176041000,5.525041015625,-0.14012639143494887,8.706839331328869,-4.510177330562472
1757088387186088000,5.535087890625,-0.13724547483692875,8.70662948797047,-4.510669790254533
1757088387196134000,5.5451337890625,-0.13492767201438546,8.706568697693944,-4.510858883085847
1757088387206180900,5.555180908203125,-0.13312967354855498,8.706532457336783,-4.510979586856067
1757088387216226800,5.565226806640625,-0.13151668539396486,8.706385742342471,-4.511313641116023
1757088387226272800,5.575272705078125,-0.13014528744290582,8.706085882613062,-4.511932942058146
1757088387236320000,5.585320068359375,-0.12897894707727245,8.70556624265313,-4.512966669020057
1757088387246366000,5.595365966796875,-0.12842695748400873,8.704976460066437,-4.514119930708408
1757088387256413000,5.605412841796875,-0.12824033973757176,8.70446909506619,-4.5151013429611915
1757088387266459000,5.615458984375,-0.12779158218991943,8.704108445060253,-4.515810952535271
1757088387276505000,5.625505126953125,-0.1267897390704602,8.703945947974919,-4.516150267492234
1757088387286551000,5.635551025390625,-0.12530914512388408,8.7039640681535,-4.5161569894939655
1757088387296597000,5.645596923828125,-0.1235181791870389,8.704144100895524,-4.515858006547391
1757088387306644000,5.65564404296875,-0.1219117486373987,8.704470264109968,-4.515276115006208
1757088387316690000,5.66568994140625,-0.12033328380691818,8.704725115653872,-4.51482603315115
1757088387326737200,5.675737060546875,-0.11898697463134303,8.704899887698888,-4.514525881160796
1757088387336782800,5.685782958984375,-0.11765897743059321,8.704957755365967,-4.514446678444743
1757088387346829000,5.6958291015625,-0.11577294448828324,8.704799349933863,-4.514801190970838
1757088387356876000,5.7058759765625,-0.11337979314089752,8.704490722376107,-4.515460531662404
1757088387366922200,5.715922119140625,-0.11069991554031149,8.704136502110957,-4.516208719681203
1757088387376969200,5.72596923828125,-0.1082720490725711,8.703785204455256,-4.516946094045043
1757088387387015200,5.73601513671875,-0.10609770984132774,8.70336785582602,-4.5178003727868195
1757088387397061000,5.74606103515625,-0.10434110283181071,8.702917189449071,-4.518709304325283
1757088387407108000,5.756108154296875,-0.10245926200742833,8.702419761320948,-4.519708836756647
1757088387417154000,5.766154052734375,-0.10023915653885342,8.701964418768883,-4.520636765256524
1757088387427201000,5.776200927734375,-0.09782252385118044,8.701599677109717,-4.521392844320833
1757088387437247000,5.7862470703125,-0.09543192978706211,8.701289295986294,-4.522040786835551
1757088387447293000,5.79629296875,-0.09329670785665511,8.7010169087857,-4.522608065329492
1757088387457340000,5.80633984375,-0.09148952143737114,8.700715295490623,-4.523226197227835
1757088387467386000,5.81638623046875,-0.08994569866200909,8.700425957155227,-4.523812764944136
1757088387477433000,5.82643310546875,-0.0882802588009741,8.700174612742662,-4.524331528121233
1757088387487479000,5.83647900390625,-0.08648796855672262,8.700023806095123,-4.524655353248119
1757088387497526000,5.846526123046875,-0.08500868065124377,8.699892288669943,-4.524933877928555
1757088387507572000,5.856572021484375,-0.08415018239207565,8.69974849628508,-4.525227600178122
1757088387517618000,5.866617919921875,-0.08367276500551961,8.699629253819584,-4.525468130935728
1757088387527665200,5.8766650390625,-0.08300263805845752,8.6994129807204,-4.52589366287142
1757088387537711000,5.886711181640625,-0.08196682873731478,8.69904122479856,-4.526628699147701
1757088387547758000,5.896758056640625,-0.08123777467724867,8.698495865875483,-4.527687560550868
1757088387557804000,5.906803955078125,-0.0814484674190171,8.69786633580029,-4.528891383382677
1757088387567850200,5.916850341796875,-0.08176045597763731,8.697292919826507,-4.529987069664895
1757088387577897000,5.92689697265625,-0.0816793535654433,8.69672768715918,-4.531074864901602
1757088387587943200,5.936943115234375,-0.08081321998909115,8.69611510821879,-4.532266705034673
1757088387597990100,5.946990234375,-0.07927611921546049,8.695434140217303,-4.533599707204103
1757088387608036000,5.9570361328125,-0.07757432939941063,8.69469588907063,-4.5350437685325735
1757088387618082000,5.96708203125,-0.07562392598399892,8.693958806967736,-4.536493382818997
1757088387628129000,5.97712890625,-0.07336995477844029,8.693243936696648,-4.5378994502246375
1757088387638175000,5.987175048828125,-0.07088346259179525,8.692675781419872,-4.539026116167008
1757088387648222000,5.997221923828125,-0.06887093545929529,8.692297011235356,-4.539782487492263
1757088387658268000,6.007267822265625,-0.06772797140267212,8.692128668931126,-4.540122094710171
1757088387668315000,6.01731494140625,-0.06684803762983065,8.692119901102782,-4.5401521975874894
1757088387678360800,6.02736083984375,-0.06568855626324657,8.692106457099317,-4.540195159946382
1757088387688407000,6.037406982421875,-0.06436513933949171,8.692037483516335,-4.540345966593921
1757088387698454000,6.0474541015625,-0.06340510323487687,8.691907135134935,-4.540607540139556
1757088387708500200,6.057500244140625,-0.06294060469539836,8.691680340641737,-4.541049146427214
1757088387718547200,6.067547119140625,-0.06277898439290001,8.691435425969958,-4.541520855592191
1757088387728593200,6.07759326171875,-0.06271341290997806,8.691186419644952,-4.541998409976065
1757088387738639000,6.08763916015625,-0.0627694128469564,8.691085881879925,-4.542191009938716
1757088387748686000,6.09768603515625,-0.06279978515233378,8.691070099788904,-4.5422170211628075
1757088387758732000,6.10773193359375,-0.06270996971072162,8.691051979610323,-4.542254430563748
1757088387768779000,6.117779052734375,-0.06260748658378143,8.691049641522765,-4.542259106738865
1757088387778825000,6.127824951171875,-0.06296434176401235,8.690990020290016,-4.542368704593182
1757088387788871200,6.13787109375,-0.0639430780025199,8.690876623043417,-4.542573287254571
1757088387798918000,6.14791796875,-0.06471523598537314,8.690826354160905,-4.542658042928577
1757088387808964000,6.157964111328125,-0.06466787144599948,8.690753288924693,-4.542796866877377
1757088387819011000,6.168010986328125,-0.06434116024228279,8.690693667691946,-4.542913186733425
1757088387829057000,6.17805712890625,-0.06415753817053045,8.690613588193058,-4.543069838599861
1757088387839104000,6.18810400390625,-0.06407185091476421,8.690587284708023,-4.543124199135601
1757088387849150000,6.19814990234375,-0.0636867331878515,8.690598390623927,-4.543108124783635
1757088387859196000,6.20819580078125,-0.06301492574035655,8.690624694108962,-4.543065746946633
1757088387869243100,6.2182431640625,-0.0623679102408234,8.690586115664242,-4.543149333576857
1757088387879289000,6.2282890625,-0.06184866300653666,8.690492007640003,-4.543335211537778
1757088387889336000,6.238336181640625,-0.061463915172382255,8.690299699938297,-4.543711059112846
1757088387899382000,6.248382080078125,-0.06132679912347812,8.690217866873741,-4.543867418718338
1757088387909428200,6.25842822265625,-0.06164856472401879,8.690286255934835,-4.543730932857096
1757088387919475200,6.26847509765625,-0.0626387904709205,8.690409005531668,-4.543485725924373
1757088387929521200,6.278521240234375,-0.06349138871226459,8.69042537214458,-4.543438671912253
1757088387939568000,6.288568115234375,-0.06330277537156362,8.690296192806958,-4.543688555020093
1757088387949614000,6.298614013671875,-0.06285092168452683,8.690266382190584,-4.543752560167015
1757088387959660000,6.308659912109375,-0.06304943536473438,8.690365166389942,-4.543561129248142
1757088387969707000,6.31870703125,-0.06404625981578137,8.690494345727563,-4.543301017007232
1757088387979753000,6.3287529296875,-0.06512404511512722,8.690567995485663,-4.543144365140796
1757088387989800000,6.338800048828125,-0.06573300275974907,8.690541107478737,-4.543189373326301
1757088387999846000,6.348845947265625,-0.06618651868090965,8.690418942403793,-4.54341499877572
1757088388009892900,6.358892822265625,-0.06700194041675422,8.690182795560359,-4.543857481846213
1757088388019939000,6.36893896484375,-0.06806518116751685,8.68980811702907,-4.544555985504388
1757088388029985000,6.378985107421875,-0.06902946418898645,8.689456819373369,-4.545215910717845
1757088388040032300,6.3890322265625,-0.0696584736743709,8.689076295623183,-4.545931365510821
1757088388050078200,6.399078125,-0.06988527273414656,8.688658946993947,-4.546728361107409
1757088388060125200,6.409125244140625,-0.06995926955211908,8.688256795933842,-4.547493208000064
1757088388070171100,6.419171142578125,-0.07007701874685007,8.687834771129488,-4.548298094642162
1757088388080217000,6.429217041015625,-0.07029266622494906,8.687426774850486,-4.549073755189776
1757088388090264000,6.43926416015625,-0.07055828575803898,8.686991306042671,-4.549901730446517
1757088388100310000,6.44931005859375,-0.07082141193994321,8.686608444204927,-4.550626537589729
1757088388110357000,6.45935693359375,-0.07121865849606693,8.686051979365944,-4.5516842299491165
1757088388120403000,6.46940283203125,-0.07169585668691433,8.685344707879423,-4.553025707685947
1757088388130450000,6.479449951171875,-0.07197499785528053,8.684537483149766,-4.55455920086354
1757088388140496100,6.48949609375,-0.07201450788176153,8.683682327625155,-4.556186802065373
1757088388150542000,6.4995419921875,-0.07188831051909364,8.682878610026837,-4.557722048808634
1757088388160589000,6.509589111328125,-0.07171223243298008,8.68217835280299,-4.559057389065623
1757088388170635000,6.519635009765625,-0.0716110233810963,8.681761588695645,-4.5598526310965415
1757088388180682000,6.529681884765625,-0.07172010064560454,8.681489786016941,-4.5603678871423
1757088388190728000,6.53972802734375,-0.07182047858042642,8.681300985446573,-4.560729413931072
1757088388200774000,6.54977392578125,-0.07208272341291885,8.681150763320922,-4.56101173800379
1757088388210821000,6.559821044921875,-0.07273003573997411,8.680919292652607,-4.5614442842021585
1757088388220867000,6.5698671875,-0.07373034448947291,8.680638722145558,-4.561960417030751
1757088388230914000,6.5799140625,-0.07475178279196842,8.680256444829702,-4.562668565300107
1757088388240960000,6.5899599609375,-0.07560244023797567,8.679891703170538,-4.563349241040647
1757088388251007000,6.600007080078125,-0.07573185247103684,8.67960704101026,-4.563889923788607
1757088388261053200,6.61005322265625,-0.07523194012488238,8.679425839224457,-4.564241221444308
1757088388271099100,6.62009912109375,-0.07460134603718761,8.679438698706031,-4.564226900658011
1757088388281146000,6.63014599609375,-0.07393382203916553,8.679674261027573,-4.563790847328305
1757088388291191600,6.640191650390625,-0.07304276408411096,8.680002762329577,-4.563180021953582
1757088388301238800,6.65023876953125,-0.07180645005507394,8.680288593533634,-4.562655121296644
1757088388311284700,6.66028466796875,-0.070278263240261,8.680551628383993,-4.562176690129935
1757088388321330700,6.67033056640625,-0.0689519008741714,8.680852072635293,-4.5616246092051265
1757088388331377700,6.680377685546875,-0.06814568079151213,8.681087634956835,-4.56118855587542
1757088388341423900,6.690423828125,-0.06748312979612965,8.681309168753028,-4.56077997507453
1757088388351470600,6.700470703125,-0.06673372706777882,8.68151141332686,-4.560406173326075
1757088388361516800,6.710516845703125,-0.06571388706732541,8.68169729128778,-4.560064812542498
1757088388371563800,6.720563720703125,-0.06473422381363343,8.68180835044682,-4.559869582231342
1757088388381609700,6.730609619140625,-0.06392267910188529,8.681834653931856,-4.559832465091348
1757088388391655700,6.74065576171875,-0.06321481852689757,8.681841083672643,-4.559826912133396
1757088388401702700,6.75070263671875,-0.06260480143635068,8.68190304299295,-4.559720236888528
1757088388411748600,6.76074853515625,-0.06160409082805272,8.68207080077529,-4.559412193852663
1757088388421795600,6.770795654296875,-0.060175035272468806,8.682427943649888,-4.558754022204876
1757088388431841500,6.780841552734375,-0.05881799007374793,8.682973302572965,-4.557731985680759
1757088388441887700,6.7908876953125,-0.05774028697279281,8.683640826570986,-4.5564729255303735
1757088388451934500,6.8009345703125,-0.05679351220855024,8.684403043115138,-4.555034417159855
1757088388461980700,6.810980712890625,-0.05573103407619055,8.68516409061551,-4.553594739745557
1757088388472028000,6.82102783203125,-0.05477438637190498,8.685804726606607,-4.552383902651071
1757088388482073900,6.831073974609375,-0.05434231966414954,8.68624545611143,-4.5515492053925986
1757088388492120800,6.841120849609375,-0.05423612390989437,8.686544146797061,-4.550978127506375
1757088388502166800,6.851166748046875,-0.054229543472058134,8.686741130673886,-4.550601987670362
1757088388512212700,6.861212646484375,-0.053923537129652685,8.686983122736216,-4.550145476074516
1757088388522259700,6.871259765625,-0.05294505661947187,8.687336758479475,-4.549479705642163
1757088388532305700,6.8813056640625,-0.05141713923271745,8.687676950219274,-4.548849883306026
1757088388542352600,6.8913525390625,-0.04932606240471359,8.688043445444107,-4.548173591479658
1757088388552398600,6.901398681640625,-0.046789082139846866,8.688356749176979,-4.547599298723042
1757088388562444800,6.91144482421875,-0.04375135384518653,8.688620953071117,-4.5471246669486165
1757088388572491500,6.921491455078125,-0.040214224661025214,8.688665376734733,-4.547074690327048
1757088388582537700,6.931537841796875,-0.0357191006322857,8.688497034430503,-4.547431540940702
1757088388592584700,6.941584716796875,-0.03077810969930142,8.688340967085956,-4.547768810071051
1757088388602630700,6.951630615234375,-0.026437541478034107,8.688336875432729,-4.547802127818763
1757088388612677600,6.961677734375,-0.022698208819236607,8.68844501198232,-4.547617418901622
1757088388622723600,6.9717236328125,-0.01925982501852559,8.68858003653884,-4.547372211968899
1757088388632769500,6.98176953125,-0.016377356925880302,8.688649594643712,-4.547252969503402
1757088388642816800,6.991816650390625,-0.014415305313514544,8.688623291158676,-4.547307914561033
1757088388652862700,7.00186279296875,-0.013348672737489686,8.68837486935556,-4.547788391554356
1757088388662909700,7.01190966796875,-0.012950690962426596,8.688177300956845,-4.548165408173203
1757088388672955600,7.02195556640625,-0.012535445242020068,8.688120602333544,-4.548272667939961
1757088388683001900,7.032001953125,-0.011809253284253645,8.688319924297929,-4.547894190016389
1757088388693048800,7.042048828125,-0.01075758994849748,8.6887466252774,-4.547080243285
1757088388703094800,7.0520947265625,-0.009320250621758168,8.689300167506932,-4.546026934839785
1757088388713141800,7.062141845703125,-0.0075125801452843,8.689971783158182,-4.544745078335702
1757088388723187700,7.072187744140625,-0.005471462814183905,8.690584362098575,-4.543575742295384
1757088388733234700,7.082234619140625,-0.0033413594460667806,8.69115134833157,-4.542494376799464
1757088388743280600,7.09228076171875,-0.0009714256477785965,8.691406784397364,-4.542005716499686
1757088388753326600,7.10232666015625,0.0015099934282909089,8.691275266972184,-4.5422558918684715
1757088388763373600,7.11237353515625,0.004034999128634809,8.69075971866548,-4.543241103513538
1757088388773419500,7.12241943359375,0.006431674161201226,8.689854294258355,-4.544972749611735
1757088388783466500,7.132466552734375,0.0093206108105398,8.688454948854446,-4.547643722386658
1757088388793512700,7.1425126953125,0.013312926712317857,8.686758666330576,-4.550869114173948
1757088388803558700,7.15255859375,0.01829854337996221,8.684750833639502,-4.554684873069823
1757088388813606000,7.16260595703125,0.024098947029211556,8.68255420037806,-4.558845792141557
1757088388823651800,7.17265185546875,0.030421670077601447,8.68051889515817,-4.56268084025979
1757088388833698800,7.18269873046875,0.03646469483519904,8.678641410848497,-4.5662037536889315
1757088388843744800,7.192744873046875,0.04204885164308361,8.676972016331552,-4.569328607711196
1757088388853791700,7.202791748046875,0.04720242588082328,8.675552797183395,-4.571974446044862
1757088388863837700,7.212837646484375,0.05219086811814923,8.67442174732685,-4.5740684957146645
1757088388873883600,7.222883544921875,0.05671939665956888,8.673633227297664,-4.575507004085183
1757088388883930600,7.2329306640625,0.06047031472488306,8.67320944892764,-4.576261621844768
1757088388893976600,7.2429765625,0.06409822289845905,8.673224646496772,-4.57618329591155
1757088388904023600,7.2530234375,0.06843520635657478,8.673708630621432,-4.575203637224435
1757088388914069800,7.26306982421875,0.07424905743421986,8.674591258674859,-4.573439842422307
1757088388924115700,7.27311572265625,0.08164844697052612,8.675738675144315,-4.5711339035674925
1757088388934162700,7.28316259765625,0.0906692728293594,8.676876739263534,-4.568803707054257
1757088388944208600,7.293208740234375,0.100888660822995,8.677866334822774,-4.5667099496454
1757088388954255600,7.303255615234375,0.11228532156823202,8.678421046096085,-4.565389806957542
1757088388964301600,7.313301513671875,0.12457472076895645,8.678382467651367,-4.565147522634268
1757088388974348800,7.323348876953125,0.13724536523907443,8.677862243169546,-4.565769161663949
1757088388984394800,7.333394775390625,0.15000048225540666,8.677136266982554,-4.566750866177678
1757088388994440400,7.3434404296875,0.16255502606518565,8.676482186987995,-4.5675607212558385
1757088389004487700,7.35348779296875,0.17496446231584994,8.676255977016687,-4.567530910639465
1757088389014533600,7.36353369140625,0.18725041831731795,8.67653128682673,-4.5665202722921965
1757088389024580600,7.37358056640625,0.1996508310113102,8.677501593163608,-4.5641538354218
1757088389034626800,7.383626708984375,0.21221428877990692,8.679124810451269,-4.560501742655038
1757088389044672800,7.3936728515625,0.22461112127732485,8.681320859190821,-4.555721814902126
1757088389054719700,7.4037197265625,0.23727961032297462,8.68376708329916,-4.550416694231331
1757088389064765700,7.413765625,0.2507399255997501,8.686203370535374,-4.545040261889993
1757088389074812700,7.423812744140625,0.26536844440568236,8.68842806084752,-4.539952583362162
1757088389084858600,7.433858642578125,0.2809775900131091,8.69033126412034,-4.535371977573633
1757088389094904600,7.443904541015625,0.2971446434979327,8.691788477191329,-4.5315451127618545
1757088389104951600,7.45395166015625,0.3133061074921861,8.693082608655095,-4.52797309949398
1757088389114997500,7.46399755859375,0.32937486996799703,8.694479031449555,-4.524151787640154
1757088389125044500,7.47404443359375,0.34615744326896963,8.69594676591456,-4.52007474745959
1757088389135090700,7.484090576171875,0.36425855182260275,8.697507439360022,-4.515643779274821
1757088389145136600,7.49413671875,0.3837912275493145,8.699127734038234,-4.510904475793242
1757088389155183900,7.504183837890625,0.4043309979593381,8.70066210399866,-4.506147928915918
1757088389165229600,7.5142294921875,0.42556295188460497,8.702169001430272,-4.501280030618608
1757088389175276800,7.52427685546875,0.44749709926247594,8.703499957773088,-4.4965787210598585
1757088389185322800,7.53432275390625,0.4699395614886656,8.704263343361019,-4.49280855487138
1757088389195368700,7.54436865234375,0.49245929020214824,8.704156960377096,-4.490602276998758
1757088389205415700,7.554415771484375,0.5144234308594837,8.703037016436458,-4.490312938663363
1757088389215461600,7.564461669921875,0.5357848929159343,8.70079362142384,-4.492161196878552
1757088389225508600,7.574508544921875,0.5575949755227193,8.697589272424578,-4.495709537009895
1757088389235554800,7.584554931640625,0.5810368605824187,8.693761823090911,-4.500143427804113
1757088389245601500,7.5946015625,0.6063107833748683,8.68956787853241,-4.504907573466003
1757088389255647700,7.604647705078125,0.6336785731740295,8.68512785025835,-4.509703575570881
1757088389265693700,7.614693603515625,0.6625006899673491,8.680277487617731,-4.514893545429408
1757088389275740700,7.62474072265625,0.6922581148494035,8.674725114187599,-4.521095030418038
1757088389285786600,7.63478662109375,0.7224354456439613,8.668462546661496,-4.528379342207312
1757088389295833900,7.644833740234375,0.7519763782311231,8.661187587222457,-4.53748502420485
1757088389305879800,7.6548798828125,0.7800676965318619,8.652808465933798,-4.548714274227619
1757088389315925800,7.66492578125,0.806395000834763,8.643694016107917,-4.561434055069089
1757088389325972700,7.67497265625,0.8318245525803416,8.634132407036423,-4.574957553508877
1757088389336018700,7.685018798828125,0.857319497712329,8.624137667244673,-4.589076679754257
1757088389346065700,7.695065673828125,0.8831403868630527,8.613259130355715,-4.604585799053311
1757088389356112000,7.70511181640625,0.9099895961482077,8.601402688345313,-4.62149338697344
1757088389366157800,7.71515771484375,0.9397555696628987,8.588013045418261,-4.640398870712518
1757088389376204800,7.725204833984375,0.972988415570557,8.572346105208993,-4.662461941699683
1757088389386250800,7.735250732421875,1.010952820044756,8.55263719613254,-4.690498241877555
1757088389396297700,7.745297607421875,1.0551769425008446,8.528618022641538,-4.724371285384893
1757088389406343700,7.75534375,1.1058492181830109,8.500425947380066,-4.763424361878633
1757088389416389600,7.7653896484375,1.1617399591658264,8.467111122277378,-4.809240941157936
1757088389426436900,7.775436767578125,1.2215530612241476,8.427209319999813,-4.864189213658869
1757088389436482800,7.78548291015625,1.2839670664958656,8.38012549726367,-4.929029934620857
1757088389446529800,7.79552978515625,1.350547470732033,8.325576745474338,-5.00312042222619
1757088389456575700,7.80557568359375,1.4268695167817174,8.263093693554401,-5.084851779973507
1757088389466622000,7.8156220703125,1.5138381906606255,8.19250332302451,-5.1731601780235765
1757088389476669000,7.8256689453125,1.6054036908105014,8.114948958700895,-5.26694496165812
1757088389486715000,7.83571484375,1.6999587281651793,8.030601280975342,-5.365630376815796
1757088389496761900,7.845761962890625,1.7976498715884983,7.940845606726407,-5.46642533147335
1757088389506807800,7.855807861328125,1.8984461414203047,7.848167323029041,-5.5653013007670635
1757088389516853800,7.865853759765625,2.0060279797390104,7.752136221772432,-5.661327141326666
1757088389526900700,7.875900634765625,2.1233895999245345,7.654526911413669,-5.7506368253737685
1757088389536946700,7.88594677734375,2.2489045698188246,7.557647084373235,-5.830504142814874
1757088389546993700,7.89599365234375,2.3819901210978625,7.46054689258039,-5.902264726167917
1757088389557039600,7.90603955078125,2.5222084468662738,7.363633747792243,-5.965380230772495
1757088389567085800,7.9160859375,2.668446471315622,7.267276483321189,-6.0196758845835925
1757088389577132800,7.9261328125,2.817292924697697,7.1705299272716045,-6.0676814983397716
1757088389587178800,7.9361787109375,2.9670535703152416,7.072679209372401,-6.1109881406247615
1757088389597226000,7.94622607421875,3.118146049058437,6.974049908316135,-6.148997261023521
1757088389607272000,7.95627197265625,3.2706267672896385,6.87376056509316,-6.182621298205852
1757088389617318000,7.96631787109375,3.423917048338055,6.772703744629025,-6.211089267799258
1757088389627364900,7.97636474609375,3.579866027201712,6.671354663220048,-6.232818284526467
1757088389637410800,7.986410888671875,3.7408515389278527,6.57047203027904,-6.245426421687006
1757088389647457800,7.996457763671875,3.9070466019958254,6.470715186497569,-6.247817116215825
1757088389657503700,8.006503662109376,4.075846879126131,6.372182331553101,-6.241247090175747
1757088389667550000,8.016550048828124,4.248976709893346,6.276403159230947,-6.222812438818812
1757088389677597000,8.026596923828125,4.4287820729017255,6.1848582634776825,-6.189007784372568
1757088389687643000,8.036642822265625,4.615007239824533,6.099162093752622,-6.137776194307207
1757088389697689900,8.04668994140625,4.80273608930856,6.018479368275403,-6.0730590997248886
1757088389707735800,8.05673583984375,4.988360075467825,5.942727084937691,-5.997555822712183
1757088389717781800,8.06678173828125,5.167545260751247,5.875174474668502,-5.9117824960976835
1757088389727828700,8.076828857421875,5.338272414290905,5.812963809949159,-5.8208840815544125
1757088389737874700,8.086874755859375,5.499601624888181,5.756635773527622,-5.725898689958453
1757088389747921700,8.096921630859375,5.651555688896775,5.703977950051427,-5.629823749560117
1757088389757967600,8.106967529296876,5.796054760724306,5.655673061087727,-5.530776515352725
1757088389768013800,8.117013916015624,5.931784835162759,5.610318838623166,-5.432185208219289
1757088389778060800,8.127060791015625,6.057779113006592,5.567935740923881,-5.335899255418777
1757088389788106800,8.137106689453125,6.172597332319617,5.528757576745749,-5.244261420685053
1757088389798154000,8.147154052734376,6.276492006558179,5.4923646593719715,-5.1584840024173255
1757088389808200000,8.157199951171876,6.367482775560021,5.460922057881951,-5.07975358005166
1757088389818246000,8.167245849609374,6.447817125990986,5.433223319095373,-5.0076060432076455
1757088389828292900,8.17729296875,6.519628562748432,5.4074739608109,-4.942071787023544
1757088389838338800,8.1873388671875,6.582720686477423,5.383025163730979,-4.884793318009376
1757088389848384800,8.197384765625,6.637972618100047,5.360565494641661,-4.834463937480748
1757088389858431700,8.207431640625,6.687049660480022,5.338883239665627,-4.790623042188584
1757088389868477700,8.217477783203124,6.730832688105106,5.3196881253302095,-4.7504932763740415
1757088389878524700,8.227524658203125,6.769198951378464,5.30480385993123,-4.712472173276543
1757088389888571000,8.23757080078125,6.802406224453449,5.294518612760305,-4.676081593990325
1757088389898616800,8.247616943359375,6.829823808211088,5.287911761841178,-4.6434784242883325
1757088389908663800,8.257663818359376,6.84958883138895,5.283907786896824,-4.618856316468119
1757088389918709800,8.267709716796874,6.860311885455251,5.282008090755343,-4.605097840228677
1757088389928756700,8.2777568359375,6.861836318543553,5.282089339298009,-4.602736956316233
1757088389938802700,8.287802734375,6.854930192416906,5.2838475811421866,-4.6109939125299455
1757088389948848600,8.2978486328125,6.8408186649560925,5.287360557699203,-4.627891271317005
1757088389958895600,8.3078955078125,6.820966548016667,5.292430700570344,-4.65134345857501
1757088389968941600,8.317941650390624,6.7963786347270005,5.298774516639113,-4.680022732831538
1757088389978988800,8.32798876953125,6.76680182710886,5.307239562645554,-4.713172138239443
1757088389989035000,8.338034912109375,6.732022774672508,5.318555906429887,-4.750074174179137
1757088389999081000,8.3480810546875,6.691349988022446,5.333258970043063,-4.7908881228655575
1757088390009128000,8.3581279296875,6.644122372901439,5.351376226013898,-4.836198506188392
1757088390019174000,8.368173828125,6.589945961555838,5.372721796381473,-4.886394323465228
1757088390029220900,8.378220947265625,6.528776914843917,5.397171177983283,-4.9412593015968795
1757088390039266800,8.388266845703125,6.460817477339506,5.425110155266523,-4.999636087241768
1757088390049312800,8.398312744140625,6.385689463379979,5.4577504421085115,-5.0602685428589576
1757088390059359700,8.40835986328125,6.305307182154059,5.494545510542393,-5.120884047341346
1757088390069405700,8.41840576171875,6.217154266926646,5.535739690718055,-5.183912458184361
1757088390079452700,8.42845263671875,6.117856857350469,5.582465201535821,-5.25150306237638
1757088390089499000,8.438498779296875,6.006589608517289,5.635978765058517,-5.322313213136792
1757088390099544800,8.448544921875,5.89119914227426,5.692898337632418,-5.390273235163092
1757088390109591800,8.458591796875,5.7890726467519995,5.741428852045535,-5.449134004932642
1757088390119637800,8.4686376953125,5.729706265547871,5.763612626802921,-5.488318598851561
1757088390129684700,8.478684814453125,5.733249052721262,5.748845265781879,-5.50008970066607
1757088390139730700,8.488730712890625,5.764215853393077,5.723267756932974,-5.494394703894853
1757088390149776600,8.498776611328125,5.778773371055722,5.704883374458551,-5.498220399662852
1757088390159824000,8.508823974609374,5.767184055548906,5.709656580209732,-5.505435737869143
1757088390169869800,8.518869873046874,5.73425852202475,5.746521791270375,-5.501466834238172
1757088390179916800,8.528916748046875,5.683938786107301,5.810755486249923,-5.486196784391999
1757088390189962800,8.538962646484375,5.627430132421851,5.8910611951082945,-5.458739453145862
1757088390200009000,8.549009033203125,5.5632969752073285,5.9791007130891085,-5.428672231662273
1757088390210056000,8.559055908203124,5.480332276272773,6.066867259347439,-5.415670711269974
1757088390220102000,8.569101806640624,5.371455137446523,6.155104345726967,-5.425178544327617
1757088390230148900,8.57914892578125,5.246193265530467,6.243183026674389,-5.447064212921261
1757088390240194800,8.58919482421875,5.123311566749215,6.322271760958433,-5.472746351188421
1757088390250240800,8.59924072265625,5.00547136926651,6.394054556143283,-5.4983367195189
1757088390260287700,8.609287841796874,4.883791155229509,6.470352198404074,-5.518470576009154
1757088390270333700,8.619333740234374,4.755035595978796,6.551603079158068,-5.535024235925078
1757088390280380700,8.629380615234375,4.627323408301175,6.630476124864816,-5.549330993697047
1757088390290427000,8.639427001953125,4.503587430778145,6.702845195505023,-5.564168497344851
1757088390300473000,8.64947314453125,4.378037097309529,6.768913120174408,-5.58435145367384
1757088390310519800,8.659519775390624,4.244281830075383,6.829997995734215,-5.61316487570405
1757088390320566000,8.66956591796875,4.102130490417778,6.8859653821498155,-5.650346313107013
1757088390330613000,8.679613037109375,3.9547321900174017,6.936976607462763,-5.692879048410058
1757088390340659000,8.689658935546875,3.799365394955873,6.984899219110607,-5.739893313041329
1757088390350705000,8.699704833984375,3.6336642528846856,7.033865202331542,-5.787193408876657
1757088390360751900,8.709751953125,3.461946919263899,7.088594571384787,-5.825559087628126
1757088390370797800,8.7197978515625,3.2928175563097,7.152620176571607,-5.845319434630871
1757088390380844800,8.7298447265625,3.1322295194685457,7.225726329314709,-5.8436669912487265
1757088390390890800,8.739890869140625,2.9846035477921364,7.306161802032589,-5.820867714941501
1757088390400938000,8.74993798828125,2.85356192343086,7.390089208519458,-5.780495957064629
1757088390410984000,8.75998388671875,2.7387247071564196,7.470376797199249,-5.732644072565436
1757088390421030000,8.77002978515625,2.6361943070083855,7.543586994838714,-5.684640796896815
1757088390431077000,8.7800771484375,2.537592478480935,7.611621835666894,-5.638638924178481
1757088390441123000,8.790123046875,2.439089580283314,7.676856232121587,-5.5934898688971995
1757088390451169000,8.8001689453125,2.3416661478854714,7.739322917428613,-5.548861038097739
1757088390461216000,8.810216064453124,2.2398004952564836,7.797706717336177,-5.509036392709612
1757088390471262000,8.820261962890624,2.1295419850744306,7.850134823709726,-5.478215722510218
1757088390481309000,8.830308837890625,2.012535754197836,7.898197720611095,-5.453306906703114
1757088390491355000,8.84035498046875,1.893430651345849,7.943588767954707,-5.42998448330462
1757088390501401900,8.85040185546875,1.7750857192113993,7.986753371420503,-5.406591332757473
1757088390511447800,8.86044775390625,1.6614439963318406,8.027774533116817,-5.381900543615222
1757088390521494000,8.870493896484374,1.5517806755639612,8.065989405220746,-5.357442394185066
1757088390531541000,8.880541015625,1.4428471303753554,8.100569720214605,-5.335667200228571
1757088390541587000,8.8905869140625,1.3319870010383426,8.130450479215384,-5.319021770375967
1757088390551634000,8.900634033203126,1.2170364605825394,8.154632149791716,-5.309537902715802
1757088390561680000,8.910679931640624,1.0989510561671108,8.17240161523819,-5.307969045963883
1757088390571725800,8.920725830078124,0.9817151081878691,8.182666404142976,-5.315125931981205
1757088390581773000,8.93077294921875,0.8700625132989138,8.185816977128386,-5.329705076953768
1757088390591818800,8.94081884765625,0.7594073319494724,8.181041433289646,-5.353897853446006
1757088390601866000,8.950865966796876,0.6455188677672297,8.168795115178822,-5.387434212344885
1757088390611912000,8.960911865234374,0.5305174373744055,8.152398107129335,-5.424697482812404
1757088390621958100,8.970958251953125,0.4152560408711433,8.134331704562902,-5.4617386349618435
1757088390632004900,8.9810048828125,0.29845052019841967,8.115511853280664,-5.49725360045731
1757088390642051000,8.991051025390625,0.1799253361262381,8.098996187287568,-5.526687784734368
1757088390652098000,9.00109814453125,0.06363241831788327,8.089189079022407,-5.543585143521428
1757088390662144000,9.01114404296875,-0.05286086720104795,8.081690247699617,-5.554624423930049
1757088390672190000,9.02118994140625,-0.16910324213225394,8.076520736107229,-5.559818485441804
1757088390682237000,9.03123681640625,-0.2774492697564885,8.075691299545765,-5.5566725886315105
1757088390692283000,9.041282958984375,-0.3718462304726243,8.080043649536371,-5.544819069230556
1757088390702329900,9.051329833984376,-0.45057544726189225,8.088703925853967,-5.5263230430752035
1757088390712375800,9.061375732421874,-0.5152068728547543,8.099655527979134,-5.504591103738546
1757088390722421800,9.071421875,-0.5707468276385218,8.112243791395425,-5.480522245886921
1757088390732468700,9.08146875,-0.619395853864774,8.12613027792871,-5.4546062988638875
1757088390742515000,9.091514892578125,-0.6591480916038155,8.140131330752371,-5.429012423402071
1757088390752562000,9.10156201171875,-0.6865307501785457,8.154222399947047,-5.404415742284059
1757088390762607900,9.11160791015625,-0.6976159886207431,8.169991046965121,-5.379123480117321
1757088390772655000,9.121655029296875,-0.6933347311049699,8.188546694353223,-5.351390839061141
1757088390782701000,9.131701171875,-0.6803128255117684,8.209130048176645,-5.3214416909992694
1757088390792747000,9.1417470703125,-0.6654937343034892,8.23094323605597,-5.289526211300492
1757088390802794000,9.1517939453125,-0.6540433158107102,8.253297106683254,-5.256017909452319
1757088390812840000,9.16183984375,-0.6504491637762636,8.275137767091392,-5.222012179476023
1757088390822887000,9.171886962890625,-0.6579029138483107,8.295366316127776,-5.188877971637249
1757088390832932900,9.181932861328125,-0.6771732123117894,8.31404646667838,-5.1564019354462625
1757088390842979000,9.19197900390625,-0.7045042868297546,8.330362226185201,-5.126317762827873
1757088390853025800,9.20202587890625,-0.7322096014875918,8.342033959278464,-5.1034033357083795
1757088390863072000,9.212072021484374,-0.7523707843761891,8.345548689401149,-5.0947185094714165
1757088390873119000,9.222118896484375,-0.763466251951456,8.338769404524564,-5.104157368946075
1757088390883165000,9.2321650390625,-0.7716149985503404,8.323833116677402,-5.127261181157827
1757088390893211000,9.2422109375,-0.7840789049346,8.305432952111959,-5.155132938423752
1757088390903257900,9.2522578125,-0.8026678700704127,8.288714457023143,-5.179125808429718
1757088390913303800,9.2623037109375,-0.8250358422882854,8.278485323953628,-5.191954310342669
1757088390923350800,9.272350830078125,-0.8432583852645009,8.278656588867307,-5.188754052996635
1757088390933396700,9.282396728515625,-0.8415239626873284,8.29101630422473,-5.169262586063146
1757088390943443000,9.29244287109375,-0.8043613761153071,8.314524605584143,-5.137322556445002
1757088390953490000,9.302489990234376,-0.7257330989498645,8.344227669930458,-5.1007431765884155
1757088390963536100,9.3125361328125,-0.607563888708502,8.377592763915658,-5.0613446476578705
1757088390973583000,9.3225830078125,-0.4509099764458835,8.413128187677264,-5.018601484474539
1757088390983629000,9.332629150390625,-0.2600015470776707,8.445886547940969,-4.976925073739886
1757088390993675000,9.342675048828125,-0.046891939726122656,8.469532211944461,-4.943196991661191
1757088391003722000,9.352721923828126,0.16853515992071477,8.480145960417389,-4.922306763845682
1757088391013768000,9.362767822265624,0.36963757797982544,8.476890173491835,-4.916918056544661
1757088391023815000,9.37281494140625,0.5498539329418912,8.45731511992812,-4.933747026270628
1757088391033860900,9.38286083984375,0.7135028551910072,8.416986032149195,-4.981532275274396
1757088391043906800,9.39290673828125,0.8597901256095617,8.35336199350059,-5.064830736207962
1757088391053953800,9.402953857421876,0.9758511845905333,8.26191763551235,-5.192190457186102
1757088391064000000,9.413,1.0464904357634484,8.146301543819904,-5.3584524480104445
1757088391074047000,9.423046875,1.0767805792827159,8.018715612870455,-5.541762604269385
1757088391084093000,9.433093017578125,1.083524573650211,7.886619511020183,-5.7269192651778456
1757088391094140000,9.443139892578126,1.0955922472584991,7.750732784715295,-5.907303304857015
1757088391104185900,9.453185791015626,1.1589455792069434,7.607716644921898,-6.078639530205726
1757088391114231800,9.463231689453124,1.2961337434992193,7.458750072291493,-6.233574655851721
1757088391124279000,9.473279052734375,1.5111968823716044,7.3091703361988065,-6.361027900332212
1757088391134325000,9.483324951171875,1.7982140813425183,7.164984568104147,-6.449792225456237
1757088391144372000,9.4933720703125,2.117433906390518,7.034106025350093,-6.496784278255701
1757088391154418000,9.50341796875,2.414635960897803,6.9212009461820125,-6.514362605044245
1757088391164463900,9.5134638671875,2.663278713288903,6.816565098187327,-6.5277686145842075
1757088391174510800,9.5235107421875,2.8861925656616685,6.706432990863918,-6.54706602025032
1757088391184557000,9.53355712890625,3.120865537150204,6.5803510347366325,-6.567312104943395
1757088391194604000,9.54360400390625,3.3717487619444726,6.437623648756742,-6.584733195343613
1757088391204650000,9.55364990234375,3.623712767712772,6.284313493964076,-6.598978578317165
1757088391214696000,9.563696044921874,3.86860025922358,6.129259125852585,-6.605791180941462
1757088391224743000,9.573742919921875,4.103379029174149,5.977556990778446,-6.603143296781182
1757088391234788900,9.583788818359375,4.329569126738607,5.831049501737952,-6.5896940326213835
1757088391244835800,9.5938359375,4.548011094394326,5.693500979700684,-6.562776215079427
1757088391254881800,9.6038818359375,4.761124268242717,5.57015750862658,-6.5173179477185
1757088391264927700,9.613927734375,4.969302323776483,5.464807959404587,-6.450758440139889
1757088391274974700,9.623974609375,5.16739094697237,5.3715293717265125,-6.372998324111103
1757088391285021000,9.63402099609375,5.358840570545196,5.290310639676451,-6.282184665241837
1757088391295068000,9.64406787109375,5.543959237530827,5.221769602891802,-6.178024618065357
1757088391305113900,9.65411376953125,5.716565628945827,5.165417016550898,-6.067103990712762
1757088391315159600,9.66415966796875,5.873278285658359,5.123473479312658,-5.951892972689866
1757088391325206800,9.674206787109375,6.012507308128476,5.095770648872852,-5.835519925150275
1757088391335252700,9.684252685546875,6.132610774368048,5.080215936866402,-5.723008813735842
1757088391345299700,9.6942998046875,6.234236334630847,5.0757443444103,-5.6161810086548325
1757088391355345700,9.704345703125,6.317300402286649,5.0797635169237845,-5.518882079419494
1757088391365392600,9.714392578125,6.380450978204608,5.091182736560702,-5.435076838007569
1757088391375438600,9.7244384765625,6.420775974330306,5.108208105641603,-5.371245294088125
1757088391385484800,9.73448486328125,6.437177074033022,5.130102542063594,-5.3305912121385335
1757088391395531800,9.74453173828125,6.431371602624655,5.155683558043838,-5.3128918893188235
1757088391405577700,9.75457763671875,6.406864353355765,5.185175025466084,-5.313794975638389
1757088391415624700,9.764624755859375,6.364876976975798,5.219315195477009,-5.330803978106379
1757088391425670700,9.774670654296875,6.302921748322248,5.256813443744182,-5.367444732761383
1757088391435716600,9.784716552734375,6.2197501286387435,5.296584313118458,-5.42505988638401
1757088391445763600,9.794763671875,6.1170712599307295,5.336910478287935,-5.501745651179552
1757088391455809500,9.8048095703125,6.000445114412903,5.374727875506878,-5.59261191701889
1757088391465856800,9.814856689453125,5.88370323356092,5.401732202288508,-5.689792188310623
1757088391475902500,9.82490234375,5.779814404541254,5.411939123526215,-5.785760745725035
1757088391485948700,9.83494873046875,5.708698548832535,5.40435729009509,-5.862942185083031
1757088391495995600,9.84499560546875,5.6715673803120845,5.394673515948653,-5.90772299157381
1757088391506041900,9.855041748046874,5.637623609656095,5.40031181409657,-5.9350020436435935
1757088391516088800,9.8650888671875,5.568897863954305,5.447707771521807,-5.95652998484075
1757088391526134800,9.875134765625,5.474215839219093,5.5388738970905536,-5.960220656052232
1757088391536180700,9.8851806640625,5.383437251663207,5.638022838106751,-5.949930732706189
1757088391546227700,9.895227783203126,5.290467876064777,5.745937853902578,-5.930052896803617
1757088391556273700,9.905273681640624,5.175128263226151,5.870775362926722,-5.909523318994045
1757088391566320600,9.915320556640625,5.037808873769641,6.0044368143975735,-5.893861054959893
1757088391576366600,9.92536669921875,4.893911859488487,6.129339789873361,-5.886528812375665
1757088391586412500,9.93541259765625,4.757259701769054,6.232090554773807,-5.890666058310866
1757088391596459500,9.94545947265625,4.618827674895525,6.312865634709596,-5.914776417216658
1757088391606505700,9.955505615234374,4.466146757917106,6.386345881462097,-5.953025191590189
1757088391616552700,9.965552734375,4.305081166692078,6.460754933497309,-5.9912657826572655
1757088391626598700,9.9755986328125,4.138817422302067,6.537471677953005,-6.025119536942243
1757088391636644600,9.98564453125,3.972755922485888,6.6169415205091235,-6.050094988244772
1757088391646691600,9.995691650390626,3.807807060086727,6.6991323124617335,-6.06568944773972
1757088391656737500,10.005737548828124,3.635992988093197,6.784266756650805,-6.076484982520341
1757088391666784800,10.01578466796875,3.4612226966425776,6.870493087729812,-6.081663846462964
1757088391676830700,10.025830810546875,3.2855802985325453,6.956753905600309,-6.0810296402126545
1757088391686876700,10.035876708984375,3.104903413386643,7.043442593494057,-6.076172263309359
1757088391696923600,10.045923583984376,2.9220179122805594,7.132202826964855,-6.063322134086489
1757088391706969900,10.055969970703124,2.7455340949103233,7.223792730903625,-6.03732201591134
1757088391717016600,10.0660166015625,2.5782395461678504,7.31425509211719,-6.002060732915997
1757088391727062800,10.076062744140625,2.417346096639335,7.398990892377495,-5.9650447152078145
1757088391737108700,10.086108642578125,2.2590482165619727,7.47468355448246,-5.93263882164359
1757088391747155700,10.09615576171875,2.1029706428825854,7.542944605281948,-5.903550089803337
1757088391757201700,10.10620166015625,1.952324592732638,7.607568176361918,-5.872284598445892
1757088391767248600,10.11624853515625,1.8143487851940094,7.670908721894025,-5.834011274152994
1757088391777294600,10.126294677734375,1.6919706520207225,7.733872835329175,-5.787469887730479
1757088391787341600,10.136341552734375,1.5822627614587546,7.797327362629771,-5.7331070139020675
1757088391797387500,10.146387451171876,1.4787500722751021,7.860442867234349,-5.674248582220077
1757088391807433700,10.156433837890624,1.3760383242107928,7.92234081274271,-5.613681593054532
1757088391817480400,10.16648046875,1.2742388686858117,7.98140499612987,-5.5537271828293795
1757088391827526700,10.176526611328125,1.17348994512707,8.035556857556104,-5.497555213752388
1757088391837574000,10.186573974609376,1.0740179096363485,8.08388629643917,-5.446798839983344
1757088391847619800,10.196619873046876,0.9725989047963172,8.12510327296853,-5.404366057923436
1757088391857665800,10.206665771484374,0.8642006355281918,8.15660257308185,-5.375257452338934
1757088391867712800,10.216712646484375,0.751017397005856,8.177594507706164,-5.360345129889249
1757088391877758700,10.2267587890625,0.6388279918264598,8.188183706259727,-5.358723666167259
1757088391887805700,10.2368056640625,0.5308312160313129,8.184612862035632,-5.375940758427977
1757088391897851600,10.2468515625,0.42707967659048734,8.169064579769968,-5.408731267395615
1757088391907897600,10.256897705078124,0.32461814042758197,8.147835913780332,-5.447731736919284
1757088391917944600,10.266944580078125,0.2185425784859806,8.123448491498827,-5.489280137360096
1757088391927990800,10.27699072265625,0.1084094299829565,8.102939956477284,-5.522770319029688
1757088391938037800,10.287037841796876,-0.005118196392859682,8.087641265058517,-5.546207308718562
1757088391948083700,10.297083740234376,-0.1243182343903929,8.07540196121037,-5.562628282165527
1757088391958129700,10.307129638671874,-0.247443295207154,8.067424406459928,-5.57008385886848
1757088391968176600,10.3171767578125,-0.36678069071136415,8.065583747029304,-5.5661663931638
1757088391978222600,10.32722265625,-0.4754562425509095,8.06870626296401,-5.553403942224383
1757088391988269600,10.33726953125,-0.5670271495282649,8.076123845744133,-5.53399430835545
1757088391998315500,10.3473154296875,-0.6404382035020738,8.088708017507194,-5.507544692847133
1757088392008362800,10.35736279296875,-0.703118823820725,8.104547976195812,-5.476522947117686
1757088392018408700,10.36740869140625,-0.7658058008149266,8.120409562194347,-5.444525049832463
1757088392028454700,10.37745458984375,-0.8337395193561911,8.13603383230567,-5.411119039314985
1757088392038501600,10.387501708984376,-0.9075820235498249,8.150861983603239,-5.376812865087389
1757088392048547800,10.3975478515625,-0.9863294701155274,8.165166987809538,-5.341119620415568
1757088392058594800,10.4075947265625,-1.068826113146916,8.179782373139261,-5.302750434532761
1757088392068640800,10.417640869140625,-1.1514224902257322,8.195972460439801,-5.260291348987818
1757088392078686700,10.427686767578125,-1.2288226869009435,8.214552073225379,-5.213592141655087
1757088392088733700,10.437733642578126,-1.295876846128702,8.235521796017885,-5.164036375847458
1757088392098779600,10.447779541015626,-1.3495095059864222,8.257531967774034,-5.114917247891426
1757088392108826600,10.45782666015625,-1.3899825322806834,8.27900496391356,-5.069163796976208
1757088392118872600,10.46787255859375,-1.416955002619326,8.30023012277186,-5.026808756327629
1757088392128918500,10.47791845703125,-1.4288383326366543,8.322786822494864,-4.985983409464359
1757088392138965500,10.487965576171876,-1.4267989357635378,8.34629161672294,-4.947123809716105
1757088392149011700,10.49801171875,-1.4107365664958953,8.365979483011364,-4.918395143359899
1757088392159058700,10.50805859375,-1.3825444912344216,8.374680675861239,-4.91158663238883
1757088392169104600,10.518104736328125,-1.3527458575591444,8.367820726963878,-4.931534026396275
1757088392179152000,10.52815185546875,-1.3317258658841251,8.348393557438254,-4.970030638051033
1757088392189197800,10.53819775390625,-1.309337946856767,8.33014069238901,-5.006472070741653
1757088392199243800,10.548243896484376,-1.2707150784738361,8.325104451787471,-5.024769359454512
1757088392209290800,10.558290771484375,-1.2105323393855243,8.333447917240857,-5.02579870250225
1757088392219336700,10.568336669921875,-1.1248700719300657,8.34886526660323,-5.020112473559379
1757088392229383700,10.5783837890625,-1.007069548870623,8.36753723384738,-5.01403169234097
1757088392239429600,10.5884296875,-0.8534709325253963,8.38872030712962,-5.007131411433219
1757088392249475800,10.598475830078126,-0.6640099985517561,8.412626667895912,-4.995715698927641
1757088392259522600,10.6085224609375,-0.43874972918331623,8.437042147228121,-4.979381234720349
1757088392269568800,10.61856884765625,-0.18407980719087644,8.454377897432446,-4.965884624287486
1757088392279615700,10.62861572265625,0.08867387036159634,8.456582714000344,-4.964750651821494
1757088392289661400,10.638661376953126,0.3593367679135874,8.439564943704008,-4.981467393344641
1757088392299707400,10.648707275390626,0.6032961117288097,8.401283436104654,-5.022438870680332
1757088392309754400,10.65875439453125,0.8058302796240896,8.335584344747662,-5.1028480399131775
1757088392319800300,10.66880029296875,0.9619797494959086,8.237107603904605,-5.234025273352861
1757088392329847600,10.67884765625,1.0793339170273393,8.105157632526755,-5.414039895197749
1757088392339893500,10.6888935546875,1.1655948079630731,7.949023067963123,-5.623592746216058
1757088392349940500,10.6989404296875,1.2336473305784166,7.7802587389290325,-5.840897526535391
1757088392359986400,10.708986328125,1.311229605822265,7.610131304848194,-6.044580608737468
1757088392370032600,10.71903271484375,1.4182725149586797,7.442463538879156,-6.226447580450773
1757088392380079600,10.72907958984375,1.5502638412602245,7.273540219891071,-6.392393929454684
1757088392390125600,10.73912548828125,1.7139071740187704,7.102440141385793,-6.541272823801636
1757088392400172500,10.749172607421874,1.9341689044475554,6.934510509610176,-6.658974489596486
1757088392410218500,10.759218505859375,2.218062710700929,6.776414289584755,-6.732815970876812
1757088392420264400,10.769264404296875,2.522676356638968,6.630287908816337,-6.770951932525635
1757088392430311400,10.7793115234375,2.8060610443264244,6.490427602705359,-6.79490739313066
1757088392440357400,10.789357421875,3.055342386882007,6.346864350423217,-6.822943401047587
1757088392450404400,10.799404296875,3.293214446672797,6.196318984168768,-6.850599469736218
1757088392460450300,10.8094501953125,3.5307644349023697,6.04327361779213,-6.8689856057763095
1757088392470497300,10.819497314453125,3.7726711570367213,5.892329023087024,-6.871523015299439
1757088392480543500,10.82954345703125,4.0147427143439645,5.74768732791841,-6.856846839693188
1757088392490589400,10.83958935546875,4.250408788523078,5.612168850404024,-6.827007581746578
1757088392500636700,10.84963671875,4.477458133265376,5.487029143562912,-6.783456609311699
1757088392510682600,10.8596826171875,4.694152672731876,5.371146509888768,-6.729494717499613
1757088392520729600,10.8697294921875,4.904241530323028,5.2641643910288805,-6.6638838889479635
1757088392530775600,10.879775634765625,5.113241423633695,5.170787019151449,-6.579371376049518
1757088392540821500,10.889821533203126,5.323482256916165,5.092891294044256,-6.472510837742686
1757088392550868500,10.899868408203124,5.53339751150608,5.029014157417416,-6.345147609633207
1757088392560914400,10.90991455078125,5.732641734477877,4.974860542425513,-6.209505798000097
1757088392570961400,10.91996142578125,5.910139405065775,4.930397715842724,-6.077154844605922
1757088392581007400,10.93000732421875,6.063576985630393,4.898564361469448,-5.9504182239621874
1757088392591053600,10.940053466796876,6.195188518834113,4.878471713772416,-5.830141739243269
1757088392601100500,10.9501005859375,6.303826003685593,4.866459788939356,-5.722735842013359
1757088392611146500,10.960146484375,6.388655327448248,4.8596118227407334,-5.6337920686692
1757088392621193500,10.970193359375,6.450691804644465,4.856469433061778,-5.565397162356972
1757088392631239400,10.980239501953125,6.49230976319015,4.8572985773622985,-5.516065852954983
1757088392641285400,10.990285400390626,6.510076306027174,4.862558105325698,-5.490430476438999
1757088392651332400,11.000332275390624,6.498085423982143,4.873180037105083,-5.495215372627973
1757088392661378300,11.01037841796875,6.457044388541579,4.889676706136763,-5.528835318157077
1757088392671425500,11.020425537109375,6.393678124046326,4.911019061633945,-5.5832934690535065
1757088392681471200,11.03047119140625,6.308472952708602,4.935709266254306,-5.657941006019711
1757088392691518500,11.0405185546875,6.197998315557837,4.964537301331759,-5.7540025024145836
1757088392701564700,11.050564697265624,6.0601505183130495,5.000093183359503,-5.8689048928797245
1757088392711610600,11.060610595703125,5.895170383992791,5.045955939868092,-5.996307868477702
1757088392721657600,11.07065771484375,5.710269159150124,5.101581380978226,-6.126753280511498
1757088392731703600,11.08070361328125,5.5178615042001,5.162677946975827,-6.250628666505217
1757088392741750500,11.09075048828125,5.330425792443752,5.2286687147557735,-6.357512001165747
1757088392751796500,11.10079638671875,5.149201210287213,5.304736639913917,-6.443284158736467
1757088392761842400,11.110842529296875,4.975440388140082,5.39669303907752,-6.503159658506513
1757088392771889400,11.120889404296875,4.817028818555176,5.494625590041279,-6.5403182995557785
1757088392781935400,11.130935302734375,4.663866255539656,5.601238875588774,-6.560857814237475
1757088392791982300,11.140982421875,4.510555223964155,5.714373671859502,-6.570477875497937
1757088392802028500,11.151028564453124,4.3668090163305395,5.8164422997146845,-6.578022299528121
1757088392812075300,11.1610751953125,4.242070291505754,5.902523084843159,-6.582966185671091
1757088392822121500,11.17112158203125,4.126476703906059,5.985370879399776,-6.581631722196936
1757088392832167400,11.18116748046875,4.012452849841118,6.072770345911383,-6.572066605994105
1757088392842214700,11.191214599609374,3.8912463907957076,6.164742527166009,-6.559307077664137
1757088392852260400,11.20126025390625,3.7560967465937134,6.256257612302899,-6.551437659463286
1757088392862307600,11.2113076171875,3.6135718974485993,6.342003466388583,-6.549156855049729
1757088392872353500,11.221353515625,3.4643501810133457,6.424298303237557,-6.5495812179416415
1757088392882399500,11.2313994140625,3.3110411952644583,6.508731321159005,-6.545520544373988
1757088392892446500,11.241446533203124,3.1600039538398383,6.598381196945906,-6.5303995476096866
1757088392902492400,11.251492431640624,3.0098239137664438,6.69486764075458,-6.5030860087484115
1757088392912539400,11.261539306640625,2.848464892552793,6.801106247770786,-6.465413572958111
1757088392922585600,11.271585693359375,2.6692113182082773,6.916146585401893,-6.41970571475029
1757088392932631600,11.281631591796875,2.480423899582028,7.035192651543021,-6.365842022615671
1757088392942678500,11.291678466796874,2.294622657159716,7.148499297249317,-6.309045784160494
1757088392952724500,11.301724365234374,2.1155817026525736,7.246794836306572,-6.259287773779034
1757088392962771500,11.311771484375,1.950367467315495,7.331759769147634,-6.213837105202675
1757088392972817400,11.3218173828125,1.8009927522756157,7.411546422567963,-6.164072665080428
1757088392982864400,11.331864501953126,1.659172982659936,7.490698285216093,-6.107945704188943
1757088392992910300,11.341910400390624,1.5133400318801402,7.570064082875847,-6.0476733140558
1757088393002956300,11.351956298828124,1.3621258264534175,7.6467235441863535,-5.986873100656271
1757088393013003300,11.362003173828125,1.2140694274704902,7.7183461803734295,-5.926514785805344
1757088393023049500,11.372049560546875,1.0772136369377374,7.785843261063098,-5.864353220924735
1757088393033096400,11.382096435546876,0.953813613370806,7.850776044222712,-5.798790323168039
1757088393043142700,11.392142578125,0.8454485887851566,7.9135595403939485,-5.729848888888955
1757088393053188600,11.402188720703125,0.7533988122496753,7.973678201270103,-5.658907805225253
1757088393063235600,11.412235595703125,0.6696672205958515,8.02911075015664,-5.590646169903874
1757088393073281500,11.422281494140625,0.5876349071405828,8.077122209131717,-5.530384885686636
1757088393083328500,11.43232861328125,0.5047640239693224,8.116938086691498,-5.480049367678165
1757088393093374500,11.44237451171875,0.42457459843438117,8.148644892075657,-5.439641369444131
1757088393103421400,11.45242138671875,0.3500461943358183,8.17226951329112,-5.409421587747335
1757088393113467400,11.46246728515625,0.2784679270134307,8.18844148041308,-5.389088409292698
1757088393123513300,11.472513427734375,0.20900867940532042,8.197862219709158,-5.37789423058331
1757088393133560300,11.482560302734376,0.1365606343779247,8.198587611374258,-5.379118219420313
1757088393143606500,11.4926064453125,0.05792927020625211,8.18705791710019,-5.398065496474504
1757088393153653500,11.502653564453125,-0.026583050895947962,8.161529508090018,-5.4368292346328495
1757088393163699500,11.512699462890625,-0.11615009810444898,8.129371451807021,-5.4836301487743855
1757088393173746400,11.522746337890625,-0.21206192949609828,8.099327611199021,-5.5250598912715905
1757088393183792400,11.53279248046875,-0.3178885033790022,8.0730878390491,-5.558289376178384
1757088393193838300,11.54283837890625,-0.4355991196652874,8.049805747660994,-5.584018276196718
1757088393203885600,11.552885498046875,-0.5550966193683445,8.030366887697577,-5.601380329886078
1757088393213931500,11.562931640625,-0.6585613046918064,8.018730810439585,-5.606837426248193
1757088393223978500,11.572978515625,-0.7425615572191775,8.01736244469583,-5.598292300742864
1757088393234024400,11.5830244140625,-0.8101540611073375,8.025506003662944,-5.577211518791318
1757088393244070700,11.593070556640624,-0.8671240486942231,8.040532892403006,-5.54691867185831
1757088393254117400,11.603117431640625,-0.9165094994362443,8.059625715407728,-5.511152946472167
1757088393264163600,11.61316357421875,-0.9642271630965172,8.079792305123805,-5.473352500388026
1757088393274210600,11.62321044921875,-1.017834761578217,8.09886057820916,-5.435332274073362
1757088393284256500,11.633256591796876,-1.0802936289049685,8.115347018107771,-5.3985640936464065
1757088393294304000,11.643303955078125,-1.1509671476736665,8.127946971961855,-5.3648973863661285
1757088393304350000,11.653349853515625,-1.2270572846636176,8.136802478590607,-5.334526213499903
1757088393314396000,11.66339599609375,-1.302153588310629,8.14485426762104,-5.304351439988613
1757088393324443000,11.67344287109375,-1.3682843490831553,8.155479706531763,-5.271274515295028
1757088393334488800,11.68348876953125,-1.4220514489755034,8.16891201955676,-5.2361272140681745
1757088393344535800,11.693535888671875,-1.4640012698240576,8.183450832518934,-5.201753235301375
1757088393354581800,11.703581787109375,-1.4932213729590176,8.198615668424964,-5.1694659996807575
1757088393364627700,11.713627685546875,-1.513661226658523,8.215020859780907,-5.137379839590191
1757088393374675000,11.723675048828126,-1.5324505366720258,8.232881510642171,-5.10310347597897
1757088393384721200,11.73372119140625,-1.552308791091293,8.252076040455698,-5.065962370586395
1757088393394768000,11.743767822265625,-1.5714435535416007,8.272430846220255,-5.026714063781499
1757088393404814000,11.75381396484375,-1.5852176657415926,8.293112984243034,-4.9881595844596625
1757088393414861000,11.763861083984375,-1.5889793563626706,8.313117661395669,-4.953543029108643
1757088393424907000,11.773906982421876,-1.5800618904136121,8.330066458109021,-4.927855630144476
1757088393434953000,11.783952880859376,-1.557805050420016,8.341156591922044,-4.916170453047752
1757088393445000000,11.794,-1.5241168619602918,8.343926056635379,-4.922027946904302
1757088393455046000,11.8040458984375,-1.4831754875019192,8.337486963498591,-4.945390117791295
1757088393465092900,11.8140927734375,-1.4330721708141267,8.327091826212406,-4.977573308515549
1757088393475138800,11.824138916015626,-1.366307057660818,8.321910624182223,-5.004938869825005
1757088393485185800,11.834185791015624,-1.2798302589520811,8.326165943539142,-5.020695826405286
1757088393495231700,11.844231689453125,-1.1738079981002956,8.338595217001437,-5.025970551937818
1757088393505278000,11.85427783203125,-1.0466225377105176,8.355631107476354,-5.025773568060994
1757088393515325000,11.864324951171875,-0.8982010317422449,8.373281914979218,-5.025114227369428
1757088393525371000,11.874370849609376,-0.726556398031488,8.38972743834555,-5.025432207277417
1757088393535418000,11.884418212890624,-0.5255920002035797,8.403853578853607,-5.026866039472818
1757088393545464000,11.894464111328125,-0.29953033305807036,8.412641865465044,-5.0307186232477425
1757088393555511000,11.904510986328125,-0.06766926805195399,8.41031897547543,-5.04304969703257
1757088393565557000,11.914556884765625,0.14784496645564213,8.390114976358413,-5.0748874353200195
1757088393575603000,11.92460302734375,0.33293183179721236,8.350464518493414,-5.131206119391321
1757088393585650000,11.93464990234375,0.4792288929574191,8.2875834071666,-5.220792282292247
1757088393595695900,11.94469580078125,0.5784610918102786,8.190238300701976,-5.362439471819997
1757088393605742800,11.954742919921875,0.6388437739174813,8.0497601549536,-5.564497583168745
1757088393615789000,11.9647890625,0.6890506971102207,7.869040015187859,-5.811524717056751
1757088393625835000,11.9748349609375,0.7686105560373514,7.67627112571001,-6.054292439934611
1757088393635882000,11.984882080078124,0.9081642073519527,7.491037892434001,-6.26338118057251
1757088393645928000,11.994927978515625,1.091739663483575,7.304153384819626,-6.451961970710754
1757088393655975000,12.004974853515625,1.2902077144511044,7.109581245312095,-6.630203153142332
1757088393666020900,12.015020751953125,1.516138868818432,6.908330358693004,-6.793136876326799
1757088393676067800,12.02506787109375,1.785274081879109,6.7067918873041865,-6.928355494111776
1757088393686113800,12.03511376953125,2.0903024460978803,6.516054795914888,-7.024388933455944
1757088393696159700,12.04515966796875,2.3999844813413915,6.3474886198014016,-7.079535066616534
1757088393706207000,12.05520703125,2.689325593215227,6.199547883087396,-7.106584401583671
1757088393716253000,12.0652529296875,2.9565850755319,6.057246029043197,-7.123115849667787
1757088393726300000,12.0752998046875,3.2095331239014864,5.902124440914392,-7.143826044741273
1757088393736346000,12.08534619140625,3.4748341656267643,5.726604207879305,-7.162535421386361
1757088393746393000,12.09539306640625,3.7549353015989064,5.540546214216947,-7.167507364580035
1757088393756439000,12.10543896484375,4.024195310083031,5.361549244982004,-7.1575143783539525
1757088393766485000,12.115485107421875,4.267038144023716,5.20258325638473,-7.134134671810269
1757088393776532000,12.125531982421874,4.488335208849609,5.064935365626216,-7.097301024931669
1757088393786578000,12.135577880859374,4.697106261840462,4.943856916874647,-7.047401560252904
1757088393796625000,12.145625,4.903225046756863,4.833874739415943,-6.9830117979288095
1757088393806670800,12.1556708984375,5.109554259553551,4.732293310555815,-6.9042211698085065
1757088393816717800,12.1657177734375,5.314256163409352,4.638897818499803,-6.8124658461749545
1757088393826763800,12.175763671875,5.506456897610426,4.557722341069579,-6.713900258004665
1757088393836810000,12.18581005859375,5.691278627476096,4.492681713621318,-6.602687954229116
1757088393846857000,12.19585693359375,5.870664303767681,4.446241741746664,-6.475849626776576
1757088393856903000,12.20590283203125,6.0361973957955835,4.419550134176015,-6.340529886704683
1757088393866950100,12.2159501953125,6.18402473526299,4.40911641844511,-6.203865746286511
1757088393876996000,12.22599609375,6.312759836247563,4.4125586678534745,-6.070321199193597
1757088393887041800,12.236041748046874,6.416838634881377,4.42558473816514,-5.950525191468
1757088393897089000,12.246089111328125,6.487054326879978,4.4457671099722385,-5.8586424420624965
1757088393907135000,12.256135009765625,6.519831976366043,4.469361043788492,-5.804048682087659
1757088393917182000,12.266181884765626,6.518528492552042,4.4905432402878995,-5.789144542944431
1757088393927228000,12.276227783203124,6.487694962871075,4.50762647703588,-5.8104661479145285
1757088393937275000,12.28627490234375,6.432540646404028,4.522075565887987,-5.860341647195816
1757088393947320800,12.29632080078125,6.359145155325532,4.537572410227358,-5.928075459250808
1757088393957367000,12.306366943359375,6.272884337455034,4.559338836355507,-6.0028095054566855
1757088393967414000,12.3164140625,6.1744251322686665,4.588311832861602,-6.0822927920162675
1757088393977460000,12.3264599609375,6.063156129869818,4.625003148660063,-6.165864809194207
1757088393987507000,12.3365068359375,5.941674361014366,4.670280798757076,-6.24943098115325
1757088393997553000,12.346552978515625,5.818883847647905,4.724695402772724,-6.323622006523609
1757088394007599900,12.356599853515625,5.709797449985146,4.789810264500975,-6.373876860511302
1757088394017645800,12.366645751953126,5.620770090010762,4.868893738088011,-6.393057946321368
1757088394027691800,12.37669189453125,5.542670366764068,4.963789113312959,-6.388267789435386
1757088394037739000,12.386739013671875,5.464470690274238,5.0697173392057415,-6.372430168834328
1757088394047784700,12.39678466796875,5.382514876121283,5.173426720005273,-6.358817823067307
1757088394057832000,12.40683203125,5.292052514907717,5.261062333360314,-6.362843425321579
1757088394067878000,12.4168779296875,5.190749026206135,5.327002832257747,-6.391368678060173
1757088394077924900,12.4269248046875,5.074840673568844,5.381193272128701,-6.438874525600672
1757088394087971000,12.43697119140625,4.9512072796374555,5.436617637708783,-6.488385283222794
1757088394098017000,12.44701708984375,4.842093409445882,5.496239454978704,-6.5204211744308465
1757088394108064000,12.45706396484375,4.754556288029253,5.566247641706466,-6.525448062682152
1757088394118110000,12.46710986328125,4.678147294348478,5.648118700185417,-6.510306023129821
1757088394128157000,12.477156982421874,4.605673886550963,5.738588075661659,-6.482806021785736
1757088394138203000,12.487202880859375,4.523792891199887,5.835682422235608,-6.4537219661206
1757088394148249900,12.497249755859375,4.423415869693458,5.937491522371769,-6.430396035590768
1757088394158295800,12.5072958984375,4.305172059845924,6.039350891390442,-6.415772466954588
1757088394168341800,12.517341796875,4.172780482180416,6.135470839974284,-6.412044386342168
1757088394178388700,12.527388671875,4.026964482535422,6.222911807540059,-6.4210097830861805
1757088394188435000,12.53743505859375,3.8658024451985953,6.303318054163456,-6.441594305953383
1757088394198482000,12.54748193359375,3.6884158337697386,6.381977164858579,-6.468104127216339
1757088394208528100,12.557528076171875,3.496220360265672,6.462632417806983,-6.494709810069203
1757088394218575000,12.5675751953125,3.293157163527608,6.54531187005937,-6.518003007373213
1757088394228621000,12.57762109375,3.0824490049943325,6.629146922087669,-6.536303803217411
1757088394238668000,12.58766796875,2.8749764673814178,6.715560884693264,-6.542641774067282
1757088394248714000,12.5977138671875,2.6800091910764574,6.805525817778706,-6.532440698048472
1757088394258760000,12.607760009765625,2.5032871810361743,6.897152546596526,-6.506396740731597
1757088394268807000,12.617806884765624,2.3442783762104806,6.9893088522464035,-6.467172983846068
1757088394278852900,12.627852783203124,2.2051173044100403,7.081506074428558,-6.415613477000594
1757088394288899800,12.63789990234375,2.0893552283756436,7.172475216120481,-6.352997154089808
1757088394298946300,12.6479462890625,1.9905650376692414,7.259966452568769,-6.2849775108307595
1757088394308993300,12.6579931640625,1.9039302719198166,7.343800920075178,-6.214020645076036
1757088394319039200,12.668039306640624,1.8310012293092905,7.424720376917719,-6.139329268968105
1757088394329085400,12.67808544921875,1.7679207960180938,7.502287600722909,-6.063046824276447
1757088394339132400,12.68813232421875,1.7055575710855424,7.577036259976029,-5.987485679596662
1757088394349178400,12.698178466796875,1.636928709886968,7.648611549890041,-5.9151990265429015
1757088394359225300,12.708225341796876,1.5598646132983267,7.714659600815176,-5.849892149373889
1757088394369271300,12.718271240234374,1.4741561686135827,7.7742416705965995,-5.792964393493532
1757088394379318300,12.728318359375,1.3816454965680838,7.828830169874429,-5.742025648894906
1757088394389364200,12.7383642578125,1.284421532265097,7.878791009351611,-5.696079890277981
1757088394399411500,12.748411376953126,1.185911108348146,7.924349229955673,-5.654084330591559
1757088394409457400,12.75845751953125,1.0896888684336095,7.966464616629481,-5.614125245168805
1757088394419503400,12.76850341796875,0.9941527110870927,8.00490511418283,-5.577056035968661
1757088394429550300,12.77855029296875,0.897566825491935,8.038293589043617,-5.545321173533797
1757088394439596300,12.78859619140625,0.7996306943316012,8.065360459667444,-5.520953624996543
1757088394449643300,12.798643310546876,0.7023660326920449,8.083976897332072,-5.506937959125637
1757088394459689500,12.808689453125,0.6074844667967408,8.093495251783729,-5.504242144170403
1757088394469736400,12.818736328125,0.5182381668420508,8.092699132969974,-5.514530313950777
1757088394479782400,12.828782470703125,0.4368411190830171,8.081081175890564,-5.538561177879572
1757088394489829400,12.838829345703125,0.35949670771565284,8.06072344751656,-5.573678668490052
1757088394499875300,12.848875244140626,0.2795016357090324,8.03597537522912,-5.61385461153388
1757088394509921300,12.85892138671875,0.19648825706085188,8.00941645412743,-5.655177386525273
