time,seconds_elapsed,z,y,x
1757088381665596700,0.0145966796875,-0.051656004041433334,0.150650754570961,0.17294780910015106
1757088381675643600,0.0246435546875,0.004264253657311201,0.12990020215511322,0.13846759498119354
1757088381685689600,0.034689697265625,0.06482666730880737,0.06447965651750565,0.10807374119758606
1757088381695735800,0.04473583984375,0.107864148914814,-0.023810790851712227,0.10834191739559174
1757088381705782500,0.054782470703125,0.13164830207824707,-0.10077854245901108,0.14148975908756256
1757088381715828700,0.064828857421875,0.13686464726924896,-0.17152968049049377,0.21010157465934753
1757088381725874700,0.074874755859375,0.11433829367160797,-0.23126278817653656,0.2967728078365326
1757088381735921700,0.084921630859375,0.07837416976690292,-0.2629605233669281,0.38489416241645813
1757088381745967600,0.094967529296875,0.03798866271972656,-0.2587766945362091,0.4607236683368683
1757088381756013600,0.105013671875,0.009851299226284027,-0.2075907438993454,0.5075294971466064
1757088381766060500,0.115060546875,-0.0024530377704650164,-0.157207190990448,0.5228256583213806
1757088381776106500,0.1251064453125,0.010600713081657887,-0.1031104028224945,0.5088198184967041
1757088381786153500,0.135153564453125,0.040397223085165024,-0.056958623230457306,0.4754229784011841
1757088381796199700,0.14519970703125,0.07864873856306076,-0.009298427030444145,0.4250764548778534
1757088381806245600,0.15524560546875,0.10781381279230118,0.02159211039543152,0.35612961649894714
1757088381816292900,0.16529296875,0.1287582516670227,0.04315679147839546,0.27682948112487793
1757088381826338800,0.1753388671875,0.12698298692703247,0.0683891773223877,0.18861252069473267
1757088381836384800,0.185384765625,0.11403229832649231,0.10030397027730942,0.10806361585855484
1757088381846431700,0.195431640625,0.10143980383872986,0.16004213690757751,0.05414313077926636
1757088381856477700,0.205477783203125,0.08999620378017426,0.24363502860069275,0.04272216185927391
1757088381866524700,0.215524658203125,0.07546093314886093,0.3094406723976135,0.07170481234788895
1757088381876570600,0.225570556640625,0.04037432000041008,0.36750903725624084,0.14143116772174835
1757088381886616800,0.235616943359375,-0.018736403435468674,0.4136355221271515,0.22637614607810974
1757088381896663600,0.24566357421875,-0.047627706080675125,0.3907720148563385,0.30560198426246643
1757088381906709800,0.255709716796875,0.0914662703871727,0.41469520330429077,0.34663304686546326
1757088381916755700,0.265755615234375,0.17453931272029877,0.5496543645858765,0.37668442726135254
1757088381926802700,0.275802734375,0.21705694496631622,0.6323433518409729,0.40686070919036865
1757088381936848600,0.2858486328125,0.2323397696018219,0.7904365658760071,0.47979670763015747
1757088381946895600,0.2958955078125,0.23267558217048645,0.9923478960990906,0.575465977191925
1757088381956941600,0.305941650390625,0.24602201581001282,1.0934438705444336,0.6769294738769531
1757088381966987500,0.315987548828125,0.2875675857067108,1.1017510890960693,0.8063079714775085
1757088381977034500,0.326034423828125,0.3464386463165283,1.088186502456665,0.9619399309158325
1757088381987080400,0.33608056640625,0.4115380048751831,1.0074397325515747,1.1148663759231567
1757088381997126700,0.346126708984375,0.5096560716629028,0.8054842352867126,1.2614635229110718
1757088382007174000,0.356173828125,0.4955649971961975,0.6164019703865051,1.3689497709274292
1757088382017219800,0.3662197265625,0.06576969474554062,0.2730565667152405,1.1607939004898071
1757088382027266800,0.376266845703125,-0.5942692160606384,-0.0041340249590575695,0.6957185864448547
1757088382037312800,0.386312744140625,-1.1203510761260986,-0.15611609816551208,0.30417507886886597
1757088382047358700,0.396358642578125,-1.4232255220413208,-0.16424380242824554,0.046436209231615067
1757088382057405700,0.40640576171875,-1.6445016860961914,-0.10741434246301651,-0.15111175179481506
1757088382067451600,0.41645166015625,-1.7631218433380127,-0.03828027844429016,-0.24870514869689941
1757088382077497600,0.42649755859375,-1.6741002798080444,0.04219166189432144,-0.20174776017665863
1757088382087544600,0.436544677734375,-1.5574722290039062,-0.1116919070482254,-0.1368180364370346
1757088382097590800,0.4465908203125,-1.5238666534423828,-0.5624050498008728,-0.11162426322698593
1757088382107637800,0.4566376953125,-1.5292768478393555,-1.2948541641235352,-0.0760367140173912
1757088382117683700,0.46668359375,-1.526249885559082,-2.2494640350341797,0.011856925673782825
1757088382127729700,0.476729736328125,-1.4922120571136475,-3.2991058826446533,0.18477091193199158
1757088382137776600,0.486776611328125,-1.4491980075836182,-4.35864782333374,0.4509325623512268
1757088382147822600,0.496822509765625,-1.4334744215011597,-5.499439716339111,0.7872304320335388
1757088382157868500,0.50686865234375,-1.4775246381759644,-6.514280319213867,1.1449073553085327
1757088382167915500,0.51691552734375,-1.5793498754501343,-6.992837905883789,1.2927089929580688
1757088382177961500,0.52696142578125,-1.7999382019042969,-5.0549845695495605,0.6266761422157288
1757088382188008700,0.5370087890625,-1.7307140827178955,-3.505298137664795,0.4023929834365845
1757088382198055000,0.547054931640625,-1.1987287998199463,-2.1228253841400146,0.26068592071533203
1757088382208100600,0.5571005859375,-0.33611810207366943,-1.1998512744903564,0.11412391066551208
1757088382218147800,0.56714794921875,0.4518934190273285,-0.9089054465293884,-0.049735333770513535
1757088382228193800,0.57719384765625,0.8207350969314575,-1.2659804821014404,-0.20799873769283295
1757088382238239700,0.58723974609375,0.8786618113517761,-1.8990466594696045,-0.2840522229671478
1757088382248286700,0.59728662109375,0.9225615859031677,-2.398043394088745,-0.22890855371952057
1757088382258332700,0.607332763671875,0.9962379336357117,-2.1047585010528564,-0.00036911413189955056
1757088382268379600,0.617379638671875,0.951530396938324,-2.291517496109009,0.3620080053806305
1757088382278425600,0.627425537109375,0.7654289603233337,-2.353231430053711,0.720135509967804
1757088382288471800,0.637471923828125,0.5293482542037964,-2.6970229148864746,1.0440582036972046
1757088382298518800,0.647518798828125,0.4061877131462097,-3.28403639793396,1.3283079862594604
1757088382308564700,0.657564697265625,0.5997228622436523,-4.207422256469727,1.4002126455307007
1757088382318610700,0.667610595703125,0.7910525798797607,-4.639237403869629,1.5869768857955933
1757088382328657700,0.67765771484375,0.9180872440338135,-4.945384502410889,1.9848637580871582
1757088382338703600,0.68770361328125,1.0032987594604492,-5.3036932945251465,2.5333030223846436
1757088382348750600,0.69775048828125,1.0597599744796753,-5.583740234375,3.0748040676116943
1757088382358796500,0.707796630859375,1.1158878803253174,-5.819025039672852,3.522120952606201
1757088382368842500,0.717842529296875,1.2271169424057007,-5.977722644805908,3.9068410396575928
1757088382378889500,0.727889404296875,1.4363975524902344,-6.026501178741455,4.266293048858643
1757088382388935700,0.737935791015625,1.6737560033798218,-5.978122234344482,4.614967346191406
1757088382398981600,0.747981689453125,1.902970314025879,-5.902776718139648,4.906480312347412
1757088382409028900,0.75802880859375,2.127418041229248,-5.850376605987549,5.07309103012085
1757088382419074800,0.76807470703125,2.3413243293762207,-5.832408905029297,5.061041355133057
1757088382429121800,0.778121826171875,2.5554134845733643,-5.799593925476074,4.859777927398682
1757088382439167700,0.788167724609375,2.8264710903167725,-5.577746868133545,4.541493892669678
1757088382449213700,0.798213623046875,3.161923408508301,-5.037485122680664,4.1464080810546875
1757088382459260700,0.8082607421875,3.559519052505493,-4.220948219299316,3.648991584777832
1757088382469306600,0.818306640625,3.9882490634918213,-3.2823984622955322,3.037479877471924
1757088382479352800,0.828352783203125,4.368063449859619,-2.318420648574829,2.350982904434204
1757088382489399600,0.838399658203125,4.601846218109131,-1.3175067901611328,1.6376930475234985
1757088382499445800,0.84844580078125,4.624217987060547,-0.4514361619949341,0.9689871668815613
1757088382509492700,0.85849267578125,4.538087368011475,0.19296705722808838,0.38351970911026
1757088382519538700,0.86853857421875,4.450562477111816,0.6677935123443604,-0.11869575828313828
1757088382529584600,0.878584716796875,4.405074596405029,1.0106048583984375,-0.5420563220977783
1757088382539631600,0.888631591796875,4.371031284332275,1.2213387489318848,-0.8927134275436401
1757088382549677600,0.898677490234375,4.318346977233887,1.1398260593414307,-1.1104931831359863
1757088382559723500,0.9087236328125,4.300167083740234,0.7324675917625427,-1.1056203842163086
1757088382569770500,0.9187705078125,4.208393096923828,0.19074144959449768,-0.8629315495491028
1757088382579816700,0.928816650390625,4.007358551025391,-0.1829703450202942,-0.36266767978668213
1757088382589863700,0.93886376953125,3.808162212371826,-0.2759506106376648,0.18433868885040283
1757088382599910000,0.948909912109375,3.678197145462036,-0.1730404943227768,0.5438867211341858
1757088382609955800,0.958955810546875,3.645843505859375,0.017289508134126663,0.6494821310043335
1757088382620002800,0.9690029296875,3.7187743186950684,0.35560205578804016,0.557543158531189
1757088382630048800,0.979048828125,3.7377686500549316,0.666930079460144,0.4243305027484894
1757088382640094700,0.9890947265625,3.6518588066101074,0.8237101435661316,0.29154103994369507
1757088382650141700,0.9991416015625,3.5169262886047363,0.7957245707511902,0.1479947865009308
1757088382660187600,1.009187744140625,3.2831239700317383,0.5918025970458984,0.08968301117420197
1757088382670234600,1.019234619140625,2.9220023155212402,0.31213924288749695,0.15892785787582397
1757088382680280600,1.029280517578125,2.5691375732421875,0.12490997463464737,0.2769189476966858
1757088382690326800,1.039326904296875,2.3067028522491455,0.13540123403072357,0.35163846611976624
1757088382700373800,1.049373779296875,2.091593027114868,0.3107594847679138,0.3577269911766052
1757088382710419700,1.059419677734375,1.8734006881713867,0.5900529026985168,0.3342381715774536
1757088382720465700,1.069465576171875,1.689811110496521,0.8957041501998901,0.29675498604774475
1757088382730512600,1.0795126953125,1.5092653036117554,1.1216890811920166,0.25420165061950684
1757088382740558600,1.08955859375,1.284846544265747,1.3131940364837646,0.19412313401699066
1757088382750605600,1.09960546875,0.9667450189590454,1.4921891689300537,0.10460177809000015
1757088382760651500,1.109651611328125,0.3859602212905884,1.9063948392868042,-0.1344214528799057
1757088382770697500,1.119697509765625,0.19073240458965302,1.7218079566955566,-0.45332860946655273
1757088382780744700,1.12974462890625,0.09291396290063858,1.2777812480926514,-0.5222445726394653
1757088382790790700,1.139790771484375,0.16964362561702728,1.0992416143417358,-0.4235595166683197
1757088382800836600,1.149836669921875,0.3219687044620514,1.3537648916244507,-0.2936822175979614
1757088382810883800,1.1598837890625,0.4674002230167389,1.973888635635376,-0.12944187223911285
1757088382820929800,1.1699296875,0.6088814735412598,2.5787508487701416,0.05112843215465546
1757088382830976800,1.179976806640625,0.6074462532997131,3.023744583129883,0.19259661436080933
1757088382841022700,1.190022705078125,0.44041067361831665,2.9143776893615723,0.31220582127571106
1757088382851068700,1.200068603515625,0.35206058621406555,2.488659143447876,0.36714819073677063
1757088382861115600,1.21011572265625,0.47326716780662537,2.103436231613159,0.38527578115463257
1757088382871161600,1.22016162109375,0.6837953925132751,1.6818487644195557,0.41049113869667053
1757088382881208600,1.23020849609375,0.8295807838439941,1.0697628259658813,0.4435018002986908
1757088382891254800,1.2402548828125,0.9155963659286499,0.45418426394462585,0.49977439641952515
1757088382901300700,1.25030078125,0.9684705138206482,-0.02419881336390972,0.46354636549949646
1757088382911347700,1.26034765625,0.9501569867134094,-0.32508087158203125,0.5250520706176758
1757088382921393700,1.2703935546875,0.8766207695007324,-1.3340638875961304,0.8662613034248352
1757088382931439600,1.280439697265625,0.9209610223770142,-1.774379014968872,1.473442554473877
1757088382941486600,1.290486572265625,1.0865217447280884,-1.9698209762573242,1.78373122215271
1757088382951532500,1.300532470703125,1.1188714504241943,-2.191490411758423,1.931906819343567
1757088382961579500,1.31057958984375,1.0429670810699463,-1.9582926034927368,1.4801300764083862
1757088382971625500,1.32062548828125,0.9010360836982727,-1.0672216415405273,0.8709820508956909
1757088382981671700,1.330671630859375,0.6455395817756653,-0.2729652225971222,0.30292338132858276
1757088382991718700,1.34071875,0.3066571354866028,0.3935483694076538,0.0409703366458416
1757088383001764900,1.350764892578125,0.05428560823202133,0.7493954300880432,-0.1250511258840561
1757088383011811800,1.360811767578125,-0.16837090253829956,0.8181145787239075,-0.13683907687664032
1757088383021857800,1.37085791015625,-0.2816268801689148,0.8054336309432983,-0.00187992537394166
1757088383031903700,1.38090380859375,-0.22559024393558502,0.5158356428146362,0.11529649794101715
1757088383041950700,1.39095068359375,-0.10898613929748535,-0.10338098555803299,0.1489812284708023
1757088383051996700,1.40099658203125,-0.06241650506854057,-0.9893086552619934,0.2775706350803375
1757088383062042600,1.411042724609375,-0.12778832018375397,-1.927427887916565,0.7093294858932495
1757088383072089600,1.421089599609375,-0.28971436619758606,-2.628432035446167,1.194211483001709
1757088383082135600,1.431135498046875,-0.48666125535964966,-3.044217348098755,1.4344816207885742
1757088383092182500,1.4411826171875,-0.7758395671844482,-3.124758243560791,1.3853734731674194
1757088383102228700,1.451228759765625,-0.9378998279571533,-2.8612115383148193,1.0649547576904297
1757088383112274700,1.461274658203125,-0.9313721656799316,-2.552076578140259,0.6376569271087646
1757088383122321700,1.47132177734375,-1.091257095336914,-2.418286085128784,0.30296093225479126
1757088383132367600,1.48136767578125,-1.289337158203125,-2.3167929649353027,0.08730747550725937
1757088383142413600,1.49141357421875,-1.3751612901687622,-2.327516555786133,0.08651012182235718
1757088383152460500,1.50146044921875,-1.4588756561279297,-2.574841260910034,0.22034169733524323
1757088383162506500,1.511506591796875,-1.4743763208389282,-2.907207727432251,0.3208041191101074
1757088383172553700,1.5215537109375,-1.4198180437088013,-3.136251449584961,0.4202212393283844
1757088383182599700,1.531599609375,-1.3285008668899536,-3.1988863945007324,0.5630231499671936
1757088383192646000,1.54164599609375,-1.3688949346542358,-3.0963447093963623,0.6305686235427856
1757088383202692900,1.55169287109375,-1.4275819063186646,-2.889340877532959,0.6560172438621521
1757088383212738800,1.56173876953125,-1.1817302703857422,-2.41514253616333,0.5826844573020935
1757088383222784800,1.57178466796875,-0.7958521246910095,-1.8639494180679321,0.7933889627456665
1757088383232831700,1.581831787109375,-0.9942008852958679,-0.6327638626098633,0.2264709621667862
1757088383242877700,1.591877685546875,-0.8982506990432739,-0.07942718267440796,-0.04236450046300888
1757088383252924700,1.601924560546875,-0.7738949060440063,0.35767611861228943,0.059191685169935226
1757088383262970600,1.611970703125,-0.6599465012550354,0.415991872549057,0.05444273725152016
1757088383273016600,1.6220166015625,-0.5417351722717285,0.20874495804309845,0.015502792783081532
1757088383283064600,1.632064697265625,-0.44268420338630676,-0.09476778656244278,0.041913893073797226
1757088383293110500,1.642110595703125,-0.3647790253162384,-0.33795541524887085,0.07419220358133316
1757088383303157800,1.65215771484375,-0.1829085648059845,-0.5348889827728271,0.15060921013355255
1757088383313203700,1.66220361328125,-0.05877303704619408,-0.6093674898147583,0.19641105830669403
1757088383323250000,1.67225,-0.007816910743713379,-0.5548320412635803,0.1829216182231903
1757088383333297000,1.682296875,-0.05577990785241127,-0.5453147292137146,0.15642449259757996
1757088383343342800,1.6923427734375,-0.1627950370311737,-0.7159085869789124,0.14710475504398346
1757088383353388800,1.702388916015625,-0.29438209533691406,-0.8782175779342651,0.11826645582914352
1757088383363435800,1.712435791015625,-0.3666914403438568,-0.9233847856521606,0.06163273751735687
1757088383373481700,1.722481689453125,-0.35766252875328064,-0.6846534609794617,0.01998302899301052
1757088383383528700,1.73252880859375,-0.28425168991088867,-0.3137286305427551,-0.014280135743319988
1757088383393574700,1.74257470703125,-0.14987711608409882,0.08122535049915314,-0.04151575267314911
1757088383403620600,1.75262060546875,0.03358379378914833,0.4657650291919708,-0.07179243117570877
1757088383413667600,1.76266748046875,0.199867844581604,0.7401798367500305,-0.11738841235637665
1757088383423713800,1.7727138671875,0.318294882774353,0.9106351733207703,-0.15639732778072357
1757088383433760800,1.7827607421875,0.4207565486431122,0.9913084506988525,-0.2046804428100586
1757088383443806700,1.792806640625,0.44660359621047974,1.018937110900879,-0.22451353073120117
1757088383453852700,1.802852783203125,0.4124637246131897,0.9912309646606445,-0.2433444857597351
1757088383463899600,1.812899658203125,0.3587975800037384,0.9038768410682678,-0.2957480251789093
1757088383473945600,1.822945556640625,0.28077253699302673,0.814121425151825,-0.31835854053497314
1757088383483991600,1.832991455078125,0.16650375723838806,0.6575360894203186,-0.32962316274642944
1757088383494038800,1.843038818359375,0.049557168036699295,0.5241316556930542,-0.3628477156162262
1757088383504084700,1.853084716796875,-0.08482567220926285,0.5603504180908203,-0.4562793970108032
1757088383514131700,1.863131591796875,-0.27658259868621826,0.7144986987113953,-0.5952359437942505
1757088383524177700,1.873177734375,-0.5908939242362976,0.9521093964576721,-0.7824630737304688
1757088383534224000,1.883223876953125,-1.1175159215927124,1.3519222736358643,-1.0423787832260132
1757088383544270800,1.893270751953125,-1.6430550813674927,1.8283016681671143,-1.3751388788223267
1757088383554316800,1.90331689453125,-1.935869574546814,2.2347142696380615,-1.653051495552063
1757088383564362800,1.91336279296875,-1.9676616191864014,2.4193947315216064,-1.8383305072784424
1757088383574409700,1.92340966796875,-1.9190502166748047,2.3775508403778076,-1.9153814315795898
1757088383584455700,1.93345556640625,-1.7281031608581543,2.0052707195281982,-1.6775294542312622
1757088383594502700,1.943502685546875,-1.390932321548462,1.1070311069488525,-1.1027395725250244
1757088383604548600,1.953548583984375,-0.3510264754295349,-0.2597849667072296,-0.06355953216552734
1757088383614594800,1.9635947265625,0.5192961692810059,-1.3616652488708496,0.4785607159137726
1757088383624641500,1.9736416015625,0.5463498830795288,-2.0519375801086426,0.6459678411483765
1757088383634687700,1.983687744140625,0.2528351843357086,-2.3134937286376953,0.6997519731521606
1757088383644733700,1.993733642578125,-0.08909711986780167,-1.9413434267044067,0.6737741827964783
1757088383654780700,2.00378076171875,-0.41640201210975647,-1.2218881845474243,0.47905686497688293
1757088383664826600,2.01382666015625,-0.6610841751098633,-0.5960740447044373,0.2750323712825775
1757088383674873900,2.023873779296875,-0.7521259784698486,-0.22872479259967804,0.05080379173159599
1757088383684919800,2.033919921875,-0.6955953240394592,-0.062360312789678574,-0.20711776614189148
1757088383694965500,2.043965576171875,-0.6118612289428711,0.12767674028873444,-0.41374391317367554
1757088383705012700,2.0540126953125,-0.4276789128780365,0.3667292594909668,-0.5530424118041992
1757088383715058700,2.06405859375,-0.3555799424648285,0.42983579635620117,-0.5014681816101074
1757088383725105700,2.074105712890625,-0.41537830233573914,0.14162184298038483,-0.23451396822929382
1757088383735151900,2.08415185546875,-0.36215901374816895,-0.23223111033439636,0.21848466992378235
1757088383745197800,2.09419775390625,-0.3216821551322937,-0.5862964987754822,0.42255842685699463
1757088383755244800,2.104244873046875,-0.29696109890937805,-0.6818249225616455,0.34579789638519287
1757088383765290800,2.114290771484375,-0.23340556025505066,-0.5527281761169434,0.23912683129310608
1757088383775336700,2.124336669921875,-0.28219202160835266,-0.2760326564311981,0.18573977053165436
1757088383785383700,2.1343837890625,-0.4067871868610382,-0.1225256472826004,0.2001701146364212
1757088383795429600,2.1444296875,-0.4715651273727417,0.04538319259881973,0.14939694106578827
1757088383805476600,2.1544765625,-0.5422866940498352,0.12875159084796906,-0.06280586123466492
1757088383815522600,2.1645224609375,-0.6489872932434082,0.28439390659332275,-0.2705793082714081
1757088383825568800,2.17456884765625,-0.8518405556678772,0.7736168503761292,-0.6021944880485535
1757088383835615700,2.18461572265625,-0.9727486371994019,1.2317314147949219,-1.065689206123352
1757088383845661700,2.19466162109375,-1.0630561113357544,1.0072901248931885,-1.3131133317947388
1757088383855707600,2.204707763671875,-1.0152175426483154,-0.10318577289581299,-0.9175660610198975
1757088383865754600,2.214754638671875,-0.4125484228134155,-1.0152251720428467,-0.7974249720573425
1757088383875800600,2.224800537109375,0.6735131740570068,-1.3835140466690063,-0.6314272284507751
1757088383885847800,2.234847900390625,1.497021198272705,-1.4402226209640503,-0.5285735726356506
1757088383895893800,2.244893798828125,2.2286393642425537,-1.2468522787094116,-0.5870903730392456
1757088383905939700,2.254939697265625,2.5948328971862793,-0.9845589399337769,-0.6611262559890747
1757088383915986700,2.264986572265625,3.035036325454712,-0.6604873538017273,-0.5892547369003296
1757088383926033000,2.275032958984375,3.4748058319091797,-0.5112595558166504,-0.36695003509521484
1757088383936078800,2.285078857421875,3.526317596435547,-0.4838034212589264,-0.13460548222064972
1757088383946125800,2.295125732421875,3.205944776535034,-0.12176744639873505,0.06130224093794823
1757088383956171800,2.305171875,3.0531396865844727,0.9000677466392517,0.1724436730146408
1757088383966218800,2.31521875,2.7061257362365723,1.1942061185836792,0.27785104513168335
1757088383976264700,2.3252646484375,2.1052803993225098,1.2371344566345215,0.25984543561935425
1757088383986310700,2.335310546875,1.3141977787017822,1.282906413078308,-0.2084679901599884
1757088383996357600,2.345357666015625,0.9312967658042908,1.8801568746566772,-0.6828417181968689
1757088384006403600,2.355403564453125,0.8228949308395386,2.335618257522583,-0.8152045011520386
1757088384016450600,2.365450439453125,0.7040034532546997,2.3720993995666504,-0.7418695688247681
1757088384026496800,2.375496826171875,0.5944212675094604,1.6891365051269531,-0.39631885290145874
1757088384036542700,2.385542724609375,0.6158088445663452,0.630541205406189,0.037216078490018845
1757088384046589700,2.395589599609375,0.6441156268119812,-0.3353641629219055,0.28767678141593933
1757088384056635600,2.4056357421875,0.6277720332145691,-0.8955798149108887,0.3722052574157715
1757088384066681600,2.415681640625,0.5249215364456177,-0.9720245003700256,0.07434986531734467
1757088384076728800,2.425728759765625,0.3419911563396454,-0.5388938188552856,-0.25765177607536316
1757088384086774800,2.43577490234375,0.12219062447547913,-0.030519826337695122,-0.49937519431114197
1757088384096821800,2.44582177734375,-0.18562738597393036,0.4377634823322296,-0.6481952667236328
1757088384106867700,2.45586767578125,-0.45944347977638245,0.8133491277694702,-0.6683852672576904
1757088384116914000,2.465913818359375,-0.6875277757644653,1.0257306098937988,-0.6428780555725098
1757088384126960600,2.475960693359375,-0.8498490452766418,1.0169416666030884,-0.6077290773391724
1757088384137006800,2.4860068359375,-0.9300578832626343,0.9532851576805115,-0.5162298083305359
1757088384147052800,2.496052734375,-1.1149531602859497,1.0570629835128784,-0.40548357367515564
1757088384157099800,2.506099853515625,-1.266896367073059,1.075108289718628,-0.36234116554260254
1757088384167145700,2.516145751953125,-0.8280526995658875,0.6902916431427002,-0.46485424041748047
1757088384177192700,2.526192626953125,0.41337159276008606,-1.4155193567276,-0.9648371338844299
1757088384187238700,2.53623876953125,1.218643069267273,-1.6325933933258057,-0.6585499048233032
1757088384197284600,2.54628466796875,1.6643379926681519,-1.0327693223953247,-0.030760308727622032
1757088384207331600,2.55633154296875,2.164496898651123,-0.7378506064414978,0.4356023371219635
1757088384217377500,2.56637744140625,2.672896146774292,-0.7786949872970581,0.7065214514732361
1757088384227423700,2.576423828125,3.217336893081665,-1.0088032484054565,0.9028286337852478
1757088384237470700,2.586470703125,3.7504007816314697,-1.194072961807251,1.078161597251892
1757088384247516700,2.5965166015625,4.149983882904053,-1.2160640954971313,1.1715285778045654
1757088384257564000,2.60656396484375,3.986189126968384,-1.0984375476837158,1.2013617753982544
1757088384267609600,2.616609619140625,4.269561290740967,-1.0474156141281128,1.3572869300842285
1757088384277655600,2.626655517578125,5.233173847198486,-1.2614387273788452,1.575047254562378
1757088384287702000,2.636701904296875,5.976777076721191,-1.2408703565597534,1.7885518074035645
1757088384297748000,2.646748046875,6.550998210906982,-0.8563783168792725,1.9893088340759277
1757088384307794200,2.656794189453125,6.218266010284424,-0.9946845173835754,2.1268606185913086
1757088384317841400,2.66684130859375,3.7107999324798584,-2.973505973815918,1.8839465379714966
1757088384327887000,2.67688720703125,0.6674731373786926,-2.384087085723877,1.9804391860961914
1757088384337934300,2.686934326171875,-1.1121749877929688,-1.3548531532287598,2.073864459991455
1757088384347980300,2.696980224609375,-1.1477938890457153,-1.3117730617523193,1.9061652421951294
1757088384358026200,2.707026123046875,-0.5270749926567078,-1.0989584922790527,1.5908493995666504
1757088384368073200,2.7170732421875,-0.12250940501689911,-0.5876222252845764,0.9583297371864319
1757088384378119200,2.727119140625,-0.0812610313296318,-0.09651482105255127,0.27540016174316406
1757088384388166100,2.737166259765625,-0.2235042005777359,0.42362797260284424,-0.30648109316825867
1757088384398212000,2.747212158203125,-0.4210774600505829,0.8205153942108154,-0.633755624294281
1757088384408258300,2.75725830078125,-0.5733908414840698,1.1680952310562134,-0.7836654782295227
1757088384418305300,2.76730517578125,-0.4663061797618866,1.3321267366409302,-0.6912801861763
1757088384428351200,2.777351318359375,0.5586928725242615,1.1744606494903564,-0.9274767637252808
1757088384438397200,2.787397216796875,0.7697145342826843,1.182400107383728,-0.630156934261322
1757088384448444200,2.797444091796875,0.857760488986969,0.8070520758628845,-0.46581751108169556
1757088384458490000,2.807489990234375,0.919098973274231,0.5507193207740784,-0.5403633713722229
1757088384468537000,2.817537109375,0.7942145466804504,0.5593945980072021,-0.6851083040237427
1757088384478583000,2.8275830078125,0.5401162505149841,0.5798702836036682,-0.7690873742103577
1757088384488629000,2.83762890625,0.2028750777244568,0.4474584758281708,-0.6021987795829773
1757088384498676000,2.847676025390625,-0.31430813670158386,0.16744917631149292,-0.27300170063972473
1757088384508722200,2.85772216796875,-0.7543555498123169,0.170710489153862,0.23075704276561737
1757088384518768000,2.86776806640625,-1.0177514553070068,0.24614666402339935,0.7347109913825989
1757088384528815400,2.8778154296875,-1.261771321296692,0.22293534874916077,1.1441254615783691
1757088384538861300,2.887861328125,-1.469103217124939,-0.2976186275482178,1.4674744606018066
1757088384548908300,2.897908203125,-1.387892484664917,-1.7095470428466797,1.2242122888565063
1757088384558954200,2.907954345703125,-0.83421391248703,-1.8312114477157593,0.5849124789237976
1757088384569000200,2.918000244140625,-0.08909685164690018,-0.1334448754787445,0.40380898118019104
1757088384579047200,2.928047119140625,0.07595867663621902,0.26845863461494446,0.030900923535227776
1757088384589093000,2.938093017578125,0.33356571197509766,0.6393112540245056,-0.10488539934158325
1757088384599139300,2.948139404296875,0.5216304063796997,1.1333653926849365,-0.4791373014450073
1757088384609186000,2.95818603515625,0.4800073504447937,0.9776102304458618,-0.8076573610305786
1757088384619232300,2.968232177734375,0.2548496127128601,0.210292249917984,-0.8828775882720947
1757088384629279200,2.978279296875,-0.10839944332838058,-0.8676336407661438,-0.4305498003959656
1757088384639325200,2.9883251953125,-0.3041686713695526,-1.6864765882492065,0.39265912771224976
1757088384649371100,2.99837109375,0.013605823740363121,-1.8852360248565674,1.1615300178527832
1757088384659418000,3.008418212890625,0.3839985430240631,-2.132291793823242,1.7074556350708008
1757088384669464000,3.018464111328125,0.7081958055496216,-2.265563488006592,1.8527531623840332
1757088384679510000,3.028510009765625,0.9053133726119995,-1.868387222290039,1.7088627815246582
1757088384689557000,3.038556884765625,1.2559363842010498,-1.216566562652588,1.465146541595459
1757088384699603200,3.048603271484375,1.3778729438781738,-0.5292662382125854,0.9251134395599365
1757088384709650200,3.058650146484375,1.404014229774475,-0.41555485129356384,0.5637786984443665
1757088384719696400,3.0686962890625,1.3034565448760986,-0.48162150382995605,0.3747275471687317
1757088384729742300,3.078742431640625,1.0815200805664062,-0.7838042378425598,0.35478711128234863
1757088384739789300,3.088789306640625,0.9182507395744324,-0.9900439977645874,0.4112016558647156
1757088384749835300,3.098835205078125,0.8004407286643982,-1.2185869216918945,0.4734032452106476
1757088384759881200,3.108881103515625,0.7340867519378662,-1.0780731439590454,0.5001205801963806
1757088384769928200,3.11892822265625,1.0796071290969849,-0.5935775637626648,0.5635006427764893
1757088384779974100,3.12897412109375,1.415085792541504,-1.1271871328353882,0.5382365584373474
1757088384790021000,3.139021240234375,1.308079481124878,-1.2599084377288818,0.7560410499572754
1757088384800067000,3.149067138671875,0.9887014627456665,-1.2320741415023804,0.9966515302658081
1757088384810113300,3.15911328125,0.6556862592697144,-1.163552165031433,1.111642599105835
1757088384820160300,3.16916015625,0.2988479435443878,-0.9525413513183594,1.07534658908844
1757088384830206200,3.179206298828125,0.029834061861038208,-0.7818716168403625,0.9180558323860168
1757088384840252200,3.189252197265625,-0.12406735122203827,-0.6736564636230469,0.7380362153053284
1757088384850299100,3.199299072265625,-0.19216038286685944,-0.5407559275627136,0.6526368856430054
1757088384860345000,3.209344970703125,-0.1377008706331253,-0.34822800755500793,0.5813241004943848
1757088384870392000,3.21939208984375,-0.03756149113178253,-0.12747512757778168,0.37718138098716736
1757088384880438000,3.22943798828125,0.03966591879725456,-0.09186041355133057,0.1585283875465393
1757088384890484000,3.23948388671875,0.04872705787420273,-0.08716393262147903,-0.018821625038981438
1757088384900531200,3.24953125,-0.007279750891029835,-0.04334348067641258,-0.1384337693452835
1757088384910577200,3.2595771484375,-0.09141220152378082,0.02749261073768139,-0.1803191751241684
1757088384920624400,3.269624267578125,-0.21244461834430695,0.07293891906738281,-0.16271089017391205
1757088384930670300,3.27967041015625,-0.3315694034099579,0.09757103025913239,-0.13926361501216888
1757088384940716300,3.28971630859375,-0.43590593338012695,0.18096499145030975,-0.18500927090644836
1757088384950763300,3.29976318359375,-0.5378344058990479,0.2798473536968231,-0.29572033882141113
1757088384960809200,3.309809326171875,-0.5912505388259888,0.3099339008331299,-0.44330471754074097
1757088384970855200,3.319855224609375,-0.623431384563446,0.31967413425445557,-0.597736120223999
1757088384980902100,3.329902099609375,-0.6105613708496094,0.2189544439315796,-0.7728996872901917
1757088384990948000,3.339947998046875,-0.5926443934440613,0.05546831712126732,-0.9546700119972229
1757088385000995000,3.3499951171875,-0.624190628528595,0.0775696262717247,-1.201066255569458
1757088385011041300,3.360041259765625,-0.7152933478355408,0.13906946778297424,-1.5220615863800049
1757088385021087200,3.370087158203125,-0.7109782695770264,0.013278255239129066,-1.7085603475570679
1757088385031134200,3.38013427734375,-0.7174369692802429,-0.16516871750354767,-1.7915444374084473
1757088385041180200,3.39018017578125,-0.7435140609741211,-0.40395307540893555,-1.677686333656311
1757088385051226000,3.40022607421875,-0.7453048229217529,-0.5453495979309082,-1.418052077293396
1757088385061273000,3.410273193359375,-0.5561785697937012,-0.5060781240463257,-1.118839979171753
1757088385071319000,3.420319091796875,-0.24455435574054718,-0.15760134160518646,-0.7215720415115356
1757088385081366000,3.430365966796875,0.054239269345998764,0.4357306957244873,-0.30182191729545593
1757088385091412000,3.440411865234375,0.08497215062379837,0.9304850697517395,-0.09008941054344177
1757088385101458200,3.450458251953125,-0.05857090279459953,1.0783807039260864,-0.04501727595925331
1757088385111505200,3.460505126953125,-0.2142164260149002,0.8976078033447266,-0.01840563863515854
1757088385121551400,3.47055126953125,-0.32461509108543396,0.4836002290248871,0.05218677222728729
1757088385131598300,3.480598388671875,-0.392345666885376,0.0627368837594986,0.1322142332792282
1757088385141644300,3.490644287109375,-0.42598992586135864,-0.1773846298456192,0.17631565034389496
1757088385151690200,3.500690185546875,-0.45552945137023926,-0.19590212404727936,0.17861022055149078
1757088385161737200,3.5107373046875,-0.4923361837863922,-0.05555247515439987,0.08667018264532089
1757088385171783200,3.520783203125,-0.39380401372909546,0.04896248131990433,0.03683285042643547
1757088385181829000,3.5308291015625,-0.2501416504383087,0.11027830094099045,0.01581491529941559
1757088385191876000,3.5408759765625,-0.13488298654556274,0.1734418272972107,-0.07424093782901764
1757088385201922300,3.55092236328125,-0.11905954778194427,0.25747519731521606,-0.21354930102825165
1757088385211969000,3.560968994140625,-0.11464535444974899,0.198281392455101,-0.250826358795166
1757088385222015200,3.57101513671875,-0.08641451597213745,0.0554366260766983,-0.18456798791885376
1757088385232061200,3.581061279296875,-0.06271584331989288,-0.03172357380390167,-0.10346008092164993
1757088385242108200,3.591108154296875,-0.05110606178641319,-0.01889139972627163,-0.048228781670331955
1757088385252154000,3.601154052734375,-0.0365457609295845,0.018130799755454063,-0.015221030451357365
1757088385262200000,3.611199951171875,-0.030526749789714813,-0.001990712946280837,0.008072307333350182
1757088385272247000,3.6212470703125,-0.04057645425200462,-0.0474063977599144,0.021375330165028572
1757088385282293000,3.63129296875,-0.05341821908950806,-0.08293402940034866,0.025138109922409058
1757088385292339500,3.64133935546875,-0.06106814742088318,-0.11360113322734833,0.028627650812268257
1757088385302385700,3.6513857421875,-0.06358323991298676,-0.13902579247951508,0.03358219563961029
1757088385312431600,3.661431640625,-0.05453461408615112,-0.1537671983242035,0.04339434579014778
1757088385322478600,3.671478515625,-0.0523444302380085,-0.1681669056415558,0.05386429652571678
1757088385332524500,3.681524658203125,-0.05590507760643959,-0.18617627024650574,0.06502506881952286
1757088385342571500,3.691571533203125,-0.05422968417406082,-0.20078103244304657,0.0781235620379448
1757088385352617500,3.701617431640625,-0.05218597128987312,-0.20084574818611145,0.0911988839507103
1757088385362663400,3.711663330078125,-0.04621250182390213,-0.1903100162744522,0.09536167234182358
1757088385372710400,3.72171044921875,-0.04115835577249527,-0.19187809526920319,0.1004757434129715
1757088385382756400,3.73175634765625,-0.042270224541425705,-0.19192522764205933,0.09878703206777573
1757088385392802600,3.741802490234375,-0.040823064744472504,-0.1794901341199875,0.09451558440923691
1757088385402849500,3.751849609375,-0.038473889231681824,-0.17041514813899994,0.08701399713754654
1757088385412895500,3.7618955078125,-0.04110349342226982,-0.16436417400836945,0.0811808705329895
1757088385422942500,3.7719423828125,-0.04360952973365784,-0.15280579030513763,0.07518822699785233
1757088385432988400,3.781988525390625,-0.04207981005311012,-0.1378430873155594,0.06332491338253021
1757088385443034400,3.792034423828125,-0.039263516664505005,-0.11936847120523453,0.052805423736572266
1757088385453081300,3.802081298828125,-0.03544401004910469,-0.09747941792011261,0.040048349648714066
1757088385463127300,3.812127197265625,-0.03308391571044922,-0.07568836957216263,0.028263861313462257
1757088385473174500,3.822174560546875,-0.028687037527561188,-0.053164683282375336,0.016456738114356995
1757088385483220500,3.832220458984375,-0.027044134214520454,-0.035298336297273636,-0.001094559207558632
1757088385493266700,3.8422666015625,-0.023995613679289818,-0.030312364920973778,-0.008902681060135365
1757088385503313700,3.852313720703125,-0.023852601647377014,-0.026933878660202026,-0.01635740138590336
1757088385513359600,3.862359619140625,-0.020591827109456062,-0.023136211559176445,-0.019881829619407654
1757088385523405600,3.872405517578125,-0.019094066694378853,-0.019527362659573555,-0.021991584450006485
1757088385533452500,3.88245263671875,-0.017041301354765892,-0.015399196185171604,-0.024032365530729294
1757088385543498500,3.89249853515625,-0.013517406769096851,-0.005676794331520796,-0.02539670281112194
1757088385553545500,3.90254541015625,-0.014011689461767673,-0.004640025552362204,-0.012079832144081593
1757088385563591400,3.91259130859375,-0.015902534127235413,-0.0049763829447329044,0.0003920173039659858
1757088385573637400,3.922637451171875,-0.016385098919272423,-0.008495217189192772,0.007511179428547621
1757088385583684400,3.932684326171875,-0.014803446829319,-0.01324123702943325,0.00646562222391367
1757088385593730600,3.94273046875,-0.008904012851417065,-0.01818033494055271,0.0009949569357559085
1757088385603777500,3.952777587890625,-0.0026317357551306486,-0.022904250770807266,-0.004107659682631493
1757088385613823500,3.962823486328125,0.002734533743932843,-0.02328055538237095,-0.012060390785336494
1757088385623869400,3.972869384765625,-0.0007837683078832924,-0.02033909410238266,-0.018142784014344215
1757088385633916400,3.98291650390625,-0.0017092167399823666,-0.017344901338219643,-0.02245364338159561
1757088385643962400,3.99296240234375,0.00009614011651137844,-0.014238856732845306,-0.023720242083072662
1757088385654009600,4.003009521484375,0.001568069215863943,-0.013874536380171776,-0.019773438572883606
1757088385664055300,4.01305517578125,0.006061088293790817,-0.01116263959556818,-0.016752881929278374
1757088385674101200,4.023101318359375,0.0059244679287076,-0.015321964398026466,-0.010343184694647789
1757088385684148500,4.0331484375,0.008213454857468605,-0.017703630030155182,-0.003959587775170803
1757088385694194400,4.0431943359375,0.012430571019649506,-0.02063523791730404,0.0015153386630117893
1757088385704240600,4.05324072265625,0.017196297645568848,-0.020126840099692345,0.006627808790653944
1757088385714287600,4.06328759765625,0.015021826140582561,-0.02129863016307354,0.01085850689560175
1757088385724333600,4.07333349609375,0.012261193245649338,-0.02101234160363674,0.013350159861147404
1757088385734380500,4.083380615234375,0.01275947131216526,-0.02400040812790394,0.012782907113432884
1757088385744426500,4.093426513671875,0.01113281212747097,-0.031690020114183426,0.011385546065866947
1757088385754472400,4.103472412109375,0.009530920535326004,-0.03376941382884979,0.007390538230538368
1757088385764519400,4.11351953125,0.006415821146219969,-0.03362666815519333,0.002609631512314081
1757088385774565400,4.1235654296875,0.0017473000334575772,-0.034567829221487045,-0.0046842340379953384
1757088385784612400,4.1336123046875,-0.0005528722540475428,-0.030244721099734306,-0.011780226603150368
1757088385794658300,4.143658203125,-0.00039974047103896737,-0.02882339246571064,-0.022434469312429428
1757088385804704500,4.15370458984375,-0.0046091326512396336,-0.02429894730448723,-0.03263410925865173
1757088385814751500,4.16375146484375,-0.00941853504627943,-0.018199244514107704,-0.039021968841552734
1757088385824797400,4.17379736328125,-0.012539493851363659,-0.019462913274765015,-0.04435015469789505
1757088385834844400,4.183844482421875,-0.01516111008822918,-0.02442145347595215,-0.04899870231747627
1757088385844890400,4.193890380859375,-0.01677897945046425,-0.029166407883167267,-0.056233178824186325
1757088385854936300,4.203936279296875,-0.02486087568104267,-0.03398566320538521,-0.060497164726257324
1757088385864983600,4.213983642578125,-0.032637838274240494,-0.03855138644576073,-0.059781040996313095
1757088385875029500,4.224029541015625,-0.03864486515522003,-0.046790674328804016,-0.055629439651966095
1757088385885076500,4.234076416015625,-0.041729871183633804,-0.05213430896401405,-0.052314337342977524
1757088385895122400,4.244122314453125,-0.04565350338816643,-0.05687606707215309,-0.05381049960851669
1757088385905168600,4.254168701171875,-0.04249632731080055,-0.0546608492732048,-0.060809820890426636
1757088385915215600,4.264215576171875,-0.03905126079916954,-0.046541135758161545,-0.07058841735124588
1757088385925261600,4.274261474609375,-0.03430284559726715,-0.03923022747039795,-0.07921386510133743
1757088385935308500,4.28430859375,-0.034446924924850464,-0.02894243597984314,-0.08449810743331909
1757088385945354500,4.2943544921875,-0.036548156291246414,-0.019898606464266777,-0.0882241353392601
1757088385955400400,4.304400390625,-0.03423759713768959,-0.013999172486364841,-0.09018448740243912
1757088385965447400,4.314447509765625,-0.034559041261672974,-0.010537062771618366,-0.08782678842544556
1757088385975493400,4.324493408203125,-0.03321654349565506,-0.0086603332310915,-0.08249673992395401
1757088385985540400,4.334540283203125,-0.03307885676622391,-0.012800483964383602,-0.07628252357244492
1757088385995586300,4.34458642578125,-0.03149108216166496,-0.016690563410520554,-0.06961902230978012
1757088386005632500,4.354632568359375,-0.027599137276411057,-0.02094735950231552,-0.06287110596895218
1757088386015679200,4.36467919921875,-0.028448686003684998,-0.026215890422463417,-0.05747207999229431
1757088386025725400,4.374725341796875,-0.02744067832827568,-0.028606610372662544,-0.05156891793012619
1757088386035772700,4.384772705078125,-0.028256937861442566,-0.029080653563141823,-0.04333149641752243
1757088386045818600,4.394818603515625,-0.027708061039447784,-0.02658660337328911,-0.03748079761862755
1757088386055864600,4.404864501953125,-0.02713148668408394,-0.02834082767367363,-0.032944366335868835
1757088386065911600,4.41491162109375,-0.026023078709840775,-0.02869822457432747,-0.02713627927005291
1757088386075957500,4.42495751953125,-0.024515995755791664,-0.033675938844680786,-0.02051912248134613
1757088386086004500,4.43500439453125,-0.02497645653784275,-0.0380733497440815,-0.014028200879693031
1757088386096050400,4.445050537109375,-0.02479536086320877,-0.0392877496778965,-0.0059846555814146996
1757088386106096400,4.455096435546875,-0.026742398738861084,-0.035100728273391724,-0.005470665637403727
1757088386116143400,4.465143310546875,-0.0274441409856081,-0.028140291571617126,-0.008012652397155762
1757088386126189600,4.475189453125,-0.025670209899544716,-0.019688483327627182,-0.013317403383553028
1757088386136236500,4.485236572265625,-0.024057399481534958,-0.016627712175250053,-0.018338527530431747
1757088386146282500,4.495282470703125,-0.020252007991075516,-0.012023639865219593,-0.026007099077105522
1757088386156328400,4.505328369140625,-0.016523582860827446,-0.00586800929158926,-0.03819398954510689
1757088386166375400,4.51537548828125,-0.01059219054877758,0.000586161739192903,-0.04725699499249458
1757088386176421400,4.52542138671875,-0.005988384131342173,0.004805141594260931,-0.05284617096185684
1757088386186468400,4.53546826171875,-0.004899417515844107,0.0073316823691129684,-0.05503928288817406
1757088386196514300,4.545514404296875,-0.012330436147749424,0.011980229988694191,-0.056585248559713364
1757088386206560300,4.555560302734375,-0.014533136039972305,0.020012591034173965,-0.05733120068907738
1757088386216607500,4.565607421875,-0.016031164675951004,0.022229138761758804,-0.05938636139035225
1757088386226653700,4.57565380859375,-0.018697520717978477,0.027269437909126282,-0.061463359743356705
1757088386236700400,4.585700439453125,-0.02045920304954052,0.03280268609523773,-0.06386446952819824
1757088386246746600,4.59574658203125,-0.022245384752750397,0.035951342433691025,-0.06416486948728561
1757088386256793600,4.605793701171875,-0.022368954494595528,0.03765310347080231,-0.06650792062282562
1757088386266839600,4.615839599609375,-0.021151624619960785,0.03509407117962837,-0.06857240200042725
1757088386276885500,4.625885498046875,-0.020733773708343506,0.030771493911743164,-0.06889916956424713
1757088386286934000,4.63593408203125,-0.01836515963077545,0.028968801721930504,-0.06617795675992966
1757088386296980000,4.64597998046875,-0.018246116116642952,0.026980219408869743,-0.06497979909181595
1757088386307027000,4.65602685546875,-0.016764067113399506,0.026577282696962357,-0.0642988309264183
1757088386317073000,4.666072998046875,-0.017603227868676186,0.025714684277772903,-0.0639512836933136
1757088386327118800,4.676118896484375,-0.01738964207470417,0.022784408181905746,-0.06394835561513901
1757088386337165800,4.686165771484375,-0.019096728414297104,0.029863888397812843,-0.06591882556676865
1757088386347211800,4.696211669921875,-0.014425012283027172,0.025259284302592278,-0.058692075312137604
1757088386357259000,4.706259033203125,-0.006256564520299435,0.02352050505578518,-0.052252817898988724
1757088386367305000,4.716304931640625,-0.0010548781137913465,0.025426264852285385,-0.05035052075982094
1757088386377351000,4.726350830078125,-0.0019478360190987587,0.0258659515529871,-0.05236413702368736
1757088386387398000,4.73639794921875,-0.002576608443632722,0.025612685829401016,-0.052437908947467804
1757088386397444000,4.746444091796875,-0.0065412563271820545,0.03075471706688404,-0.04548998549580574
1757088386407491000,4.756490966796875,-0.005864547099918127,0.03199122101068497,-0.0383407324552536
1757088386417537000,4.766537109375,-0.0054626758210361,0.029563218355178833,-0.033907365053892136
1757088386427584000,4.776583984375,-0.0005241101025603712,0.02905482053756714,-0.03400670364499092
1757088386437630000,4.7866298828125,0.003040530951693654,0.037573739886283875,-0.04137859866023064
1757088386447676000,4.796676025390625,0.004122573416680098,0.040100548416376114,-0.04561515524983406
1757088386457723000,4.806722900390625,0.001973402453586459,0.04115329682826996,-0.04796592891216278
1757088386467768800,4.816768798828125,-0.0017449031583964825,0.04506494477391243,-0.05023680627346039
1757088386477815800,4.82681591796875,-0.0007099987124092877,0.04698242247104645,-0.05302753299474716
1757088386487861800,4.83686181640625,-0.004210990387946367,0.04825115203857422,-0.05468188598752022
1757088386497908000,4.846907958984375,-0.0017118799732998013,0.05283738300204277,-0.055272310972213745
1757088386507955000,4.856954833984375,-0.0005962817813269794,0.05691734328866005,-0.05896025523543358
1757088386518001000,4.8670009765625,-0.002189651131629944,0.05914667621254921,-0.06258588284254074
1757088386528048000,4.877048095703125,-0.0037675739731639624,0.06344768404960632,-0.06848824769258499
1757088386538093800,4.88709375,-0.00697774812579155,0.06432865560054779,-0.0721716657280922
1757088386548141000,4.89714111328125,-0.00669278996065259,0.06865709275007248,-0.07824047654867172
1757088386558187000,4.90718701171875,-0.007492803502827883,0.07023288309574127,-0.0801110789179802
1757088386568233000,4.91723291015625,-0.005902896635234356,0.06533080339431763,-0.07738453894853592
1757088386578280000,4.927280029296875,-0.009868077002465725,0.06006546691060066,-0.07498928904533386
1757088386588326000,4.937325927734375,-0.008876316249370575,0.0578896664083004,-0.07447104156017303
1757088386598372900,4.947372802734375,-0.009493104182183743,0.05795517936348915,-0.07406970113515854
1757088386608418800,4.957418701171875,-0.009547432884573936,0.057785533368587494,-0.07619516551494598
1757088386618465000,4.967465087890625,-0.008799350820481777,0.05601559951901436,-0.07376636564731598
1757088386628512000,4.977511962890625,-0.010671286843717098,0.055754873901605606,-0.07283825427293777
1757088386638558000,4.987557861328125,-0.011010839603841305,0.05744598060846329,-0.0751461461186409
1757088386648605000,4.99760498046875,-0.010582869872450829,0.058940015733242035,-0.07905486971139908
1757088386658651000,5.00765087890625,-0.009651562198996544,0.05631999671459198,-0.0840349793434143
1757088386668696800,5.01769677734375,-0.005083441734313965,0.05668485164642334,-0.0864454060792923
1757088386678743800,5.027743896484375,-0.0008279767935164273,0.06377232074737549,-0.08376707136631012
1757088386688789800,5.037789794921875,0.0034202977549284697,0.05392901226878166,-0.06920623779296875
1757088386698837000,5.0478369140625,0.004972654394805431,0.042751193046569824,-0.05030897632241249
1757088386708882700,5.057882568359375,0.001407480682246387,0.0354357548058033,-0.04338901862502098
1757088386718930000,5.067929931640625,-0.0035180358681827784,0.0335979089140892,-0.04537813365459442
1757088386728976100,5.07797607421875,-0.00444002216681838,0.03387807309627533,-0.046961914747953415
1757088386739022000,5.08802197265625,-0.007305849809199572,0.03256593272089958,-0.03984887897968292
1757088386749069000,5.098069091796875,-0.00875008199363947,0.027896612882614136,-0.03304077312350273
1757088386759115000,5.108114990234375,-0.0060171461664140224,0.025670742616057396,-0.027273699641227722
1757088386769162000,5.118161865234375,-0.0022144184913486242,0.022425945848226547,-0.028599154204130173
1757088386779208000,5.1282080078125,0.00046685212873853743,0.018548917025327682,-0.030184533447027206
1757088386789254000,5.13825390625,0.003950532991439104,0.015867380425333977,-0.030482541769742966
1757088386799300900,5.14830078125,0.0006388923502527177,0.011033209972083569,-0.029472138732671738
1757088386809346800,5.158346923828125,-0.0008245146600529552,0.008562062866985798,-0.031091606244444847
1757088386819393800,5.168393798828125,-0.003885552054271102,0.006329535041004419,-0.030359502881765366
1757088386829440000,5.17843994140625,-0.004703674931079149,0.018163291737437248,-0.03137390315532684
1757088386839486700,5.18848681640625,-0.004823517519980669,0.02201715111732483,-0.023982297629117966
1757088386849533000,5.198532958984375,-0.009459281340241432,0.02112232893705368,-0.017428258433938026
1757088386859579000,5.208578857421875,-0.010880610905587673,0.010655573569238186,-0.02028210274875164
1757088386869625900,5.2186259765625,-0.011929097585380077,-0.004852545913308859,-0.026313362643122673
1757088386879671800,5.228671875,-0.01062201801687479,-0.010788199491798878,-0.02966335415840149
1757088386889719000,5.238718994140625,-0.00666269613429904,-0.008960737846791744,-0.026877420023083687
1757088386899765000,5.248764892578125,-0.003344131400808692,-0.00624058535322547,-0.01702984981238842
1757088386909811000,5.25881103515625,-0.005334311630576849,-0.0067452541552484035,-0.00765845226123929
1757088386919858000,5.26885791015625,-0.0024413196370005608,-0.013132046908140182,-0.0019145464757457376
1757088386929903900,5.27890380859375,-0.0028581044171005487,-0.025548769161105156,0.009525860659778118
1757088386939950800,5.288950927734375,-0.0027513117529451847,-0.04096447676420212,0.01996651664376259
1757088386949997000,5.2989970703125,0.0023608922492712736,-0.05519134923815727,0.029214344918727875
1757088386960043000,5.30904296875,0.0025443839840590954,-0.06802432239055634,0.036912743002176285
1757088386970090000,5.319090087890625,0.0024746092967689037,-0.07431657612323761,0.04453018307685852
1757088386980136000,5.329135986328125,0.0023241406306624413,-0.08080669492483139,0.04808070883154869
1757088386990183000,5.339182861328125,0.00012357067316770554,-0.08227889239788055,0.04302549734711647
1757088387000228900,5.349228759765625,-0.003799531841650605,-0.07633791118860245,0.040343958884477615
1757088387010275800,5.35927587890625,-0.005891445092856884,-0.06746106594800949,0.04077991843223572
1757088387020321800,5.36932177734375,-0.009432916529476643,-0.05402595177292824,0.03983716294169426
1757088387030367700,5.37936767578125,-0.007889614440500736,-0.046282809227705,0.03449060022830963
1757088387040414700,5.389414794921875,-0.00805952399969101,-0.046496130526065826,0.023572970181703568
1757088387050461000,5.3994609375,-0.003427754621952772,-0.04066966474056244,0.011949869804084301
1757088387060508000,5.4095078125,-0.0012594088912010193,-0.031321436166763306,0.0025031049735844135
1757088387070554000,5.41955419921875,-0.0016133430181071162,-0.020928185433149338,-0.006088785361498594
1757088387080600000,5.42960009765625,-0.00618146313354373,-0.0102566322311759,-0.01619255170226097
1757088387090647000,5.43964697265625,-0.005412076134234667,-0.005534048657864332,-0.027158383280038834
1757088387100693000,5.44969287109375,-0.007922371849417686,-0.003798999357968569,-0.03538861870765686
1757088387110740000,5.459739990234375,-0.0037292244378477335,-0.0010237190872430801,-0.040955688804388046
1757088387120786000,5.469785888671875,-0.001770203118212521,0.006512760184705257,-0.04722343757748604
1757088387130832000,5.479831787109375,-0.006237389519810677,0.01666153408586979,-0.056664079427719116
1757088387140878800,5.48987890625,-0.014555240049958229,0.025917351245880127,-0.061108894646167755
1757088387150924800,5.4999248046875,-0.01900964416563511,0.03453081101179123,-0.06541016697883606
1757088387160971800,5.5099716796875,-0.017493506893515587,0.0427866131067276,-0.06490735709667206
1757088387171018000,5.52001806640625,-0.010106430388987064,0.041856102645397186,-0.06181489676237106
1757088387181065000,5.53006494140625,-0.0036674391012638807,0.03910026326775551,-0.05781989172101021
1757088387191111000,5.54011083984375,-0.0002466087171342224,0.03644988685846329,-0.049963030964136124
1757088387201156900,5.550156982421875,-0.0004111920716241002,0.03478115051984787,-0.042509377002716064
1757088387211203800,5.560203857421875,-0.0029518476221710443,0.03803340345621109,-0.04237328842282295
1757088387221249800,5.570249755859375,-0.005760683678090572,0.03653164580464363,-0.037635527551174164
1757088387231297000,5.580297119140625,-0.010874751955270767,0.03585626929998398,-0.034991804510354996
1757088387241343000,5.590343017578125,-0.011581022292375565,0.036909546703100204,-0.02828889526426792
1757088387251389000,5.600388916015625,-0.009845440275967121,0.03734603896737099,-0.023669909685850143
1757088387261436000,5.610435791015625,-0.007661648094654083,0.03696174547076225,-0.02665344811975956
1757088387271482000,5.620482177734375,-0.0023963123094290495,0.034746795892715454,-0.03302399441599846
1757088387281528800,5.63052880859375,0.0021233384031802416,0.02822897396981716,-0.034745197743177414
1757088387291574000,5.640573974609375,0.005258145276457071,0.017233049497008324,-0.03340189903974533
1757088387301621000,5.65062109375,0.00884808599948883,0.008301605470478535,-0.02532106824219227
1757088387311667000,5.6606669921875,0.006336192600429058,0.0070949275977909565,-0.02460893988609314
1757088387321713000,5.670712890625,0.006684800609946251,-0.001802960061468184,-0.018499914556741714
1757088387331759900,5.680759765625,0.004177434369921684,-0.010239321738481522,-0.01299489475786686
1757088387341805800,5.690805908203125,-0.0020703414920717478,-0.01804717816412449,-0.01558215543627739
1757088387351853000,5.70085302734375,-0.0056863813661038876,-0.020960409194231033,-0.019666379317641258
1757088387361899300,5.710899169921875,-0.007001183927059174,-0.019575033336877823,-0.02448190748691559
1757088387371945200,5.7209453125,-0.005560946650803089,-0.016230635344982147,-0.022231535986065865
1757088387381992200,5.7309921875,-0.006197708658874035,-0.016804812476038933,-0.020966799929738045
1757088387392038100,5.7410380859375,-0.006585997529327869,-0.01456003449857235,-0.01677738130092621
1757088387402085000,5.751085205078125,-0.007408914156258106,-0.012683038599789143,-0.0190139040350914
1757088387412131000,5.761131103515625,-0.006226470693945885,-0.014130466617643833,-0.02286110632121563
1757088387422177000,5.771177001953125,-0.00407570181414485,-0.018608305603265762,-0.022767895832657814
1757088387432224000,5.78122412109375,-0.0035393410362303257,-0.01961604505777359,-0.021517543122172356
1757088387442270000,5.79127001953125,-0.0016876452136784792,-0.02117053233087063,-0.01763598434627056
1757088387452317000,5.80131689453125,-0.0030181603506207466,-0.024889370426535606,-0.011873703449964523
1757088387462363000,5.81136279296875,-0.0029965888243168592,-0.022518359124660492,-0.009847571142017841
1757088387472409000,5.8214091796875,-0.0025270734913647175,-0.023790284991264343,-0.011891546659171581
1757088387482456000,5.8314560546875,-0.0001776328426785767,-0.0345020517706871,-0.007538343779742718
1757088387492502000,5.841501953125,0.0005749764968641102,-0.03827868029475212,-0.0009896307019516826
1757088387502549000,5.851549072265625,0.00017736652807798237,-0.03557423874735832,0.005619536153972149
1757088387512595000,5.861594970703125,0.0015334481140598655,-0.033601101487874985,0.008323975838720798
1757088387522642200,5.87164208984375,0.0014117417158558965,-0.033181920647621155,0.005173723213374615
1757088387532688100,5.881688232421875,-0.002581934677436948,-0.03334011510014534,-0.00019920444174204022
1757088387542734000,5.891734130859375,-0.006103166379034519,-0.02441985532641411,-0.0017134778900071979
1757088387552781000,5.901781005859375,-0.008955677971243858,-0.005695702508091927,0.0016881778137758374
1757088387562827000,5.911826904296875,-0.00899695698171854,0.00025779398856684566,-0.0006436860421672463
1757088387572874000,5.9218740234375,-0.010696053504943848,0.006743123754858971,-0.008044877089560032
1757088387582920200,5.931920166015625,-0.011894742958247662,0.013451626524329185,-0.021044831722974777
1757088387592966100,5.941966064453125,-0.013129650615155697,0.02419508434832096,-0.034270089119672775
1757088387603013000,5.95201318359375,-0.014039918780326843,0.038171619176864624,-0.04285452142357826
1757088387613059000,5.96205908203125,-0.014590660110116005,0.046306777745485306,-0.050577957183122635
1757088387623106000,5.97210595703125,-0.015384549275040627,0.04861946776509285,-0.05522703751921654
1757088387633152000,5.982152099609375,-0.011933358386158943,0.04634566232562065,-0.05675062909722328
1757088387643198000,5.992197998046875,-0.007741276640444994,0.043407659977674484,-0.048887647688388824
1757088387653245000,6.002244873046875,-0.003251719754189253,0.04692356660962105,-0.040168989449739456
1757088387663291000,6.012290771484375,0.0005488775204867125,0.045520879328250885,-0.03662965074181557
1757088387673337900,6.022337890625,0.00016405072528868914,0.03910639137029648,-0.03742220625281334
1757088387683384000,6.032384033203125,-0.0005305017111822963,0.03342027589678764,-0.03695828467607498
1757088387693431000,6.04243115234375,-0.0008133294177241623,0.030919300392270088,-0.030188262462615967
1757088387703477200,6.052477294921875,-0.003923102747648954,0.024268321692943573,-0.02166348323225975
1757088387713523200,6.062523193359375,-0.0037974014412611723,0.014811436645686626,-0.013407684862613678
1757088387723570200,6.072570068359375,-0.003703658003360033,0.008843292482197285,-0.00881799217313528
1757088387733616000,6.0826162109375,0.0003486077766865492,0.003715908620506525,-0.004487692844122648
1757088387743663000,6.0926630859375,0.0024375913199037313,0.0014732606941834092,-0.0036791570018976927
1757088387753709000,6.102708984375,0.0019150790758430958,-0.0018335863715037704,-0.003225088119506836
1757088387763755000,6.112755126953125,0.0032378712203353643,-0.005085306242108345,-0.001999767730012536
1757088387773802000,6.122802001953125,0.0028450549580156803,-0.003102049930021167,0.0023363912478089333
1757088387783848000,6.132847900390625,0.0009001484140753746,0.005869873333722353,0.005802229046821594
1757088387793895000,6.14289501953125,0.00273133791051805,0.010171676985919476,0.0007970841252245009
1757088387803941000,6.152941162109375,0.0010926949325948954,0.010154100134968758,-0.009999637492001057
1757088387813987000,6.162987060546875,0.0015941682504490018,0.012914999388158321,-0.014567224308848381
1757088387824034000,6.173033935546875,-0.0002567287301644683,0.01906850002706051,-0.015987489372491837
1757088387834080000,6.183080078125,0.0012170645641162992,0.019169433042407036,-0.01525698322802782
1757088387844127000,6.193126953125,0.002316950121894479,0.017529193311929703,-0.017826667055487633
1757088387854173000,6.2031728515625,0.0022245384752750397,0.016054866835474968,-0.02040460705757141
1757088387864220200,6.21322021484375,-0.0005997438565827906,0.017705760896205902,-0.020381437614560127
1757088387874266000,6.22326611328125,-0.0007355650886893272,0.021277058869600296,-0.019949473440647125
1757088387884312000,6.23331201171875,-0.0029324067290872335,0.02166081964969635,-0.018569689244031906
1757088387894359000,6.243359130859375,-0.0004902879591099918,0.026217222213745117,-0.01871509850025177
1757088387904405000,6.253405029296875,0.002919357270002365,0.033243440091609955,-0.01697126030921936
1757088387914452000,6.263451904296875,0.005665608681738377,0.045099299401044846,-0.015786154195666313
1757088387924498200,6.273498291015625,0.002281530061736703,0.041962895542383194,-0.015868712216615677
1757088387934544100,6.283544189453125,-0.002156361471861601,0.0306394025683403,-0.02268187701702118
1757088387944591000,6.293591064453125,0.0011685950448736548,0.028844431042671204,-0.024814536795020103
1757088387954637000,6.303636962890625,0.003930825740098953,0.03311347961425781,-0.01944480463862419
1757088387964684000,6.31368408203125,0.00680118054151535,0.04412724822759628,-0.014152570627629757
1757088387974730000,6.32372998046875,0.006130064371973276,0.04815421253442764,-0.015277223661541939
1757088387984777000,6.33377685546875,0.002950782421976328,0.04694726690649986,-0.02136494405567646
1757088387994823000,6.343822998046875,-0.00021518341964110732,0.050823234021663666,-0.02630271017551422
1757088388004868900,6.353868896484375,-0.002520682057365775,0.05780444294214249,-0.02503717690706253
1757088388014915800,6.363915771484375,-0.005592904519289732,0.06106282025575638,-0.023858727887272835
1757088388024962000,6.373962158203125,-0.004965197294950485,0.058211907744407654,-0.022311164066195488
1757088388035009000,6.384009033203125,-0.006306099239736795,0.054912783205509186,-0.02401265874505043
1757088388045055200,6.39405517578125,-0.006615025922656059,0.049191247671842575,-0.026438532397150993
1757088388055101200,6.40410107421875,-0.005518335849046707,0.04445934295654297,-0.024995896965265274
1757088388065148200,6.414148193359375,-0.006370281334966421,0.04062598943710327,-0.02346671000123024
1757088388075194000,6.424194091796875,-0.004994226153939962,0.034205906093120575,-0.019894346594810486
1757088388085241000,6.434240966796875,-0.006334861274808645,0.028262531384825706,-0.016278572380542755
1757088388095287000,6.444287109375,-0.004245345015078783,0.023267772048711777,-0.01329636387526989
1757088388105333000,6.4543330078125,-0.008776979520916939,0.025849973782896996,-0.012076903134584427
1757088388115380000,6.4643798828125,-0.01146757137030363,0.0277450792491436,-0.01116024237126112
1757088388125426200,6.47442626953125,-0.012410863302648067,0.02941674366593361,-0.014545386657118797
1757088388135473000,6.484472900390625,-0.013594372197985649,0.032039426267147064,-0.01937795802950859
1757088388145519000,6.49451904296875,-0.011657987721264362,0.03454679250717163,-0.022899989038705826
1757088388155566000,6.504566162109375,-0.008564193733036518,0.038472291082143784,-0.024704813957214355
1757088388165612000,6.514612060546875,-0.004930576309561729,0.04343615844845772,-0.02756211906671524
1757088388175658000,6.524657958984375,-0.002813629573211074,0.048659149557352066,-0.02804947830736637
1757088388185705000,6.534705078125,-0.0013113404856994748,0.05005597695708275,-0.030124079436063766
1757088388195751000,6.5447509765625,-0.0008474178612232208,0.052493833005428314,-0.02961594983935356
1757088388205798100,6.554798095703125,-0.0027574370615184307,0.056223057210445404,-0.026023877784609795
1757088388215844000,6.564843994140625,-0.0024437166284769773,0.06216803193092346,-0.023555658757686615
1757088388225891000,6.57489111328125,-0.00646615494042635,0.06226896867156029,-0.024401213973760605
1757088388235937000,6.58493701171875,-0.006354302167892456,0.061030063778162,-0.02624012529850006
1757088388245983200,6.594983154296875,-0.005097024142742157,0.05016889423131943,-0.029107818379998207
1757088388256030200,6.6050302734375,-0.003019758267328143,0.04164784401655197,-0.03213822841644287
1757088388266076200,6.615076171875,0.0025947177782654762,0.03706081584095955,-0.030401581898331642
1757088388276123100,6.625123046875,0.007928497157990932,0.03584694862365723,-0.030243389308452606
1757088388286168600,6.63516845703125,0.008443285711109638,0.03406715765595436,-0.031734492629766464
1757088388296214500,6.645214599609375,0.007795604877173901,0.03268497437238693,-0.03405330702662468
1757088388306261800,6.65526171875,0.007536745630204678,0.036556944251060486,-0.04059669375419617
1757088388316307700,6.6653076171875,0.008058459497988224,0.04358049854636192,-0.041913893073797226
1757088388326354700,6.675354736328125,0.005561479367315769,0.05537644028663635,-0.04086700454354286
1757088388336400600,6.685400634765625,0.006054962985217571,0.0640634074807167,-0.044979460537433624
1757088388346446800,6.69544677734375,0.005460012704133987,0.06886455416679382,-0.0484255887567997
1757088388356493800,6.705493896484375,0.004756938200443983,0.06966536492109299,-0.052740175276994705
1757088388366539800,6.715539794921875,0.0023584954906255007,0.0703229010105133,-0.05259237065911293
1757088388376586800,6.725586669921875,0.0013456953456625342,0.07085473090410233,-0.05055425316095352
1757088388386632700,6.7356328125,0.0017054883064702153,0.07335703819990158,-0.050759315490722656
1757088388396679700,6.7456796875,0.0023987090680748224,0.0760689377784729,-0.04971003159880638
1757088388406725600,6.7557255859375,0.004840295296162367,0.07051411271095276,-0.052007272839546204
1757088388416771600,6.765771484375,0.008775382302701473,0.06492120772600174,-0.054252851754426956
1757088388426818600,6.775818603515625,0.013618607074022293,0.06280852109193802,-0.05140646547079086
1757088388436864500,6.785864501953125,0.01631399244070053,0.05967345088720322,-0.047031424939632416
1757088388446911500,6.795911376953125,0.018025072291493416,0.05723053216934204,-0.04366598650813103
1757088388456957700,6.805957763671875,0.018039453774690628,0.05115453153848648,-0.04231496527791023
1757088388467003600,6.816003662109375,0.014967497438192368,0.052320729941129684,-0.04241270571947098
1757088388477051000,6.82605078125,0.011083277873694897,0.05799992009997368,-0.038115162402391434
1757088388487096800,6.836096923828125,0.00809281412512064,0.059479840099811554,-0.03622165322303772
1757088388497143800,6.846143798828125,0.004971588961780071,0.05793946608901024,-0.034141991287469864
1757088388507189800,6.856189697265625,0.006680805701762438,0.055861134082078934,-0.03554840758442879
1757088388517236700,6.86623681640625,0.01005210168659687,0.05350610241293907,-0.04240977391600609
1757088388527282700,6.87628271484375,0.009590575471520424,0.053710367530584335,-0.048538774251937866
1757088388537328600,6.88632861328125,0.010664895176887512,0.052859753370285034,-0.0545726977288723
1757088388547375600,6.896375732421875,0.00788615271449089,0.052680786699056625,-0.058991413563489914
1757088388557421600,6.906421630859375,0.007096258923411369,0.04960350692272186,-0.06400348246097565
1757088388567468500,6.916468505859375,0.0022325278259813786,0.04692356660962105,-0.06722670793533325
1757088388577514800,6.9265146484375,-0.0030575753189623356,0.03689463436603546,-0.07535067945718765
1757088388587561700,6.936561767578125,-0.002594451420009136,0.03110598772764206,-0.07765484601259232
1757088388597607700,6.946607666015625,0.001856755930930376,0.03954687714576721,-0.07344572246074677
1757088388607653600,6.956653564453125,0.004048271104693413,0.04688761383295059,-0.07037696242332458
1757088388617700600,6.96670068359375,0.004228567238897085,0.0497470498085022,-0.06881262362003326
1757088388627746600,6.97674658203125,0.0021584921050816774,0.0545647069811821,-0.06554066389799118
1757088388637793800,6.986793701171875,0.0019590212032198906,0.06367191672325134,-0.05985188111662865
1757088388647839700,6.99683984375,-0.004205664154142141,0.075258269906044,-0.055399876087903976
1757088388657885700,7.0068857421875,-0.002767290687188506,0.08735194802284241,-0.05294470861554146
1757088388667932700,7.0169326171875,0.00008202536264434457,0.09258266538381577,-0.05663558095693588
1757088388677979000,7.026978759765625,0.006184658966958523,0.0911719873547554,-0.05904840677976608
1757088388688025600,7.037025634765625,0.010916030965745449,0.08400887995958328,-0.058887019753456116
1757088388698071800,7.04707177734375,0.013185043819248676,0.0803675428032875,-0.06150543689727783
1757088388708118800,7.057118896484375,0.01733291707932949,0.0822695717215538,-0.06706558912992477
1757088388718164700,7.067164794921875,0.01414351537823677,0.08871788531541824,-0.0735168308019638
1757088388728210700,7.077210693359375,0.01458719838410616,0.09617633372545242,-0.07794859260320663
1757088388738257700,7.087257568359375,0.00780519237741828,0.0931837409734726,-0.08066128939390182
1757088388748303600,7.0973037109375,-0.0010892328573390841,0.09201780706644058,-0.08015874773263931
1757088388758350600,7.1073505859375,-0.009465141221880913,0.09520481526851654,-0.08278356492519379
1757088388768396500,7.117396484375,-0.01756354793906212,0.10423506051301956,-0.08538653701543808
1757088388778442500,7.1274423828125,-0.02960476279258728,0.11041758954524994,-0.09383488446474075
1757088388788489500,7.137489501953125,-0.03512389957904816,0.10623802244663239,-0.10495065152645111
1757088388798535700,7.14753564453125,-0.04272589087486267,0.10322386026382446,-0.11414654552936554
1757088388808582700,7.157582763671875,-0.04644313082098961,0.10077481716871262,-0.12302206456661224
1757088388818628900,7.16762890625,-0.040954623371362686,0.10328617691993713,-0.13164591789245605
1757088388828675800,7.17767578125,-0.03846962749958038,0.12108594179153442,-0.136342391371727
1757088388838721800,7.1877216796875,-0.033317744731903076,0.13638366758823395,-0.13979491591453552
1757088388848767700,7.197767822265625,-0.02725532278418541,0.1422562152147293,-0.13744308054447174
1757088388858814700,7.207814697265625,-0.021146031096577644,0.14267486333847046,-0.13606835901737213
1757088388868860700,7.217860595703125,-0.014035924337804317,0.15279993414878845,-0.1362220197916031
1757088388878907600,7.22790771484375,-0.006051767151802778,0.16773094236850739,-0.13440175354480743
1757088388888953600,7.23795361328125,0.004200337454676628,0.17531536519527435,-0.13805587589740753
1757088388898999800,7.247999755859375,0.014300376176834106,0.17124365270137787,-0.142708420753479
1757088388909046500,7.258046630859375,0.023189742118120193,0.16632825136184692,-0.15740187466144562
1757088388919092700,7.2680927734375,0.030314762145280838,0.15973587334156036,-0.17164047062397003
1757088388929139700,7.2781396484375,0.029691316187381744,0.15564551949501038,-0.18865565955638885
1757088388939185700,7.288185546875,0.027997812256217003,0.1565272957086563,-0.20244045555591583
1757088388949231600,7.298231689453125,0.01961391419172287,0.16428375244140625,-0.2207728624343872
1757088388959278600,7.308278564453125,0.006859770510345697,0.17338590323925018,-0.23609162867069244
1757088388969324500,7.318324462890625,-0.0033361418172717094,0.1849655956029892,-0.24604812264442444
1757088388979371800,7.328371826171875,-0.007012103218585253,0.18553391098976135,-0.2475823611021042
1757088388989417700,7.338417724609375,-0.004512459971010685,0.18312028050422668,-0.24374236166477203
1757088388999464700,7.348464599609375,0.006155630573630333,0.17061302065849304,-0.23644262552261353
1757088389009510700,7.3585107421875,0.016290822997689247,0.16329064965248108,-0.23032614588737488
1757088389019556900,7.368556884765625,0.0328008234500885,0.15687429904937744,-0.2277468740940094
1757088389029603800,7.378603759765625,0.047139015048742294,0.15692517161369324,-0.23084120452404022
1757088389039649800,7.38864990234375,0.061468422412872314,0.15980324149131775,-0.2292768657207489
1757088389049696800,7.39869677734375,0.06781233847141266,0.160288468003273,-0.23311634361743927
1757088389059742700,7.40874267578125,0.06884218007326126,0.15773050487041473,-0.24050527811050415
1757088389069788700,7.41878857421875,0.064285509288311,0.1598823368549347,-0.255085289478302
1757088389079835600,7.428835693359375,0.059356268495321274,0.16297586262226105,-0.2677374482154846
1757088389089881600,7.438881591796875,0.05028980225324631,0.16374552249908447,-0.274963915348053
1757088389099928600,7.448928466796875,0.04794648662209511,0.17062659561634064,-0.27834054827690125
1757088389109974500,7.458974609375,0.053519684821367264,0.18636508285999298,-0.2844999134540558
1757088389120020700,7.469020751953125,0.05650215968489647,0.19409677386283875,-0.29633206129074097
1757088389130067700,7.479067626953125,0.06009689345955849,0.1780027598142624,-0.3025558590888977
1757088389140113700,7.48911376953125,0.06372705101966858,0.16285470128059387,-0.31242260336875916
1757088389150161000,7.499160888671875,0.06371186673641205,0.15684980154037476,-0.32065045833587646
1757088389160206600,7.50920654296875,0.06669913232326508,0.16504327952861786,-0.3321308195590973
1757088389170252500,7.51925244140625,0.06557128578424454,0.17854177951812744,-0.34766075015068054
1757088389180299800,7.5292998046875,0.05578283965587616,0.19461795687675476,-0.3608226478099823
1757088389190345700,7.539345703125,0.037870682775974274,0.19478440284729004,-0.36190786957740784
1757088389200392700,7.549392822265625,0.016706807538866997,0.19599081575870514,-0.3563522696495056
1757088389210438700,7.559438720703125,-0.007542870938777924,0.20017144083976746,-0.350577712059021
1757088389220484600,7.569484619140625,-0.02726304531097412,0.18946607410907745,-0.3496645390987396
1757088389230531600,7.579531494140625,-0.03833620250225067,0.1635037064552307,-0.3565996587276459
1757088389240577800,7.589577880859375,-0.04313601925969124,0.1516513079404831,-0.3707943260669708
1757088389250624800,7.599624755859375,-0.04272669181227684,0.15042784810066223,-0.39613109827041626
1757088389260670700,7.609670654296875,-0.04475095868110657,0.16797596216201782,-0.42192354798316956
1757088389270717700,7.6197177734375,-0.054604921489953995,0.1910807341337204,-0.44464030861854553
1757088389280763600,7.629763671875,-0.06322290748357773,0.20521360635757446,-0.4586634337902069
1757088389290809900,7.639809814453125,-0.08432766050100327,0.20991994440555573,-0.4543014466762543
1757088389300856800,7.64985693359375,-0.10966817289590836,0.21187284588813782,-0.43915098905563354
1757088389310902800,7.65990283203125,-0.12590919435024261,0.2106267511844635,-0.41722625494003296
1757088389320949800,7.66994970703125,-0.1364007145166397,0.19884438812732697,-0.40231868624687195
1757088389330995700,7.67999560546875,-0.14347274601459503,0.1792033165693283,-0.3939896523952484
1757088389341042000,7.6900419921875,-0.16142351925373077,0.16612133383750916,-0.39061328768730164
1757088389351088600,7.700088623046875,-0.1760067194700241,0.1668614149093628,-0.4020571708679199
1757088389361134800,7.710134765625,-0.19849471747875214,0.1729171872138977,-0.44178858399391174
1757088389371181800,7.720181884765625,-0.22922280430793762,0.19570478796958923,-0.4927436411380768
1757088389381227800,7.730227783203125,-0.2994072139263153,0.22865714132785797,-0.5675084590911865
1757088389391273700,7.740273681640625,-0.3709535598754883,0.19916848838329315,-0.6282253265380859
1757088389401320700,7.75032080078125,-0.44003623723983765,0.10872035473585129,-0.6581480503082275
1757088389411366700,7.76036669921875,-0.5343209505081177,0.010298976674675941,-0.6662341952323914
1757088389421414000,7.770413818359375,-0.653473436832428,-0.06040102615952492,-0.6769307851791382
1757088389431459800,7.7804599609375,-0.7774153351783752,-0.07563777267932892,-0.698684811592102
1757088389441505800,7.790505859375,-0.9015841484069824,-0.11204265058040619,-0.7253190875053406
1757088389451552800,7.800552734375,-1.0116528272628784,-0.2035675048828125,-0.7954736948013306
1757088389461599000,7.810598876953125,-1.1229817867279053,-0.30907687544822693,-0.8699945211410522
1757088389471646000,7.82064599609375,-1.2071267366409302,-0.33434122800827026,-0.9085648059844971
1757088389481692000,7.83069189453125,-1.2982861995697021,-0.39622190594673157,-0.9083507061004639
1757088389491737900,7.84073779296875,-1.3778793811798096,-0.5337994694709778,-0.8604660034179688
1757088389501784800,7.850784912109375,-1.4084515571594238,-0.6968813538551331,-0.7841171622276306
1757088389511830800,7.860830810546875,-1.439880609512329,-0.8563980460166931,-0.7571215033531189
1757088389521877800,7.870877685546875,-1.429868221282959,-1.028178095817566,-0.7634835243225098
1757088389531923700,7.880923828125,-1.3740462064743042,-1.1538063287734985,-0.7661762833595276
1757088389541969700,7.8909697265625,-1.3468090295791626,-1.2916728258132935,-0.760164201259613
1757088389552016600,7.9010166015625,-1.3155661821365356,-1.4249166250228882,-0.7481197714805603
1757088389562062800,7.911062744140625,-1.287909984588623,-1.5586280822753906,-0.7192955613136292
1757088389572109800,7.92110986328125,-1.2601087093353271,-1.583714246749878,-0.7304677963256836
1757088389582155800,7.93115576171875,-1.2423579692840576,-1.5691702365875244,-0.7538256049156189
1757088389592201700,7.94120166015625,-1.221856951713562,-1.584092140197754,-0.7587071657180786
1757088389602249000,7.9512490234375,-1.226114273071289,-1.6112110614776611,-0.7622379660606384
1757088389612295000,7.961294921875,-1.2122682332992554,-1.6277294158935547,-0.760773777961731
1757088389622342000,7.971341796875,-1.196675181388855,-1.6761046648025513,-0.7563614249229431
1757088389632387800,7.981387939453125,-1.1659761667251587,-1.7634917497634888,-0.7579715847969055
1757088389642433800,7.991433837890625,-1.1251152753829956,-1.8661986589431763,-0.7580339312553406
1757088389652480800,8.001480712890626,-1.1076425313949585,-1.9391010999679565,-0.7283329963684082
1757088389662526700,8.011526611328126,-1.0759000778198242,-2.0703957080841064,-0.6853514313697815
1757088389672573700,8.02157373046875,-1.01310133934021,-2.2335939407348633,-0.6537181735038757
1757088389682620000,8.031619873046875,-0.9201034903526306,-2.3929131031036377,-0.6289941668510437
1757088389692665900,8.041665771484375,-0.8398520946502686,-2.456571578979492,-0.6109829545021057
1757088389702712800,8.051712890625,-0.796856164932251,-2.504950761795044,-0.5677893757820129
1757088389712758800,8.0617587890625,-0.7047565579414368,-2.5121452808380127,-0.4914882481098175
1757088389722805800,8.0718056640625,-0.6573914289474487,-2.448110818862915,-0.4525807797908783
1757088389732851700,8.081851806640625,-0.611937403678894,-2.403905153274536,-0.3795068562030792
1757088389742897700,8.091897705078125,-0.5801363587379456,-2.3038837909698486,-0.3530861437320709
1757088389752944600,8.101944580078126,-0.539603054523468,-2.268296003341675,-0.3109983503818512
1757088389762990600,8.111990478515626,-0.5143666863441467,-2.164146900177002,-0.29267367720603943
1757088389773037800,8.122037841796875,-0.4876125454902649,-2.05151629447937,-0.26929378509521484
1757088389783084000,8.132083984375,-0.45792654156684875,-1.9092670679092407,-0.24185363948345184
1757088389793129700,8.142129638671875,-0.4364505410194397,-1.7658520936965942,-0.21991132199764252
1757088389803177000,8.152177001953126,-0.38946786522865295,-1.577815294265747,-0.17623041570186615
1757088389813223000,8.162222900390624,-0.33944758772850037,-1.408803939819336,-0.1639402061700821
1757088389823268900,8.172268798828124,-0.3202994465827942,-1.2775119543075562,-0.15132160484790802
1757088389833315800,8.18231591796875,-0.32443612813949585,-1.135331392288208,-0.1336086541414261
1757088389843361800,8.19236181640625,-0.3123120963573456,-1.0128196477890015,-0.10818692296743393
1757088389853408800,8.20240869140625,-0.3100670576095581,-0.9003979563713074,-0.10619194805622101
1757088389863454700,8.212454833984374,-0.28377074003219604,-0.8217737674713135,-0.08806008100509644
1757088389873501000,8.2225009765625,-0.23740509152412415,-0.7471125721931458,-0.056422796100378036
1757088389883548000,8.2325478515625,-0.19209247827529907,-0.687248170375824,-0.019173694774508476
1757088389893593900,8.24259375,-0.1622839868068695,-0.6066049933433533,0.013440707698464394
1757088389903640800,8.252640869140626,-0.15478478372097015,-0.48189714550971985,0.04530729353427887
1757088389913686800,8.262686767578124,-0.14837482571601868,-0.31567806005477905,0.07058202475309372
1757088389923732700,8.272732666015624,-0.14741182327270508,-0.148237407207489,0.09863629192113876
1757088389933779700,8.28277978515625,-0.1533922255039215,0.0017539578257128596,0.12590201199054718
1757088389943825700,8.29282568359375,-0.1587587594985962,0.12263190746307373,0.15650199353694916
1757088389953872600,8.30287255859375,-0.16779272258281708,0.21147948503494263,0.18773527443408966
1757088389963918600,8.312918701171874,-0.1861696094274521,0.27441051602363586,0.21792513132095337
1757088389973964800,8.32296484375,-0.20105375349521637,0.3285169005393982,0.26119911670684814
1757088389984011800,8.33301171875,-0.2104341983795166,0.3748268783092499,0.3128119707107544
1757088389994058000,8.34305810546875,-0.21231572329998016,0.43287765979766846,0.3690906763076782
1757088390004105000,8.35310498046875,-0.21421243250370026,0.5032436847686768,0.4244426190853119
1757088390014151000,8.36315087890625,-0.21227018535137177,0.581298291683197,0.47536787390708923
1757088390024196900,8.37319677734375,-0.20586848258972168,0.6633867621421814,0.5232133865356445
1757088390034243800,8.383243896484375,-0.19132176041603088,0.733199954032898,0.570458173751831
1757088390044289800,8.393289794921875,-0.159298837184906,0.8062560558319092,0.6312450766563416
1757088390054336800,8.403336669921876,-0.10960132628679276,0.8497651815414429,0.6645042300224304
1757088390064382700,8.4133828125,-0.060444168746471405,0.9437183141708374,0.7062311768531799
1757088390074428700,8.4234287109375,-0.0059692091308534145,1.0827515125274658,0.7596869468688965
1757088390084475600,8.4334755859375,0.06801393628120422,1.2272871732711792,0.829882800579071
1757088390094521900,8.44352197265625,0.15864743292331696,1.2841107845306396,0.8311150670051575
1757088390104568800,8.45356884765625,0.22132493555545807,1.2281039953231812,0.647949755191803
1757088390114614800,8.46361474609375,0.18316742777824402,0.8663201928138733,0.24051061272621155
1757088390124660700,8.47366064453125,-0.0065407236106693745,0.18572565913200378,-0.2859087288379669
1757088390134707700,8.483707763671875,-0.11701716482639313,-0.2565934360027313,-0.3424622714519501
1757088390144753700,8.493753662109375,-0.26879391074180603,-0.18895846605300903,-0.08804730325937271
1757088390154801000,8.50380078125,-0.22104530036449432,-0.07759226113557816,0.2838769853115082
1757088390164846800,8.513846923828124,-0.14628104865550995,-0.21478846669197083,0.7796680927276611
1757088390174892800,8.523892822265625,0.031260184943675995,-0.23380663990974426,1.103414535522461
1757088390184939800,8.533939697265625,0.3829210102558136,-0.10045097023248672,1.0482732057571411
1757088390194986000,8.543986083984375,0.645555317401886,0.12396881729364395,0.9493823051452637
1757088390205032700,8.55403271484375,0.6655433773994446,0.4856138527393341,0.9216223359107971
1757088390215079000,8.564078857421874,0.6074633002281189,0.8634412884712219,1.0093865394592285
1757088390225124900,8.574124755859375,0.5680847764015198,1.083830714225769,1.0810569524765015
1757088390235171800,8.584171875,0.46697917580604553,1.0576086044311523,1.023993968963623
1757088390245217800,8.5942177734375,0.3855825662612915,0.9947441816329956,0.9714474081993103
1757088390255264800,8.6042646484375,0.4146917164325714,0.9349988102912903,1.0730453729629517
1757088390265310700,8.614310791015624,0.43796002864837646,0.9289124608039856,1.187865138053894
1757088390275356700,8.624356689453125,0.4138498902320862,0.8759035468101501,1.1894726753234863
1757088390285403600,8.634403564453125,0.39867815375328064,0.8978935480117798,1.091980218887329
1757088390295449900,8.644449951171875,0.3748881220817566,1.0146644115447998,1.0066328048706055
1757088390305496800,8.654496826171876,0.35545238852500916,1.2198984622955322,0.9481068849563599
1757088390315543000,8.66454296875,0.3563799560070038,1.4772855043411255,0.8527393937110901
1757088390325589000,8.674589111328125,0.384461909532547,1.7035865783691406,0.7163195013999939
1757088390335636000,8.684635986328125,0.44294601678848267,2.0056519508361816,0.5689340233802795
1757088390345682000,8.694681884765625,0.5328367352485657,2.2838058471679688,0.476579874753952
1757088390355729000,8.70472900390625,0.686876118183136,2.4598636627197266,0.40236741304397583
1757088390365774800,8.71477490234375,0.8770207762718201,2.4312851428985596,0.37310701608657837
1757088390375820800,8.72482080078125,1.0133578777313232,2.215759515762329,0.4235216975212097
1757088390385867800,8.73486767578125,1.0952364206314087,1.8502050638198853,0.5354351997375488
1757088390395913700,8.744913818359375,1.1159944534301758,1.4010506868362427,0.6613678336143494
1757088390405961000,8.7549609375,1.0462130308151245,1.0599708557128906,0.7120296955108643
1757088390416007200,8.765007080078124,0.948980450630188,0.8681830763816833,0.686805784702301
1757088390426052900,8.775052978515625,0.8919243216514587,0.8476090431213379,0.6552731990814209
1757088390436100000,8.78510009765625,0.8690709471702576,0.8602127432823181,0.6514912247657776
1757088390446146000,8.79514599609375,0.8221426010131836,0.7742000818252563,0.6890926361083984
1757088390456193000,8.805193115234376,0.7664183378219604,0.8457658886909485,0.6964512467384338
1757088390466239000,8.815239013671874,0.6558071374893188,0.9522523880004883,0.7321416139602661
1757088390476286000,8.825285888671875,0.5659142732620239,0.9631742835044861,0.8133746385574341
1757088390486332000,8.835331787109375,0.4985477328300476,0.8265189528465271,0.9254394173622131
1757088390496377900,8.8453779296875,0.45337122678756714,0.6986842751502991,1.0057827234268188
1757088390506424800,8.8554248046875,0.42824187874794006,0.5489544868469238,1.0368818044662476
1757088390516470800,8.865470703125,0.3979300558567047,0.4564916491508484,1.0454273223876953
1757088390526517800,8.875517822265625,0.3484959304332733,0.41270554065704346,1.0636467933654785
1757088390536564000,8.88556396484375,0.2714986205101013,0.3737964928150177,1.1066712141036987
1757088390546610000,8.89560986328125,0.18267793953418732,0.41073668003082275,1.1342147588729858
1757088390556657000,8.905656982421876,0.10412107408046722,0.5748544931411743,1.0655286312103271
1757088390566702800,8.915702880859374,0.0012114719720557332,0.7026939392089844,0.9727382063865662
1757088390576750000,8.92575,-0.08819350600242615,0.7403523921966553,0.868750810623169
1757088390586795800,8.935795654296875,-0.21667930483818054,0.7553536891937256,0.8488737940788269
1757088390596841700,8.945841796875,-0.3470418453216553,0.7408024668693542,0.8995332717895508
1757088390606889000,8.955888916015626,-0.40363481640815735,0.7034721374511719,0.9348715543746948
1757088390616935000,8.965934814453124,-0.4088868498802185,0.7215456962585449,0.9209469556808472
1757088390626982000,8.97598193359375,-0.3984006345272064,0.8369918465614319,0.8602044582366943
1757088390637028000,8.986028076171875,-0.3484210968017578,0.9021937251091003,0.8447890281677246
1757088390647074000,8.996073974609375,-0.18590116500854492,0.7986028790473938,0.8755499124526978
1757088390657121000,9.00612109375,-0.13423609733581543,0.7944403886795044,0.8864046931266785
1757088390667167000,9.0161669921875,-0.0744534581899643,0.7641043066978455,0.9094199538230896
1757088390677214000,9.0262138671875,0.021351628005504608,0.7184686660766602,0.8411876559257507
1757088390687260000,9.036260009765625,0.12412567436695099,0.6408281922340393,0.7191749215126038
1757088390697305900,9.046305908203125,0.2036663144826889,0.5599431991577148,0.5810559391975403
1757088390707352800,9.056352783203126,0.23948049545288086,0.4852108955383301,0.4557185173034668
1757088390717398800,9.066398681640624,0.26439836621284485,0.493174284696579,0.34286415576934814
1757088390727445800,9.07644580078125,0.2820660471916199,0.5556083917617798,0.22145488858222961
1757088390737492000,9.086491943359375,0.2679552733898163,0.6143196225166321,0.07457943260669708
1757088390747538700,9.09653857421875,0.24824416637420654,0.6384958028793335,-0.08973574638366699
1757088390757585000,9.1065849609375,0.2584579288959503,0.5922020673751831,-0.25908324122428894
1757088390767630800,9.116630859375,0.29654166102409363,0.5136688947677612,-0.3976949155330658
1757088390777678000,9.126677978515625,0.32463932037353516,0.4949391782283783,-0.48897767066955566
1757088390787724000,9.13672412109375,0.3447595238685608,0.5482492446899414,-0.5395492315292358
1757088390797771000,9.14677099609375,0.3555240035057068,0.6477657556533813,-0.5590334534645081
1757088390807817000,9.15681689453125,0.3521559238433838,0.7856599688529968,-0.5473283529281616
1757088390817863000,9.16686279296875,0.3264947533607483,0.930535614490509,-0.49950888752937317
1757088390827910000,9.176909912109375,0.3091021776199341,1.044555425643921,-0.41951632499694824
1757088390837955800,9.186955810546875,0.2780318856239319,1.0509904623031616,-0.31965309381484985
1757088390848002800,9.1970029296875,0.20550602674484253,0.8764183521270752,-0.20441199839115143
1757088390858049000,9.207049072265624,0.06154778227210045,0.5324156880378723,-0.08695753663778305
1757088390868095000,9.217094970703124,-0.1300235092639923,0.16420705616474152,0.023787088692188263
1757088390878142000,9.227141845703125,-0.2785634398460388,-0.02556528151035309,0.10288004577159882
1757088390888188000,9.23718798828125,-0.34038954973220825,0.022484535351395607,0.13129623234272003
1757088390898235000,9.24723486328125,-0.30287277698516846,0.12530092895030975,0.1424226611852646
1757088390908280800,9.25728076171875,-0.17977268993854523,0.23845064640045166,0.12026063352823257
1757088390918326800,9.267326904296874,-0.002296976512297988,0.43540605902671814,-0.044803690165281296
1757088390928373800,9.277373779296875,0.18177884817123413,0.5747919082641602,-0.3724622428417206
1757088390938419700,9.287419677734375,0.33827072381973267,0.546858012676239,-0.7840149402618408
1757088390948467000,9.297467041015626,0.4030803442001343,0.3898087441921234,-1.184714436531067
1757088390958513000,9.307512939453124,0.45043906569480896,0.2540690302848816,-1.5641030073165894
1757088390968559000,9.31755908203125,0.5069654583930969,0.09132911264896393,-1.9186201095581055
1757088390978606000,9.327606201171875,0.5036343932151794,-0.06357444822788239,-2.227431058883667
1757088390988652000,9.337652099609375,0.40472882986068726,-0.09001484513282776,-2.4749948978424072
1757088390998699000,9.347698974609376,0.248341366648674,0.0334535650908947,-2.5642080307006836
1757088391008745000,9.357744873046874,0.0747876912355423,0.1699397712945938,-2.4686269760131836
1757088391018791000,9.367791015625,-0.16944655776023865,0.2974471151828766,-2.2911996841430664
1757088391028838000,9.377837890625,-0.5365625023841858,0.33484989404678345,-2.1336162090301514
1757088391038883800,9.3878837890625,-0.9272570013999939,0.5439037680625916,-2.073693037033081
1757088391048930800,9.397930908203126,-1.4261739253997803,0.8890009522438049,-1.9570356607437134
1757088391058976800,9.407976806640624,-1.8785631656646729,1.2713638544082642,-1.6716440916061401
1757088391069023700,9.418023681640625,-2.088866710662842,1.3574872016906738,-1.2779865264892578
1757088391079070000,9.428070068359375,-2.1668081283569336,1.1250721216201782,-0.8685963749885559
1757088391089116000,9.438115966796875,-2.2015719413757324,0.6890724301338196,-0.6284245252609253
1757088391099163000,9.448162841796876,-2.2658698558807373,-0.26839497685432434,-0.594229519367218
1757088391109208800,9.458208740234374,-2.2538211345672607,-1.2256468534469604,-0.809784471988678
1757088391119256000,9.468256103515625,-2.132753372192383,-2.1557223796844482,-1.0653611421585083
1757088391129302000,9.478302001953125,-1.949218988418579,-3.203859806060791,-1.149377703666687
1757088391139348000,9.488347900390625,-1.6974700689315796,-3.805055618286133,-1.0568954944610596
1757088391149395000,9.49839501953125,-1.4548494815826416,-3.78551983833313,-0.7383025288581848
1757088391159441000,9.50844091796875,-1.4146149158477783,-3.315842390060425,-0.4342113733291626
1757088391169488000,9.51848779296875,-1.5284757614135742,-3.024116277694702,-0.32262811064720154
1757088391179534000,9.5285341796875,-1.7028400897979736,-3.093527317047119,-0.46835389733314514
1757088391189580000,9.538580078125,-1.7742351293563843,-3.0326521396636963,-0.7941107153892517
1757088391199627000,9.548626953125,-1.7838544845581055,-2.8301875591278076,-1.0188878774642944
1757088391209673000,9.5586728515625,-1.7594000101089478,-2.730207681655884,-1.0318777561187744
1757088391219720000,9.568719970703125,-1.7124141454696655,-2.6662726402282715,-0.951608419418335
1757088391229766000,9.578765869140625,-1.6378943920135498,-2.609631299972534,-0.9013742804527283
1757088391239811800,9.588811767578125,-1.4975053071975708,-2.5375800132751465,-0.8750646710395813
1757088391249858800,9.59885888671875,-1.3077630996704102,-2.542774200439453,-0.8127403259277344
1757088391259904800,9.60890478515625,-1.0947613716125488,-2.633612871170044,-0.6767241358757019
1757088391269951700,9.61895166015625,-0.9700785279273987,-2.5610268115997314,-0.6057759523391724
1757088391279998000,9.628998046875,-0.8207265734672546,-2.5497426986694336,-0.5475613474845886
1757088391290043600,9.639043701171875,-0.6732593774795532,-2.564908266067505,-0.48120149970054626
1757088391300091000,9.6490908203125,-0.5070735812187195,-2.4319677352905273,-0.44855302572250366
1757088391310136600,9.659136474609374,-0.3746281862258911,-2.3131933212280273,-0.32819864153862
1757088391320183800,9.669183837890625,-0.2587018609046936,-2.182729482650757,-0.20430094003677368
1757088391330229800,9.679229736328125,-0.16621346771717072,-1.9817029237747192,-0.09875880181789398
1757088391340276700,9.68927685546875,-0.07015485316514969,-1.7841717004776,-0.0044346959330141544
1757088391350322700,9.69932275390625,-0.006358563434332609,-1.5506484508514404,0.0666261613368988
1757088391360368600,9.70936865234375,0.02810167521238327,-1.2970257997512817,0.15413497388362885
1757088391370415600,9.71941552734375,0.05263977497816086,-0.9545632004737854,0.2183898538351059
1757088391380461600,9.729461669921875,0.08765475451946259,-0.5639517903327942,0.26647987961769104
1757088391390508500,9.739508544921875,0.12378399074077606,-0.17219306528568268,0.292628675699234
1757088391400554800,9.7495546875,0.15570996701717377,0.14172890782356262,0.32689955830574036
1757088391410600700,9.7596005859375,0.17962755262851715,0.4044979512691498,0.3821979761123657
1757088391420647700,9.769647705078125,0.16861484944820404,0.7108511924743652,0.4481138586997986
1757088391430693600,9.779693603515625,0.13375432789325714,1.025805950164795,0.5219202041625977
1757088391440740600,9.78974072265625,0.09225136786699295,1.3139469623565674,0.578682541847229
1757088391450786600,9.79978662109375,0.05158782750368118,1.5428837537765503,0.5904635787010193
1757088391460832500,9.80983251953125,0.032469794154167175,1.6633763313293457,0.42778462171554565
1757088391470879500,9.81987939453125,0.025198830291628838,1.681435465812683,0.15545803308486938
1757088391480925400,9.829925537109375,0.016514794901013374,1.364879846572876,-0.16006743907928467
1757088391490972700,9.83997265625,0.08320754021406174,0.8410816788673401,-0.26576003432273865
1757088391501019000,9.850018798828126,0.18649610877037048,0.6333993077278137,-0.129710853099823
1757088391511064800,9.86006494140625,0.36853328347206116,0.7634158730506897,0.43727800250053406
1757088391521111800,9.87011181640625,0.6079282760620117,0.6646853089332581,1.048341155052185
1757088391531157800,9.88015771484375,0.6133968234062195,0.44997942447662354,1.1259831190109253
1757088391541204700,9.890204833984376,0.657580554485321,0.3116481602191925,1.2680671215057373
1757088391551250700,9.900250732421876,0.78976970911026,0.4789245128631592,1.487342119216919
1757088391561296600,9.910296630859374,0.8640098571777344,0.6902700662612915,1.628156065940857
1757088391571343600,9.920343505859375,0.8501012325286865,0.8897216320037842,1.5123041868209839
1757088391581389600,9.9303896484375,0.7853773832321167,1.071507453918457,1.1615078449249268
1757088391591436500,9.9404365234375,0.6898031830787659,1.4436604976654053,0.8201164603233337
1757088391601482800,9.950482666015626,0.6957822442054749,1.8328649997711182,0.6898061037063599
1757088391611528700,9.96052880859375,0.8087263703346252,2.048870325088501,0.5857627987861633
1757088391621575700,9.97057568359375,0.9488688707351685,2.258124589920044,0.460479736328125
1757088391631621600,9.98062158203125,1.045981526374817,2.310336112976074,0.3933395743370056
1757088391641668600,9.990668701171876,1.0990597009658813,2.266084909439087,0.38730165362358093
1757088391651714600,10.000714599609376,1.147750735282898,2.366990327835083,0.40844103693962097
1757088391661760500,10.010760498046874,1.18464994430542,2.4222166538238525,0.38973233103752136
1757088391671807700,10.020807861328125,1.2159790992736816,2.463677406311035,0.35226884484291077
1757088391681853700,10.030853759765625,1.2381243705749512,2.5666375160217285,0.3400947153568268
1757088391691900700,10.040900634765626,1.2599979639053345,2.550820827484131,0.389573335647583
1757088391701946600,10.050946533203126,1.289250135421753,2.3292930126190186,0.4798978865146637
1757088391711992800,10.060992919921874,1.2597957849502563,2.1022541522979736,0.5426406264305115
1757088391722039800,10.071039794921875,1.1661667823791504,1.9312301874160767,0.5962444543838501
1757088391732085800,10.081085693359375,1.000981330871582,1.8045339584350586,0.6716151237487793
1757088391742132700,10.0911328125,0.8594537377357483,1.6456892490386963,0.7711731195449829
1757088391752178700,10.1011787109375,0.7886162996292114,1.4233804941177368,0.8772814869880676
1757088391762225700,10.1112255859375,0.7650595903396606,1.0771572589874268,0.9697973132133484
1757088391772271600,10.121271728515625,0.7750640511512756,0.7618760466575623,1.0025293827056885
1757088391782317600,10.131317626953125,0.805893063545227,0.4882706105709076,1.0349576473236084
1757088391792364500,10.141364501953126,0.8096060156822205,0.30071109533309937,1.0872925519943237
1757088391802410500,10.151410400390626,0.7884333729743958,0.12361328303813934,1.2058758735656738
1757088391812457500,10.16145751953125,0.7464331984519958,-0.04458770900964737,1.3031944036483765
1757088391822503700,10.171503662109375,0.6640682816505432,-0.23241139948368073,1.412078857421875
1757088391832549600,10.181549560546875,0.5781466960906982,-0.3774242401123047,1.4771652221679688
1757088391842596900,10.191596923828126,0.4725044369697571,-0.4269329607486725,1.524606466293335
1757088391852642800,10.201642822265624,0.3228971064090729,-0.31838542222976685,1.5357725620269775
1757088391862689800,10.211689697265625,0.17256218194961548,-0.09256908297538757,1.4378931522369385
1757088391872735700,10.22173583984375,0.05059633031487465,0.2673552632331848,1.1873562335968018
1757088391882781700,10.23178173828125,-0.16012787818908691,0.6682124137878418,0.870681643486023
1757088391892828700,10.24182861328125,-0.35354769229888916,0.9373011589050293,0.6400020718574524
1757088391902874600,10.25187451171875,-0.42684054374694824,1.0323344469070435,0.5545918345451355
1757088391912921600,10.261921630859375,-0.4820619821548462,1.0418627262115479,0.5907370448112488
1757088391922967600,10.271967529296875,-0.3903602957725525,0.9397557973861694,0.7101840972900391
1757088391933013800,10.282013671875,-0.27708300948143005,0.8736342787742615,0.7931005358695984
1757088391943060700,10.292060791015626,-0.20957985520362854,0.9050182700157166,0.8446204662322998
1757088391953106700,10.302106689453124,-0.11405972391366959,0.9291430711746216,0.8819790482521057
1757088391963153700,10.312153564453125,0.019235214218497276,0.9243912100791931,0.8343944549560547
1757088391973199600,10.32219970703125,0.11466825753450394,0.9035788774490356,0.7186571955680847
1757088391983245600,10.33224560546875,0.1885209083557129,0.8027888536453247,0.5727024078369141
1757088391993292500,10.34229248046875,0.2847350537776947,0.6067719459533691,0.48123854398727417
1757088392003338500,10.35233837890625,0.35053113102912903,0.4420469105243683,0.4571520984172821
1757088392013385700,10.3623857421875,0.3554273545742035,0.41535085439682007,0.4814864695072174
1757088392023431700,10.372431640625,0.36415424942970276,0.49279531836509705,0.4982454776763916
1757088392033478700,10.382478759765625,0.3528105318546295,0.6305087208747864,0.4819333553314209
1757088392043524900,10.39252490234375,0.3486461341381073,0.7572461366653442,0.46008530259132385
1757088392053570800,10.40257080078125,0.36257418990135193,0.8375641703605652,0.45886293053627014
1757088392063617800,10.41261767578125,0.3968147337436676,0.8986077904701233,0.42475607991218567
1757088392073663700,10.422663818359375,0.43048906326293945,0.9614232778549194,0.32507288455963135
1757088392083710700,10.432710693359375,0.45767942070961,0.9588250517845154,0.20587140321731567
1757088392093756700,10.442756591796876,0.4610142111778259,0.8562073707580566,0.11019042134284973
1757088392103802600,10.452802734375,0.42700111865997314,0.7563915252685547,0.01666819304227829
1757088392113849600,10.462849609375,0.40044140815734863,0.6409107446670532,-0.06726372241973877
1757088392123895600,10.4728955078125,0.39667490124702454,0.5504136085510254,-0.19281339645385742
1757088392133942500,10.482942626953125,0.3752468526363373,0.5690179467201233,-0.36500459909439087
1757088392143988700,10.49298876953125,0.2629821002483368,0.5349686145782471,-0.5117908716201782
1757088392154034700,10.50303466796875,0.038532476872205734,0.2917865812778473,-0.518541157245636
1757088392164081700,10.51308154296875,-0.22608746588230133,-0.08287357538938522,-0.31917479634284973
1757088392174127600,10.523127685546875,-0.4194345474243164,-0.334664523601532,-0.045221541076898575
1757088392184174800,10.5331748046875,-0.36224663257598877,-0.5274432897567749,0.055744487792253494
1757088392194220800,10.543220703125,-0.11190123111009598,-0.6711083054542542,-0.058090467005968094
1757088392204267800,10.553267822265624,0.09831991046667099,-0.6604642271995544,-0.321355402469635
1757088392214313700,10.563313720703125,0.16118782758712769,-0.6203679442405701,-0.6470839381217957
1757088392224359700,10.573359619140625,0.15923359990119934,-0.6672523617744446,-1.0029875040054321
1757088392234406700,10.58340673828125,0.16354551911354065,-0.7454430460929871,-1.3838104009628296
1757088392244452600,10.59345263671875,0.2078424096107483,-0.7971091270446777,-1.7731539011001587
1757088392254499600,10.60349951171875,0.2613445222377777,-0.9081442952156067,-2.133183002471924
1757088392264545800,10.6135458984375,0.20562931895256042,-1.007619023323059,-2.4187233448028564
1757088392274591700,10.623591796875,0.0249618086963892,-0.9762003421783447,-2.655827760696411
1757088392284638700,10.633638671875,-0.2144758105278015,-0.7888714671134949,-2.748659372329712
1757088392294684400,10.643684326171876,-0.49627581238746643,-0.4929202198982239,-2.6056902408599854
1757088392304731400,10.6537314453125,-0.9597070813179016,-0.12424605339765549,-2.345874071121216
1757088392314777300,10.66377734375,-1.524837613105774,0.46972835063934326,-2.1622464656829834
1757088392324824600,10.673824462890625,-2.0702900886535645,1.0772284269332886,-2.129089832305908
1757088392334870500,10.68387060546875,-2.3872201442718506,1.5984010696411133,-2.1627957820892334
1757088392344916500,10.69391650390625,-2.4947309494018555,1.7765731811523438,-2.135862350463867
1757088392354963500,10.70396337890625,-2.43135404586792,1.2508620023727417,-1.9553897380828857
1757088392365009700,10.714009765625,-2.3594143390655518,0.20039701461791992,-1.5976349115371704
1757088392375056400,10.724056396484375,-2.384887456893921,-0.693906307220459,-1.1848704814910889
1757088392385102600,10.7341025390625,-2.436398506164551,-1.6162636280059814,-0.7894240617752075
1757088392395148500,10.7441484375,-2.3809022903442383,-2.71120285987854,-0.5621879696846008
1757088392405195500,10.754195556640624,-2.1938140392303467,-3.749098300933838,-0.5095817446708679
1757088392415241500,10.764241455078125,-2.008544921875,-4.136430263519287,-0.3926497995853424
1757088392425288400,10.774288330078125,-1.9485039710998535,-3.959726095199585,-0.2329200655221939
1757088392435334400,10.78433447265625,-1.987253189086914,-3.3771908283233643,-0.2497355341911316
1757088392445380400,10.79438037109375,-2.005415678024292,-3.0850443840026855,-0.41182032227516174
1757088392455427300,10.80442724609375,-1.9368544816970825,-2.930112600326538,-0.5776841044425964
1757088392465473500,10.8144736328125,-1.8224620819091797,-2.9133288860321045,-0.6919294595718384
1757088392475520300,10.824520263671875,-1.6666094064712524,-2.87351393699646,-0.7628068327903748
1757088392485566500,10.83456640625,-1.5138778686523438,-2.800708532333374,-0.7602379322052002
1757088392495613700,10.84461376953125,-1.3893545866012573,-2.7667717933654785,-0.6844952702522278
1757088392505659600,10.85465966796875,-1.288413405418396,-2.7012903690338135,-0.6158733367919922
1757088392515705300,10.864705322265625,-1.2201690673828125,-2.6957216262817383,-0.5360661149024963
1757088392525752600,10.874752685546875,-1.0878618955612183,-2.8121538162231445,-0.4212135374546051
1757088392535798500,10.884798583984375,-0.911471962928772,-2.9417710304260254,-0.34350356459617615
1757088392545845500,10.894845458984374,-0.765183687210083,-3.0672218799591064,-0.26549744606018066
1757088392555891500,10.904891357421874,-0.6525580883026123,-2.9984652996063232,-0.2332790642976761
1757088392565937400,10.9149375,-0.5325278043746948,-2.7186505794525146,-0.20331236720085144
1757088392575984400,10.924984375,-0.3945867419242859,-2.430453062057495,-0.13371890783309937
1757088392586030600,10.935030517578125,-0.2741103768348694,-2.18030047416687,-0.060858555138111115
1757088392596077600,10.94507763671875,-0.17625519633293152,-1.853078842163086,-0.02605077438056469
1757088392606123500,10.95512353515625,-0.11625363677740097,-1.4876657724380493,-0.0026871294248849154
1757088392616169500,10.96516943359375,-0.07506412267684937,-1.112987756729126,0.01386681292206049
1757088392626216400,10.975216552734375,-0.03596918657422066,-0.7928552627563477,0.041847847402095795
1757088392636262400,10.985262451171875,0.009577792137861252,-0.39463600516319275,0.06962062418460846
1757088392646309400,10.995309326171874,0.03805151209235191,0.10000116378068924,0.12843893468379974
1757088392656355300,11.005355224609374,0.0680038183927536,0.5784662961959839,0.19391673803329468
1757088392666402600,11.015402587890625,0.11391697824001312,0.9281017780303955,0.23236186802387238
1757088392676448500,11.025448486328125,0.17392492294311523,1.3007125854492188,0.23212271928787231
1757088392686494500,11.035494384765625,0.22068923711776733,1.7028651237487793,0.25449514389038086
1757088392696541400,11.04554150390625,0.2649717330932617,2.081228733062744,0.3268795907497406
1757088392706587600,11.055587646484375,0.3501955568790436,2.4171364307403564,0.420697420835495
1757088392716634600,11.065634521484375,0.48570147156715393,2.666217565536499,0.45644158124923706
1757088392726680600,11.0756806640625,0.6219905614852905,2.7815492153167725,0.3972887694835663
1757088392736726500,11.0857265625,0.7342153787612915,2.670437812805176,0.3485763669013977
1757088392746773500,11.0957734375,0.7893446683883667,2.435346841812134,0.4654049873352051
1757088392756819500,11.1058193359375,0.9075248837471008,2.1340227127075195,0.6726473569869995
1757088392766866400,11.115866455078125,1.0532722473144531,1.9145272970199585,0.5792532563209534
1757088392776912400,11.125912353515625,1.2092671394348145,1.8347944021224976,0.5732824206352234
1757088392786958300,11.135958251953125,1.233436942100525,1.71229088306427,0.7189954519271851
1757088392797005300,11.14600537109375,0.9497977495193481,1.4041740894317627,0.8896808624267578
1757088392807051500,11.156051513671875,0.5735911130905151,0.9002456665039062,1.0871795415878296
1757088392817098500,11.166098388671875,0.4090530276298523,0.5509936213493347,1.3171947002410889
1757088392827144400,11.17614453125,0.4524284601211548,0.43166032433509827,1.4044640064239502
1757088392837191700,11.186191650390626,0.5768982172012329,0.5533926486968994,1.3644508123397827
1757088392847237400,11.1962373046875,0.6808560490608215,0.89832603931427,1.2240711450576782
1757088392857283300,11.206283447265625,0.7396194934844971,1.2021067142486572,0.9960699081420898
1757088392867330600,11.21633056640625,0.7989826798439026,1.4648350477218628,0.8269357681274414
1757088392877376500,11.22637646484375,0.9290013909339905,1.6663827896118164,0.6783475875854492
1757088392887423500,11.236423583984376,1.1414257287979126,1.8438078165054321,0.44907793402671814
1757088392897469400,11.246469482421874,1.3772945404052734,2.0739614963531494,0.19715674221515656
1757088392907515600,11.256515625,1.5847989320755005,2.3590993881225586,0.09959663450717926
1757088392917562400,11.266562255859375,1.7002360820770264,2.5663485527038574,0.20032696425914764
1757088392927608600,11.276608642578125,1.7239421606063843,2.5626959800720215,0.36506184935569763
1757088392937655600,11.286655517578126,1.6215136051177979,2.416957378387451,0.4440208673477173
1757088392947701500,11.296701416015624,1.3711050748825073,2.2355892658233643,0.5293418765068054
1757088392957747500,11.30674755859375,1.1497068405151367,1.9304447174072266,0.6030893325805664
1757088392967794400,11.31679443359375,1.0725287199020386,1.5700658559799194,0.6868335008621216
1757088392977840400,11.32684033203125,1.0689678192138672,1.3551175594329834,0.7628195881843567
1757088392987887400,11.336887451171876,1.0781325101852417,1.3142601251602173,0.8630772233009338
1757088392997933300,11.346933349609374,1.04080331325531,1.283406138420105,0.9679916501045227
1757088393007980300,11.356980224609375,0.9765241742134094,1.165747046470642,1.0186649560928345
1757088393018026200,11.367026123046875,0.9395898580551147,0.9566399455070496,1.0270421504974365
1757088393028072400,11.377072509765625,0.9276224374771118,0.7020609378814697,1.0422765016555786
1757088393038119700,11.38711962890625,0.9149454832077026,0.36254435777664185,1.1034544706344604
1757088393048165600,11.39716552734375,0.8944023847579956,-0.00024048343766480684,1.1423922777175903
1757088393058212600,11.407212646484375,0.8360344171524048,-0.2164098024368286,1.1849700212478638
1757088393068258600,11.417258544921875,0.7201717495918274,-0.3373812139034271,1.2394074201583862
1757088393078305500,11.427305419921876,0.581301212310791,-0.555895209312439,1.398939609527588
1757088393088351500,11.4373515625,0.4444837272167206,-0.907444953918457,1.5909066200256348
1757088393098397400,11.4473974609375,0.31079569458961487,-1.2298413515090942,1.7170236110687256
1757088393108444400,11.4574443359375,0.19341473281383514,-1.4009116888046265,1.7929481267929077
1757088393118490400,11.467490478515625,0.10234261304140091,-1.334167242050171,1.711182713508606
1757088393128537300,11.477537353515626,-0.02316204458475113,-0.8123541474342346,1.404773473739624
1757088393138583300,11.487583251953126,-0.224822998046875,-0.0051902346312999725,0.9592288136482239
1757088393148629500,11.49762939453125,-0.47915327548980713,0.7482678294181824,0.5319831967353821
1757088393158676500,11.507676513671875,-0.590791642665863,1.090133786201477,0.35726943612098694
1757088393168722400,11.517722412109375,-0.5318257808685303,1.2019394636154175,0.3555346727371216
1757088393178769400,11.527769287109376,-0.4443660080432892,1.170240879058838,0.4949868321418762
1757088393188815400,11.5378154296875,-0.37069496512413025,1.143188238143921,0.6677817702293396
1757088393198862600,11.547862548828125,-0.2784992754459381,1.0089001655578613,0.7920006513595581
1757088393208908500,11.557908447265625,-0.12024172395467758,0.7044447064399719,0.7877271175384521
1757088393218954500,11.56795458984375,0.06985471397638321,0.4562317132949829,0.7185400128364563
1757088393229001500,11.57800146484375,0.23819179832935333,0.28810423612594604,0.6284205317497253
1757088393239047400,11.58804736328125,0.35715892910957336,0.22550901770591736,0.5451211333274841
1757088393249094400,11.598094482421875,0.4264586269855499,0.18242280185222626,0.4760879874229431
1757088393259140600,11.608140625,0.44174039363861084,0.24511601030826569,0.41100403666496277
1757088393269186600,11.6181865234375,0.4244500696659088,0.38829660415649414,0.39140450954437256
1757088393279233500,11.628233642578126,0.3908199667930603,0.49589258432388306,0.4326624870300293
1757088393289279500,11.638279541015624,0.3427930474281311,0.531166136264801,0.5122329592704773
1757088393299327000,11.648326904296875,0.2984117269515991,0.5027560591697693,0.6015092730522156
1757088393309373000,11.658373046875,0.30371302366256714,0.4130874276161194,0.6524097323417664
1757088393319420000,11.668419921875,0.35704681277275085,0.2995752692222595,0.6116551160812378
1757088393329465900,11.6784658203125,0.39373958110809326,0.23458294570446014,0.5010279417037964
1757088393339511800,11.68851171875,0.3859924376010895,0.20485568046569824,0.3795907199382782
1757088393349558800,11.698558837890625,0.3675103783607483,0.140844464302063,0.257589727640152
1757088393359604700,11.708604736328125,0.36201414465904236,0.15484043955802917,0.14060504734516144
1757088393369652000,11.71865185546875,0.3605384826660156,0.30820682644844055,0.03009318746626377
1757088393379698000,11.728697998046876,0.356515496969223,0.506578803062439,-0.07452882826328278
1757088393389745000,11.738744873046874,0.3467015027999878,0.6963928937911987,-0.19484005868434906
1757088393399791000,11.748791015625,0.3046658933162689,0.8564590215682983,-0.3522661626338959
1757088393409837000,11.758837158203125,0.2415335327386856,0.9415488839149475,-0.5203542709350586
1757088393419884000,11.768884033203125,0.15006113052368164,0.8583892583847046,-0.619255542755127
1757088393429930000,11.778929931640626,0.03893621265888214,0.55724036693573,-0.5983020663261414
1757088393439977000,11.78897705078125,-0.08291112631559372,0.08778204768896103,-0.4609881341457367
1757088393450023000,11.79902294921875,-0.2155381441116333,-0.3752947747707367,-0.269359290599823
1757088393460070000,11.80906982421875,-0.2714195251464844,-0.7022294998168945,-0.1760607808828354
1757088393470115800,11.81911572265625,-0.18209576606750488,-0.8716944456100464,-0.2763833999633789
1757088393480161800,11.829161865234376,-0.041362885385751724,-0.8943110704421997,-0.4989762604236603
1757088393490208800,11.839208740234374,0.056297093629837036,-0.7702506184577942,-0.8021068572998047
1757088393500255000,11.8492548828125,0.0842277929186821,-0.574211597442627,-1.1745573282241821
1757088393510302000,11.859302001953125,0.054962050169706345,-0.38260623812675476,-1.5385792255401611
1757088393520348000,11.869347900390625,0.021744176745414734,-0.2353174388408661,-1.8946175575256348
1757088393530393900,11.879393798828126,0.0013068130938336253,-0.19821162521839142,-2.269242763519287
1757088393540441000,11.889441162109375,-0.03756655007600784,-0.10407313704490662,-2.6332473754882812
1757088393550487000,11.899487060546875,-0.13661803305149078,0.15398184955120087,-2.8539600372314453
1757088393560534000,11.909533935546875,-0.37012773752212524,0.5248494148254395,-2.883028984069824
1757088393570580000,11.919580078125,-0.6429885625839233,0.7240381240844727,-2.6480607986450195
1757088393580627000,11.929626953125,-1.0114198923110962,0.7372114658355713,-2.216322898864746
1757088393590673000,11.9396728515625,-1.6299211978912354,1.1376824378967285,-1.926302433013916
1757088393600718800,11.94971875,-2.3534719944000244,1.707419991493225,-1.8659398555755615
1757088393610765800,11.959765869140625,-2.971693277359009,1.928313970565796,-1.9778556823730469
1757088393620812000,11.96981201171875,-2.9969708919525146,1.4837210178375244,-2.127340078353882
1757088393630859000,11.97985888671875,-2.6968367099761963,0.2473386824131012,-2.0546061992645264
1757088393640905000,11.989905029296875,-2.6478583812713623,-0.9018552899360657,-1.7375818490982056
1757088393650952000,11.999951904296875,-2.7124574184417725,-1.5151207447052002,-1.3541231155395508
1757088393660998000,12.009997802734375,-2.7510597705841064,-2.1359894275665283,-1.1564483642578125
1757088393671043800,12.0200439453125,-2.649332046508789,-2.749009609222412,-1.1753246784210205
1757088393681090800,12.0300908203125,-2.4172556400299072,-3.3193418979644775,-1.124721884727478
1757088393691136800,12.04013671875,-2.134220838546753,-3.7087950706481934,-0.7551787495613098
1757088393701184000,12.05018408203125,-1.9485257863998413,-3.786579132080078,-0.303875207901001
1757088393711230000,12.06022998046875,-1.930536150932312,-3.6520333290100098,-0.10492774844169617
1757088393721276000,12.07027587890625,-2.0326783657073975,-3.253654956817627,-0.29221588373184204
1757088393731323000,12.080322998046874,-2.1243302822113037,-3.118469715118408,-0.7061083912849426
1757088393741369000,12.090369140625,-2.0895304679870605,-3.114534854888916,-1.0157911777496338
1757088393751416000,12.100416015625,-1.931209921836853,-2.9645442962646484,-1.0429739952087402
1757088393761462000,12.1104619140625,-1.7186124324798584,-2.7510604858398438,-0.8533564209938049
1757088393771509000,12.120509033203126,-1.5256760120391846,-2.623312473297119,-0.6411927938461304
1757088393781555000,12.130554931640624,-1.3669060468673706,-2.5626087188720703,-0.5142492055892944
1757088393791601000,12.140600830078125,-1.2175053358078003,-2.576856851577759,-0.49991288781166077
1757088393801647900,12.15064794921875,-1.0972050428390503,-2.6196866035461426,-0.4936848282814026
1757088393811693800,12.16069384765625,-1.0393608808517456,-2.7081940174102783,-0.4266898036003113
1757088393821740800,12.17074072265625,-0.9149806499481201,-2.584961414337158,-0.35500815510749817
1757088393831786800,12.180786865234374,-0.7702679634094238,-2.5983774662017822,-0.24272608757019043
1757088393841833700,12.190833740234375,-0.6241583824157715,-2.6747941970825195,-0.10030210018157959
1757088393851880000,12.2008798828125,-0.4307825565338135,-2.595257043838501,0.02383475936949253
1757088393861926000,12.21092578125,-0.2295040339231491,-2.3943822383880615,0.06462586671113968
1757088393871973000,12.22097314453125,-0.028022579848766327,-2.159609317779541,0.08735700696706772
1757088393882019000,12.23101904296875,0.12472488731145859,-1.8043774366378784,0.08598574995994568
1757088393892066000,12.241066162109375,0.2536360025405884,-1.2526947259902954,0.07998377829790115
1757088393902112000,12.251112060546875,0.31942620873451233,-0.6183782815933228,0.08087407797574997
1757088393912159000,12.261158935546876,0.28112301230430603,-0.03206845372915268,0.07267739623785019
1757088393922205000,12.271204833984376,0.17332758009433746,0.45582425594329834,0.10150798410177231
1757088393932251000,12.2812509765625,0.056070726364851,0.8147949576377869,0.1677333414554596
1757088393942297900,12.2912978515625,-0.030472954735159874,1.0428550243377686,0.26085370779037476
1757088393952344000,12.301343994140625,-0.05787821486592293,1.1353175640106201,0.397237628698349
1757088393962390800,12.311390869140626,-0.02443663403391838,1.2504619359970093,0.4869201183319092
1757088393972437000,12.32143701171875,0.06505383551120758,1.4063682556152344,0.5356966853141785
1757088393982484000,12.33148388671875,0.20044921338558197,1.5425630807876587,0.5472750663757324
1757088393992530000,12.341530029296875,0.36805418133735657,1.5666836500167847,0.5276814103126526
1757088394002576000,12.351575927734375,0.6154487729072571,1.382041573524475,0.4419797956943512
