time,seconds_elapsed,z,y,x
1757088367726812200,0.098812255859375,-0.5373600125312805,0.4547249972820282,10.002326965332031
1757088367736364800,0.10836474609375,-0.5755119919776917,0.3857420086860657,9.607329368591309
1757088367745917700,0.117917724609375,-0.564719021320343,0.1248370036482811,9.059715270996094
1757088367755470600,0.127470703125,-0.5734109878540039,-0.15437200665473938,8.456342697143555
1757088367765023700,0.137023681640625,-0.7759829759597778,-0.5726410150527954,7.882452964782715
1757088367774576600,0.14657666015625,-1.6850919723510742,-1.078611969947815,6.9080610275268555
1757088367784129500,0.156129638671875,-2.295670986175537,-1.7111170291900635,6.139339923858643
1757088367793682400,0.165682373046875,-1.7545230388641357,-1.968682050704956,6.1508002281188965
1757088367803235300,0.1752353515625,-1.5608969926834106,-1.954321026802063,5.884143829345703
1757088367812788200,0.184788330078125,-1.9476449489593506,-2.46058988571167,5.802114963531494
1757088367822341000,0.194341064453125,-2.227742910385132,-2.9222218990325928,6.165081977844238
1757088367831894300,0.203894287109375,-2.1331748962402344,-3.213038921356201,7.224719047546387
1757088367841447200,0.213447265625,-2.0553030967712402,-3.157883882522583,7.7233099937438965
1757088367851000300,0.223000244140625,-2.462238073348999,-3.223931074142456,7.976806163787842
1757088367860553200,0.23255322265625,-3.5080199241638184,-3.312546968460083,8.059001922607422
1757088367870106000,0.242106201171875,-4.348254203796387,-3.3985860347747803,8.445023536682129
1757088367879659000,0.251658935546875,-5.0375800132751465,-3.4860999584198,8.851987838745117
1757088367889212000,0.2612119140625,-5.983369827270508,-3.6364099979400635,8.833707809448242
1757088367898764800,0.270764892578125,-6.988046169281006,-3.5545670986175537,8.02400016784668
1757088367908317700,0.280317626953125,-7.804186820983887,-3.3309059143066406,6.259475231170654
1757088367917870800,0.289870849609375,-7.932441234588623,-2.729779005050659,4.59299898147583
1757088367927423700,0.299423828125,-7.38785982131958,-2.245171070098877,4.722686767578125
1757088367946529500,0.318529541015625,-7.8767290115356445,-2.214376926422119,5.783994197845459
1757088367956082400,0.32808251953125,-9.210967063903809,-2.3089020252227783,6.337903022766113
1757088367965635600,0.337635498046875,-10.64857292175293,-2.4165871143341064,7.383265972137451
1757088367975188500,0.3471884765625,-11.939053535461426,-2.4257330894470215,8.018991470336914
1757088367984741600,0.35674169921875,-12.744492530822754,-2.371696949005127,8.09270191192627
1757088367994294500,0.36629443359375,-12.800298690795898,-2.3178958892822266,8.005175590515137
1757088368003847400,0.375847412109375,-12.325446128845215,-2.050663948059082,7.365678787231445
1757088368013400300,0.385400390625,-11.397550582885742,-1.8258570432662964,6.566166877746582
1757088368022953200,0.394953125,-10.507660865783691,-1.6573439836502075,6.048605918884277
1757088368032506400,0.40450634765625,-10.538246154785156,-1.3476699590682983,5.750961780548096
1757088368042059300,0.414059326171875,-11.33441162109375,-0.7325040102005005,5.159110069274902
1757088368051612200,0.423612060546875,-12.385024070739746,-0.41469499468803406,4.552717208862305
1757088368061165300,0.433165283203125,-13.22110366821289,-0.3133299946784973,4.144796848297119
1757088368070718200,0.44271826171875,-12.659289360046387,0.41721001267433167,3.1019439697265625
1757088368080271000,0.45227099609375,-11.500732421875,1.1710070371627808,2.435170888900757
1757088368089824000,0.461823974609375,-10.766912460327148,0.8294140100479126,2.294240951538086
1757088368099377000,0.471376953125,-10.081375122070312,0.6101549863815308,1.430109977722168
1757088368108930000,0.480929931640625,-9.554884910583496,-0.04318999871611595,0.8781390190124512
1757088368118483000,0.49048291015625,-8.922487258911133,-0.7861130237579346,0.3696939945220947
1757088368128035800,0.500035888671875,-9.546625137329102,-1.7069690227508545,0.10902199894189835
1757088368137588700,0.509588623046875,-15.565576553344727,-2.828758955001831,-0.9155330061912537
1757088368147142000,0.519141845703125,-16.597763061523438,-2.6465818881988525,-1.2893710136413574
1757088368156694800,0.52869482421875,-10.100428581237793,-1.6377760171890259,-0.15489600598812103
1757088368166247700,0.53824755859375,-3.904805898666382,-2.352569103240967,0.8933119773864746
1757088368175800600,0.547800537109375,-2.527376890182495,-4.253946781158447,0.37017399072647095
1757088368185353500,0.557353515625,-4.438467025756836,-6.189286231994629,-2.762136936187744
1757088368194906600,0.56690673828125,-9.098645210266113,-7.620131969451904,-5.60188102722168
1757088368204459500,0.57645947265625,-7.3940229415893555,-2.4479799270629883,-6.36707878112793
1757088368214012700,0.5860126953125,-7.490461826324463,-4.756123065948486,-3.6852030754089355
1757088368223565600,0.595565673828125,-3.844986915588379,-5.907546043395996,-0.9590200185775757
1757088368233118500,0.605118408203125,-5.549156188964844,-1.7218849658966064,-3.9123148918151855
1757088368242671400,0.61467138671875,-9.483231544494629,-2.1776440143585205,-2.9273500442504883
1757088368252224300,0.624224365234375,-5.370895862579346,-4.370207786560059,-1.1424039602279663
1757088368261777400,0.63377734375,-4.214453220367432,-3.931191921234131,-0.2272309958934784
1757088368271330300,0.643330322265625,-5.401457786560059,-4.020377159118652,0.14984600245952606
1757088368280883200,0.65288330078125,-5.401269912719727,-4.5015411376953125,1.1477429866790771
1757088368290436000,0.66243603515625,-5.7290191650390625,-4.473739147186279,1.8713239431381226
1757088368299989200,0.6719892578125,-4.238645076751709,-2.4755730628967285,1.8625160455703735
1757088368309542100,0.681542236328125,-2.6168110370635986,-2.217345952987671,1.310459017753601
1757088368319095000,0.691094970703125,-3.6170530319213867,-2.8823440074920654,0.09007599949836731
1757088368328648000,0.70064794921875,-5.014012813568115,-3.672555923461914,-1.6376219987869263
1757088368338200800,0.710200927734375,-4.684438228607178,-2.8905980587005615,-2.050060987472534
1757088368347754000,0.71975390625,-3.8947649002075195,-1.4730650186538696,-2.2520480155944824
1757088368357307100,0.72930712890625,-3.84942889213562,-0.7462790012359619,-2.3313329219818115
1757088368366860000,0.738860107421875,-5.241996765136719,-0.6780080199241638,-2.1079230308532715
1757088368376413000,0.748412841796875,-5.78511381149292,-0.6935989856719971,-1.9015100002288818
1757088368385965800,0.7579658203125,-6.345500946044922,-0.2243960052728653,-2.72999906539917
1757088368395518700,0.767518798828125,-6.259906768798828,0.2223220020532608,-3.613600015640259
1757088368405071600,0.777071533203125,-6.212265968322754,0.9435219764709473,-4.887791156768799
1757088368414624800,0.786624755859375,-5.6039299964904785,1.4232230186462402,-5.514091968536377
1757088368424177700,0.796177734375,-4.9280171394348145,1.2556270360946655,-4.673779010772705
1757088368433730600,0.80573046875,-4.732464790344238,2.5219149589538574,-1.7444419860839844
1757088368443283700,0.81528369140625,-4.80833101272583,3.466754913330078,0.20846199989318848
1757088368452836600,0.824836669921875,-6.312406063079834,3.7293601036071777,1.1311019659042358
1757088368462389500,0.834389404296875,-6.853260040283203,4.074010848999023,1.087581992149353
1757088368471942400,0.8439423828125,-4.407566070556641,4.184027194976807,-0.5214599967002869
1757088368481495600,0.85349560546875,-1.8518279790878296,4.212411880493164,-1.7820149660110474
1757088368491048400,0.86304833984375,0.5054190158843994,4.252608776092529,-2.409914970397949
1757088368500601300,0.872601318359375,-0.9597520232200623,4.468507766723633,-2.863508939743042
1757088368510154200,0.882154296875,-2.5638060569763184,4.454430103302002,-4.134185791015625
1757088368519707100,0.89170703125,-3.5719149112701416,5.198939800262451,-3.351548910140991
1757088368529260300,0.90126025390625,-3.3612749576568604,4.34830379486084,-4.727948188781738
1757088368538813200,0.910813232421875,-4.609415054321289,3.970810890197754,-4.7457990646362305
1757088368548366000,0.920365966796875,-5.515194892883301,2.8726959228515625,-4.3181891441345215
1757088368567472000,0.93947216796875,-0.9681839942932129,-14.69433879852295,-0.8870559930801392
1757088368577025000,0.94902490234375,-4.904566764831543,-36.70193862915039,-7.704522132873535
1757088368586578000,0.958577880859375,-2.7004120349884033,-35.13801193237305,-8.633087158203125
1757088368596131000,0.968131103515625,-2.684377908706665,-30.6159610748291,-3.9216880798339844
1757088368605684000,0.97768408203125,-5.640305995941162,-24.978416442871094,-0.33219799399375916
1757088368615236900,0.98723681640625,-8.912757873535156,-16.001888275146484,3.8265600204467773
1757088368624789800,0.996789794921875,-12.801030158996582,-8.044747352600098,9.30340576171875
1757088368634343000,1.006343017578125,-9.603338241577148,-1.631579041481018,10.626462936401367
1757088368643895800,1.015895751953125,-4.037725925445557,2.603070020675659,3.5159270763397217
1757088368653449000,1.025448974609375,-1.6398990154266357,3.2034060955047607,-2.9702770709991455
1757088368663001600,1.035001708984375,-1.7253799438476562,3.319322109222412,-6.043625831604004
1757088368672554800,1.0445546875,-2.0173699855804443,3.8610150814056396,-7.643040180206299
1757088368682107600,1.054107666015625,-2.972043991088867,4.513889789581299,-7.620072841644287
1757088368691660500,1.06366064453125,-4.531012058258057,4.625370979309082,-6.53694486618042
1757088368701213700,1.073213623046875,-5.292173862457275,3.0283288955688477,-6.431229114532471
1757088368710766600,1.0827666015625,-5.021813869476318,1.1081839799880981,-5.698852062225342
1757088368720319500,1.092319580078125,-4.519989013671875,-0.5167160034179688,-4.755206108093262
1757088368729872400,1.101872314453125,-4.290925025939941,-1.8811500072479248,-4.15208101272583
1757088368739425500,1.111425537109375,-4.198246955871582,-2.644031047821045,-3.494770050048828
1757088368748978400,1.120978515625,-4.208816051483154,-2.5074360370635986,-2.615248918533325
1757088368758531300,1.13053125,-4.120152950286865,-1.7986259460449219,-1.5840439796447754
1757088368768084200,1.140084228515625,-3.5891730785369873,-1.1925380229949951,-0.8006889820098877
1757088368777637400,1.149637451171875,-3.010016918182373,-0.7977060079574585,-0.40898099541664124
1757088368787190500,1.1591904296875,-2.401603937149048,-0.5271120071411133,-0.3529979884624481
1757088368796743400,1.168743408203125,-2.222693920135498,-0.3102329969406128,-0.4275889992713928
1757088368806296000,1.178296142578125,-2.5123610496520996,-0.1950010061264038,-0.6919170022010803
1757088368815849200,1.18784912109375,-2.695211887359619,-0.22076700627803802,-0.8960970044136047
1757088368825402000,1.197402099609375,-2.613403081893921,-0.30109500885009766,-1.0858169794082642
1757088368834955000,1.206955078125,-2.4769198894500732,-0.3455260097980499,-1.1673660278320312
1757088368844508000,1.2165078125,-2.3264639377593994,-0.34727299213409424,-1.2773469686508179
1757088368854061000,1.22606103515625,-2.2242369651794434,-0.3006129860877991,-1.3676799535751343
1757088368863614000,1.235614013671875,-2.237036943435669,-0.27306699752807617,-1.4338229894638062
1757088368873166800,1.245166748046875,-2.2777299880981445,-0.22806499898433685,-1.4734810590744019
1757088368882719700,1.2547197265625,-2.2553179264068604,-0.21161599457263947,-1.4805389642715454
1757088368892273000,1.26427294921875,-2.1662180423736572,-0.1737709939479828,-1.4175820350646973
1757088368901825800,1.27382568359375,-2.018847942352295,-0.14810499548912048,-1.2998000383377075
1757088368911378700,1.283378662109375,-1.8506779670715332,-0.13455399870872498,-1.1819839477539062
1757088368920931600,1.292931640625,-1.6678659915924072,-0.10676000267267227,-1.0845839977264404
1757088368930484700,1.302484619140625,-1.5038189888000488,-0.09330599755048752,-1.0228179693222046
1757088368949590500,1.321590576171875,-1.4426319599151611,-0.06768900156021118,-0.9606419801712036
1757088368959143700,1.331143798828125,-1.3704990148544312,-0.0765490010380745,-0.8809750080108643
1757088368968696300,1.3406962890625,-1.2440099716186523,-0.08358699828386307,-0.7691190242767334
1757088368978249500,1.35024951171875,-1.084725022315979,-0.11980800330638885,-0.6593279838562012
1757088368987802600,1.359802734375,-0.8994730114936829,-0.13944099843502045,-0.5264520049095154
1757088368997355500,1.36935546875,-0.709069013595581,-0.17345499992370605,-0.40659600496292114
1757088369006908700,1.37890869140625,-0.5623189806938171,-0.21949000656604767,-0.3358739912509918
1757088369016461300,1.38846142578125,-0.4750339984893799,-0.2489120066165924,-0.31620100140571594
1757088369026014200,1.39801416015625,-0.4597710072994232,-0.22627100348472595,-0.3643980026245117
1757088369035567400,1.4075673828125,-0.4915570020675659,-0.1833840012550354,-0.4848650097846985
1757088369045120300,1.417120361328125,-0.5152649879455566,-0.14427000284194946,-0.5961340069770813
1757088369054673200,1.426673095703125,-0.5422160029411316,-0.14217999577522278,-0.6782000064849854
1757088369064226300,1.436226318359375,-0.5380129814147949,-0.1165580004453659,-0.6636689901351929
1757088369073779200,1.445779296875,-0.49980300664901733,-0.08820900321006775,-0.5759990215301514
1757088369083332000,1.45533203125,-0.4475429952144623,-0.08345600217580795,-0.4942440092563629
1757088369092885000,1.464885009765625,-0.39152398705482483,-0.08523599803447723,-0.3934679925441742
1757088369102438000,1.47443798828125,-0.40016400814056396,-0.095490001142025,-0.2865630090236664
1757088369111991000,1.483990966796875,-0.4285210072994232,-0.15029700100421906,-0.2128330022096634
1757088369121544000,1.4935439453125,-0.43000298738479614,-0.19913999736309052,-0.11857300251722336
1757088369131097000,1.50309716796875,-0.41494399309158325,-0.19910000264644623,-0.03177500143647194
1757088369140650000,1.51264990234375,-0.3800260126590729,-0.21047000586986542,0.018221000209450722
1757088369150203000,1.522202880859375,-0.33342599868774414,-0.20475199818611145,0.05392400175333023
1757088369159755800,1.531755859375,-0.28945401310920715,-0.19657999277114868,0.06468699872493744
1757088369169308700,1.54130859375,-0.26138201355934143,-0.21455100178718567,0.07652799785137177
1757088369178861600,1.550861572265625,-0.22786200046539307,-0.24671700596809387,0.0847110003232956
1757088369188414700,1.560414794921875,-0.1853870004415512,-0.2285189926624298,0.09188699722290039
1757088369197967600,1.569967529296875,-0.16898499429225922,-0.22997599840164185,0.04354200139641762
1757088369207520800,1.579520751953125,-0.20639200508594513,-0.21259699761867523,0.008810999803245068
1757088369217073700,1.58907373046875,-0.23565000295639038,-0.2052379995584488,-0.03567799925804138
1757088369226626800,1.598626708984375,-0.2616100013256073,-0.2053609937429428,-0.06434199959039688
1757088369236179500,1.608179443359375,-0.30224499106407166,-0.1961970031261444,-0.08663199841976166
1757088369245732400,1.617732421875,-0.32495999336242676,-0.20641499757766724,-0.10062599927186966
1757088369255285500,1.627285400390625,-0.339480996131897,-0.16136600077152252,-0.07484500110149384
1757088369264838400,1.63683837890625,-0.3415749967098236,-0.1143060028553009,-0.08806200325489044
1757088369274391300,1.646391357421875,-0.33442699909210205,-0.11303900182247162,-0.10247299820184708
1757088369283944200,1.655944091796875,-0.3315950036048889,-0.13084200024604797,-0.09104499965906143
1757088369293497300,1.665497314453125,-0.31458500027656555,-0.15342199802398682,-0.08942999690771103
1757088369303050200,1.67505029296875,-0.28670498728752136,-0.18761399388313293,-0.06099700182676315
1757088369312603400,1.684603271484375,-0.2600570023059845,-0.23805199563503265,-0.03275400027632713
1757088369322156300,1.69415625,-0.22312599420547485,-0.27157101035118103,-0.02940800040960312
1757088369331709200,1.703709228515625,-0.1788409948348999,-0.278982013463974,-0.0539730004966259
1757088369341262000,1.713261962890625,-0.14361299574375153,-0.2724519968032837,-0.08871500194072723
1757088369350815000,1.72281494140625,-0.11019100248813629,-0.21834300458431244,-0.10305900126695633
1757088369360367900,1.732367919921875,-0.06495700031518936,-0.17179299890995026,-0.11822900176048279
1757088369369921000,1.741921142578125,-0.03784399852156639,-0.14911100268363953,-0.10273999720811844
1757088369379474000,1.751473876953125,-0.01876799948513508,-0.13593000173568726,-0.09244900196790695
1757088369389026800,1.76102685546875,0.013110999949276447,-0.14443300664424896,-0.10558199882507324
1757088369398580000,1.770580078125,0.05649000033736229,-0.1791200041770935,-0.10280700027942657
1757088369408132900,1.7801328125,0.0812629982829094,-0.20202399790287018,-0.12325000017881393
1757088369417685800,1.789685791015625,0.0655129998922348,-0.20125900208950043,-0.14725400507450104
1757088369427239000,1.799239013671875,0.047665998339653015,-0.1959729939699173,-0.1629129946231842
1757088369436791800,1.808791748046875,0.03036300092935562,-0.205144003033638,-0.16858799755573273
1757088369446344700,1.8183447265625,0.009471000172197819,-0.18783999979496002,-0.148498997092247
1757088369455897600,1.827897705078125,0.007895000278949738,-0.16047100722789764,-0.10185199975967407
1757088369465450800,1.83745068359375,0.0087909996509552,-0.16371099650859833,-0.05990700051188469
1757088369475003400,1.84700341796875,0.02759299986064434,-0.14522700011730194,-0.042757999151945114
1757088369484556500,1.856556640625,0.040571000427007675,-0.1503240019083023,-0.012887000106275082
1757088369494109400,1.866109375,0.011920000426471233,-0.15992699563503265,0.003823000006377697
1757088369503662300,1.875662353515625,-0.0016189999878406525,-0.15035800635814667,0.0061610001139342785
1757088369513215500,1.885215576171875,-0.007792000193148851,-0.1740739941596985,0.01702900044620037
1757088369522768400,1.894768310546875,-0.006730000022798777,-0.22650699317455292,0.0039160000160336494
1757088369532321500,1.904321533203125,-0.003103999886661768,-0.2552259862422943,-0.02254899963736534
1757088369541874400,1.91387451171875,0.027571000158786774,-0.27191200852394104,-0.027860000729560852
1757088369551427300,1.92342724609375,0.03832300007343292,-0.24349400401115417,-0.05544300004839897
1757088369560980200,1.932980224609375,0.05925700068473816,-0.20335400104522705,-0.06532300263643265
1757088369570533400,1.942533447265625,0.0623989999294281,-0.1348849982023239,-0.08550000190734863
1757088369580086000,1.9520859375,0.05344900116324425,-0.13350500166416168,-0.0887179970741272
1757088369589639200,1.96163916015625,0.01380200032144785,-0.1583629995584488,-0.08979400247335434
1757088369599192000,1.971192138671875,-0.0005789999850094318,-0.18348699808120728,-0.11355999857187271
1757088369608745000,1.980744873046875,-0.0071310000494122505,-0.22263500094413757,-0.0932760015130043
1757088369618298000,1.990298095703125,-0.026283999904990196,-0.2328300029039383,-0.07862699776887894
1757088369627851000,1.99985107421875,-0.014430999755859375,-0.25000399351119995,-0.06724300235509872
1757088369637404000,2.00940380859375,0.006546999793499708,-0.23116299510002136,-0.056345000863075256
1757088369646957000,2.01895703125,0.026738999411463737,-0.1907840073108673,-0.05266699939966202
1757088369656510000,2.028510009765625,0.0682620033621788,-0.16279099881649017,-0.07851000130176544
1757088369666062800,2.038062744140625,0.10290099680423737,-0.14978599548339844,-0.12101099640130997
1757088369675615700,2.04761572265625,0.1310350000858307,-0.1564140021800995,-0.15685699880123138
1757088369685168600,2.057168701171875,0.12365099787712097,-0.18483999371528625,-0.1820400059223175
1757088369694721500,2.066721435546875,0.07863400131464005,-0.20112399756908417,-0.16944000124931335
1757088369704274700,2.076274658203125,0.04345100000500679,-0.22908000648021698,-0.15309500694274902
1757088369713827600,2.08582763671875,0.02894899994134903,-0.24698999524116516,-0.12186899781227112
1757088369723380700,2.095380615234375,0.061225999146699905,-0.2337699979543686,-0.11232700198888779
1757088369732933600,2.10493359375,0.08963800221681595,-0.20847199857234955,-0.09141899645328522
1757088369742486500,2.114486572265625,0.13738800585269928,-0.18809400498867035,-0.09650799632072449
1757088369752039400,2.124039306640625,0.18039700388908386,-0.17520000040531158,-0.11256500333547592
1757088369761592300,2.13359228515625,0.22312100231647491,-0.17958499491214752,-0.14830000698566437
1757088369771145500,2.1431455078125,0.22668300569057465,-0.19140300154685974,-0.16638599336147308
1757088369780698600,2.15269873046875,0.17758099734783173,-0.21545100212097168,-0.19038599729537964
1757088369790251300,2.162251220703125,0.12431100010871887,-0.24166400730609894,-0.17436100542545319
1757088369799804400,2.171804443359375,0.08100499957799911,-0.27918699383735657,-0.12730200588703156
1757088369809357300,2.181357421875,0.058524999767541885,-0.2608020007610321,-0.05478699877858162
1757088369818910200,2.19091015625,0.06266199797391891,-0.24132899940013885,0.03480499982833862
1757088369828463000,2.200463134765625,0.1253329962491989,-0.19979999959468842,0.08834300190210342
1757088369838016300,2.210016357421875,0.15229499340057373,-0.21054600179195404,0.11361099779605865
1757088369847569200,2.219569091796875,0.14113299548625946,-0.2422720044851303,0.13887999951839447
1757088369857122000,2.2291220703125,0.09412100166082382,-0.30256301164627075,0.12541399896144867
1757088369866675500,2.238675537109375,0.027344999834895134,-0.3461349904537201,0.0982469990849495
1757088369876228000,2.24822802734375,-0.006014000158756971,-0.34911200404167175,0.07896299660205841
1757088369885781000,2.257781005859375,-0.005179000087082386,-0.2998510003089905,0.04962199926376343
1757088369895334000,2.267333984375,0.0006339999963529408,-0.22216199338436127,0.040706001222133636
1757088369904887000,2.276886962890625,0.03614199906587601,-0.14065499603748322,-0.009752999991178513
1757088369914440000,2.28643994140625,0.05640599876642227,-0.10292799770832062,-0.04306900128722191
1757088369923992800,2.295992919921875,0.09128300100564957,-0.14226099848747253,-0.0747700035572052
1757088369933545700,2.305545654296875,0.10822899639606476,-0.1746550053358078,-0.0936489999294281
1757088369943098600,2.3150986328125,0.10176599770784378,-0.19752100110054016,-0.09788499772548676
1757088369952651500,2.324651611328125,0.10924799740314484,-0.22269800305366516,-0.09055899828672409
1757088369962204700,2.33420458984375,0.12516500055789948,-0.2261819988489151,-0.07203099876642227
1757088369971757600,2.343757568359375,0.12172800302505493,-0.21239900588989258,-0.024536000564694405
1757088369981310700,2.353310791015625,0.10913100093603134,-0.17892399430274963,0.027946999296545982
1757088369990863600,2.362863525390625,0.11503800004720688,-0.15204399824142456,0.08266899734735489
1757088370000416500,2.37241650390625,0.09773699939250946,-0.15579800307750702,0.1162559986114502
1757088370009969400,2.381969482421875,0.08797799795866013,-0.1618649959564209,0.11602400243282318
1757088370019522600,2.3915224609375,0.0651639997959137,-0.19868500530719757,0.13111799955368042
1757088370029075500,2.401075439453125,0.03911399841308594,-0.24738900363445282,0.1125440001487732
1757088370038628400,2.41062841796875,0.021037999540567398,-0.27480798959732056,0.08079499751329422
1757088370048181200,2.42018115234375,-0.009597999975085258,-0.31180301308631897,0.06840799748897552
1757088370057734400,2.429734375,-0.045274000614881516,-0.2840459942817688,0.0749950036406517
1757088370067287300,2.439287353515625,-0.05788600072264671,-0.2587209939956665,0.07233600318431854
1757088370076840200,2.448840087890625,-0.01915699988603592,-0.24071399867534637,0.06765899807214737
1757088370086393000,2.45839306640625,0.02247999981045723,-0.21375100314617157,0.027091000229120255
1757088370095946200,2.4679462890625,0.06633699685335159,-0.19677899777889252,-0.0024629998952150345
1757088370105499100,2.4774990234375,0.07603699713945389,-0.21361799538135529,-0.030842000618577003
1757088370115052000,2.487052001953125,0.05390600115060806,-0.2283339947462082,-0.06023599952459335
1757088370124605200,2.496605224609375,0.05825600028038025,-0.23633599281311035,-0.10198000073432922
1757088370134158000,2.506157958984375,0.07171399891376495,-0.23278400301933289,-0.1276489943265915
1757088370143711000,2.5157109375,0.08893900364637375,-0.22704699635505676,-0.13819000124931335
1757088370153264000,2.52526416015625,0.09615600109100342,-0.168831005692482,-0.13360899686813354
1757088370162817000,2.534817138671875,0.10087200254201889,-0.1418219953775406,-0.12632200121879578
1757088370172370000,2.544369873046875,0.12162400037050247,-0.1151920035481453,-0.1391189992427826
1757088370181922800,2.5539228515625,0.13266199827194214,-0.10089699923992157,-0.1552090048789978
1757088370191475700,2.563475830078125,0.1660809963941574,-0.10826099663972855,-0.15194199979305267
1757088370201028900,2.57302880859375,0.19070899486541748,-0.12306299805641174,-0.15981900691986084
1757088370210581800,2.582581787109375,0.19517000019550323,-0.13295799493789673,-0.14204299449920654
1757088370220134700,2.592134765625,0.17140500247478485,-0.1400880068540573,-0.10663799941539764
1757088370229687800,2.601687744140625,0.13045400381088257,-0.18760399520397186,-0.08907599747180939
1757088370239240700,2.61124072265625,0.0871490016579628,-0.2534109950065613,-0.0412600003182888
1757088370248793600,2.620793701171875,0.06177299842238426,-0.28742799162864685,0.003982999827712774
1757088370258346500,2.630346435546875,0.04225600138306618,-0.3135240077972412,0.046344999223947525
1757088370267899400,2.6398994140625,0.026079999282956123,-0.30533498525619507,0.09527900069952011
1757088370277452500,2.64945263671875,0.022165000438690186,-0.26335299015045166,0.11199100315570831
1757088370287005400,2.65900537109375,0.02728400006890297,-0.2212900072336197,0.12110300362110138
1757088370296558300,2.668558349609375,0.015905000269412994,-0.20558300614356995,0.1111539974808693
1757088370306111500,2.678111572265625,-0.021841000765562057,-0.23047100007534027,0.1034109964966774
1757088370315664400,2.687664306640625,-0.0591140016913414,-0.24308599531650543,0.11150000244379044
1757088370325217300,2.69721728515625,-0.0732870027422905,-0.25598999857902527,0.07540199905633926
1757088370334770200,2.706770263671875,-0.07259900122880936,-0.26228800415992737,0.024942999705672264
1757088370344323000,2.716322998046875,-0.05594100058078766,-0.24520300328731537,-0.008933999575674534
1757088370353876200,2.725876220703125,-0.038575999438762665,-0.23312899470329285,-0.013369999825954437
1757088370363429000,2.73542919921875,-0.04101099818944931,-0.2328760027885437,0.0006329999887384474
1757088370372982000,2.74498193359375,-0.0324379988014698,-0.19674399495124817,0.012276999652385712
1757088370382535200,2.75453515625,-0.04947799816727638,-0.18402400612831116,0.05767900124192238
1757088370392088000,2.764088134765625,-0.05179399996995926,-0.19950899481773376,0.09130600094795227
1757088370401641000,2.773640869140625,-0.04912099987268448,-0.2027440071105957,0.11179299652576447
1757088370411193900,2.78319384765625,-0.04385099932551384,-0.2249169945716858,0.12176399677991867
1757088370420747000,2.7927470703125,-0.0387209989130497,-0.23277799785137177,0.1151370033621788
1757088370430300000,2.8022998046875,-0.02020999975502491,-0.20718200504779816,0.11346600204706192
1757088370439852800,2.811852783203125,-0.009289000183343887,-0.2131900042295456,0.07543099671602249
1757088370449406000,2.821406005859375,0.012450999580323696,-0.20735299587249756,0.06656000018119812
1757088370458958800,2.830958740234375,0.03724399954080582,-0.2041189968585968,0.05364599823951721
1757088370468511700,2.84051171875,0.06267999857664108,-0.21331800520420074,0.018626999109983444
1757088370478064600,2.850064697265625,0.08399499952793121,-0.2177940011024475,0.012488000094890594
1757088370487617500,2.859617431640625,0.0742650032043457,-0.21251200139522552,0.024745000526309013
1757088370497170700,2.869170654296875,0.08037000149488449,-0.20722700655460358,0.024952000007033348
1757088370506723800,2.878723876953125,0.07219900190830231,-0.19268099963665009,0.0001740000006975606
1757088370516276500,2.8882763671875,0.05084099993109703,-0.19234700500965118,0.008345000445842743
1757088370525829400,2.897829345703125,0.035218000411987305,-0.20411300659179688,-0.009215000085532665
1757088370535382500,2.907382568359375,0.04060899838805199,-0.2161339968442917,-0.032905999571084976
1757088370544935400,2.916935302734375,0.023243999108672142,-0.21404600143432617,-0.05542200058698654
1757088370554488600,2.926488525390625,0.04092400148510933,-0.18161100149154663,-0.10341800004243851
1757088370564041200,2.936041259765625,0.04667399823665619,-0.15903599560260773,-0.11909600347280502
1757088370573594400,2.945594482421875,0.05672699958086014,-0.16054800152778625,-0.12942099571228027
1757088370583147300,2.955147216796875,0.07979600131511688,-0.16459299623966217,-0.13686999678611755
1757088370592700200,2.9647001953125,0.08826000243425369,-0.190420001745224,-0.15537400543689728
1757088370602253300,2.97425341796875,0.10323599725961685,-0.20174899697303772,-0.14335200190544128
1757088370611806200,2.98380615234375,0.11977100372314453,-0.2415499985218048,-0.13249899446964264
1757088370621359000,2.993359130859375,0.12393199652433395,-0.24720199406147003,-0.08840200304985046
1757088370630912300,3.002912353515625,0.1391720026731491,-0.2217240035533905,-0.08270499855279922
1757088370640465000,3.01246484375,0.14475399255752563,-0.1967799961566925,-0.11551299691200256
1757088370650018000,3.02201806640625,0.15235799551010132,-0.1860560029745102,-0.09870599955320358
1757088370659571000,3.031571044921875,0.1548590064048767,-0.1631619930267334,-0.08033999800682068
1757088370669123800,3.041123779296875,0.14561200141906738,-0.16171100735664368,-0.07439299672842026
1757088370678676700,3.0506767578125,0.11855799704790115,-0.17225399613380432,-0.08262799680233002
1757088370688230000,3.06022998046875,0.09553200006484985,-0.20413200557231903,-0.07725799828767776
1757088370697782800,3.06978271484375,0.09417600184679031,-0.21416300535202026,-0.056338001042604446
1757088370707335700,3.079335693359375,0.0996910035610199,-0.22867199778556824,-0.03672900050878525
1757088370716888800,3.088888916015625,0.09123300015926361,-0.24036699533462524,-0.011628000065684319
1757088370726441700,3.098441650390625,0.08294200152158737,-0.24452100694179535,0.007211000192910433
1757088370735994600,3.10799462890625,0.06340699642896652,-0.2364410012960434,0.025039000436663628
1757088370745547500,3.117547607421875,0.044794999063014984,-0.23537300527095795,0.0326399989426136
1757088370755100700,3.1271005859375,0.02707899920642376,-0.24191099405288696,-0.003425000002607703
1757088370764653600,3.136653564453125,-0.00279600010253489,-0.23432199656963348,-0.02635199949145317
1757088370774206500,3.14620654296875,0.012388000264763832,-0.23893800377845764,-0.04357999935746193
1757088370783759600,3.155759521484375,0.018290000036358833,-0.23668700456619263,-0.06665600091218948
1757088370793312500,3.1653125,0.015355999581515789,-0.2536660134792328,-0.07499700039625168
1757088370802865400,3.174865478515625,0.029193000867962837,-0.30137699842453003,-0.06104300171136856
1757088370812418300,3.184418212890625,0.045455001294612885,-0.3297480046749115,-0.062224000692367554
1757088370821971500,3.193971435546875,0.09097699820995331,-0.3293609917163849,-0.06604699790477753
1757088370831524400,3.2035244140625,0.1252399981021881,-0.2837759852409363,-0.08314000070095062
1757088370841077200,3.2130771484375,0.15094800293445587,-0.24825699627399445,-0.11507099866867065
1757088370850630100,3.222630126953125,0.15516699850559235,-0.2538380026817322,-0.1501390039920807
1757088370860183000,3.23218310546875,0.17282499372959137,-0.2479410022497177,-0.1880369931459427
1757088370869736000,3.24173583984375,0.15825000405311584,-0.28532901406288147,-0.2131049931049347
1757088370879289000,3.2512890625,0.14938299357891083,-0.29407501220703125,-0.21861299872398376
1757088370888842000,3.260842041015625,0.13501200079917908,-0.30732500553131104,-0.19884000718593597
1757088370898395100,3.27039501953125,0.14292900264263153,-0.2889670133590698,-0.1570660024881363
1757088370907948000,3.279947998046875,0.14538300037384033,-0.3085460066795349,-0.14064399898052216
1757088370917501000,3.2895009765625,0.18158699572086334,-0.33965200185775757,-0.1284179985523224
1757088370927053800,3.2990537109375,0.22265200316905975,-0.35857000946998596,-0.1290760040283203
1757088370936607000,3.30860693359375,0.25946199893951416,-0.40174901485443115,-0.1810629963874817
1757088370946159900,3.318159912109375,0.2927989959716797,-0.4547330141067505,-0.2248930037021637
1757088370955712800,3.327712646484375,0.34581199288368225,-0.5344280004501343,-0.2887429893016815
1757088370965265700,3.337265625,0.3920679986476898,-0.5642009973526001,-0.3391669988632202
1757088370974818600,3.346818603515625,0.42086300253868103,-0.5897330045700073,-0.4017089903354645
1757088370984371700,3.356371826171875,0.49118098616600037,-0.5605090260505676,-0.45362499356269836
1757088370993924600,3.365924560546875,0.5645959973335266,-0.5056639909744263,-0.4979889988899231
1757088371003477500,3.3754775390625,0.6291130185127258,-0.5061360001564026,-0.5247250199317932
1757088371013030700,3.38503076171875,0.6465799808502197,-0.5123170018196106,-0.6053040027618408
1757088371022583600,3.39458349609375,0.6426889896392822,-0.5451099872589111,-0.6369240283966064
1757088371032136400,3.404136474609375,0.5945910215377808,-0.5516049861907959,-0.6372020244598389
1757088371041689600,3.413689697265625,0.5530940294265747,-0.5312070250511169,-0.572613000869751
1757088371051242500,3.423242431640625,0.5321879982948303,-0.4542030096054077,-0.4159579873085022
1757088371070348300,3.442348388671875,0.6304759979248047,-0.1727380007505417,-0.0763159990310669
1757088371079901200,3.451901123046875,0.7271959781646729,0.016726000234484673,0.03957299888134003
1757088371089454300,3.461454345703125,0.8186900019645691,0.2065420001745224,0.08918099850416183
1757088371099007200,3.47100732421875,0.8660770058631897,0.39690300822257996,0.006926000118255615
1757088371108560400,3.480560302734375,0.83815598487854,0.5400440096855164,-0.047419000416994095
1757088371118113300,3.49011328125,0.9193009734153748,0.6732149720191956,-0.006930999923497438
1757088371127666200,3.499666259765625,0.8663979768753052,0.789484977722168,0.05029299855232239
1757088371137219300,3.50921923828125,0.7208660244941711,0.8945620059967041,0.03813499957323074
1757088371146772200,3.518772216796875,0.6512799859046936,0.9744840264320374,0.05294099822640419
1757088371156324900,3.528324951171875,0.7014250159263611,1.1010559797286987,0.20729799568653107
1757088371165878000,3.5378779296875,0.9408850073814392,1.2026790380477905,0.24914999306201935
1757088371175431200,3.54743115234375,1.0705870389938354,1.1620819568634033,0.17374800145626068
1757088371184984000,3.556984130859375,1.3658709526062012,1.178022027015686,-0.030434999614953995
1757088371194537000,3.566536865234375,1.3333029747009277,1.0730969905853271,-0.22946099936962128
1757088371204089900,3.57608984375,1.1394670009613037,0.8238139748573303,-0.4322200119495392
1757088371213642800,3.585642822265625,0.8246240019798279,0.6067469716072083,-0.5918200016021729
1757088371223195600,3.595195556640625,0.2535589933395386,0.4511300027370453,-0.7034270167350769
1757088371232748800,3.604748779296875,-0.3298409879207611,0.3429810106754303,-0.6493120193481445
1757088371242301700,3.6143017578125,-0.6373460292816162,0.1711529940366745,-0.3880079984664917
1757088371251854800,3.623854736328125,-1.0376299619674683,0.14410999417304993,0.17937999963760376
1757088371261407700,3.63340771484375,-1.4105019569396973,0.30012500286102295,0.5924500226974487
1757088371270960600,3.642960693359375,-1.959223985671997,0.21641799807548523,0.5950819849967957
1757088371280513500,3.652513427734375,-2.0993919372558594,0.07441700249910355,0.09949599951505661
1757088371290066400,3.66206640625,-1.0776610374450684,-0.10357499867677689,-0.5280669927597046
1757088371299619300,3.671619384765625,-0.09776700288057327,0.001914000022225082,-0.8496170043945312
1757088371309172500,3.68117236328125,-1.0163370370864868,0.18466199934482574,-1.0991469621658325
1757088371318725600,3.6907255859375,-2.5859880447387695,0.11808999627828598,-0.8372499942779541
1757088371328278500,3.700278564453125,-2.4085769653320312,0.09877000004053116,-0.4763520061969757
1757088371337831400,3.70983154296875,-1.4652949571609497,-0.025102000683546066,0.0651789978146553
1757088371347384300,3.71938427734375,-1.7464460134506226,-0.12250400334596634,0.9581660032272339
1757088371356937200,3.728937255859375,-1.7292790412902832,0.08446100354194641,1.9487340450286865
1757088371366490000,3.738489990234375,-1.617568016052246,0.14552900195121765,1.986920952796936
1757088371376043300,3.748043212890625,-0.6959519982337952,-0.08655600249767303,2.0770490169525146
1757088371385596200,3.75759619140625,0.9033219814300537,-0.2823930084705353,2.4550869464874268
1757088371395149000,3.767149169921875,2.192431926727295,-0.19674399495124817,2.76411509513855
1757088371404702200,3.7767021484375,2.3879520893096924,-0.15666599571704865,3.121548891067505
1757088371414255000,3.786255126953125,1.2559850215911865,-0.2998239994049072,3.44058895111084
1757088371423808000,3.79580810546875,-0.8022689819335938,-0.34883299469947815,3.1890809535980225
1757088371433361000,3.80536083984375,-0.9410549998283386,-0.82676100730896,3.783268928527832
1757088371442913800,3.814913818359375,0.19494499266147614,-1.4698280096054077,4.010899066925049
1757088371452467000,3.824467041015625,1.3491380214691162,-1.9694000482559204,3.511276960372925
1757088371462020000,3.83402001953125,1.432191014289856,-2.025279998779297,2.851689100265503
1757088371471573000,3.843572998046875,0.5019479990005493,-1.8512840270996094,1.510274052619934
1757088371481126000,3.8531259765625,0.03168899938464165,-1.3212989568710327,-0.04737899824976921
1757088371490678800,3.8626787109375,-0.023009000346064568,-0.06878799945116043,-0.5476340055465698
1757088371500231700,3.872231689453125,-0.07542099803686142,1.0338259935379028,-0.8050810098648071
1757088371509784600,3.88178466796875,0.3346579968929291,1.4288179874420166,-1.7670300006866455
1757088371519337500,3.89133740234375,0.7512900233268738,1.6781070232391357,-2.695971965789795
1757088371528890400,3.900890380859375,0.6832960247993469,1.8599519729614258,-2.774221897125244
1757088371538443500,3.910443603515625,0.8360080122947693,1.7572710514068604,-2.4437389373779297
1757088371547996700,3.91999658203125,1.0806119441986084,1.4086819887161255,-2.2896718978881836
1757088371557549600,3.929549560546875,0.7395359873771667,1.149886965751648,-2.2446019649505615
1757088371567102500,3.9391025390625,0.5873349905014038,0.8695639967918396,-1.5900410413742065
1757088371576655400,3.9486552734375,0.36471301317214966,0.393189013004303,-0.5895000100135803
1757088371586208300,3.958208251953125,0.19548000395298004,-0.23965699970722198,0.5043969750404358
1757088371595761200,3.96776123046875,0.2456970065832138,-0.7117210030555725,1.2411160469055176
1757088371605314000,3.97731396484375,0.4518199861049652,-0.9539939761161804,1.7710520029067993
1757088371614867200,3.9868671875,0.5779560208320618,-0.9433709979057312,1.8250919580459595
1757088371624420000,3.996420166015625,0.3064950108528137,-0.6779260039329529,1.4364559650421143
1757088371633973200,4.00597314453125,0.27239298820495605,-0.3948329985141754,1.058832049369812
1757088371643526100,4.015526123046875,0.506505012512207,-0.1417050063610077,0.8364459872245789
1757088371653079000,4.0250791015625,0.5937060117721558,0.047134000808000565,0.9916689991950989
1757088371662632000,4.0346318359375,0.5263199806213379,0.0875369980931282,0.9355630278587341
1757088371672184800,4.044184814453125,0.16628600656986237,0.20461200177669525,0.27052098512649536
1757088371681738000,4.053738037109375,-0.1318349987268448,0.29547199606895447,-0.30583900213241577
1757088371691291000,4.063290771484375,-0.3347499966621399,0.2038239985704422,-0.3753809928894043
1757088371700843800,4.07284375,0.05891900137066841,0.06639699637889862,-0.31069299578666687
1757088371710397000,4.08239697265625,0.19132499396800995,-0.025715000927448273,-0.2275809943675995
1757088371719949800,4.09194970703125,0.051235001534223557,0.07851999998092651,0.20160700380802155
1757088371729502700,4.101502685546875,-0.035861000418663025,0.2835470139980316,0.350941002368927
1757088371739055600,4.1110556640625,0.08452200144529343,0.6377540230751038,0.23986099660396576
1757088371748608500,4.1206083984375,-0.0005510000046342611,0.4649609923362732,0.3645240068435669
1757088371758161400,4.130161376953125,-0.27215999364852905,0.007023999933153391,0.4540509879589081
1757088371767714600,4.139714599609375,-0.2660979926586151,-0.5270410180091858,0.4941520094871521
1757088371777267700,4.149267822265625,-0.05290000140666962,-0.8762509822845459,0.4429050087928772
1757088371786820400,4.1588203125,0.1216140016913414,-1.0907150506973267,0.25708499550819397
1757088371796373500,4.16837353515625,0.37439098954200745,-0.8987129926681519,-0.08904200047254562
1757088371805926100,4.177926025390625,0.3303639888763428,-0.8283159732818604,-0.16780400276184082
1757088371815479300,4.187479248046875,-0.20770500600337982,-0.4865899980068207,-0.4555320143699646
1757088371825032200,4.1970322265625,-0.6124140024185181,-0.37314000725746155,-0.5393909811973572
1757088371834585000,4.206585205078125,-0.8135650157928467,-0.3810890018939972,-0.4316990077495575
1757088371844138200,4.21613818359375,-0.65522301197052,-0.4863260090351105,-0.17115700244903564
1757088371853691100,4.225691162109375,-0.5948389768600464,-0.5063120126724243,-0.0019650000613182783
1757088371863244000,4.235244140625,-0.32208898663520813,-0.34579700231552124,0.07122199982404709
1757088371872797000,4.244796875,-0.17726099491119385,-0.26868900656700134,0.13138799369335175
1757088371882350000,4.25435009765625,-0.2172739952802658,-0.32902398705482483,0.10719499737024307
1757088371891903000,4.263903076171875,-0.49659499526023865,-0.5429530143737793,-0.09637200087308884
1757088371901456000,4.273455810546875,-0.678072988986969,-0.5167419910430908,-0.11180700361728668
1757088371911008800,4.2830087890625,-0.7755619883537292,-0.5534870028495789,0.24431900680065155
1757088371920562000,4.29256201171875,-0.5676910281181335,-0.3860369920730591,0.5368859767913818
1757088371930114800,4.30211474609375,-0.3405489921569824,-0.1841759979724884,0.6124280095100403
1757088371939667700,4.311667724609375,-0.3323329985141754,-0.028384000062942505,0.36688798666000366
1757088371949220600,4.321220703125,-0.2965869903564453,-0.037000998854637146,0.10018499940633774
1757088371958773500,4.3307734375,-0.27852699160575867,0.004600999876856804,0.14215299487113953
1757088371968326700,4.34032666015625,-0.20473800599575043,-0.08257800340652466,-0.08064600080251694
1757088371977879600,4.349879638671875,-0.15323400497436523,-0.13617399334907532,-0.15108799934387207
1757088371987432400,4.359432373046875,-0.35401201248168945,-0.15955500304698944,-0.11161100119352341
1757088371996985300,4.3689853515625,-0.2191780060529709,-0.08928799629211426,0.24707600474357605
1757088372006538500,4.37853857421875,-0.080376997590065,0.2650279998779297,0.6224340200424194
1757088372016091400,4.38809130859375,0.20367300510406494,0.42987900972366333,0.37634798884391785
1757088372025644300,4.397644287109375,0.2908659875392914,0.3997870087623596,0.19922000169754028
1757088372035197200,4.407197265625,0.4693549871444702,0.23338200151920319,0.27779901027679443
1757088372044750000,4.41675,0.3910219967365265,-0.027041999623179436,0.07158099859952927
1757088372054303200,4.42630322265625,0.3047829866409302,-0.155922994017601,-0.06358399987220764
1757088372063856000,4.435856201171875,-0.07320400327444077,-0.04484099894762039,-0.47402098774909973
1757088372073409300,4.4454091796875,-0.7643979787826538,-0.10004500299692154,-0.703656017780304
1757088372082962200,4.454962158203125,-1.0219860076904297,-0.04384300112724304,-0.3387739956378937
1757088372092515000,4.46451513671875,-1.0639779567718506,-0.07206200063228607,-0.03425600007176399
1757088372102068000,4.47406787109375,-0.9078660011291504,0.05956700071692467,-0.10381799936294556
1757088372111620900,4.483620849609375,-0.7924270033836365,0.2242860049009323,-0.22204400599002838
1757088372121173800,4.493173828125,-0.7764739990234375,0.2309969961643219,-0.3941890001296997
1757088372130727000,4.502726806640625,-0.9322310090065002,0.10538300126791,-0.36560800671577454
1757088372140280000,4.512280029296875,-0.9995239973068237,0.043418001383543015,-0.30557501316070557
1757088372149833000,4.5218330078125,-0.8484669923782349,-0.017037000507116318,-0.11114300042390823
1757088372159385900,4.5313857421875,-0.7084199786186218,-0.10976500064134598,-0.16486099362373352
1757088372168938800,4.540938720703125,-0.7583950161933899,-0.21864500641822815,-0.2143460065126419
1757088372178491600,4.55049169921875,-0.791674017906189,-0.23246200382709503,-0.13885100185871124
1757088372188044500,4.56004443359375,-0.649429976940155,-0.09610400348901749,0.10153599828481674
1757088372197597700,4.56959765625,-0.48715901374816895,0.06192599982023239,0.3093329966068268
1757088372207150600,4.579150634765625,-0.3957340121269226,0.23711000382900238,0.24807199835777283
1757088372216703700,4.588703857421875,-0.31616199016571045,0.3189609944820404,0.16759100556373596
1757088372226256600,4.598256591796875,-0.12723100185394287,0.30623799562454224,0.05064700171351433
1757088372235809500,4.6078095703125,-0.07814300060272217,0.2692759931087494,0.03351199999451637
1757088372245362400,4.617362548828125,-0.032141998410224915,0.2859930098056793,0.05220299959182739
1757088372254915300,4.626915283203125,-0.02795499935746193,0.2417909950017929,0.16439400613307953
1757088372264468200,4.63646826171875,-0.048510000109672546,0.1932069957256317,0.20174099504947662
1757088372274021000,4.646021240234375,-0.02637699991464615,0.18690000474452972,0.22278599441051483
1757088372283574300,4.65557421875,0.02672100067138672,0.19384999573230743,0.16800600290298462
1757088372293127200,4.665127197265625,0.09329099953174591,0.08946000039577484,0.1800300031900406
1757088372302680000,4.67468017578125,0.08462300151586533,-0.00025599999935366213,0.2668110132217407
1757088372312233200,4.684233154296875,0.041613999754190445,-0.1061599999666214,0.2913089990615845
1757088372321786000,4.6937861328125,0.07671099901199341,-0.16814999282360077,0.37380799651145935
1757088372331339000,4.703339111328125,0.06786700338125229,-0.22578799724578857,0.41401299834251404
1757088372340892000,4.712891845703125,0.14443199336528778,-0.3218649923801422,0.33569300174713135
1757088372350445000,4.722445068359375,0.20356899499893188,-0.3644059896469116,0.3037390112876892
1757088372359998000,4.731998046875,0.25739800930023193,-0.40941500663757324,0.26428401470184326
1757088372369550800,4.74155078125,0.23969699442386627,-0.41807299852371216,0.19109000265598297
1757088372379103700,4.751103759765625,0.17699800431728363,-0.42747700214385986,0.16553400456905365
1757088372388656600,4.76065673828125,0.1051580011844635,-0.37234801054000854,0.28478899598121643
1757088372398209500,4.77020947265625,-0.08278100192546844,-0.3959609866142273,0.22450999915599823
1757088372407762700,4.7797626953125,-0.15481600165367126,-0.27835598587989807,0.27268001437187195
1757088372417315800,4.78931591796875,-0.3171359896659851,-0.15900099277496338,0.3228890001773834
1757088372426868500,4.798868408203125,-0.41165098547935486,-0.04691300168633461,0.2586989998817444
1757088372436421400,4.80842138671875,-0.4722970128059387,0.01387799996882677,0.1492449939250946
1757088372445974500,4.817974609375,-0.5233960151672363,-0.05423000082373619,-0.03454099968075752
1757088372455527400,4.82752734375,-0.55314701795578,-0.0925849974155426,-0.1497740000486374
1757088372465080300,4.837080322265625,-0.5106030106544495,-0.04244900122284889,-0.23432600498199463
1757088372474633200,4.84663330078125,-0.2927300035953522,0.09844899922609329,-0.24910199642181396
1757088372484186400,4.856186279296875,-0.12485399842262268,0.17225700616836548,-0.285178005695343
1757088372493739300,4.8657392578125,0.04976699873805046,0.15714900195598602,-0.2947390079498291
1757088372503292200,4.875292236328125,0.24723799526691437,0.11687300354242325,-0.18899300694465637
1757088372512845000,4.884844970703125,0.39468899369239807,-0.010065999813377857,-0.31339800357818604
1757088372522398200,4.894398193359375,0.34570300579071045,-0.2014019936323166,-0.3591170012950897
1757088372531951000,4.903951171875,0.1407179981470108,-0.175245001912117,-0.49546998739242554
1757088372541504000,4.91350390625,-0.07045099884271622,-0.16299399733543396,-0.5420479774475098
1757088372551057000,4.923056884765625,-0.2435549944639206,-0.20501099526882172,-0.5459849834442139
1757088372560609800,4.93260986328125,-0.28339800238609314,-0.2262679934501648,-0.49821901321411133
1757088372570162700,4.94216259765625,-0.12757399678230286,-0.25392600893974304,-0.4937469959259033
1757088372579715600,4.951715576171875,0.1425440013408661,-0.2353000044822693,-0.3867399990558624
1757088372589268700,4.961268798828125,0.2546910047531128,-0.13840900361537933,-0.2596369981765747
1757088372598821600,4.970821533203125,0.18433399498462677,-0.20184500515460968,-0.19733500480651855
1757088372608374800,4.980374755859375,0.16314400732517242,-0.03174100071191788,-0.22809399664402008
1757088372617927700,4.989927734375,0.09206400066614151,0.05857599899172783,-0.22843199968338013
1757088372627480600,4.99948046875,0.09087599813938141,0.168954998254776,-0.19614599645137787
1757088372637033500,5.009033447265625,0.11659300327301025,0.23733800649642944,-0.23395100235939026
1757088372646586600,5.018586669921875,0.14273299276828766,0.26106899976730347,-0.2757889926433563
1757088372656139300,5.02813916015625,0.17552199959754944,0.21516300737857819,-0.1914380043745041
1757088372665692400,5.0376923828125,0.11557500064373016,0.13657699525356293,-0.341482013463974
1757088372675245300,5.047245361328125,0.10574600100517273,0.007424000184983015,-0.4141699969768524
1757088372684798200,5.056798095703125,0.03234599903225899,-0.18166400492191315,-0.33378100395202637
1757088372694351400,5.066351318359375,0.04578400030732155,-0.29582899808883667,-0.1020829975605011
1757088372703904300,5.075904296875,0.025456000119447708,-0.1960339993238449,0.06716299802064896
1757088372713457200,5.08545703125,0.07248400151729584,-0.05997300148010254,0.12511399388313293
1757088372723010000,5.095010009765625,0.19767099618911743,-0.1369449943304062,0.1040399968624115
1757088372732563000,5.10456298828125,0.2818470001220703,-0.060531001538038254,0.21271100640296936
1757088372742116000,5.1141162109375,0.2685289978981018,0.07529699802398682,0.2834790050983429
1757088372751669200,5.123669189453125,0.2472590059041977,0.14879299700260162,0.13474200665950775
1757088372761222000,5.133221923828125,0.17692700028419495,0.17646600306034088,0.003918000031262636
1757088372770774800,5.14277490234375,0.05438400059938431,0.15195800364017487,-0.051187001168727875
1757088372780328000,5.152327880859375,-0.044548001140356064,0.08087699860334396,-0.02843499928712845
1757088372789880800,5.161880859375,-0.11564499884843826,-0.015243999660015106,0.01587199978530407
1757088372799433700,5.171433837890625,-0.12049300223588943,-0.034988000988960266,0.08942800015211105
1757088372808986600,5.180986572265625,-0.05425399914383888,-0.015874000266194344,0.17151500284671783
1757088372818539800,5.190539794921875,0.011599999852478504,0.024089999496936798,0.21221500635147095
1757088372828092700,5.2000927734375,0.07318200170993805,0.1125049963593483,0.16974100470542908
1757088372837645600,5.2096455078125,0.09232799708843231,0.1462090015411377,0.09421499818563461
1757088372847198700,5.21919873046875,0.10692600160837173,0.1523829996585846,0.09892600029706955
1757088372856751600,5.228751708984375,0.05506400018930435,0.15469999611377716,0.04871299862861633
1757088372866304300,5.23830419921875,0.03922500088810921,0.14893099665641785,0.05848899856209755
1757088372875857400,5.247857421875,0.03983600065112114,0.052574001252651215,0.028304999694228172
1757088372885410000,5.25741015625,-0.005969999823719263,-0.058993998914957047,0.0696130022406578
1757088372894963200,5.266963134765625,-0.00924300029873848,-0.09586299955844879,0.08654899895191193
1757088372904516400,5.276516357421875,-0.025436999276280403,-0.19577600061893463,0.10316599905490875
1757088372914069200,5.2860693359375,-0.00873200036585331,-0.23512600362300873,0.11933699995279312
1757088372923622100,5.2956220703125,-0.0064849997870624065,-0.2562049925327301,0.07694199681282043
1757088372933175000,5.305175048828125,0.014636999927461147,-0.28540098667144775,0.09117300063371658
1757088372942728200,5.314728271484375,0.05787099897861481,-0.2572619915008545,0.0465719997882843
1757088372952281000,5.324281005859375,0.11628200113773346,-0.17520299553871155,0.060851000249385834
1757088372961834200,5.333834228515625,0.08219800144433975,-0.047596998512744904,0.13448600471019745
1757088372971387000,5.343386962890625,0.053968001157045364,0.0630510002374649,0.11444699764251709
1757088372980940000,5.35293994140625,-0.015193000435829163,0.022791000083088875,0.10931599885225296
1757088372990493000,5.362492919921875,-0.06188499927520752,0.18162600696086884,0.13592900335788727
1757088373000045800,5.3720458984375,-0.07254300266504288,0.17614999413490295,0.08385699987411499
1757088373009598700,5.3815986328125,-0.054662998765707016,0.15384100377559662,0.06869299709796906
1757088373019151600,5.391151611328125,-0.04399999976158142,0.19224700331687927,0.1063779965043068
1757088373028704500,5.40070458984375,0.00036700000055134296,0.20411400496959686,0.06942100077867508
1757088373038257700,5.410257568359375,0.027915000915527344,0.16383099555969238,0.011505000293254852
1757088373047810800,5.419810791015625,0.059971000999212265,0.06539600342512131,-0.07246299833059311
1757088373057363500,5.429363525390625,0.09097400307655334,-0.11303000152111053,-0.09232400357723236
1757088373066916600,5.43891650390625,0.08545400202274323,-0.256632000207901,-0.15579399466514587
1757088373076469500,5.448469482421875,0.0758809968829155,-0.14641299843788147,-0.1336210072040558
1757088373086022400,5.4580224609375,0.1248600035905838,-0.030894000083208084,-0.18882399797439575
1757088373095575300,5.4675751953125,0.07085800170898438,-0.03770500048995018,-0.17482900619506836
1757088373105128200,5.477128173828125,0.0678350031375885,0.04343999922275543,-0.1979849934577942
1757088373114681300,5.486681396484375,0.04975099861621857,-0.07195000350475311,-0.22656600177288055
1757088373124234200,5.496234130859375,-0.009720000438392162,-0.13588400185108185,-0.19814300537109375
1757088373133787100,5.505787109375,-0.0018579999450594187,-0.07171600311994553,-0.19728200137615204
1757088373143340000,5.515340087890625,-0.0014509999891743064,-0.0851769968867302,-0.19751399755477905
1757088373152893000,5.524892822265625,-0.011345000006258488,-0.15837399661540985,-0.18975099921226501
1757088373162446000,5.534446044921875,0.007476000115275383,-0.1322309970855713,-0.17905700206756592
1757088373171998700,5.543998779296875,0.007213999982923269,-0.11660200357437134,-0.1758510023355484
1757088373181551900,5.5535517578125,0.00443299999460578,-0.11805299669504166,-0.1412149965763092
1757088373191104800,5.563104736328125,0.0037799999117851257,-0.13809899985790253,-0.10439100116491318
1757088373200658000,5.572657958984375,0.022211000323295593,-0.12337800115346909,-0.07036899775266647
1757088373210210800,5.5822109375,0.011834999546408653,-0.11852700263261795,-0.04993399977684021
1757088373219763700,5.591763671875,0.030282000079751015,-0.07986100018024445,-0.022130999714136124
1757088373229316600,5.601316650390625,0.010204999707639217,-0.09755700081586838,-0.0026599999982863665
1757088373238869500,5.610869384765625,0.016555000096559525,-0.05563899874687195,0.04945899918675423
1757088373248422400,5.62042236328125,0.01115300040692091,-0.027661999687552452,0.05806899815797806
1757088373257975300,5.629975341796875,0.01780799962580204,-0.005754000041633844,0.07527200132608414
1757088373267528400,5.639528564453125,0.036538999527692795,0.015154999680817127,0.07795900106430054
1757088373277081600,5.64908154296875,0.04332999885082245,0.032653000205755234,0.10324200242757797
1757088373286634500,5.658634521484375,0.03814699873328209,0.03558000177145004,0.11166200041770935
1757088373296187400,5.6681875,0.04503500089049339,0.053954001516103745,0.13591399788856506
1757088373305740300,5.677740234375,0.032917000353336334,0.07334599643945694,0.1457429975271225
1757088373315293200,5.687293212890625,0.056662000715732574,0.08286300301551819,0.16887900233268738
1757088373324846000,5.69684619140625,0.046790000051259995,0.06716199964284897,0.16875199973583221
1757088373334399000,5.70639892578125,0.04881700128316879,0.04797400161623955,0.15554499626159668
1757088373343952000,5.715951904296875,0.043598998337984085,0.03221200034022331,0.14797699451446533
1757088373353504800,5.7255048828125,0.02895900048315525,0.035100001841783524,0.13211800158023834
1757088373363058000,5.735057861328125,0.031213000416755676,0.02858399972319603,0.1014460027217865
1757088373372610800,5.74461083984375,0.02662000060081482,0.05392400175333023,0.07478400319814682
1757088373382164000,5.7541640625,0.04596899822354317,0.046571001410484314,0.05417799949645996
1757088373391716900,5.763716796875,0.04369699954986572,0.03319000080227852,0.04165399819612503
1757088373401269800,5.773269775390625,0.03183399885892868,0.032120998948812485,0.03655900061130524
1757088373410822700,5.78282275390625,0.027111999690532684,0.015395999886095524,0.01587199978530407
1757088373420375600,5.79237548828125,0.00821600016206503,0.024098999798297882,-0.001433999976143241
1757088373429928400,5.801928466796875,0.013252000324428082,0.011908999644219875,-0.015510999597609043
1757088373439481300,5.8114814453125,0.011408999562263489,0.029539000242948532,-0.04685699939727783
1757088373449034500,5.821034423828125,0.016822999343276024,0.0326480008661747,-0.05601600185036659
1757088373458587400,5.83058740234375,-0.05441400036215782,0.039473000913858414,-0.009731999598443508
1757088373468140300,5.840140380859375,-0.04226800054311752,-0.16580800712108612,-0.279107004404068
1757088373477693400,5.849693359375,0.047616999596357346,0.20403900742530823,0.015104000456631184
1757088373487246300,5.859246337890625,-0.07603699713945389,0.23296600580215454,0.22210900485515594
1757088373496799200,5.86879931640625,0.2289550006389618,-0.12306199967861176,0.07066500186920166
1757088373506352000,5.87835205078125,0.32190999388694763,-0.37831899523735046,-0.23282000422477722
1757088373515905000,5.887905029296875,0.011580999940633774,0.08642899990081787,-0.23380999267101288
1757088373525458200,5.897458251953125,-0.005280000157654285,0.11216799914836884,-0.2691270112991333
1757088373535011000,5.907010986328125,0.10745199769735336,-0.12638700008392334,-0.15907199680805206
1757088373544564000,5.91656396484375,-0.06938599795103073,-0.03188899904489517,0.013341999612748623
1757088373554116900,5.926116943359375,-0.13148899376392365,-0.010010999627411366,0.0693499967455864
1757088373563669800,5.935669677734375,-0.043115001171827316,-0.00019500000053085387,0.04294599965214729
1757088373573223000,5.945222900390625,-0.030765000730752945,0.0802989974617958,0.006666999775916338
1757088373582775800,5.95477587890625,0.029069000855088234,0.036497000604867935,0.01484999991953373
1757088373592328700,5.96432861328125,0.10042700171470642,-0.02766299992799759,0.015668999403715134
1757088373601881900,5.9738818359375,0.09549400210380554,-0.014240000396966934,-0.00304599991068244
1757088373611434800,5.983434814453125,0.09330499917268753,-0.004296000115573406,-0.04043399915099144
1757088373620987600,5.992987548828125,0.08670900017023087,0.022870000451803207,-0.06381499767303467
1757088373630540500,6.00254052734375,0.06843700259923935,0.050505999475717545,-0.06728100031614304
1757088373640093400,6.012093505859375,0.033369001001119614,0.05148499831557274,-0.0500979982316494
1757088373649646600,6.021646484375,0.01486000046133995,0.038725998252630234,-0.022630000486969948
1757088373659199200,6.03119921875,-0.006045999936759472,0.02906399965286255,-0.05147600173950195
1757088373668752400,6.04075244140625,0.008729999884963036,0.004712000023573637,-0.06322500109672546
1757088373678305300,6.05030517578125,0.0018100000452250242,-0.011295000091195107,-0.06781899929046631
1757088373687858200,6.059858154296875,-0.0053010000847280025,-0.035489000380039215,-0.0703200027346611
1757088373697411000,6.0694111328125,-0.00048600000445730984,-0.03830200061202049,-0.06175599992275238
1757088373706964200,6.078964111328125,0.016287999227643013,-0.04830799996852875,-0.060534000396728516
1757088373716516900,6.088516845703125,0.02834700047969818,-0.046831000596284866,-0.0662200003862381
1757088373726070000,6.098070068359375,0.030868999660015106,-0.03662500157952309,-0.05129000172019005
1757088373735623200,6.107623046875,0.01895499974489212,-0.036247000098228455,-0.030635999515652657
1757088373745176000,6.117176025390625,0.026309000328183174,-0.010982000268995762,-0.015690000727772713
1757088373754729000,6.12672900390625,0.012090000323951244,-0.0029460000805556774,0.0028669999446719885
1757088373764281900,6.13628173828125,0.0028440000023692846,0.015863999724388123,-0.013935999944806099
1757088373773834800,6.145834716796875,0.015027999877929688,0.01360199972987175,-0.005307000130414963
1757088373783387600,6.1553876953125,0.03902199864387512,0.01195599976927042,0.009265000000596046
1757088373792940500,6.1649404296875,0.05593699961900711,0.02193799987435341,-0.008652999997138977
1757088373802493700,6.17449365234375,0.08959899842739105,0.024925999343395233,-0.009751999750733376
1757088373812046600,6.184046630859375,0.08018799871206284,0.032301999628543854,0.0007529999711550772
1757088373821599500,6.193599609375,0.06842400133609772,0.0346670001745224,0.0019130000146105886
1757088373831152400,6.20315234375,0.04952799901366234,0.05244800075888634,0.03263799846172333
1757088373840705300,6.212705322265625,0.049702998250722885,0.04213099926710129,0.037029001861810684
1757088373850258200,6.222258056640625,0.03793200105428696,0.048347000032663345,0.038940999656915665
1757088373859811300,6.231811279296875,0.03089199960231781,0.05414799973368645,0.063339002430439
1757088373869364200,6.2413642578125,0.02615799941122532,0.04400800168514252,0.05916199833154678
1757088373878917000,6.250917236328125,0.04533800110220909,0.041446998715400696,0.052866000682115555
1757088373888470300,6.26047021484375,0.05258899927139282,0.0527460016310215,0.05355999991297722
1757088373898023200,6.270023193359375,0.062210001051425934,0.056671999394893646,0.06328999996185303
1757088373907576000,6.279576171875,0.05734200030565262,0.04881099984049797,0.09076599776744843
1757088373917129000,6.28912890625,0.06220199912786484,0.05723800137639046,0.0717179998755455
1757088373926682000,6.29868212890625,0.05021499842405319,0.040268998593091965,0.06984800100326538
1757088373936234800,6.30823486328125,0.042938001453876495,0.03097900003194809,0.0772470012307167
1757088373945787600,6.31778759765625,0.033236999064683914,0.020005999132990837,0.06382700055837631
1757088373955340500,6.327340576171875,0.03058999963104725,0.007464999798685312,0.06683699786663055
1757088373964893400,6.3368935546875,0.023009000346064568,-0.00430600019171834,0.0786300003528595
1757088373974446800,6.34644677734375,0.02743699960410595,-0.010743999853730202,0.05110900104045868
1757088373983999700,6.355999755859375,0.03437399864196777,-0.0008580000139772892,0.036382000893354416
1757088373993552600,6.365552734375,0.04124699905514717,-0.01181699987500906,0.02911500073969364
1757088374003105500,6.37510546875,0.03872999921441078,-0.0018339999951422215,0.006579999811947346
1757088374012658400,6.384658447265625,0.041092000901699066,0.005326000042259693,-0.0034179999493062496
1757088374022211300,6.39421142578125,0.03387799859046936,0.0028860000893473625,-0.0015259999781847
1757088374031764200,6.40376416015625,0.029121000319719315,-0.001588999992236495,-0.02456199936568737
1757088374041317400,6.4133173828125,0.02197900041937828,-0.005861999932676554,-0.030458999797701836
1757088374050870000,6.4228701171875,0.024470999836921692,-0.00533499987795949,-0.04514399915933609
1757088374060423200,6.432423095703125,0.02932799980044365,-0.006947999820113182,-0.04546000063419342
1757088374069976000,6.44197607421875,0.026964999735355377,-0.01976200006902218,-0.057013001292943954
1757088374079529000,6.451529052734375,0.027031000703573227,-0.013895999640226364,-0.05210300162434578
1757088374089081900,6.461081787109375,0.03675999864935875,-0.012803999707102776,-0.06996800005435944
1757088374098635000,6.470635009765625,0.03225899860262871,0.008197999559342861,-0.05504399910569191
1757088374108188000,6.48018798828125,0.03950599953532219,-0.012484000064432621,-0.04087800160050392
1757088374117740800,6.48974072265625,0.03477400168776512,-0.005047000013291836,-0.0229909997433424
1757088374127294000,6.4992939453125,0.03957600146532059,-0.004654999822378159,-0.0174189992249012
1757088374136846600,6.5088466796875,0.04196099936962128,0.0047690002247691154,0.001386999967508018
1757088374146399500,6.5183994140625,0.04438500106334686,0.00712500000372529,-0.010249000042676926
1757088374155952600,6.52795263671875,0.044527001678943634,0.027293000370264053,0.0014530000044032931
1757088374165505500,6.537505615234375,0.039861999452114105,0.028212999925017357,0.00798999983817339
1757088374175058400,6.547058349609375,0.0255149994045496,0.015440000221133232,0.01897599920630455
1757088374184611300,6.556611328125,0.03250600025057793,-0.00785099994391203,0.03181000053882599
1757088374194164200,6.566164306640625,0.022707000374794006,-0.00267699989490211,0.04383600130677223
1757088374203717400,6.57571728515625,0.025008000433444977,0.01825599931180477,0.03923499956727028
1757088374213270300,6.585270263671875,0.03676699846982956,0.0019460000330582261,0.03473600000143051
1757088374222823200,6.5948232421875,0.0435900017619133,-0.015541999600827694,0.03497200086712837
1757088374232376300,6.604376220703125,0.03628399968147278,0.006188000086694956,0.019286999478936195
1757088374241929200,6.61392919921875,0.04585599899291992,0.017700999975204468,0.011308000423014164
1757088374251482000,6.623482177734375,0.04604100063443184,0.021563999354839325,-0.016428999602794647
1757088374261035000,6.633034912109375,0.03164200112223625,0.0025259999092668295,0.007277000229805708
1757088374270588000,6.642587890625,0.02437799982726574,-0.004188000224530697,0.011717000044882298
1757088374280140800,6.652140869140625,0.022009000182151794,0.016674000769853592,0.0157880000770092
1757088374289693700,6.661693603515625,0.031626999378204346,0.018357999622821808,0.010452999733388424
1757088374299246800,6.671246826171875,0.024430999532341957,0.010979999788105488,0.007602000143378973
1757088374308799500,6.680799560546875,0.03408899903297424,0.015499000437557697,-0.010929999873042107
1757088374318352600,6.6903525390625,0.046174000948667526,0.010816000401973724,-0.028449000790715218
1757088374327905500,6.699905517578125,0.036747001111507416,0.01523599959909916,-0.02463800087571144
1757088374337458400,6.70945849609375,0.05358999967575073,-0.0007910000276751816,-0.036779001355171204
1757088374347011300,6.71901123046875,0.04422000050544739,0.015421999618411064,-0.03012000024318695
1757088374356564200,6.728564208984375,0.03959599882364273,0.001339999958872795,-0.03948799893260002
1757088374366117400,6.738117431640625,0.042180001735687256,-0.0007329999934881926,-0.04605500027537346
1757088374375670300,6.747670166015625,0.03046499937772751,0.010900000110268593,-0.04078900068998337
1757088374385223400,6.757223388671875,0.03314799815416336,0.026398999616503716,-0.026924999430775642
1757088374394776300,6.7667763671875,0.02602900005877018,0.00494399992749095,-0.01155600044876337
1757088374404329200,6.7763291015625,0.02828899957239628,-0.015282000415027142,-0.001693999976851046
1757088374413882000,6.785882080078125,0.03540800139307976,0.0019320000428706408,0.0029360000044107437
1757088374423435000,6.79543505859375,0.04018399864435196,0.006912000011652708,-0.004118000157177448
1757088374432988000,6.80498779296875,0.04008999839425087,-0.002056000055745244,0.0027759999502450228
1757088374442540800,6.814540771484375,0.03518399968743324,-0.010553999803960323,-0.001883000019006431
1757088374452094000,6.824093994140625,0.047005001455545425,-0.00957299955189228,0.007215000223368406
1757088374461646800,6.833646728515625,0.030160000547766685,-0.004135999828577042,0.002305000089108944
1757088374471199700,6.84319970703125,0.02776999957859516,0.007751999888569117,-0.00017600000137463212
1757088374480752600,6.852752685546875,0.032710000872612,0.0235190000385046,-0.011686000041663647
1757088374490305500,6.862305419921875,0.03511900082230568,0.006895000115036964,-0.011265000328421593
1757088374499858400,6.8718583984375,0.027987999841570854,0.006978999823331833,-0.01761000044643879
1757088374509411300,6.881411376953125,0.04239699989557266,0.013814999721944332,-0.0032130000181496143
1757088374518964200,6.890964111328125,0.04003699868917465,0.015727000311017036,0.0037090000696480274
1757088374528517400,6.900517333984375,0.04969299957156181,0.024375999346375465,0.003317000111564994
1757088374538070300,6.9100703125,0.035395000129938126,0.01888900063931942,0.0031250000465661287
1757088374547623400,6.91962353515625,0.02825400047004223,0.013550999574363232,0.0076049999333918095
1757088374557176300,6.92917626953125,0.01865600049495697,0.006306999828666449,0.00724400021135807
1757088374566729200,6.938729248046875,0.028233999386429787,0.010944000445306301,0.004602000117301941
1757088374576282000,6.9482822265625,0.030657000839710236,0.015325999818742275,0.0019729998894035816
1757088374585835000,6.9578349609375,0.023420000448822975,0.003599999938160181,0.006415000185370445
1757088374595388000,6.967387939453125,0.04486599937081337,-0.002788000041618943,0.0014990000054240227
1757088374604940800,6.97694091796875,0.035259000957012177,0.0022909999825060368,-0.0008529999759048223
1757088374614494000,6.986493896484375,0.04484900087118149,0.007149999961256981,-0.007741000037640333
1757088374624046800,6.996046875,0.05200999975204468,0.005003000143915415,-0.0028649999294430017
1757088374633599700,7.005599853515625,0.04484900087118149,0.002937000012025237,-0.014035999774932861
1757088374643152600,7.015152587890625,0.03277900069952011,-0.008129999972879887,-0.0019399999873712659
1757088374652705500,7.02470556640625,0.025510000064969063,-0.0005579999997280538,0.011862000450491905
1757088374662258700,7.0342587890625,0.027806000784039497,-0.00919399969279766,0.000050999999075429514
1757088374671811600,7.0438115234375,0.03016600012779236,0.003000000026077032,0.0023300000466406345
1757088374681364500,7.053364501953125,0.037310998886823654,-0.0013680000556632876,-0.002319999970495701
1757088374690917000,7.062917236328125,0.03255400061607361,0.008143999613821507,-0.006802999880164862
1757088374700470300,7.07247021484375,0.032607000321149826,0.007969999685883522,-0.00877199973911047
1757088374710023200,7.082023193359375,0.03748000040650368,0.007941000163555145,-0.019588999450206757
1757088374719576300,7.091576416015625,0.042385999113321304,0.019238999113440514,-0.009483999572694302
1757088374729129200,7.101129150390625,0.04008299857378006,0.011692999862134457,-0.011242999695241451
1757088374738682000,7.11068212890625,0.033031001687049866,0.015943000093102455,-0.015118000097572803
1757088374748235000,7.120235107421875,0.03786800056695938,0.015459000132977962,0.0015239999629557133
1757088374757788000,7.129787841796875,0.035429999232292175,0.0038159999530762434,0.0014420000370591879
1757088374767340800,7.1393408203125,0.03064800053834915,0.013116000220179558,0.005882000084966421
1757088374776893700,7.148893798828125,0.028277000412344933,0.010592999868094921,-0.0011940000113099813
1757088374786446800,7.15844677734375,0.035471998155117035,0.019422000274062157,0.014543999917805195
1757088374795999700,7.167999755859375,0.03790099918842316,0.014220000244677067,0.0023990001063793898
1757088374805552600,7.177552734375,0.030660999938845634,0.002489000093191862,0.006787000223994255
1757088374815105500,7.18710546875,0.03064900077879429,0.0004729999927803874,-0.00711899995803833
1757088374824658400,7.196658447265625,0.03787500038743019,0.014535999856889248,0.00015999999595806003
1757088374834211300,7.20621142578125,0.03528499975800514,-0.012868000194430351,0.009190999902784824
1757088374843764200,7.21576416015625,0.02558100037276745,-0.00942699983716011,-0.00043899999582208693
1757088374853317600,7.225317626953125,0.03510899841785431,0.0029170000925660133,-0.0029070000164210796
1757088374862870300,7.234870361328125,0.042238999158144,-0.001319000031799078,-0.007532999850809574
1757088374872423400,7.24442333984375,0.04954100027680397,0.012807999737560749,-0.025471000000834465
1757088374881976300,7.253976318359375,0.040077999234199524,0.017030000686645508,-0.012888000346720219
1757088374901082000,7.27308203125,0.023547999560832977,0.010851000435650349,-0.007199000101536512
1757088374910635000,7.282635009765625,0.020965000614523888,-0.011926000006496906,0.01371499989181757
1757088374920188200,7.292188232421875,0.027910999953746796,-0.01743900030851364,0.008348999544978142
1757088374929740800,7.30174072265625,0.03020700067281723,0.00458399998024106,0.005398999899625778
1757088374939293700,7.311293701171875,0.03744199872016907,0.016388000920414925,-0.013318000361323357
1757088374948846800,7.320846923828125,0.039788998663425446,0.007191000040620565,-0.003797000041231513
1757088374958399700,7.330399658203125,0.03981899842619896,0.009690999984741211,-0.012779000215232372
1757088374967952600,7.33995263671875,0.03751299902796745,0.005038000177592039,-0.02574699930846691
1757088374977505500,7.349505615234375,0.042440999299287796,0.01874000020325184,-0.012942999601364136
1757088374987058400,7.359058349609375,0.02583100087940693,0.02478400059044361,-0.0031640001107007265
1757088374996611600,7.368611572265625,0.016311999410390854,0.023750999942421913,0.012755000032484531
1757088375006164500,7.37816455078125,0.00658900011330843,0.004865999799221754,0.023187000304460526
1757088375015717400,7.38771728515625,0.02802399918437004,0.007532999850809574,0.012511000037193298
1757088375025270500,7.3972705078125,0.030341999605298042,0.007695999927818775,0.004579000174999237
1757088375034823200,7.4068232421875,0.04467799887061119,0.005578999873250723,-0.00735899992287159
1757088375044376300,7.416376220703125,0.04943900182843208,0.012632000260055065,0.004031999967992306
1757088375053929000,7.425928955078125,0.03995500132441521,0.025891000404953957,0.0035329998936504126
1757088375063482000,7.435482177734375,0.030256999656558037,-0.009081000462174416,0.0009899999713525176
1757088375073035000,7.445034912109375,0.03029399923980236,0.016760999336838722,0.0007229999755509198
1757088375082588000,7.454587890625,0.027885999530553818,0.011758999899029732,0.007368999999016523
1757088375092140800,7.464140869140625,0.039820000529289246,0.007114000152796507,-0.00008299999899463728
1757088375101693700,7.473693603515625,0.03975300118327141,0.0027340000960975885,-0.00033599999733269215
1757088375111246800,7.483246826171875,0.03489900007843971,-0.0015409999759867787,-0.0028089999686926603
1757088375120799700,7.4927998046875,0.03960999846458435,0.003484999993816018,0.006120999809354544
1757088375130352600,7.5023525390625,0.03477900102734566,0.006051999982446432,0.001016999944113195
1757088375139905500,7.511905517578125,0.04674400016665459,0.013061000034213066,0.0006520000169984996
1757088375149458400,7.52145849609375,0.027605000883340836,0.012769999913871288,0.000387999985832721
1757088375159011300,7.53101123046875,0.027627000585198402,0.014636999927461147,0.004652999807149172
1757088375168564500,7.540564453125,0.03229700028896332,-0.010665999725461006,-0.0025049999821931124
1757088375178117400,7.550117431640625,0.03929400071501732,-0.018559999763965607,-0.007135999854654074
1757088375187670300,7.559670166015625,0.027326999232172966,0.014557000249624252,0.00433199992403388
1757088375197223400,7.569223388671875,0.03202899917960167,-0.0015950000379234552,-0.0006689999718219042
1757088375206776300,7.5787763671875,0.029601000249385834,0.0012209999840706587,-0.005260999780148268
1757088375216329200,7.5883291015625,0.02964700013399124,0.008399000391364098,-0.014221999794244766
1757088375225882000,7.597882080078125,0.04411099851131439,0.010638000443577766,-0.02035900019109249
1757088375235435000,7.60743505859375,0.03457900136709213,0.008165000006556511,-0.01030299998819828
1757088375244988000,7.61698779296875,0.03221699967980385,0.008081000298261642,-0.005200000014156103
1757088375254540800,7.626540771484375,0.02987300045788288,0.01488099992275238,-0.0027389999013394117
1757088375264093700,7.63609375,0.027518000453710556,0.014494000002741814,-0.00042299999040551484
1757088375273646800,7.645646728515625,0.02515299990773201,0.005086999852210283,-0.014139000326395035
1757088375283199700,7.65519970703125,0.03235200047492981,0.02120400033891201,0.009007000364363194
1757088375292752600,7.664752685546875,0.042020998895168304,0.018299000337719917,-0.012095999903976917
1757088375302305500,7.674305419921875,0.04440699890255928,0.01793600060045719,0.0063680000603199005
1757088375311858400,7.6838583984375,0.04196099936962128,0.01068899966776371,0.00798999983817339
1757088375321411300,7.693411376953125,0.046606000512838364,-0.00965800043195486,-0.0016629999736323953
1757088375330964200,7.702964111328125,0.020301999524235725,0.01613599993288517,0.005133999977260828
1757088375340517400,7.712517333984375,0.027449000626802444,0.004381000064313412,0.0026020000223070383
1757088375350070300,7.7220703125,0.029805000871419907,0.006742000114172697,0.009232999756932259
1757088375359623200,7.731623046875,0.02736400067806244,0.0022950000129640102,0.0019519999623298645
1757088375369176000,7.741176025390625,0.03198599815368652,-0.004131999798119068,0.015273000113666058
1757088375378729200,7.750729248046875,0.036653000861406326,-0.0034910000395029783,0.009878999553620815
1757088375388281900,7.76028173828125,0.041370000690221786,0.00392899988219142,0.006926999893039465
1757088375397835000,7.7698349609375,0.039044998586177826,0.01779799908399582,-0.004896000027656555
1757088375407387600,7.7793876953125,0.038961999118328094,0.0013940000208094716,0.006523999851197004
1757088375416940800,7.78894091796875,0.03665599972009659,0.017527999356389046,-0.005278999917209148
1757088375426493700,7.79849365234375,0.031909000128507614,0.007872999645769596,-0.00723899994045496
1757088375436046600,7.808046630859375,0.039177000522613525,0.012365000322461128,-0.011377000249922276
1757088375445599700,7.817599853515625,0.03203799948096275,0.007521000225096941,-0.008472999557852745
1757088375455152600,7.827152587890625,0.03689900040626526,0.009759999811649323,-0.012528999708592892
1757088375464705500,7.83670556640625,0.03206700086593628,-0.0017130000051110983,-0.002781999995931983
1757088375474258400,7.846258544921875,0.03205399960279465,0.003272000001743436,-0.002623999956995249
1757088375483811300,7.855811279296875,0.03927699849009514,0.010281000286340714,-0.004767000209540129
1757088375493364200,7.8653642578125,0.034474000334739685,0.007830999791622162,0.004532999824732542
1757088375502917000,7.874917236328125,0.03214000165462494,0.012275000102818012,-0.0047610001638531685
1757088375512470000,7.884469970703125,0.0370200015604496,0.016613999381661415,-0.009031999856233597
1757088375522023200,7.894023193359375,0.03705799952149391,0.01156499981880188,-0.001756999990902841
1757088375531576000,7.903576171875,0.0419050008058548,0.01134399976581335,-0.0061039999127388
1757088375541129000,7.91312890625,0.03714499995112419,0.00885200034826994,-0.0035089999437332153
1757088375550681900,7.922681884765625,0.037209998816251755,0.013279000297188759,-0.00558000011369586
1757088375560234800,7.93223486328125,0.027646999806165695,0.006202999968081713,-0.005243999883532524
1757088375569787600,7.94178759765625,0.02291099913418293,0.008533000014722347,-0.009422999806702137
1757088375579340500,7.951340576171875,0.030014999210834503,0.006374000106006861,0.009080000221729279
1757088375588893400,7.9608935546875,0.027518000453710556,0.00431900005787611,0.012993000447750092
1757088375598446600,7.970446533203125,0.039430998265743256,0.004602000117301941,0.0007029999978840351
1757088375607999500,7.97999951171875,0.051360998302698135,0.0027030000928789377,-0.008662000298500061
1757088375617552600,7.989552734375,0.049017999321222305,0.021090999245643616,0.005179000087082386
1757088375627105300,7.999105224609375,0.041972000151872635,0.015692999586462975,-0.015494000166654587
1757088375636658400,8.008658447265624,0.03252999857068062,0.0218299999833107,-0.0009629999985918403
1757088375646211300,8.01821142578125,0.01826000027358532,0.011842000298202038,-0.007501000072807074
1757088375655764200,8.02776416015625,0.020572999492287636,0.00017499999376013875,0.013433000072836876
1757088375665317000,8.037317138671876,0.0037189999129623175,-0.003942999988794327,0.006027999799698591
1757088375674870000,8.0468701171875,0.01798499934375286,-0.007613999769091606,-0.007898000068962574
1757088375684423000,8.0564228515625,0.02981499955058098,0.0003929999948013574,0.005878999829292297
1757088375693976000,8.06597607421875,0.034557998180389404,-0.003421999979764223,-0.019534999504685402
1757088375703529000,8.075529052734375,0.032248999923467636,0.013166000135242939,-0.0186769999563694
1757088375713081900,8.085081787109376,0.041829999536275864,-0.0006040000007487833,-0.01768600009381771
1757088375722634800,8.094634765625,0.046785999089479446,0.013439999893307686,-0.030306000262498856
1757088375732187600,8.104187744140624,0.03016900084912777,0.017649000510573387,-0.014937999658286572
1757088375741740500,8.113740478515625,0.018209999427199364,0.010239999741315842,0.0016349999932572246
1757088375751293400,8.12329345703125,0.015814000740647316,0.019151000306010246,0.014897000044584274
1757088375760846300,8.132846435546876,0.013441000133752823,0.018518000841140747,0.00699200015515089
1757088375770399500,8.1423994140625,0.020524999126791954,0.006787000223994255,0.00843099970370531
1757088375779952400,8.151952392578124,0.03256800025701523,0.018281999975442886,-0.012841000221669674
1757088375789505300,8.16150537109375,0.042132001370191574,0.008867999538779259,-0.007974999956786633
1757088375799058200,8.17105810546875,0.058841999620199203,0.004494000226259232,-0.0056119998916983604
1757088375808611000,8.180611083984376,0.042096998542547226,0.0070329997688531876,-0.009974000044167042
1757088375818164000,8.1901640625,0.03011699952185154,0.006990000139921904,-0.0005789999850094318
1757088375827717000,8.199717041015624,0.03501399978995323,0.0206300001591444,-0.0074629997834563255
1757088375837270300,8.209270263671876,0.0326169990003109,0.011006999760866165,-0.0027650000993162394
1757088375846823000,8.218822998046875,0.03251799941062927,0.004182999953627586,0.008438000455498695
1757088375856375800,8.228375732421876,0.03718400001525879,0.004666000138968229,0.007579999975860119
1757088375865928700,8.2379287109375,0.04901399835944176,0.0050860000774264336,0.011121000163257122
1757088375875481600,8.247481689453124,0.046448998153209686,0.0033110000658780336,0.012198000214993954
1757088375885034500,8.257034423828125,0.0535149984061718,0.012973000295460224,0.013176999986171722
1757088375894587400,8.26658740234375,0.0509909987449646,0.008522000163793564,0.01196799986064434
1757088375904140300,8.276140380859376,0.04129000008106232,0.004137000069022179,0.01097199972718954
1757088375913693200,8.285693115234375,0.03871700167655945,0.0022460001055151224,0.02134300023317337
1757088375923246300,8.295246337890624,0.04100500047206879,-0.008651000447571278,-0.00951400026679039
1757088375932799200,8.30479931640625,0.024212000891566277,0.012667999602854252,0.008843000046908855
1757088375942352100,8.31435205078125,0.03608899936079979,0.010375999845564365,0.012543000280857086
1757088375951905300,8.3239052734375,0.0409110002219677,0.021916000172495842,-0.002053000032901764
1757088375961458000,8.3334580078125,0.03368699923157692,0.001142999972216785,-0.015773000195622444
1757088375971011000,8.343010986328125,0.03840800002217293,0.004052999895066023,-0.0038850000128149986
1757088375980564000,8.35256396484375,0.03601599857211113,0.011415000073611736,-0.008359000086784363
1757088375990116900,8.362116943359375,0.04557500034570694,0.009274999611079693,-0.008214999921619892
1757088375999669800,8.371669677734374,0.03842199966311455,0.007003000006079674,-0.014790999703109264
1757088376009222700,8.38122265625,0.04088100045919418,0.01626800000667572,-0.009619000367820263
1757088376018775800,8.39077587890625,0.028975000604987144,0.009123999625444412,-0.01586199924349785
1757088376028328400,8.400328369140626,0.019492000341415405,0.020383000373840332,-0.003768000053241849
1757088376037881600,8.409881591796875,0.02904300019145012,0.013230999931693077,0.0007249999907799065
1757088376056987400,8.4289873046875,0.03618000075221062,0.003872999921441078,-0.00673400005325675
1757088376066540300,8.438540283203125,0.03142099827528,0.006498000118881464,-0.017976999282836914
1757088376076093200,8.44809326171875,0.031341999769210815,-0.002322999993339181,-0.008256999775767326
1757088376085646000,8.45764599609375,0.04092400148510933,0.009735999628901482,-0.008067999966442585
1757088376095199200,8.46719921875,0.0287919994443655,-0.005960999988019466,0.0034549999982118607
1757088376104752000,8.476752197265625,0.03816699981689453,-0.00940299965441227,0.002893999917432666
1757088376114305000,8.486304931640625,0.03566399961709976,-0.005998999811708927,-0.006539999973028898
1757088376123858000,8.49585791015625,0.025978999212384224,0.003911999985575676,0.011687000282108784
1757088376133410800,8.505410888671875,0.03076300024986267,0.011156000196933746,-0.005011000204831362
1757088376142963700,8.514963623046874,0.04017399996519089,-0.002392000053077936,0.008441999554634094
1757088376152516900,8.524516845703126,0.03771499916911125,0.005140999797731638,-0.0014400000218302011
1757088376162069500,8.534069580078125,0.03508799895644188,-0.010359000414609909,0.01183400023728609
1757088376171622400,8.543622314453126,0.03749300166964531,0.0042860000394284725,-0.013942000456154346
1757088376181175600,8.553175537109375,0.03755899891257286,0.011316999793052673,-0.0156870000064373
1757088376190728700,8.562728759765625,0.032832998782396317,0.013388000428676605,-0.008183999918401241
1757088376200281300,8.57228125,0.03289499878883362,0.015463000163435936,-0.007868999615311623
1757088376209834500,8.58183447265625,0.03047800064086914,0.00825200043618679,0.0013559999642893672
1757088376219387100,8.59138720703125,0.0352029986679554,0.005996000021696091,0.005520000122487545
1757088376228940300,8.600940185546875,0.037491001188755035,0.0017399999778717756,0.0049230000004172325
1757088376238493200,8.6104931640625,0.0469990000128746,0.004453000146895647,-0.000195999993593432
1757088376248046000,8.620046142578126,0.027806999161839485,0.009119999594986439,0.008685999549925327
1757088376257599000,8.629598876953125,0.03500499948859215,0.009192000143229961,-0.007772999815642834
1757088376267152000,8.63915185546875,0.032646000385284424,0.011377999559044838,-0.0028669999446719885
1757088376276704800,8.648704833984375,0.027891000732779503,0.013415000401437283,-0.0005789999850094318
1757088376286258000,8.6582578125,0.034977998584508896,0.0020580000709742308,0.003922999836504459
1757088376295810800,8.667810791015626,0.03730899840593338,0.004922000225633383,0.001398000051267445
1757088376305363700,8.67736376953125,0.03731900081038475,0.005381000228226185,-0.014511999674141407
1757088376314916600,8.68691650390625,0.03023800067603588,0.02381799928843975,-0.002303000073879957
1757088376324469500,8.696469482421875,0.02309899963438511,0.016307000070810318,0.0025679999962449074
1757088376334022400,8.7060224609375,0.023274000734090805,0.02728700079023838,-0.00865899957716465
1757088376343575300,8.7155751953125,0.013744999654591084,0.006192999891936779,-0.019307000562548637
1757088376353128200,8.725128173828125,0.00634999992325902,-0.01590700075030327,-0.0024399999529123306
1757088376362681000,8.73468115234375,0.01083299983292818,-0.03197300061583519,-0.018378999084234238
1757088376372234000,8.74423388671875,0.01771399937570095,-0.01988299936056137,-0.011234000325202942
1757088376381787000,8.753786865234375,0.02455900050699711,-0.031014999374747276,-0.027334000915288925
1757088376391340000,8.763340087890626,0.048211999237537384,-0.018880000337958336,-0.02229899913072586
1757088376400893000,8.772892822265625,0.0719040036201477,-0.011795000173151493,-0.019586000591516495
1757088376410445800,8.78244580078125,0.04576300084590912,0.039632998406887054,-0.02135699987411499
1757088376419998700,8.791998779296875,0.043602000921964645,0.03360399976372719,-0.02264700084924698
1757088376429551600,8.801551513671875,0.03922000154852867,0.059379998594522476,-0.009974000044167042
1757088376439104500,8.8111044921875,0.015647999942302704,0.0517130009829998,0.002343999920412898
1757088376448657700,8.82065771484375,0.006173999980092049,0.02658499963581562,0.016184000298380852
1757088376458210600,8.83021044921875,0.015692999586462975,0.014588000252842903,0.010583999566733837
1757088376467763200,8.83976318359375,0.034703001379966736,0.01943800039589405,0.01595200039446354
1757088376477316400,8.84931640625,0.05376899987459183,0.031153999269008636,0.004796000197529793
1757088376486869200,8.858869140625,0.05826200172305107,-0.000674000009894371,-0.0012229999992996454
1757088376496422100,8.868422119140625,0.057989999651908875,-0.0058650001883506775,-0.013577999547123909
1757088376505975000,8.87797509765625,0.07220099866390228,-0.0019749999046325684,-0.01807500049471855
1757088376515528000,8.88752783203125,0.05538700148463249,0.010250999592244625,0.0007590000168420374
1757088376525081000,8.8970810546875,0.050586998462677,0.012493999674916267,0.009971999563276768
1757088376534634000,8.906634033203124,0.017072999849915504,0.021051999181509018,0.032370999455451965
1757088376544187100,8.916187255859375,0.00008600000001024455,-0.004751000087708235,0.042190998792648315
1757088376553739800,8.92573974609375,-0.005121999885886908,-0.010607000440359116,0.06029500067234039
1757088376563292700,8.935292724609376,-0.007987000048160553,-0.024940000846982002,0.036416999995708466
1757088376572845600,8.944845458984375,0.008336000144481659,-0.020049000158905983,0.01787099987268448
1757088376582398500,8.9543984375,0.024734999984502792,-0.01308200042694807,0.007038999814540148
1757088376591951400,8.963951416015625,0.03398999944329262,-0.017736999318003654,-0.009882000274956226
1757088376601504300,8.973504150390625,0.04818199947476387,0.0025649999734014273,-0.0031369999051094055
1757088376611057400,8.983057373046876,0.04810300096869469,0.01255400013178587,0.003654999891296029
1757088376620610300,8.9926103515625,0.04569999873638153,0.026460999622941017,0.014787999913096428
1757088376630163200,9.0021630859375,0.036065999418497086,0.02154799923300743,0.01865600049495697
1757088376639716000,9.011716064453125,0.014301000162959099,0.00558000011369586,0.02906700037419796
1757088376649269200,9.021269287109375,0.0165180005133152,-0.0005259999888949096,0.00931399967521429
1757088376658822000,9.03082177734375,0.03538699820637703,-0.013047000393271446,0.013299999758601189
1757088376668375000,9.040375,0.03772500157356262,0.004308999981731176,-0.0032629999332129955
1757088376677928000,9.049927978515624,0.0496320016682148,0.00031800000579096377,-0.007656000088900328
1757088376687480800,9.059480712890625,0.04249599948525429,0.007685000076889992,-0.011543000116944313
1757088376697033700,9.06903369140625,0.035183001309633255,-0.01702599972486496,-0.008263999596238136
1757088376706586600,9.078586669921876,0.028119999915361404,0.002526999916881323,-0.02525399997830391
1757088376716139500,9.088139404296875,0.021306000649929047,0.02533400058746338,-0.03662500157952309
1757088376725692400,9.0976923828125,0.014535999856889248,0.03347700089216232,-0.03829000145196915
1757088376735245600,9.10724560546875,0.012378999963402748,0.023416999727487564,-0.028769999742507935
1757088376744798500,9.116798583984375,0.017340000718832016,0.009566999971866608,-0.04723300039768219
1757088376754351400,9.126351318359376,0.029417000710964203,0.014644999988377094,-0.03342600166797638
1757088376763904300,9.135904296875,0.043921999633312225,0.014918000437319279,-0.0455080009996891
1757088376773457200,9.14545703125,0.05111699923872948,0.015201999805867672,-0.018570000305771828
1757088376783010000,9.155010009765626,0.05354499816894531,0.013016000390052795,-0.01538699958473444
1757088376792563000,9.16456298828125,0.0511149987578392,-0.004987999796867371,-0.018696999177336693
1757088376802115800,9.17411572265625,0.03205699846148491,0.0049959998577833176,-0.01677500084042549
1757088376811668700,9.183668701171875,0.00368200009688735,0.0391790010035038,-0.01486200001090765
1757088376821221600,9.1932216796875,-0.0007590000168420374,0.03763899952173233,-0.019909000024199486
1757088376830774800,9.20277490234375,-0.0006680000224150717,0.02285899966955185,-0.005009000189602375
1757088376840327700,9.21232763671875,0.01586199924349785,0.00699200015515089,0.01971299946308136
1757088376849880600,9.221880615234374,0.027566000819206238,0.005762999877333641,0.013271000236272812
1757088376859433500,9.23143359375,0.06076199933886528,0.0071000000461936,0.013496999628841877
1757088376868986400,9.240986328125,0.07237400114536285,0.008314000442624092,0.022669000551104546
1757088376878539300,9.250539306640626,0.08657500147819519,0.020521000027656555,0.01128700003027916
1757088376888092200,9.260092041015625,0.06969299912452698,0.013501999899744987,0.014727000147104263
1757088376897645000,9.26964501953125,0.04333699867129326,0.013247000053524971,0.0188790000975132
1757088376907198200,9.2791982421875,0.02180200070142746,0.008320000022649765,0.02602499909698963
1757088376916751000,9.288751220703125,-0.01887200027704239,0.0014779999619349837,0.019737999886274338
1757088376926304000,9.298303955078126,-0.047513000667095184,0.013358999975025654,0.013585000298917294
1757088376935857000,9.30785693359375,-0.04292000085115433,-0.008731000125408173,0.01159599982202053
1757088376945409800,9.317409912109374,-0.029117999598383904,-0.03153400123119354,0.03381799906492233
1757088376954962700,9.326962646484375,0.003625999903306365,-0.05258199945092201,0.020204000174999237
1757088376964515600,9.336515625,0.05314699932932854,-0.05186399817466736,-0.0023590000346302986
1757088376974068500,9.346068359375,0.07673300057649612,0.005307000130414963,-0.0012199999764561653
1757088376983621600,9.35562158203125,0.10751699656248093,-0.0019580000080168247,-0.011544999666512012
1757088376993174500,9.365174560546874,0.11939600110054016,0.013412999920547009,-0.025490999221801758
1757088377002727400,9.3747275390625,0.1076119989156723,0.02727399952709675,-0.04060399904847145
1757088377012280300,9.3842802734375,0.08651699870824814,0.046629998832941055,-0.04540000110864639
1757088377021833200,9.393833251953126,0.07038400322198868,0.05992100015282631,-0.04521799832582474
1757088377031386000,9.40338623046875,0.04216400161385536,0.05193699896335602,-0.02211499959230423
1757088377040939300,9.412939208984374,0.013590999878942966,0.028510000556707382,0.02239999920129776
1757088377050492200,9.4224921875,-0.010227999649941921,0.026711000129580498,0.028286000713706017
1757088377060045000,9.432045166015625,-0.01485699974000454,0.03413999825716019,0.024493999779224396
1757088377069598000,9.441597900390626,-0.007296000141650438,0.036715999245643616,-0.029110999777913094
1757088377079150800,9.45115087890625,0.016736000776290894,0.016822999343276024,-0.0099870003759861
1757088377088703700,9.460703857421874,0.042966000735759735,0.016526000574231148,0.016858000308275223
1757088377098256600,9.470256591796876,0.05240200087428093,0.007395999971777201,0.006128000095486641
1757088377107809500,9.4798095703125,0.06191200017929077,0.01218200009316206,0.005237999837845564
1757088377117362700,9.48936279296875,0.04746599867939949,0.0006779999821446836,0.002549000084400177
1757088377126915800,9.498915771484375,0.01871499978005886,-0.0014619999565184116,0.0050929998978972435
1757088377136468500,9.508468505859375,-0.012419999577105045,-0.014774000272154808,-0.010116999968886375
1757088377146021400,9.518021484375,-0.031957998871803284,-0.06342300027608871,-0.006219000089913607
1757088377155574300,9.52757421875,-0.037321001291275024,-0.07525800168514252,0.006178999785333872
1757088377165127200,9.537127197265624,-0.03086400032043457,-0.07711999863386154,0.019650999456644058
1757088377174680000,9.54668017578125,-0.0005670000100508332,-0.07402700185775757,0.022495999932289124
1757088377184233000,9.55623291015625,0.022600000724196434,-0.06426399946212769,0.010959000326693058
1757088377193786000,9.5657861328125,0.060210999101400375,-0.05296500027179718,0.013340000063180923
1757088377203339000,9.575339111328125,0.09102600067853928,-0.024342000484466553,-0.020461000502109528
1757088377212892000,9.584891845703124,0.09094800055027008,-0.015874000266194344,-0.03373099863529205
1757088377222444800,9.59444482421875,0.07467599958181381,0.03241100162267685,-0.05218299850821495
1757088377231997700,9.603997802734375,0.03228500112891197,0.05496399849653244,-0.04197600111365318
1757088377241550600,9.613550537109376,0.018485000357031822,0.042389001697301865,-0.034630000591278076
1757088377251103500,9.623103515625,-0.0002530000056140125,0.0352570004761219,-0.023432999849319458
1757088377260656400,9.632656494140624,0.012001999653875828,0.03550000116229057,-0.008848999626934528
1757088377270209500,9.64220947265625,0.028943000361323357,0.0313429981470108,-0.00699299992993474
1757088377279762400,9.651762451171875,0.038816001266241074,0.05447399988770485,0.006000999826937914
1757088377289315300,9.6613154296875,0.051235999912023544,0.07840099930763245,0.02079400047659874
1757088377298868200,9.6708681640625,0.05880500003695488,0.07165999710559845,0.030771000310778618
1757088377308421000,9.680421142578124,0.04238799959421158,0.04950600117444992,0.008888999931514263
1757088377317974000,9.68997412109375,0.03312600031495094,0.04425299912691116,0.01564200036227703
1757088377327527000,9.69952685546875,0.009480999782681465,0.034641001373529434,0.010857000015676022
1757088377337079800,9.709079833984376,-0.011877999641001225,0.029927000403404236,0.0311489999294281
1757088377346633000,9.718633056640625,-0.011874999850988388,0.014406000263988972,0.03651599958539009
1757088377356185600,9.728185546875,-0.009637000039219856,0.004623999819159508,0.04133100062608719
1757088377365738500,9.737738525390625,0.01620200090110302,-0.02666500024497509,0.043184999376535416
1757088377375291600,9.747291748046875,0.025138000026345253,-0.05149700120091438,0.029072999954223633
1757088377384844500,9.756844482421876,0.024807000532746315,-0.03210999816656113,-0.00457199988886714
1757088377394397400,9.7663974609375,0.03177100047469139,-0.022933000698685646,-0.009042000398039818
1757088377403950300,9.775950439453124,0.03647800162434578,-0.0188790000975132,-0.028992999345064163
1757088377413503200,9.785503173828126,0.0219969991594553,-0.03097900003194809,-0.036361001431941986
1757088377423056100,9.79505615234375,0.03374899923801422,-0.024145999923348427,-0.011997999623417854
1757088377432609300,9.804609375,0.033507999032735825,-0.02663400024175644,-0.0209950003772974
1757088377442162200,9.814162109375,0.04783099889755249,-0.008422999642789364,-0.047940000891685486
1757088377451715000,9.823715087890625,0.0717030018568039,-0.004873000085353851,-0.04220699891448021
1757088377461267700,9.833267822265626,0.0718109980225563,0.011800000444054604,-0.04809299856424332
1757088377470820600,9.842820556640625,0.07673300057649612,0.013666000217199326,-0.03763600066304207
1757088377480373800,9.852373779296874,0.06272900104522705,0.02628999948501587,-0.047683000564575195
1757088377489926700,9.8619267578125,0.056063998490571976,0.051695000380277634,-0.031957000494003296
1757088377499479600,9.8714794921875,0.04457699880003929,0.055031999945640564,-0.012656999751925468
1757088377509032400,9.881032470703126,0.04265100136399269,0.0715010017156601,0.02116299979388714
1757088377518585600,9.890585693359375,0.0335410013794899,0.07332099974155426,0.025913000106811523
1757088377528138500,9.900138427734374,0.05045999959111214,0.0479389987885952,0.04818199947476387
1757088377537691400,9.90969140625,0.04092499986290932,0.025980999693274498,0.049056001007556915
1757088377547244300,9.919244384765625,0.028676999732851982,-0.024271000176668167,0.052698999643325806
1757088377556797200,9.928797119140626,0.018786000087857246,-0.03570599853992462,0.05666400119662285
1757088377566349800,9.938349853515625,-0.005427999887615442,-0.033100999891757965,0.06075400114059448
1757088377575902700,9.94790283203125,-0.0031530000269412994,-0.007926000282168388,0.06695300340652466
1757088377585455900,9.957455810546875,0.013441000133752823,-0.013193000108003616,0.05691400170326233
1757088377595008800,9.9670087890625,0.03229000046849251,-0.031366001814603806,0.044968001544475555
1757088377604561700,9.976561767578126,0.025009000673890114,-0.021466000005602837,0.017885999754071236
1757088377614114600,9.986114501953125,0.03706600144505501,-0.02333099953830242,-0.02092999964952469
1757088377623667700,9.995667724609374,0.022942999377846718,-0.016183000057935715,-0.03223999962210655
1757088377633220400,10.005220458984375,0.013670000247657299,-0.011443999595940113,-0.040421001613140106
1757088377642773500,10.0147734375,0.0066709998063743114,-0.020269999280571938,-0.03686700016260147
1757088377652326100,10.024326171875,-0.017328999936580658,-0.023934999480843544,0.00010299999848939478
1757088377661879000,10.033879150390625,-0.012772000394761562,-0.05435200035572052,-0.021950000897049904
1757088377671432200,10.04343212890625,0.006022999994456768,-0.058194998651742935,-0.004569000098854303
1757088377680984800,10.05298486328125,0.01777300052344799,-0.05980699881911278,-0.031137000769376755
1757088377690538000,10.0625380859375,0.053686000406742096,-0.029784999787807465,-0.03388800099492073
1757088377700091000,10.0720908203125,0.07556500285863876,0.01662600040435791,-0.03435000032186508
1757088377709643800,10.081643798828125,0.08804400265216827,0.04488300159573555,-0.027527999132871628
1757088377719197000,10.091197021484374,0.08145199716091156,0.053626999258995056,-0.027303000912070274
1757088377728749800,10.100749755859376,0.0723000019788742,0.03516000136733055,-0.026827000081539154
1757088377738302500,10.110302490234375,0.055883001536130905,0.01142599992454052,-0.06028800085186958
1757088377747855400,10.11985546875,0.03193400055170059,-0.021869000047445297,-0.051343999803066254
1757088377757408300,10.129408203125,0.0269009992480278,-0.034940000623464584,-0.029380999505519867
1757088377766961400,10.13896142578125,-0.002139999996870756,-0.02876400016248226,-0.015386000275611877
1757088377776514300,10.148514404296876,-0.03615200147032738,-0.060899000614881516,-0.04291899874806404
1757088377786067200,10.158067138671875,-0.07052899897098541,-0.10412199795246124,-0.06253200024366379
1757088377795620000,10.1676201171875,-0.04558499902486801,-0.18028700351715088,-0.11122799664735794
1757088377805173200,10.17717333984375,-0.035339001566171646,-0.2025970071554184,-0.10229700058698654
1757088377814726000,10.186725830078124,0.07220599800348282,-0.35436901450157166,-0.19809399545192719
1757088377824279000,10.196279052734376,0.06769800186157227,-0.22605000436306,-0.062111999839544296
1757088377833832000,10.20583203125,0.15862800180912018,0.009560000151395798,-0.12097799777984619
1757088377843384800,10.215384765625,0.11396200209856033,0.07458200305700302,-0.12238600105047226
1757088377852937500,10.2249375,0.10554400086402893,0.13290700316429138,-0.03353499993681908
1757088377862490600,10.23449072265625,0.09466300159692764,0.13166899979114532,-0.01932300068438053
1757088377872043500,10.24404345703125,0.057110998779535294,0.109995998442173,0.021172000095248222
1757088377881596700,10.2535966796875,0.026312999427318573,0.07338900119066238,0.05654900148510933
1757088377891149600,10.263149658203124,0.04804600030183792,0.07929500192403793,0.08426199853420258
1757088377900702500,10.272702392578125,0.05311200022697449,0.09337600320577621,0.08466199785470963
1757088377910255000,10.282255126953125,0.08955900371074677,0.13331499695777893,0.10531699657440186
1757088377919808300,10.291808349609376,0.09997300058603287,0.1769080013036728,0.13165000081062317
1757088377929361200,10.301361083984375,0.15654900670051575,0.25106900930404663,0.12032999843358994
1757088377938913800,10.310913818359374,0.15370599925518036,0.2832390069961548,0.1311420053243637
1757088377948467000,10.320467041015625,0.19224900007247925,0.3417719900608063,0.1107499971985817
1757088377958019800,10.330019775390625,0.18039999902248383,0.3237049877643585,0.14756600558757782
1757088377967573000,10.339572998046876,0.1556369960308075,0.22298599779605865,0.18927499651908875
1757088377977126000,10.3491259765625,0.18363499641418457,0.19230499863624573,0.04997500032186508
1757088377986678800,10.3586787109375,0.23011699318885803,0.1312279999256134,0.05160300061106682
1757088377996231700,10.368231689453125,0.25871598720550537,-0.008658000268042088,0.028697999194264412
1757088378005784600,10.37778466796875,0.2838349938392639,-0.11543799936771393,0.037654999643564224
1757088378015337200,10.387337158203126,0.35736799240112305,-0.0876230001449585,-0.02366800047457218
1757088378024890400,10.396890380859375,0.3392240107059479,-0.1961970031261444,0.03769399970769882
1757088378034443300,10.406443359375,0.3195649981498718,-0.156126007437706,0.005307000130414963
1757088378043996200,10.41599609375,0.15896600484848022,-0.2025890052318573,0.014546999707818031
1757088378053549300,10.42554931640625,0.014305000193417072,-0.12395299971103668,-0.06437300145626068
1757088378063102000,10.43510205078125,-0.3358300030231476,-0.11434099823236465,-0.0000470000013592653
1757088378072654800,10.44465478515625,-0.5245950222015381,-0.04376300051808357,-0.0850289985537529
1757088378082208000,10.4542080078125,-0.6254050135612488,-0.07880499958992004,-0.03085000067949295
1757088378091761000,10.463760986328126,-0.616457998752594,-0.04933900013566017,-0.012395000085234642
1757088378101313500,10.4733134765625,-0.541854977607727,-0.10265100002288818,0.0589510016143322
1757088378110866400,10.482866455078126,-0.2644299864768982,-0.07229500263929367,0.06016699969768524
1757088378120419600,10.492419677734375,-0.05179399996995926,-0.0745140016078949,-0.036614999175071716
1757088378129972500,10.501972412109374,0.13413900136947632,-0.10394600033760071,-0.06115400046110153
1757088378139525400,10.511525390625,0.2680180072784424,-0.07719899713993073,-0.1324329972267151
1757088378149078500,10.52107861328125,0.19133099913597107,-0.1314309984445572,-0.10352499783039093
1757088378158631400,10.53063134765625,0.08936800062656403,-0.11249300092458725,-0.12175499647855759
1757088378168184000,10.54018408203125,0.08928100019693375,0.03337299823760986,-0.09558200091123581
1757088378177737000,10.549737060546875,0.08481799811124802,0.11119599640369415,-0.0397769995033741
1757088378187290000,10.5592900390625,0.04724299907684326,0.17593100666999817,-0.05659399926662445
1757088378196843000,10.568843017578125,0.0310830008238554,0.19799600541591644,-0.04972099885344505
1757088378206395600,10.578395751953124,0.009158000349998474,0.19180700182914734,0.0642160028219223
1757088378215948800,10.58794873046875,-0.025926999747753143,0.15924300253391266,0.18370899558067322
1757088378225501700,10.597501708984375,-0.03998100012540817,0.1714410036802292,0.2250950038433075
1757088378235054600,10.6070546875,-0.008623000234365463,0.19828100502490997,0.2089190036058426
1757088378244607500,10.616607421875,0.034811001271009445,0.21081499755382538,0.18726199865341187
1757088378254160600,10.62616064453125,0.080594003200531,0.1976819932460785,0.19262400269508362
1757088378263713500,10.635713623046875,0.11646399646997452,0.1397559940814972,0.21660199761390686
1757088378273266200,10.64526611328125,0.16626499593257904,0.05315199866890907,0.24270300567150116
1757088378282819300,10.6548193359375,0.1987369954586029,-0.039893001317977905,0.29875698685646057
1757088378292372000,10.6643720703125,0.17564399540424347,-0.09441100060939789,0.3806999921798706
1757088378301925000,10.673925048828124,0.10735700279474258,-0.029047999531030655,0.4166580140590668
1757088378311478000,10.68347802734375,0.006380999926477671,-0.024078000336885452,0.29825401306152344
1757088378321031000,10.693031005859375,-0.07744400203227997,-0.06654500216245651,0.20081600546836853
1757088378330583800,10.702583740234376,-0.15125499665737152,-0.11505500227212906,0.0676959976553917
1757088378340137000,10.712136962890625,-0.198184996843338,-0.146574005484581,-0.07653500139713287
1757088378349689900,10.72168994140625,-0.23510999977588654,-0.1599079966545105,-0.19307999312877655
1757088378359242500,10.731242431640625,-0.23794999718666077,-0.09939300268888474,-0.2837730050086975
1757088378368795400,10.74079541015625,-0.21880300343036652,-0.07086499780416489,-0.3909980058670044
1757088378378348300,10.750348388671876,-0.18008999526500702,-0.004708999767899513,-0.45692598819732666
1757088378387901400,10.7599013671875,-0.13608700037002563,0.0649000033736229,-0.5021899938583374
1757088378397454300,10.769454345703124,-0.11306600272655487,0.16655400395393372,-0.5253999829292297
1757088378407007200,10.77900732421875,-0.06286700069904327,0.39400699734687805,-0.5077990293502808
1757088378416560400,10.788560302734375,-0.019706999883055687,0.5374190211296082,-0.4380199909210205
1757088378426113000,10.798113037109376,0.05877299979329109,0.5412729978561401,-0.34305599331855774
1757088378435666000,10.807666015625,0.16495299339294434,0.43856799602508545,-0.22631700336933136
1757088378445218800,10.81721875,0.2960759997367859,0.28523001074790955,-0.05806799978017807
1757088378454772000,10.82677197265625,0.29921698570251465,0.09459800273180008,-0.015122000128030777
1757088378464324600,10.83632470703125,0.28040701150894165,-0.011858000420033932,-0.1036830022931099
1757088378473877800,10.845877685546874,0.233024001121521,-0.056189000606536865,-0.21176399290561676
1757088378483430700,10.8554306640625,0.12887799739837646,0.004978999961167574,-0.3536379933357239
1757088378492983600,10.864983642578125,-0.020394999533891678,0.08387099951505661,-0.39836999773979187
1757088378502536400,10.874536376953126,-0.21601000428199768,-0.024379000067710876,-0.24680499732494354
1757088378512089600,10.884089599609375,-0.40634000301361084,0.024981999769806862,-0.3365820050239563
1757088378521642200,10.893642333984374,-0.41907501220703125,0.06882700324058533,-0.4584619998931885
1757088378531195100,10.903195068359375,-0.22471100091934204,-0.06657499819993973,-0.2486650049686432
1757088378540748300,10.912748291015625,0.11902599781751633,-0.18528899550437927,0.00472299987450242
1757088378550301000,10.922301025390626,0.3204840123653412,-0.23005199432373047,0.15250100195407867
1757088378559854000,10.93185400390625,0.4215080142021179,-0.14036400616168976,0.012195000424981117
1757088378569407000,10.941406982421874,0.3750450015068054,0.048253998160362244,-0.1532900035381317
1757088378578960100,10.950960205078125,0.3969460129737854,-0.0628499984741211,0.09119299799203873
1757088378588512800,10.9605126953125,0.22775200009346008,-0.12463700026273727,-0.18302300572395325
1757088378598065700,10.970065673828126,0.062153998762369156,0.06889999657869339,-0.07393699884414673
1757088378607618600,10.97961865234375,-0.01636200025677681,-0.09897399693727493,0.5051630139350891
1757088378617171700,10.989171630859374,-0.05992399901151657,-0.21411900222301483,0.8146820068359375
1757088378626724600,10.998724609375,0.018466999754309654,-0.14747999608516693,0.912784993648529
1757088378636277200,11.00827734375,0.035558998584747314,-0.034869998693466187,0.6211439967155457
1757088378645830400,11.017830322265626,0.03374499827623367,-0.3757629990577698,0.6119120121002197
1757088378655383300,11.02738330078125,-0.018873000517487526,-0.5374259948730469,0.27821600437164307
1757088378664936200,11.036936279296874,-0.10882300138473511,-0.8226879835128784,0.04857899993658066
1757088378674489300,11.0464892578125,-0.20931200683116913,-0.5810229778289795,0.02253899909555912
1757088378684042200,11.056042236328125,-0.12487400323152542,-0.15612900257110596,-0.0721530020236969
1757088378693595000,11.065594970703126,0.10495200008153915,-0.03309100121259689,-0.3820509910583496
1757088378703147800,11.075147705078125,0.3590430021286011,0.0481950007379055,-0.3161720037460327
1757088378712701000,11.084700927734374,0.4545480012893677,0.018969999626278877,-0.23447400331497192
1757088378722253600,11.094253662109375,0.43011099100112915,0.06669200211763382,-0.05584799870848656
1757088378731806700,11.103806640625,0.2689729928970337,0.07811400294303894,0.05965299904346466
1757088378741359400,11.113359375,0.10513000190258026,0.07283300161361694,0.19082699716091156
1757088378750912500,11.12291259765625,0.03730899840593338,0.17684000730514526,0.30469000339508057
1757088378760465400,11.13246533203125,-0.07656800001859665,0.0054709999822080135,0.09638699889183044
1757088378770018000,11.14201806640625,-0.13399900496006012,-0.13561999797821045,0.250791996717453
1757088378779571200,11.1515712890625,-0.015685999765992165,-0.3271920084953308,0.27768799662590027
1757088378789124000,11.1611240234375,0.07446999847888947,-0.2980780005455017,0.10110499709844589
1757088378798677000,11.170677001953125,0.059978000819683075,-0.1873130053281784,0.13989600539207458
1757088378808230100,11.180230224609375,0.055716000497341156,-0.08500900119543076,0.15291699767112732
1757088378817782800,11.18978271484375,0.049598000943660736,-0.013509999960660934,0.13967099785804749
1757088378827336000,11.1993359375,0.007584000006318092,-0.06187700107693672,0.04441500082612038
1757088378836888600,11.208888671875,-0.04873000085353851,-0.09923999756574631,-0.031252000480890274
1757088378846441500,11.21844140625,-0.11637499928474426,-0.07535400241613388,-0.08861000090837479
1757088378855994600,11.22799462890625,-0.07092200219631195,-0.035631000995635986,-0.1311350017786026
1757088378865547500,11.237547607421876,0.017851000651717186,0.005890000145882368,-0.06934899836778641
1757088378875100400,11.247100341796875,0.10182700306177139,0.03843500092625618,0.014116999693214893
1757088378884653300,11.2566533203125,0.12815700471401215,0.0328110009431839,0.08239399641752243
1757088378894206500,11.26620654296875,0.08509500324726105,0.027659999206662178,0.05237499997019768
1757088378903759000,11.275759033203125,0.03662300109863281,-0.005960999988019466,0.2195570021867752
1757088378913312300,11.285312255859376,0.06378699839115143,-0.1127609983086586,0.2637070119380951
1757088378922865200,11.294865234375,0.021771999076008797,-0.23846900463104248,-0.2574940025806427
1757088378932418000,11.30441796875,-0.24948200583457947,0.24842600524425507,0.09726200252771378
1757088378941971000,11.313970947265625,-0.08162400126457214,0.33358699083328247,0.021734999492764473
1757088378951523800,11.32352392578125,0.036378998309373856,0.17415599524974823,0.3056269884109497
1757088378961076700,11.33307666015625,0.1301790028810501,-0.0723709985613823,-0.22731299698352814
1757088378970629600,11.342629638671875,0.07607299834489822,-0.07199700176715851,-0.46101000905036926
1757088378980182500,11.3521826171875,-0.0656839981675148,0.08956599980592728,-0.4737490117549896
1757088378989735400,11.3617353515625,-0.013419000431895256,0.18705399334430695,-0.3112429976463318
1757088378999288300,11.371288330078125,0.08552300184965134,0.40938499569892883,-0.07921700179576874
1757088379008841200,11.38084130859375,0.271463006734848,0.27810901403427124,0.19081300497055054
1757088379018394400,11.390394287109375,0.28214800357818604,0.14613200724124908,0.11611499637365341
1757088379027947300,11.399947265625,0.22815699875354767,0.11250299960374832,0.08079099655151367
1757088379037500200,11.409500244140625,0.05663599818944931,0.04718500003218651,0.034393999725580215
1757088379047053000,11.419052978515625,0.01659199967980385,0.03888300061225891,0.12683600187301636
1757088379056606200,11.428606201171876,0.03698299825191498,0.0874750018119812,0.04671400040388107
1757088379066159000,11.4381591796875,-0.0024470000062137842,0.07931400090456009,-0.03339900076389313
1757088379075711700,11.447711669921874,-0.006043999921530485,0.06606999784708023,-0.1295190006494522
1757088379085265000,11.457264892578126,-0.008309000171720982,-0.12195400148630142,-0.18167300522327423
1757088379094817800,11.46681787109375,-0.10552799701690674,-0.26060301065444946,-0.13701599836349487
1757088379104370700,11.47637060546875,-0.18568700551986694,-0.2624250054359436,-0.2024489939212799
1757088379113923800,11.485923828125,-0.13704299926757812,-0.19613100588321686,-0.014138000085949898
1757088379123476500,11.4954765625,-0.10260599851608276,-0.09883999824523926,0.030389999970793724
1757088379133029400,11.505029296875,-0.11467199772596359,-0.2395170032978058,-0.028782999143004417
1757088379142582300,11.514582275390625,-0.10219699889421463,-0.1083109974861145,-0.08687099814414978
1757088379152135400,11.524135498046874,-0.010598000138998032,-0.013194000348448753,-0.02507999911904335
1757088379161688000,11.53368798828125,0.014778000302612782,0.18257500231266022,0.034203000366687775
1757088379171241200,11.5432412109375,0.07192300260066986,0.1707330048084259,-0.09174499660730362
1757088379180794000,11.552794189453126,0.07942900061607361,0.08159100264310837,-0.25705599784851074
1757088379190347000,11.562346923828125,0.15467600524425507,0.30164799094200134,-0.0009679999784566462
1757088379199900000,11.57189990234375,0.23828400671482086,0.16081400215625763,-0.0738999992609024
1757088379209452800,11.581452880859375,0.16946299374103546,0.07663100212812424,-0.4397999942302704
1757088379219005700,11.591005615234375,0.03824999928474426,0.12550200521945953,-0.3937149941921234
1757088379228558600,11.60055859375,-0.16791099309921265,0.022577999159693718,-0.2972570061683655
1757088379238111500,11.610111572265625,-0.20773400366306305,-0.6096109747886658,0.03754299879074097
1757088379247664400,11.619664306640624,0.2407270073890686,0.12719599902629852,0.07823599874973297
1757088379257217500,11.629217529296875,0.013275000266730785,0.16486500203609467,-0.39083200693130493
1757088379266770400,11.6387705078125,-0.1858309954404831,0.2658649981021881,-0.17902599275112152
1757088379276323300,11.6483232421875,-0.12128400057554245,0.1083730012178421,-0.02824299968779087
1757088379285876200,11.657876220703125,0.046803999692201614,-0.15208899974822998,0.021530000492930412
1757088379295429000,11.66742919921875,0.05975800007581711,-0.1532139927148819,0.051353998482227325
1757088379304982000,11.67698193359375,-0.04728100076317787,-0.11195500195026398,0.18282899260520935
1757088379314535000,11.686534912109375,0.13885900378227234,0.14611700177192688,0.1634259968996048
1757088379324088000,11.696088134765626,0.14593100547790527,0.07891900092363358,0.02838899940252304
1757088379333640700,11.705640625,0.08718399703502655,-0.11627800017595291,0.06608500331640244
1757088379343193900,11.71519384765625,0.007782999891787767,-0.30335700511932373,0.17792199552059174
1757088379352746500,11.72474658203125,-0.0360260009765625,-0.4425170123577118,0.21286900341510773
1757088379362299600,11.734299560546875,-0.00633700005710125,-0.5811759829521179,0.31293800473213196
1757088379371852300,11.743852294921876,1.1379499435424805,0.20020200312137604,1.2952690124511719
1757088379381405400,11.753405517578125,-1.1369110345840454,0.9477409720420837,-0.01829800009727478
1757088379390958300,11.762958251953124,-0.7926689982414246,0.38108399510383606,-0.4085640013217926
1757088379400511200,11.77251123046875,-0.11719600111246109,0.711558997631073,0.3499319851398468
