time,seconds_elapsed,gyro_x,gyro_y,gyro_z,acc_x,acc_y,acc_z,grav_x,grav_y,grav_z
1757088367726812200,0.098812255859375,1.1262625455856323,-2.690187454223633,0.0302499998360872,-0.5373600125312805,0.4547249972820282,10.002326965332031,6.336101055145264,-5.361751079559326,-5.22262716293335
1757088367736364800,0.10836474609375,1.2374999523162842,-2.984575033187866,0.0351999998092651,-0.5755119919776917,0.3857420086860657,9.607329368591309,6.353090763092041,-5.366803169250488,-5.194736003875732
1757088367745917700,0.117917724609375,1.369362473487854,-3.2619125843048096,0.0877249985933303,-0.564719021320343,0.1248370036482811,9.059715270996094,6.385225772857666,-5.375807762145996,-5.138267993927002
1757088367755470600,0.127470703125,1.5283124446868896,-3.531825065612793,0.2012999951839447,-0.5734109878540039,-0.1543720066547393,8.456342697143555,6.430603981018066,-5.3876118659973145,-5.052947998046875
1757088367765023700,0.137023681640625,1.7066500186920166,-3.8788750171661377,0.3858250081539154,-0.7759829759597778,-0.5726410150527954,7.882452964782715,6.487188816070557,-5.401487827301025,-4.9384541511535645
1757088367774576600,0.14657666015625,1.906987547874451,-4.275974750518799,0.5788750052452087,-1.6850919723510742,-1.078611969947815,6.908061027526856,6.551878929138184,-5.4180779457092285,-4.794994831085205
1757088367784129500,0.156129638671875,2.1781375408172607,-4.900225162506104,0.6851624846458435,-2.295670986175537,-1.7111170291900637,6.139339923858643,6.621717929840088,-5.438239097595215,-4.622436046600342
1757088367793682400,0.165682373046875,2.4116125106811523,-5.534237384796143,0.8317375183105469,-1.7545230388641355,-1.968682050704956,6.1508002281188965,6.698139190673828,-5.453423023223877,-4.435845851898193
1757088367803235300,0.1752353515625,2.639999866485596,-5.891049861907959,1.103024959564209,-1.5608969926834106,-1.954321026802063,5.884143829345703,6.78127908706665,-5.462740898132324,-4.234006881713867
1757088367812788200,0.184788330078125,2.9063374996185303,-6.178150177001953,1.3851749897003174,-1.9476449489593504,-2.46058988571167,5.802114963531494,6.871068000793457,-5.465301036834717,-4.015974998474121
1757088367822341000,0.194341064453125,3.138437509536743,-6.429774761199951,1.656462550163269,-2.227742910385132,-2.9222218990325928,6.165081977844238,6.967199802398682,-5.460342884063721,-3.7807769775390634
1757088367831894300,0.203894287109375,3.243487596511841,-6.763350009918213,1.964324951171875,-2.1331748962402344,-3.213038921356201,7.224719047546387,7.069256782531738,-5.447068214416504,-3.526731014251709
1757088367841447200,0.213447265625,3.2362000942230225,-6.93797492980957,2.311237573623657,-2.05530309677124,-3.157883882522583,7.723309993743896,7.176640033721924,-5.424580097198486,-3.2524819374084477
1757088367851000300,0.223000244140625,3.2777249813079834,-6.846399784088135,2.693624973297119,-2.462238073348999,-3.223931074142456,7.976806163787842,7.2886857986450195,-5.391846179962158,-2.957866907119751
1757088367860553200,0.23255322265625,3.2484374046325684,-6.698587417602539,3.0064375400543213,-3.5080199241638184,-3.312546968460083,8.059001922607422,7.40453577041626,-5.348097801208496,-2.6428210735321045
1757088367870106000,0.242106201171875,3.1824374198913574,-6.476250171661377,3.2103500366210938,-4.348254203796387,-3.3985860347747803,8.445023536682129,7.523131847381592,-5.292984008789063,-2.307569980621338
1757088367879659000,0.251658935546875,3.0993874073028564,-6.04010009765625,3.338637590408325,-5.0375800132751465,-3.4860999584198,8.851987838745117,7.643511772155762,-5.226431846618652,-1.953281044960022
1757088367889212000,0.2612119140625,2.9735748767852783,-5.442662239074707,3.404637575149536,-5.983369827270508,-3.636409997940064,8.833707809448242,7.764973163604736,-5.148532867431641,-1.5817970037460327
1757088367898764800,0.270764892578125,2.862337589263916,-4.9845123291015625,3.3680624961853027,-6.988046169281006,-3.5545670986175537,8.02400016784668,7.886745929718018,-5.059762001037598,-1.1944890022277832
1757088367908317700,0.280317626953125,2.837862491607666,-4.614362239837647,3.3105874061584477,-7.804186820983887,-3.3309059143066406,6.259475231170654,8.008145332336426,-4.960744857788086,-0.7925789952278137
1757088367917870800,0.289870849609375,2.947862386703491,-4.44578742980957,3.212825059890747,-7.932441234588623,-2.729779005050659,4.59299898147583,8.116802215576172,-4.8649678230285645,-0.3590610027313232
1757088367927423700,0.299423828125,3.052912473678589,-4.294262409210205,3.1884875297546387,-7.38785982131958,-2.245171070098877,4.722686767578125,8.194168090820312,-4.766462802886963,0.0763529986143112
1757088367946529500,0.318529541015625,3.0041000843048096,-3.90939998626709,3.391162395477295,-7.8767290115356445,-2.214376926422119,5.783994197845459,8.296992301940918,-4.538332939147949,0.8937309980392456
1757088367956082400,0.32808251953125,2.9063374996185303,-3.69682502746582,3.3961124420166016,-9.210967063903809,-2.3089020252227783,6.337903022766113,8.326196670532227,-4.410577774047852,1.2739559412002563
1757088367965635600,0.337635498046875,2.7230498790740967,-3.349912405014038,3.2397749423980717,-10.64857292175293,-2.4165871143341064,7.383265972137451,8.344358444213867,-4.273886203765869,1.6341190338134766
1757088367975188500,0.3471884765625,2.46771240234375,-2.802525043487549,2.9342498779296875,-11.939053535461426,-2.425733089447021,8.018991470336914,8.354851722717285,-4.128256797790527,1.9724249839782717
1757088367984741600,0.35674169921875,2.198899984359741,-2.1782748699188232,2.521337509155273,-12.744492530822754,-2.371696949005127,8.09270191192627,8.356897354125977,-3.98336410522461,2.3019919395446777
1757088367994294500,0.36629443359375,1.9375125169754028,-1.6418875455856323,2.1034750938415527,-12.800298690795898,-2.3178958892822266,8.005175590515137,8.350940704345703,-3.841161012649536,2.619968891143799
1757088368003847400,0.375847412109375,1.6736500263214111,-1.2094500064849854,1.7540874481201172,-12.325446128845217,-2.050663948059082,7.365678787231445,8.337580680847168,-3.7032759189605713,2.924158096313477
1757088368013400300,0.385400390625,1.456125020980835,-0.9321125149726868,1.5159374475479126,-11.397550582885742,-1.8258570432662964,6.566166877746582,8.317453384399414,-3.5708611011505127,3.2128469944000244
1757088368022953200,0.394953125,1.281499981880188,-0.7793499827384949,1.4218875169754028,-10.507660865783691,-1.6573439836502075,6.048605918884277,8.29119873046875,-3.4446520805358887,3.4840259552001958
1757088368032506400,0.40450634765625,1.0957374572753906,-0.5887749791145325,1.3974125385284424,-10.538246154785156,-1.3476699590682983,5.750961780548096,8.259833335876465,-3.3251841068267822,3.735877990722656
1757088368042059300,0.414059326171875,0.91863751411438,-0.3614875078201294,1.3228875398635864,-11.33441162109375,-0.7325040102005005,5.159110069274902,8.224465370178223,-3.213319063186645,3.9676260948181152
1757088368051612200,0.423612060546875,0.7523999810218811,-0.1148125007748603,1.1505999565124512,-12.385024070739746,-0.414694994688034,4.552717208862305,8.186345100402832,-3.110044002532959,4.178494930267334
1757088368061165300,0.433165283203125,0.582587480545044,0.032999999821186,0.8867374658584595,-13.22110366821289,-0.3133299946784973,4.144796848297119,8.146580696105957,-3.016258955001831,4.36836576461792
1757088368070718200,0.44271826171875,0.4127750098705292,0.111237496137619,0.5886374711990356,-12.659289360046388,0.4172100126743316,3.1019439697265625,8.089154243469238,-2.9373979568481445,4.560097217559815
1757088368080271000,0.45227099609375,0.2809124886989593,0.1319999992847442,0.405349999666214,-11.500732421875,1.1710070371627808,2.435170888900757,8.014019012451172,-2.871419906616211,4.754922866821289
1757088368089824000,0.461823974609375,0.1086250022053718,0.0892374962568283,0.2880625128746032,-10.766912460327148,0.8294140100479126,2.294240951538086,7.921034812927246,-2.8181490898132324,4.95294189453125
1757088368099377000,0.471376953125,-0.0147124994546175,-0.0793375000357627,0.1817750036716461,-10.081375122070312,0.6101549863815308,1.430109977722168,7.809591770172119,-2.777569055557251,5.154425144195557
1757088368108930000,0.480929931640625,-0.112475000321865,-0.1575749963521957,0.0706750005483627,-9.554884910583496,-0.0431899987161159,0.8781390190124512,7.710423946380615,-2.73316502571106,5.324964046478272
1757088368118483000,0.49048291015625,-0.1662375032901764,-0.2454375028610229,-0.0087999999523162,-8.922487258911133,-0.7861130237579346,0.3696939945220947,7.624701976776123,-2.685925006866455,5.4667158126831055
1757088368128035800,0.500035888671875,-0.1955250054597854,-0.2161500006914138,-0.1053249984979629,-9.546625137329102,-1.7069690227508545,0.1090219989418983,7.540877819061279,-2.6451210975646973,5.598371982574463
1757088368137588700,0.509588623046875,-0.190712496638298,0.2712875008583069,-0.6452875137329102,-15.565576553344728,-2.828758955001831,-0.9155330061912536,7.45999002456665,-2.612607002258301,5.718939781188965
1757088368147142000,0.519141845703125,-0.1088999956846237,0.847962498664856,-1.5445375442504885,-16.597763061523438,-2.6465818881988525,-1.2893710136413574,7.382914066314697,-2.5912930965423584,5.827115058898926
1757088368156694800,0.52869482421875,-0.084425002336502,1.1045374870300293,-1.9072624444961548,-10.100428581237791,-1.637776017189026,-0.154896005988121,7.309896945953369,-2.581868886947632,5.923054218292236
1757088368166247700,0.53824755859375,-0.2089999914169311,0.9677249789237976,-1.6153500080108645,-3.904805898666382,-2.352569103240967,0.8933119773864746,7.230935096740723,-2.590675115585327,6.014290809631348
1757088368175800600,0.547800537109375,-0.3740000128746032,0.6316750049591064,-1.0240999460220337,-2.527376890182495,-4.253946781158447,0.3701739907264709,7.154401779174805,-2.6056220531463623,6.098856925964356
1757088368185353500,0.557353515625,-0.3422375023365021,0.1699499934911728,-0.5682874917984009,-4.438467025756836,-6.189286231994629,-2.762136936187744,7.071270942687988,-2.644059896469116,6.177279949188232
1757088368194906600,0.56690673828125,-0.0648999959230423,-0.0463375002145767,-0.5304750204086304,-9.098645210266112,-7.620131969451904,-5.60188102722168,6.987865924835205,-2.6863009929656982,6.253542900085449
1757088368204459500,0.57645947265625,0.3944875001907348,-0.2088624984025955,-0.5915250182151794,-7.3940229415893555,-2.4479799270629883,-6.36707878112793,6.903213977813721,-2.7336080074310303,6.328090190887451
1757088368214012700,0.5860126953125,0.6485875248908997,-0.4592500030994415,-0.4169000089168548,-7.490461826324463,-4.756123065948486,-3.685203075408936,6.8032331466674805,-2.807563066482544,6.401288032531738
1757088368223565600,0.595565673828125,0.699874997138977,-0.7647749781608582,-0.182325005531311,-3.844986915588379,-5.907546043395996,-0.9590200185775756,6.700218200683594,-2.88675594329834,6.474372863769531
1757088368233118500,0.605118408203125,0.8551124930381775,-1.1116875410079956,0.1707749962806701,-5.549156188964844,-1.7218849658966064,-3.9123148918151855,6.593279838562012,-2.970887899398804,6.548569202423096
1757088368242671400,0.61467138671875,1.103024959564209,-1.41349995136261,-0.0307999998331069,-9.483231544494627,-2.1776440143585205,-2.9273500442504883,6.480632781982422,-3.061115026473999,6.624843120574951
1757088368252224300,0.624224365234375,1.1910250186920166,-1.3292125463485718,-0.0332750007510185,-5.370895862579346,-4.370207786560059,-1.1424039602279663,6.350177764892578,-3.1718029975891118,6.703286170959473
1757088368261777400,0.63377734375,1.2044999599456787,-1.1434500217437744,0.1219625025987625,-4.214453220367432,-3.931191921234131,-0.2272309958934784,6.23213005065918,-3.282639980316162,6.761044979095459
1757088368271330300,0.643330322265625,1.2960749864578247,-0.9088749885559082,0.0314874984323978,-5.401457786560059,-4.020377159118652,0.149846002459526,6.127808094024658,-3.3961009979248047,6.797855854034424
1757088368280883200,0.65288330078125,1.3510749340057373,-0.4422000050544739,-0.1590874940156936,-5.401269912719727,-4.5015411376953125,1.1477429866790771,6.039216995239258,-3.512518882751465,6.813639163970947
1757088368290436000,0.66243603515625,1.3963124752044678,0.2382874935865402,-0.4364250004291534,-5.729019165039063,-4.473739147186279,1.8713239431381223,5.969206809997559,-3.632072925567627,6.807500839233398
1757088368299989200,0.6719892578125,1.3217874765396118,0.7721999883651733,-0.7002875208854675,-4.238645076751709,-2.4755730628967285,1.862516045570373,5.900444030761719,-3.7581429481506343,6.795633792877197
1757088368309542100,0.681542236328125,1.2887874841690063,0.825962483882904,-0.8786249756813049,-2.616811037063598,-2.217345952987671,1.310459017753601,5.8329691886901855,-3.890933036804199,6.777565956115723
1757088368319095000,0.691094970703125,1.3510749340057373,1.01048743724823,-0.8810999989509583,-3.6170530319213863,-2.882344007492065,0.0900759994983673,5.757602214813232,-4.039031028747559,6.753014087677002
1757088368328648000,0.70064794921875,1.6686999797821045,0.708674967288971,-1.0069124698638916,-5.014012813568115,-3.672555923461914,-1.6376219987869265,5.669495105743408,-4.205982208251953,6.720521926879883
1757088368338200800,0.710200927734375,2.029087543487549,0.201712504029274,-1.1584374904632568,-4.684438228607178,-2.890598058700561,-2.050060987472534,5.566094875335693,-4.389035224914551,6.680861949920654
1757088368347754000,0.71975390625,2.355375051498413,-0.0340999998152256,-1.1339625120162964,-3.89476490020752,-1.4730650186538696,-2.2520480155944824,5.458008766174316,-4.575526237487793,6.637393951416016
1757088368357307100,0.72930712890625,2.6619999408721924,-0.1258125007152557,-1.026437520980835,-3.84942889213562,-0.7462790012359619,-2.3313329219818115,5.354800224304199,-4.758674144744873,6.583259105682373
1757088368366860000,0.738860107421875,2.8843374252319336,-0.2246749997138977,-0.9714375138282776,-5.241996765136719,-0.6780080199241638,-2.1079230308532715,5.247271060943604,-4.949682235717773,6.521606922149658
1757088368376413000,0.748412841796875,2.996812582015991,-0.3163875043392181,-0.9068124890327454,-5.78511381149292,-0.6935989856719971,-1.9015100002288816,5.143772125244141,-5.130011081695557,6.4530768394470215
1757088368385965800,0.7579658203125,3.1176750659942627,-0.5044875144958496,-0.8151000142097473,-6.345500946044922,-0.2243960052728653,-2.72999906539917,5.037240028381348,-5.3184309005737305,6.374607086181641
1757088368395518700,0.767518798828125,3.298487424850464,-0.742775022983551,-0.6710000038146973,-6.259906768798828,0.2223220020532608,-3.613600015640259,4.928219795227051,-5.513120174407959,6.28601598739624
1757088368405071600,0.777071533203125,3.6015374660491943,-1.188687443733215,-0.5915250182151794,-6.212265968322754,0.9435219764709472,-4.887791156768799,4.829832077026367,-5.692753791809082,6.186686038970947
1757088368414624800,0.786624755859375,4.109737396240234,-1.743362545967102,-0.6087124943733215,-5.603929996490479,1.4232230186462402,-5.514091968536377,4.728151798248291,-5.879840850830078,6.074570178985596
1757088368424177700,0.796177734375,4.478650093078613,-1.6981250047683716,-0.5242875218391418,-4.928017139434815,1.2556270360946655,-4.673779010772705,4.624189853668213,-6.074925899505615,5.947079181671143
1757088368433730600,0.80573046875,4.435887336730957,-0.8098750114440918,-0.3227125108242035,-4.732464790344238,2.5219149589538574,-1.7444419860839844,4.52204704284668,-6.275547027587891,5.802097797393799
1757088368443283700,0.81528369140625,3.915450096130371,0.6829624772071838,-0.1370874941349029,-4.80833101272583,3.466754913330078,0.2084619998931884,4.437294006347656,-6.464838027954102,5.6390228271484375
1757088368452836600,0.824836669921875,3.162912368774414,1.3048750162124634,-0.2286625057458877,-6.312406063079834,3.7293601036071777,1.1311019659042358,4.357232093811035,-6.656083106994629,5.460730075836182
1757088368462389500,0.834389404296875,2.2001373767852783,0.9590625166893004,-0.6245250105857849,-6.853260040283203,4.074010848999023,1.087581992149353,4.278983116149902,-6.847590923309326,5.272459983825684
1757088368471942400,0.8439423828125,1.5771249532699585,0.6096749901771545,-0.6330500245094299,-4.407566070556641,4.184027194976807,-0.5214599967002869,4.200805187225342,-7.037652015686035,5.078661918640137
1757088368481495600,0.85349560546875,1.3107874393463137,0.5021499991416931,-0.0625625029206276,-1.8518279790878296,4.212411880493164,-1.7820149660110474,4.123308181762695,-7.2240309715271,4.88243293762207
1757088368491048400,0.86304833984375,1.2057374715805054,0.3420999944210052,0.857450008392334,0.5054190158843994,4.252608776092529,-2.409914970397949,4.049036026000977,-7.404572010040283,4.685673236846924
1757088368500601300,0.872601318359375,1.194737434387207,0.079475000500679,1.5049375295639038,-0.9597520232200624,4.468507766723633,-2.863508939743042,3.980669021606445,-7.577729225158691,4.489019870758057
1757088368510154200,0.882154296875,1.4220249652862549,-0.1819124966859817,1.7028000354766846,-2.5638060569763184,4.454430103302002,-4.134185791015625,3.927886962890625,-7.734468936920166,4.292366027832031
1757088368519707100,0.89170703125,1.6028374433517456,-0.2063875049352646,1.5989874601364136,-3.5719149112701416,5.198939800262451,-3.351548910140991,3.894089937210083,-7.86978006362915,4.098050117492676
1757088368529260300,0.90126025390625,1.9032750129699707,-0.0145749999210238,1.3729374408721924,-3.3612749576568604,4.34830379486084,-4.727948188781738,3.880367994308472,-7.98391580581665,3.9056029319763184
1757088368538813200,0.910813232421875,2.3101375102996826,0.1930499970912933,1.0687874555587769,-4.609415054321289,3.970810890197754,-4.745799064636231,3.874798059463501,-8.08910846710205,3.710413932800293
1757088368548366000,0.920365966796875,2.694999933242798,0.0562375001609325,0.6949250102043152,-5.515194892883301,2.8726959228515625,-4.3181891441345215,3.875722885131836,-8.185776710510254,3.5121469497680664
1757088368567472000,0.93947216796875,3.078624963760376,-1.31573748588562,0.5079249739646912,-0.9681839942932128,-14.69433879852295,-0.8870559930801392,3.892025947570801,-8.354384422302246,3.110390901565552
1757088368577025000,0.94902490234375,3.966737508773804,-1.8386499881744385,0.3467749953269958,-4.904566764831543,-36.70193862915039,-7.704522132873535,3.9071319103240967,-8.426544189453125,2.906238079071045
1757088368586578000,0.958577880859375,5.241087436676025,-1.7494125366210938,0.0510125011205673,-2.7004120349884038,-35.13801193237305,-8.633087158203125,3.925847053527832,-8.491593360900879,2.694036960601806
1757088368596131000,0.968131103515625,5.815287590026856,-2.504425048828125,0.2770625054836273,-2.684377908706665,-30.6159610748291,-3.921688079833984,3.9499740600585938,-8.548078536987305,2.47346305847168
1757088368605684000,0.97768408203125,5.671050071716309,-3.680875062942505,0.3235374987125397,-5.640305995941162,-24.978416442871094,-0.3321979939937591,3.981242895126343,-8.59417724609375,2.2488460540771484
1757088368615236900,0.98723681640625,4.909987449645996,-4.328499794006348,0.0071499999612569,-8.912757873535156,-16.001888275146484,3.826560020446777,4.018267154693604,-8.629756927490234,2.026745080947876
1757088368624789800,0.996789794921875,3.3974874019622803,-3.8788750171661377,-0.8028625249862671,-12.801030158996582,-8.044747352600098,9.30340576171875,4.05525016784668,-8.657377243041992,1.8143409490585327
1757088368634343000,1.006343017578125,0.3847250044345855,-2.754812479019165,-1.5823500156402588,-9.603338241577148,-1.631579041481018,10.626462936401367,4.085259914398193,-8.680917739868164,1.622655987739563
1757088368643895800,1.015895751953125,-1.635975003242493,-2.946624994277954,-1.380774974822998,-4.037725925445557,2.603070020675659,3.5159270763397217,4.1083598136901855,-8.70169734954834,1.4587609767913818
1757088368653449000,1.025448974609375,-2.138124942779541,-2.834287405014038,-0.8065750002861023,-1.6398990154266355,3.2034060955047607,-2.970277070999145,4.12890100479126,-8.719461441040039,1.3201090097427368
1757088368663001600,1.035001708984375,-1.8558374643325808,-2.4041874408721924,-0.2861374914646148,-1.7253799438476562,3.319322109222412,-6.043625831604004,4.1494622230529785,-8.734048843383789,1.201519012451172
1757088368672554800,1.0445546875,-1.3098249435424805,-1.6541249752044678,0.0889625027775764,-2.0173699855804443,3.86101508140564,-7.643040180206299,4.169472217559815,-8.74616813659668,1.0979570150375366
1757088368682107600,1.054107666015625,-0.7306749820709229,-0.5264874696731567,0.3185875117778778,-2.972043991088867,4.513889789581299,-7.620072841644287,4.186637878417969,-8.757316589355469,1.0041099786758425
1757088368691660500,1.06366064453125,-0.3422375023365021,0.7184374928474426,0.3320625126361847,-4.531012058258057,4.625370979309082,-6.53694486618042,4.199157238006592,-8.76887035369873,0.9154319763183594
1757088368701213700,1.073213623046875,-0.0538999997079372,1.4246374368667605,0.2380124926567077,-5.292173862457275,3.028328895568848,-6.431229114532471,4.206404209136963,-8.781366348266602,0.8297619819641113
1757088368710766600,1.0827666015625,0.1819124966859817,1.6029750108718872,0.1659625023603439,-5.021813869476318,1.108183979988098,-5.698852062225342,4.197254180908203,-8.800812721252441,0.7293670177459717
1757088368720319500,1.092319580078125,0.2931500077247619,1.4869250059127808,0.1352999955415725,-4.519989013671875,-0.5167160034179688,-4.755206108093262,4.17222785949707,-8.825482368469238,0.6196349859237671
1757088368729872400,1.101872314453125,0.3297249972820282,1.224162459373474,0.1244374960660934,-4.290925025939941,-1.8811500072479248,-4.15208101272583,4.143135070800781,-8.849767684936523,0.5162050127983093
1757088368739425500,1.111425537109375,0.3359124958515167,0.909012496471405,0.1011999994516372,-4.198246955871582,-2.644031047821045,-3.494770050048828,4.111526012420654,-8.872858047485352,0.4209229946136474
1757088368748978400,1.120978515625,0.3382500112056732,0.6171000003814697,0.0499125011265277,-4.208816051483154,-2.507436037063598,-2.615248918533325,4.079137802124023,-8.894163131713867,0.3342669904232025
1757088368758531300,1.13053125,0.3052499890327453,0.3825249969959259,-0.0197999998927116,-4.120152950286865,-1.798625946044922,-1.5840439796447754,4.045432090759277,-8.914400100708008,0.2556279897689819
1757088368768084200,1.140084228515625,0.2491499930620193,0.2248124927282333,-0.0662750005722045,-3.5891730785369877,-1.1925380229949951,-0.8006889820098877,4.000970840454102,-8.93701171875,0.1857790052890777
1757088368777637400,1.149637451171875,0.1843875050544738,0.1454750001430511,-0.0662750005722045,-3.010016918182373,-0.7977060079574585,-0.4089809954166412,3.9480950832366943,-8.960667610168457,0.1318009942770004
1757088368787190500,1.1591904296875,0.1244374960660934,0.0954250022768974,-0.0125124994665384,-2.401603937149048,-0.5271120071411133,-0.3529979884624481,3.887626886367798,-8.985799789428711,0.0951090008020401
1757088368796743400,1.168743408203125,0.0671000033617019,0.058712501078844,0.0644875019788742,-2.222693920135498,-0.3102329969406128,-0.4275889992713928,3.81994104385376,-9.013086318969728,0.0727029964327812
1757088368806296000,1.178296142578125,0.0280499998480081,0.0721874982118606,0.104774996638298,-2.5123610496521,-0.1950010061264038,-0.6919170022010803,3.745214939117432,-9.042646408081056,0.0593179985880851
1757088368815849200,1.18784912109375,0.002337499987334,0.0782374963164329,0.1024374961853027,-2.695211887359619,-0.220767006278038,-0.8960970044136047,3.665987968444824,-9.073026657104492,0.0491340011358261
1757088368825402000,1.197402099609375,-0.0184249989688396,0.0464750006794929,0.0926750004291534,-2.613403081893921,-0.3010950088500976,-1.0858169794082642,3.5858490467071533,-9.102080345153809,0.0316269993782043
1757088368834955000,1.206955078125,-0.0354750007390975,-0.0218624994158744,0.0914374962449073,-2.476919889450073,-0.3455260097980499,-1.1673660278320312,3.5045759677886963,-9.129911422729492,-0.0020079999230802
1757088368844508000,1.2165078125,-0.0489500015974044,-0.1000999957323074,0.1035374999046325,-2.3264639377593994,-0.3472729921340942,-1.277346968650818,3.4206271171569824,-9.157689094543455,-0.0537329986691474
1757088368854061000,1.22606103515625,-0.058712501078844,-0.1685750037431717,0.1170125007629394,-2.224236965179444,-0.3006129860877991,-1.3676799535751345,3.332438945770264,-9.186431884765623,-0.1216059997677803
1757088368863614000,1.235614013671875,-0.0611874982714653,-0.2173874974250793,0.1207249984145164,-2.237036943435669,-0.2730669975280761,-1.4338229894638062,3.2384328842163086,-9.216761589050291,-0.2019760012626648
1757088368873166800,1.245166748046875,-0.0563750006258487,-0.2491499930620193,0.1072499975562095,-2.2777299880981445,-0.2280649989843368,-1.473481059074402,3.1371560096740723,-9.2489013671875,-0.2903479933738708
1757088368882719700,1.2547197265625,-0.0416624993085861,-0.2699125111103058,0.0827749967575073,-2.2553179264068604,-0.2116159945726394,-1.4805389642715454,3.028039932250977,-9.282633781433104,-0.3827509880065918
1757088368892273000,1.26427294921875,-0.0257124993950128,-0.2796750068664551,0.0596750006079673,-2.166218042373657,-0.1737709939479828,-1.4175820350646973,2.911367893218994,-9.317543983459473,-0.4764879941940307
1757088368901825800,1.27382568359375,-0.0147124994546175,-0.2589125037193298,0.0437249988317489,-2.018847942352295,-0.1481049954891204,-1.2998000383377075,2.799048900604248,-9.34726905822754,-0.5529029965400696
1757088368911378700,1.283378662109375,-0.0074249999597668,-0.1831499934196472,0.0376750007271766,-1.8506779670715328,-0.1345539987087249,-1.1819839477539062,2.691680908203125,-9.372841835021973,-0.6155610084533691
1757088368920931600,1.292931640625,-0.0061874999664723,-0.0732875019311904,0.0412499979138374,-1.6678659915924072,-0.1067600026726722,-1.0845839977264404,2.5789639949798584,-9.398950576782228,-0.6778330206871033
1757088368930484700,1.302484619140625,-0.0061874999664723,0.0379500016570091,0.0547249987721443,-1.5038189888000488,-0.0933059975504875,-1.0228179693222046,2.461482048034668,-9.425447463989258,-0.740136981010437
1757088368949590500,1.321590576171875,-0.0049499999731779,0.1699499934911728,0.0717749968171119,-1.4426319599151611,-0.0676890015602111,-0.9606419801712036,2.213629961013794,-9.478997230529783,-0.86661297082901
1757088368959143700,1.331143798828125,0.002337499987334,0.1992374956607818,0.0632499977946281,-1.3704990148544312,-0.0765490010380745,-0.8809750080108643,2.09395694732666,-9.501874923706056,-0.9292799830436708
1757088368968696300,1.3406962890625,0.0096249999478459,0.2077624946832656,0.0474375002086162,-1.2440099716186523,-0.083586998283863,-0.7691190242767334,1.9794399738311768,-9.521539688110352,-0.9920799732208252
1757088368978249500,1.35024951171875,0.0133375003933906,0.2065249979496002,0.0339624993503093,-1.084725022315979,-0.1198080033063888,-0.6593279838562012,1.8685829639434812,-9.538790702819824,-1.055176019668579
1757088368987802600,1.359802734375,0.0170499999076128,0.1919499933719635,0.022962499409914,-0.8994730114936829,-0.1394409984350204,-0.5264520049095154,1.7610009908676147,-9.554035186767578,-1.1182310581207275
1757088368997355500,1.36935546875,0.0133375003933906,0.1649999916553497,0.022962499409914,-0.709069013595581,-0.173454999923706,-0.4065960049629211,1.657907009124756,-9.567204475402832,-1.1801429986953735
1757088369006908700,1.37890869140625,0.0048124999739229,0.1234750002622604,0.0314874984323978,-0.5623189806938171,-0.2194900065660476,-0.3358739912509918,1.5603599548339844,-9.57828140258789,-1.2401180267333984
1757088369016461300,1.38846142578125,-0.0074249999597668,0.0807124972343444,0.0412499979138374,-0.4750339984893799,-0.2489120066165924,-0.3162010014057159,1.468526005744934,-9.587474822998049,-1.2976340055465698
1757088369026014200,1.39801416015625,-0.0184249989688396,0.0404249988496303,0.0510125011205673,-0.4597710072994232,-0.2262710034847259,-0.3643980026245117,1.3821539878845217,-9.59499454498291,-1.3527460098266602
1757088369035567400,1.4075673828125,-0.0221375003457069,0.0049499999731779,0.0547249987721443,-0.4915570020675659,-0.1833840012550354,-0.4848650097846985,1.300704002380371,-9.601034164428713,-1.4056589603424072
1757088369045120300,1.417120361328125,-0.0196624994277954,-0.0268124993890523,0.0534874983131885,-0.5152649879455566,-0.1442700028419494,-0.5961340069770813,1.2237550020217896,-9.60573959350586,-1.4565659761428833
1757088369054673200,1.426673095703125,-0.0111375004053115,-0.0536249987781047,0.048675000667572,-0.5422160029411316,-0.1421799957752227,-0.6782000064849854,1.151224970817566,-9.609170913696287,-1.5056010484695437
1757088369064226300,1.436226318359375,0.0035749999806284,-0.0683375000953674,0.0424874983727932,-0.5380129814147949,-0.1165580004453659,-0.6636689901351929,1.083274006843567,-9.611393928527832,-1.55267596244812
1757088369073779200,1.445779296875,0.0145749999210238,-0.061049997806549,0.0400125011801719,-0.4998030066490173,-0.0882090032100677,-0.5759990215301514,1.0200389623641968,-9.61253547668457,-1.5975439548492432
1757088369083332000,1.45533203125,0.024337500333786,-0.0340999998152256,0.0412499979138374,-0.4475429952144623,-0.0834560021758079,-0.4942440092563629,0.96152001619339,-9.612741470336914,-1.640118956565857
1757088369092885000,1.464885009765625,0.031624998897314,-0.002337499987334,0.048675000667572,-0.3915239870548248,-0.0852359980344772,-0.3934679925441742,0.9075689911842346,-9.612173080444336,-1.680408000946045
1757088369102438000,1.47443798828125,0.0340999998152256,0.029424998909235,0.0609125010669231,-0.4001640081405639,-0.095490001142025,-0.2865630090236664,0.8577889800071716,-9.611013412475586,-1.7183549404144287
1757088369111991000,1.483990966796875,0.0378125011920928,0.0574750006198883,0.0657249987125396,-0.4285210072994232,-0.150297001004219,-0.2128330022096634,0.8116239905357361,-9.60943603515625,-1.7539219856262207
1757088369121544000,1.4935439453125,0.0390499979257583,0.0782374963164329,0.0657249987125396,-0.4300029873847961,-0.1991399973630905,-0.1185730025172233,0.7685869932174683,-9.60761547088623,-1.786923050880432
1757088369131097000,1.50309716796875,0.0378125011920928,0.0879999995231628,0.0609125010669231,-0.4149439930915832,-0.1991000026464462,-0.0317750014364719,0.7285450100898743,-9.605669975280762,-1.817199945449829
1757088369140650000,1.51264990234375,0.0353375002741813,0.0892374962568283,0.0571999996900558,-0.3800260126590729,-0.2104700058698654,0.0182210002094507,0.6915760040283203,-9.603678703308104,-1.8445940017700195
1757088369150203000,1.522202880859375,0.0328624993562698,0.0769999995827674,0.0534874983131885,-0.3334259986877441,-0.2047519981861114,0.0539240017533302,0.65767902135849,-9.60169792175293,-1.8691920042037964
1757088369159755800,1.531755859375,0.0291499998420476,0.0599500015377998,0.0499125011265277,-0.2894540131092071,-0.1965799927711486,0.0646869987249374,0.6267120242118835,-9.599760055541992,-1.8912489414215088
1757088369169308700,1.54130859375,0.0255750007927417,0.0489500015974044,0.0461999997496604,-0.2613820135593414,-0.2145510017871856,0.0765279978513717,0.5983539819717407,-9.597895622253418,-1.9110430479049685
1757088369178861600,1.550861572265625,0.0218624994158744,0.0379500016570091,0.0412499979138374,-0.227862000465393,-0.2467170059680938,0.0847110003232956,0.5721960067749023,-9.59612274169922,-1.9289109706878664
1757088369188414700,1.560414794921875,0.0145749999210238,0.0208999998867511,0.0424874983727932,-0.1853870004415512,-0.2285189926624298,0.0918869972229003,0.547806978225708,-9.594446182250977,-1.945215940475464
1757088369197967600,1.569967529296875,0.0072874999605119,-0.0010999999940395,0.0499125011265277,-0.1689849942922592,-0.2299759984016418,0.0435420013964176,0.5247889757156372,-9.59284496307373,-1.9603559970855715
1757088369207520800,1.579520751953125,0.002337499987334,-0.024337500333786,0.0547249987721443,-0.2063920050859451,-0.2125969976186752,0.008810999803245,0.5027369856834412,-9.59130859375,-1.9745709896087649
1757088369217073700,1.58907373046875,-0.0013749999925494,-0.0450999997556209,0.0584375001490116,-0.2356500029563903,-0.2052379995584488,-0.0356779992580413,0.4814749956130981,-9.589845657348633,-1.9878950119018557
1757088369226626800,1.598626708984375,-0.0026124999858438,-0.0646250024437904,0.0609125010669231,-0.2616100013256073,-0.2053609937429428,-0.0643419995903968,0.4609990119934082,-9.588508605957031,-2.0000619888305664
1757088369236179500,1.608179443359375,-0.0001374999992549,-0.0805749967694282,0.0609125010669231,-0.3022449910640716,-0.1961970031261444,-0.0866319984197616,0.4412499964237213,-9.58734893798828,-2.0108120441436768
1757088369245732400,1.617732421875,0.0048124999739229,-0.0951500013470649,0.0596750006079673,-0.3249599933624267,-0.2064149975776672,-0.1006259992718696,0.4222469925880432,-9.58641242980957,-2.0199379920959477
1757088369255285500,1.627285400390625,0.0048124999739229,-0.1061500012874603,0.0559624992311,-0.339480996131897,-0.1613660007715225,-0.0748450011014938,0.4039399921894073,-9.585728645324709,-2.027352094650269
1757088369264838400,1.63683837890625,0.0083875004202127,-0.1086250022053718,0.0522499978542327,-0.3415749967098236,-0.1143060028553009,-0.0880620032548904,0.3862119913101196,-9.585261344909668,-2.033313035964966
1757088369274391300,1.646391357421875,0.0120999999344348,-0.1098624989390373,0.0510125011205673,-0.334426999092102,-0.1130390018224716,-0.102472998201847,0.368943989276886,-9.584979057312012,-2.0380570888519287
1757088369283944200,1.655944091796875,0.015812499448657,-0.1013374999165535,0.0461999997496604,-0.3315950036048889,-0.1308420002460479,-0.0910449996590614,0.3519409894943237,-9.584853172302246,-2.0418050289154053
1757088369293497300,1.665497314453125,0.0170499999076128,-0.0891000032424926,0.0400125011801719,-0.3145850002765655,-0.1534219980239868,-0.089429996907711,0.3352119922637939,-9.584829330444336,-2.044837951660156
1757088369303050200,1.67505029296875,0.0181499999016523,-0.0780999958515167,0.0364375002682209,-0.2867049872875213,-0.1876139938831329,-0.0609970018267631,0.3189029991626739,-9.584878921508787,-2.0472819805145264
1757088369312603400,1.684603271484375,0.0145749999210238,-0.0768624991178512,0.0327249988913536,-0.2600570023059845,-0.2380519956350326,-0.0327540002763271,0.3031029999256134,-9.584968566894531,-2.049298048019409
1757088369322156300,1.69415625,0.0108624994754791,-0.0743874981999397,0.0279124993830919,-0.2231259942054748,-0.271571010351181,-0.0294080004096031,0.2878850102424621,-9.585054397583008,-2.051093101501465
1757088369331709200,1.703709228515625,0.0060499999672174,-0.0720499977469444,0.0241999998688697,-0.1788409948348999,-0.278982013463974,-0.0539730004966259,0.2732770144939422,-9.585100173950195,-2.052870035171509
1757088369341262000,1.713261962890625,0.0035749999806284,-0.0732875019311904,0.0217249989509582,-0.1436129957437515,-0.2724519968032837,-0.0887150019407272,0.259236991405487,-9.585068702697754,-2.0548369884490967
1757088369350815000,1.72281494140625,0.0010999999940395,-0.0756250023841857,0.0192499998956918,-0.1101910024881362,-0.2183430045843124,-0.1030590012669563,0.245725005865097,-9.584938049316406,-2.057104110717773
1757088369360367900,1.732367919921875,0.002337499987334,-0.0743874981999397,0.0181499999016523,-0.0649570003151893,-0.1717929989099502,-0.1182290017604827,0.232791006565094,-9.58468246459961,-2.0598158836364746
1757088369369921000,1.741921142578125,0.0035749999806284,-0.0671000033617019,0.0169124994426965,-0.0378439985215663,-0.1491110026836395,-0.1027399972081184,0.2204169929027557,-9.584295272827148,-2.063014030456543
1757088369379474000,1.751473876953125,0.0035749999806284,-0.0585750006139278,0.0156750008463859,-0.018767999485135,-0.1359300017356872,-0.0924490019679069,0.2084950059652328,-9.583776473999023,-2.066725969314575
1757088369389026800,1.76102685546875,0.002337499987334,-0.0536249987781047,0.0131999999284744,0.0131109999492764,-0.1444330066442489,-0.1055819988250732,0.1969950050115585,-9.58314609527588,-2.0708820819854736
1757088369398580000,1.770580078125,-0.0001374999992549,-0.0512874983251094,0.0169124994426965,0.0564900003373622,-0.1791200041770935,-0.1028070002794265,0.1861259937286377,-9.582426071166992,-2.075356960296631
1757088369408132900,1.7801328125,-0.0013749999925494,-0.0585750006139278,0.0192499998956918,0.0812629982829094,-0.2020239979028701,-0.1232500001788139,0.1760260015726089,-9.581628799438477,-2.080075979232788
1757088369417685800,1.789685791015625,-0.0026124999858438,-0.0720499977469444,0.0241999998688697,0.0655129998922348,-0.2012590020895004,-0.147254005074501,0.1667329967021942,-9.580755233764648,-2.085028886795044
1757088369427239000,1.799239013671875,-0.0001374999992549,-0.0903374999761581,0.0279124993830919,0.047665998339653,-0.1959729939699173,-0.1629129946231842,0.1583359986543655,-9.579809188842772,-2.0901939868927
1757088369436791800,1.808791748046875,0.002337499987334,-0.1073874980211258,0.0290124993771314,0.0303630009293556,-0.205144003033638,-0.1685879975557327,0.1508650034666061,-9.5787935256958,-2.095534086227417
1757088369446344700,1.8183447265625,0.0060499999672174,-0.1245749965310096,0.0254375003278255,0.0094710001721978,-0.18783999979496,-0.148498997092247,0.1443119943141937,-9.57771110534668,-2.101069927215576
1757088369455897600,1.827897705078125,0.0072874999605119,-0.1306249946355819,0.022962499409914,0.0078950002789497,-0.1604710072278976,-0.101851999759674,0.1386899948120117,-9.57659912109375,-2.1066060066223145
1757088369465450800,1.83745068359375,0.0083875004202127,-0.1293874979019165,0.0217249989509582,0.0087909996509552,-0.1637109965085983,-0.0599070005118846,0.1339789927005767,-9.575502395629885,-2.111967086791992
1757088369475003400,1.84700341796875,0.0072874999605119,-0.1233374997973442,0.0241999998688697,0.0275929998606443,-0.1452270001173019,-0.0427579991519451,0.1302659958600998,-9.574424743652344,-2.117134094238281
1757088369484556500,1.856556640625,0.0083875004202127,-0.1135749965906143,0.0290124993771314,0.0405710004270076,-0.1503240019083023,-0.012887000106275,0.127591997385025,-9.573383331298828,-2.1220390796661377
1757088369494109400,1.866109375,0.0072874999605119,-0.1086250022053718,0.0327249988913536,0.0119200004264712,-0.1599269956350326,0.0038230000063776,0.1258289963006973,-9.572373390197754,-2.126715898513794
1757088369503662300,1.875662353515625,0.0072874999605119,-0.1061500012874603,0.0339624993503093,-0.0016189999878406,-0.1503580063581466,0.0061610001139342,0.1248790025711059,-9.571370124816896,-2.131295919418335
1757088369513215500,1.885215576171875,0.0060499999672174,-0.1098624989390373,0.0351999998092651,-0.0077920001931488,-0.1740739941596985,0.0170290004462003,0.1246469989418983,-9.570379257202148,-2.135772943496704
1757088369522768400,1.894768310546875,0.0048124999739229,-0.1123374998569488,0.0339624993503093,-0.0067300000227987,-0.2265069931745529,0.0039160000160336,0.1250199973583221,-9.569411277770996,-2.1401031017303467
1757088369532321500,1.904321533203125,0.0035749999806284,-0.1123374998569488,0.0302499998360872,-0.0031039998866617,-0.2552259862422943,-0.0225489996373653,0.125896006822586,-9.568476676940918,-2.14424991607666
1757088369541874400,1.91387451171875,-0.0013749999925494,-0.1123374998569488,0.0290124993771314,0.0275710001587867,-0.271912008523941,-0.0278600007295608,0.1272680014371872,-9.567594528198242,-2.148129940032959
1757088369551427300,1.92342724609375,-0.0037124999798834,-0.1123374998569488,0.0302499998360872,0.0383230000734329,-0.2434940040111541,-0.0554430000483989,0.129047006368637,-9.56676197052002,-2.151747941970825
1757088369560980200,1.932980224609375,-0.0049499999731779,-0.1135749965906143,0.0351999998092651,0.0592570006847381,-0.203354001045227,-0.0653230026364326,0.1312550008296966,-9.56596565246582,-2.155174970626831
1757088369570533400,1.942533447265625,-0.0086624994874,-0.1160499975085258,0.0424874983727932,0.0623989999294281,-0.1348849982023239,-0.0855000019073486,0.1339010000228881,-9.565179824829102,-2.158514976501465
1757088369589639200,1.96163916015625,-0.0086624994874,-0.1050499975681305,0.0474375002086162,0.0138020003214478,-0.1583629995584488,-0.0897940024733543,0.1400039941072464,-9.563651084899902,-2.1649169921875
1757088369599192000,1.971192138671875,-0.0061874999664723,-0.1013374999165535,0.0437249988317489,-0.0005789999850094,-0.1834869980812072,-0.1135599985718727,0.1430190056562423,-9.562902450561523,-2.168035984039306
1757088369608745000,1.980744873046875,-0.0037124999798834,-0.1073874980211258,0.0400125011801719,-0.0071310000494122,-0.2226350009441375,-0.0932760015130043,0.1459330022335052,-9.562192916870115,-2.170974016189575
1757088369618298000,1.990298095703125,-0.0026124999858438,-0.1111000031232833,0.0327249988913536,-0.0262839999049901,-0.2328300029039383,-0.0786269977688789,0.1486719995737075,-9.561548233032228,-2.1736319065093994
1757088369627851000,1.99985107421875,-0.0026124999858438,-0.1123374998569488,0.0266750007867813,-0.0144309997558593,-0.2500039935111999,-0.0672430023550987,0.1512710005044937,-9.560979843139648,-2.175945997238159
1757088369637404000,2.00940380859375,-0.0037124999798834,-0.1073874980211258,0.0192499998956918,0.0065469997934997,-0.2311629951000213,-0.0563450008630752,0.1538120061159134,-9.560490608215332,-2.17792010307312
1757088369646957000,2.01895703125,-0.0074249999597668,-0.1025749966502189,0.0156750008463859,0.0267389994114637,-0.1907840073108673,-0.052666999399662,0.1563410013914108,-9.560051918029783,-2.17966103553772
1757088369656510000,2.028510009765625,-0.0098999999463558,-0.0915749967098236,0.0192499998956918,0.0682620033621788,-0.1627909988164901,-0.0785100013017654,0.1589940041303634,-9.55961799621582,-2.181364059448242
1757088369666062800,2.038062744140625,-0.0111375004053115,-0.0658624991774559,0.0254375003278255,0.1029009968042373,-0.1497859954833984,-0.1210109964013099,0.1618130058050155,-9.55915069580078,-2.1831979751586914
1757088369675615700,2.04761572265625,-0.0123749999329447,-0.031624998897314,0.0339624993503093,0.1310350000858307,-0.1564140021800995,-0.1568569988012313,0.1648319959640503,-9.558608055114746,-2.18533706665039
1757088369685168600,2.057168701171875,-0.0123749999329447,0.0001374999992549,0.0424874983727932,0.1236509978771209,-0.1848399937152862,-0.1820400059223175,0.1681039929389953,-9.557961463928224,-2.187896013259888
1757088369694721500,2.066721435546875,-0.0086624994874,0.0219999998807907,0.0437249988317489,0.07863400131464,-0.2011239975690841,-0.1694400012493133,0.1715140044689178,-9.557217597961426,-2.1908481121063232
1757088369704274700,2.076274658203125,-0.0061874999664723,0.029424998909235,0.0400125011801719,0.0434510000050067,-0.2290800064802169,-0.153095006942749,0.1749379932880401,-9.55638313293457,-2.194192886352539
1757088369713827600,2.08582763671875,-0.0049499999731779,0.0269499998539686,0.0327249988913536,0.028948999941349,-0.2469899952411651,-0.1218689978122711,0.1783010065555572,-9.555479049682615,-2.197839975357056
1757088369723380700,2.095380615234375,-0.0026124999858438,0.0269499998539686,0.0241999998688697,0.0612259991466999,-0.2337699979543686,-0.1123270019888877,0.181668996810913,-9.554516792297363,-2.201730966567993
1757088369732933600,2.10493359375,-0.0001374999992549,0.0281875003129243,0.0217249989509582,0.0896380022168159,-0.2084719985723495,-0.0914189964532852,0.185029998421669,-9.55349826812744,-2.2058560848236084
1757088369742486500,2.114486572265625,-0.0026124999858438,0.0416624993085861,0.0181499999016523,0.1373880058526992,-0.1880940049886703,-0.0965079963207244,0.1884569972753524,-9.552438735961914,-2.210146903991699
1757088369752039400,2.124039306640625,-0.0037124999798834,0.0672374963760376,0.0217249989509582,0.1803970038890838,-0.1752000004053115,-0.1125650033354759,0.1919769942760467,-9.55133056640625,-2.214608907699585
1757088369761592300,2.13359228515625,-0.0049499999731779,0.0904750004410743,0.0290124993771314,0.2231210023164749,-0.1795849949121475,-0.1483000069856643,0.1956730037927627,-9.55017375946045,-2.2192509174346924
1757088369771145500,2.1431455078125,-0.0049499999731779,0.1064250022172927,0.0400125011801719,0.2266830056905746,-0.1914030015468597,-0.166385993361473,0.1995809972286224,-9.548955917358398,-2.2241060733795166
1757088369780698600,2.15269873046875,-0.0026124999858438,0.111237496137619,0.0474375002086162,0.1775809973478317,-0.2154510021209716,-0.1903859972953796,0.2037229984998703,-9.547656059265137,-2.2292520999908447
1757088369790251300,2.162251220703125,0.0035749999806284,0.1027124971151351,0.0474375002086162,0.1243110001087188,-0.2416640073060989,-0.1743610054254531,0.2080129981040954,-9.546303749084473,-2.234592914581299
1757088369799804400,2.171804443359375,0.0108624994754791,0.079475000500679,0.0400125011801719,0.0810049995779991,-0.2791869938373565,-0.1273020058870315,0.212346002459526,-9.544912338256836,-2.2400739192962646
1757088369809357300,2.181357421875,0.0170499999076128,0.0514249987900257,0.0290124993771314,0.0585249997675418,-0.2608020007610321,-0.0547869987785816,0.216725006699562,-9.543513298034668,-2.2455759048461914
1757088369818910200,2.19091015625,0.0206249989569187,0.0318999998271465,0.0181499999016523,0.0626619979739189,-0.2413289994001388,0.0348049998283386,0.2211299985647201,-9.54215145111084,-2.250917911529541
1757088369828463000,2.200463134765625,0.0206249989569187,0.0219999998807907,0.0144375003874301,0.1253329962491989,-0.1997999995946884,0.0883430019021034,0.2257259935140609,-9.54084587097168,-2.2559969425201416
1757088369838016300,2.210016357421875,0.0170499999076128,0.0219999998807907,0.0204875003546476,0.1522949934005737,-0.210546001791954,0.1136109977960586,0.2305810004472732,-9.53961944580078,-2.260719060897827
1757088369847569200,2.219569091796875,0.0108624994754791,0.029424998909235,0.0279124993830919,0.1411329954862594,-0.2422720044851303,0.1388799995183944,0.2355570048093795,-9.538518905639648,-2.2648849487304688
1757088369857122000,2.2291220703125,0.0060499999672174,0.0342375002801418,0.0339624993503093,0.0941210016608238,-0.3025630116462707,0.1254139989614486,0.2404260039329528,-9.537583351135254,-2.2683470249176025
1757088369866675500,2.238675537109375,0.002337499987334,0.0354750007390975,0.0327249988913536,0.0273449998348951,-0.3461349904537201,0.0982469990849495,0.2448920011520385,-9.536836624145508,-2.271047115325928
1757088369876228000,2.24822802734375,-0.0013749999925494,0.0342375002801418,0.0290124993771314,-0.0060140001587569,-0.3491120040416717,0.0789629966020584,0.2488609999418258,-9.536284446716309,-2.2729640007019043
1757088369885781000,2.257781005859375,-0.0049499999731779,0.0379500016570091,0.0217249989509582,-0.0051790000870823,-0.2998510003089905,0.0496219992637634,0.2524529993534088,-9.535898208618164,-2.2742199897766118
1757088369895334000,2.267333984375,-0.0074249999597668,0.0464750006794929,0.0169124994426965,0.0006339999963529,-0.2221619933843612,0.0407060012221336,0.2557910084724426,-9.53564453125,-2.2749319076538086
1757088369904887000,2.276886962890625,-0.0074249999597668,0.0611874982714653,0.0119624994695186,0.036141999065876,-0.1406549960374832,-0.0097529999911785,0.2590230107307434,-9.535455703735352,-2.2753899097442627
1757088369914440000,2.28643994140625,-0.0037124999798834,0.0734250023961067,0.0107249999418854,0.0564059987664222,-0.1029279977083206,-0.0430690012872219,0.2621369957923889,-9.535292625427246,-2.275739908218384
1757088369923992800,2.295992919921875,-0.0001374999992549,0.0769999995827674,0.0131999999284744,0.0912830010056495,-0.1422609984874725,-0.0747700035572052,0.2651669979095459,-9.53513240814209,-2.276093006134033
1757088369933545700,2.305545654296875,0.002337499987334,0.0769999995827674,0.0156750008463859,0.1082289963960647,-0.1746550053358078,-0.0936489999294281,0.2680619955062866,-9.534966468811035,-2.2764759063720703
1757088369943098600,2.3150986328125,0.0060499999672174,0.075762502849102,0.0144375003874301,0.1017659977078437,-0.1975210011005401,-0.0978849977254867,0.2706770002841949,-9.534807205200195,-2.276850938796997
1757088369952651500,2.324651611328125,0.0096249999478459,0.0746624991297721,0.0144375003874301,0.1092479974031448,-0.2226980030536651,-0.090558998286724,0.2728990018367767,-9.534687042236328,-2.277103900909424
1757088369962204700,2.33420458984375,0.0133375003933906,0.0659999996423721,0.0144375003874301,0.1251650005578994,-0.2261819988489151,-0.0720309987664222,0.2747420072555542,-9.534624099731444,-2.2771530151367188
1757088369971757600,2.343757568359375,0.0170499999076128,0.0562375001609325,0.0156750008463859,0.1217280030250549,-0.2123990058898925,-0.0245360005646944,0.2763380110263824,-9.534656524658203,-2.2768259048461914
1757088369981310700,2.353310791015625,0.0206249989569187,0.0464750006794929,0.0156750008463859,0.1091310009360313,-0.1789239943027496,0.0279469992965459,0.2778150141239166,-9.53480052947998,-2.276047945022583
1757088369990863600,2.362863525390625,0.0230999998748302,0.0379500016570091,0.0156750008463859,0.1150380000472068,-0.1520439982414245,0.0826689973473548,0.2793459892272949,-9.535053253173828,-2.2748138904571533
1757088370000416500,2.37241650390625,0.0230999998748302,0.0306624993681907,0.0169124994426965,0.0977369993925094,-0.155798003077507,0.1162559986114502,0.2809759974479675,-9.535394668579102,-2.273190975189209
1757088370009969400,2.381969482421875,0.0206249989569187,0.0306624993681907,0.0192499998956918,0.0879779979586601,-0.1618649959564209,0.1160240024328231,0.2827030122280121,-9.535776138305664,-2.271385908126831
1757088370019522600,2.3915224609375,0.0193875003606081,0.0306624993681907,0.0204875003546476,0.0651639997959137,-0.1986850053071975,0.1311179995536804,0.2842749953269958,-9.536191940307615,-2.269454002380371
1757088370029075500,2.401075439453125,0.0133375003933906,0.0257124993950128,0.0204875003546476,0.0391139984130859,-0.2473890036344528,0.1125440001487732,0.2855049967765808,-9.536624908447266,-2.2674849033355717
1757088370038628400,2.41062841796875,0.0108624994754791,0.0159499999135732,0.0217249989509582,0.0210379995405673,-0.2748079895973205,0.0807949975132942,0.2863619923591614,-9.537033081054688,-2.265657901763916
1757088370048181200,2.42018115234375,0.0108624994754791,0.0024749999865889,0.0192499998956918,-0.0095979999750852,-0.3118030130863189,0.0684079974889755,0.2868790030479431,-9.537408828735352,-2.264004945755005
1757088370057734400,2.429734375,0.0096249999478459,-0.0145749999210238,0.0144375003874301,-0.0452740006148815,-0.2840459942817688,0.0749950036406517,0.2871580123901367,-9.537760734558104,-2.2624828815460205
1757088370067287300,2.439287353515625,0.0083875004202127,-0.0206249989569187,0.004674999974668,-0.0578860007226467,-0.2587209939956665,0.0723360031843185,0.2872380018234253,-9.53808879852295,-2.261075019836426
1757088370076840200,2.448840087890625,0.0072874999605119,-0.0133375003933906,-0.0038499999791383,-0.0191569998860359,-0.2407139986753463,0.0676589980721473,0.2872180044651031,-9.538412094116213,-2.25970196723938
1757088370086393000,2.45839306640625,0.0048124999739229,-0.0010999999940395,-0.0075624999590218,0.0224799998104572,-0.2137510031461715,0.0270910002291202,0.2872030138969421,-9.538713455200195,-2.258423089981079
1757088370095946200,2.4679462890625,-0.0001374999992549,0.0122375003993511,-0.0050874999724328,0.0663369968533515,-0.1967789977788925,-0.002462999895215,0.2872500121593475,-9.539019584655762,-2.257111072540283
1757088370105499100,2.4774990234375,-0.0026124999858438,0.0232375003397464,-0.0015124999918043,0.0760369971394538,-0.2136179953813552,-0.030842000618577,0.2873460054397583,-9.539351463317873,-2.255687952041626
1757088370115052000,2.487052001953125,-0.0037124999798834,0.032999999821186,-0.0027499999850988,0.053906001150608,-0.2283339947462082,-0.0602359995245933,0.2872990071773529,-9.539716720581056,-2.2541399002075195
1757088370124605200,2.496605224609375,-0.0061874999664723,0.0391874983906745,-0.0050874999724328,0.0582560002803802,-0.2363359928131103,-0.1019800007343292,0.2870450019836426,-9.5401029586792,-2.252526044845581
1757088370134158000,2.506157958984375,-0.0037124999798834,0.0379500016570091,-0.0087999999523162,0.0717139989137649,-0.2327840030193328,-0.1276489943265915,0.2866320013999939,-9.54049587249756,-2.250917911529541
1757088370143711000,2.5157109375,-0.0026124999858438,0.032999999821186,-0.010037500411272,0.0889390036463737,-0.2270469963550567,-0.1381900012493133,0.28609099984169,-9.540876388549805,-2.2493739128112797
1757088370153264000,2.52526416015625,-0.0001374999992549,0.0281875003129243,-0.0125124994665384,0.0961560010910034,-0.168831005692482,-0.1336089968681335,0.2853859961032867,-9.541230201721191,-2.2479710578918457
1757088370162817000,2.534817138671875,0.0035749999806284,0.0281875003129243,-0.0148499999195337,0.1008720025420188,-0.1418219953775406,-0.1263220012187957,0.2845140099525451,-9.541525840759276,-2.246833086013794
1757088370172370000,2.544369873046875,0.0072874999605119,0.0379500016570091,-0.0185624994337558,0.1216240003705024,-0.1151920035481453,-0.1391189992427826,0.2835299968719482,-9.541719436645508,-2.246140956878662
1757088370181922800,2.5539228515625,0.0108624994754791,0.0514249987900257,-0.0210375003516674,0.1326619982719421,-0.1008969992399215,-0.1552090048789978,0.2824090123176574,-9.54176425933838,-2.24609899520874
1757088370191475700,2.563475830078125,0.015812499448657,0.0647625029087066,-0.0222750008106231,0.1660809963941574,-0.1082609966397285,-0.1519419997930526,0.281266987323761,-9.541626930236816,-2.2468149662017822
1757088370201028900,2.57302880859375,0.0218624994158744,0.0721874982118606,-0.0185624994337558,0.1907089948654174,-0.1230629980564117,-0.1598190069198608,0.2802009880542755,-9.541292190551758,-2.2483460903167725
1757088370210581800,2.582581787109375,0.0268124993890523,0.0697124972939491,-0.0112749999389052,0.1951700001955032,-0.1329579949378967,-0.1420429944992065,0.2793270051479339,-9.54074764251709,-2.250730037689209
1757088370220134700,2.592134765625,0.0328624993562698,0.0611874982714653,-0.0038499999791383,0.1714050024747848,-0.1400880068540573,-0.1066379994153976,0.2786979973316192,-9.540006637573242,-2.253896951675415
1757088370229687800,2.601687744140625,0.0390499979257583,0.0514249987900257,-0.0002749999985098,0.1304540038108825,-0.1876039952039718,-0.0890759974718093,0.2782549858093261,-9.53909969329834,-2.257734060287476
1757088370239240700,2.61124072265625,0.0426249988377094,0.0354750007390975,-0.0015124999918043,0.0871490016579628,-0.2534109950065613,-0.0412600003182888,0.2779670059680938,-9.538068771362305,-2.2620670795440674
1757088370248793600,2.620793701171875,0.0475750006735324,0.0147124994546175,-0.0027499999850988,0.0617729984223842,-0.2874279916286468,0.0039829998277127,0.2778820097446441,-9.536940574645996,-2.2667770385742188
1757088370258346500,2.630346435546875,0.0463375002145767,-0.0048124999739229,-0.0063249999657273,0.0422560013830661,-0.3135240077972412,0.0463449992239475,0.2780230045318603,-9.535758018493652,-2.27170205116272
1757088370267899400,2.6398994140625,0.0426249988377094,-0.0133375003933906,-0.0087999999523162,0.0260799992829561,-0.305334985256195,0.0952790006995201,0.2782750129699707,-9.534563064575195,-2.27667498588562
1757088370277452500,2.64945263671875,0.0353375002741813,-0.0072874999605119,-0.0087999999523162,0.0221650004386901,-0.2633529901504516,0.1119910031557083,0.2785300016403198,-9.533398628234863,-2.2815189361572266
1757088370287005400,2.65900537109375,0.0303875003010034,0.0061874999664723,-0.0038499999791383,0.0272840000689029,-0.2212900072336197,0.1211030036211013,0.2786870002746582,-9.532293319702148,-2.286139965057373
1757088370296558300,2.668558349609375,0.0230999998748302,0.0196624994277954,0.0034374999813735,0.0159050002694129,-0.2055830061435699,0.1111539974808693,0.2787010073661804,-9.531258583068848,-2.290487051010132
1757088370306111500,2.678111572265625,0.0193875003606081,0.032999999821186,0.0059124999679625,-0.021841000765562,-0.2304710000753402,0.1034109964966774,0.2785370051860809,-9.530312538146973,-2.2944788932800293
1757088370315664400,2.687664306640625,0.015812499448657,0.0452375002205371,0.002199999988079,-0.0591140016913414,-0.2430859953165054,0.1115000024437904,0.2780610024929046,-9.529497146606444,-2.297970056533813
1757088370325217300,2.69721728515625,0.0096249999478459,0.0549999997019767,-0.0027499999850988,-0.0732870027422905,-0.2559899985790252,0.0754019990563392,0.2771709859371185,-9.528815269470217,-2.3009400367736816
1757088370334770200,2.706770263671875,0.0060499999672174,0.0574750006198883,-0.0075624999590218,-0.0725990012288093,-0.2622880041599273,0.0249429997056722,0.2757900059223175,-9.528249740600586,-2.3034698963165283
1757088370344323000,2.716322998046875,0.0072874999605119,0.0514249987900257,-0.0112749999389052,-0.0559410005807876,-0.2452030032873153,-0.0089339995756745,0.2739380002021789,-9.527783393859863,-2.305634021759033
1757088370353876200,2.725876220703125,0.0108624994754791,0.0342375002801418,-0.0087999999523162,-0.0385759994387626,-0.2331289947032928,-0.0133699998259544,0.2716920077800751,-9.527408599853516,-2.30745005607605
1757088370363429000,2.73542919921875,0.0120999999344348,0.0159499999135732,-0.0050874999724328,-0.0410109981894493,-0.2328760027885437,0.0006329999887384,0.2690500020980835,-9.527151107788086,-2.308811902999878
1757088370372982000,2.74498193359375,0.0145749999210238,0.0086624994874,-0.0027499999850988,-0.0324379988014698,-0.1967439949512481,0.0122769996523857,0.2660520076751709,-9.52702808380127,-2.3096439838409424
1757088370382535200,2.75453515625,0.0170499999076128,0.0122375003993511,0.0009624999947845,-0.0494779981672763,-0.1840240061283111,0.0576790012419223,0.2625840008258819,-9.527070999145508,-2.3098299503326416
1757088370392088000,2.764088134765625,0.015812499448657,0.0269499998539686,0.002199999988079,-0.0517939999699592,-0.1995089948177337,0.0913060009479522,0.2585470080375671,-9.527318954467772,-2.309217929840088
1757088370401641000,2.773640869140625,0.015812499448657,0.0477125011384487,0.0034374999813735,-0.0491209998726844,-0.2027440071105957,0.1117929965257644,0.2538819909095764,-9.527779579162598,-2.307782888412476
1757088370411193900,2.78319384765625,0.0145749999210238,0.0647625029087066,0.002199999988079,-0.0438509993255138,-0.2249169945716858,0.1217639967799186,0.2486030012369156,-9.528446197509766,-2.305556058883667
1757088370420747000,2.7927470703125,0.0133375003933906,0.0721874982118606,0.002199999988079,-0.0387209989130497,-0.2327779978513717,0.1151370033621788,0.2428160011768341,-9.529300689697266,-2.302597999572754
1757088370430300000,2.8022998046875,0.0108624994754791,0.0734250023961067,0.0009624999947845,-0.0202099997550249,-0.2071820050477981,0.1134660020470619,0.2366909980773925,-9.53029441833496,-2.2990810871124268
1757088370439852800,2.811852783203125,0.0096249999478459,0.0684750005602836,-0.0027499999850988,-0.0092890001833438,-0.2131900042295456,0.0754309967160224,0.2303079962730407,-9.531373023986816,-2.2952311038970947
1757088370449406000,2.821406005859375,0.0083875004202127,0.0599500015377998,-0.0063249999657273,0.0124509995803236,-0.2073529958724975,0.0665600001811981,0.2237779945135116,-9.53249168395996,-2.2912139892578125
1757088370458958800,2.830958740234375,0.0083875004202127,0.0489500015974044,-0.0063249999657273,0.0372439995408058,-0.2041189968585968,0.0536459982395172,0.2172340005636215,-9.533602714538574,-2.287216901779175
1757088370468511700,2.84051171875,0.0083875004202127,0.0379500016570091,-0.0063249999657273,0.062679998576641,-0.2133180052042007,0.0186269991099834,0.210778996348381,-9.53466796875,-2.2833869457244877
1757088370478064600,2.850064697265625,0.0072874999605119,0.0281875003129243,-0.0038499999791383,0.0839949995279312,-0.2177940011024475,0.0124880000948905,0.204471006989479,-9.535680770874023,-2.2797510623931885
1757088370487617500,2.859617431640625,0.0060499999672174,0.017187500372529,-0.0015124999918043,0.0742650032043457,-0.2125120013952255,0.024745000526309,0.1983209997415542,-9.536649703979492,-2.27626895904541
1757088370497170700,2.869170654296875,0.0048124999739229,0.0086624994874,0.002199999988079,0.0803700014948844,-0.2072270065546035,0.0249520000070333,0.1924919933080673,-9.537572860717772,-2.272944927215576
1757088370506723800,2.878723876953125,0.002337499987334,0.0074249999597668,0.0059124999679625,0.0721990019083023,-0.19268099963665,0.0001740000006975,0.1871239989995956,-9.538416862487791,-2.2698919773101807
1757088370516276500,2.8882763671875,0.0010999999940395,0.0086624994874,0.0071499999612569,0.050840999931097,-0.1923470050096511,0.0083450004458427,0.1822340041399002,-9.539204597473145,-2.2670180797576904
1757088370525829400,2.897829345703125,-0.0013749999925494,0.0086624994874,0.0071499999612569,0.0352180004119873,-0.2041130065917968,-0.0092150000855326,0.1778009980916977,-9.539958953857422,-2.264233112335205
1757088370535382500,2.907382568359375,-0.0026124999858438,0.0037124999798834,0.0082499999552965,0.0406089983880519,-0.2161339968442917,-0.0329059995710849,0.1738110035657882,-9.540695190429688,-2.2614779472351074
1757088370544935400,2.916935302734375,-0.0037124999798834,0.0001374999992549,0.0059124999679625,0.0232439991086721,-0.2140460014343261,-0.0554220005869865,0.1701219975948333,-9.541410446166992,-2.258776903152466
1757088370554488600,2.926488525390625,-0.0026124999858438,-0.0010999999940395,0.0034374999813735,0.0409240014851093,-0.1816110014915466,-0.1034180000424385,0.1667429953813552,-9.542057991027832,-2.2563281059265137
1757088370564041200,2.936041259765625,-0.0026124999858438,0.0012374999932944,-0.0002749999985098,0.0466739982366561,-0.1590359956026077,-0.119096003472805,0.1636250019073486,-9.542627334594728,-2.2541890144348145
1757088370573594400,2.945594482421875,-0.0026124999858438,0.0061874999664723,-0.0002749999985098,0.0567269995808601,-0.1605480015277862,-0.1294209957122802,0.1608289927244186,-9.543081283569336,-2.252495050430298
1757088370583147300,2.955147216796875,-0.0013749999925494,0.0122375003993511,0.0009624999947845,0.0797960013151168,-0.1645929962396621,-0.1368699967861175,0.1584399938583374,-9.543391227722168,-2.251382112503052
1757088370592700200,2.9647001953125,0.0010999999940395,0.017187500372529,-0.0002749999985098,0.0882600024342536,-0.190420001745224,-0.1553740054368972,0.156479001045227,-9.543527603149414,-2.250952959060669
1757088370602253300,2.97425341796875,0.0035749999806284,0.0208999998867511,-0.0015124999918043,0.1032359972596168,-0.2017489969730377,-0.1433520019054412,0.1549900025129318,-9.543489456176758,-2.2512240409851074
1757088370611806200,2.98380615234375,0.0035749999806284,0.0196624994277954,-0.0027499999850988,0.1197710037231445,-0.2415499985218048,-0.1324989944696426,0.154008999466896,-9.543290138244627,-2.2521309852600098
1757088370621359000,2.993359130859375,0.002337499987334,0.0184249989688396,-0.0015124999918043,0.1239319965243339,-0.24720199406147,-0.0884020030498504,0.1535059958696365,-9.542963981628418,-2.2535300254821777
1757088370630912300,3.002912353515625,0.0010999999940395,0.0208999998867511,-0.0015124999918043,0.1391720026731491,-0.2217240035533905,-0.0827049985527992,0.1535049974918365,-9.542537689208984,-2.2553200721740723
1757088370640465000,3.01246484375,0.0010999999940395,0.032999999821186,-0.0015124999918043,0.1447539925575256,-0.1967799961566925,-0.1155129969120025,0.1539530009031295,-9.54198932647705,-2.257589101791382
1757088370650018000,3.02201806640625,0.002337499987334,0.0428999997675418,-0.0002749999985098,0.1523579955101013,-0.1860560029745102,-0.0987059995532035,0.1547819972038269,-9.541336059570312,-2.2602670192718506
1757088370659571000,3.031571044921875,0.0010999999940395,0.0428999997675418,0.0009624999947845,0.1548590064048767,-0.1631619930267334,-0.0803399980068206,0.155919000506401,-9.540611267089844,-2.2632200717926025
1757088370669123800,3.041123779296875,-0.0001374999992549,0.0342375002801418,0.002199999988079,0.1456120014190673,-0.1617110073566436,-0.0743929967284202,0.1572680026292801,-9.539823532104492,-2.266417980194092
1757088370678676700,3.0506767578125,-0.0013749999925494,0.0219999998807907,0.002199999988079,0.1185579970479011,-0.1722539961338043,-0.08262799680233,0.1587640047073364,-9.53896427154541,-2.2699079513549805
1757088370688230000,3.06022998046875,-0.0013749999925494,0.0111375004053115,-0.0027499999850988,0.0955320000648498,-0.204132005572319,-0.0772579982876777,0.1602810025215149,-9.538042068481444,-2.273655891418457
1757088370697782800,3.06978271484375,-0.0001374999992549,0.0024749999865889,-0.0050874999724328,0.0941760018467903,-0.2141630053520202,-0.0563380010426044,0.1618160009384155,-9.537087440490724,-2.2775349617004395
1757088370707335700,3.079335693359375,-0.0001374999992549,-0.002337499987334,-0.0063249999657273,0.0996910035610199,-0.2286719977855682,-0.0367290005087852,0.1634429991245269,-9.53610897064209,-2.281506061553955
1757088370716888800,3.088888916015625,-0.0013749999925494,-0.0072874999605119,-0.0063249999657273,0.0912330001592636,-0.2403669953346252,-0.0116280000656843,0.1651919931173324,-9.53513526916504,-2.2854559421539307
1757088370726441700,3.098441650390625,-0.0049499999731779,-0.0108624994754791,-0.0038499999791383,0.0829420015215873,-0.2445210069417953,0.0072110001929104,0.1670259982347488,-9.534193992614746,-2.289257049560547
1757088370735994600,3.10799462890625,-0.0061874999664723,-0.0133375003933906,-0.0002749999985098,0.0634069964289665,-0.2364410012960434,0.0250390004366636,0.1689680069684982,-9.533313751220703,-2.2928009033203125
1757088370745547500,3.117547607421875,-0.0086624994874,-0.015812499448657,0.0009624999947845,0.0447949990630149,-0.2353730052709579,0.0326399989426136,0.1709299981594085,-9.532541275024414,-2.2958929538726807
1757088370755100700,3.1271005859375,-0.0098999999463558,-0.0182875003665685,0.002199999988079,0.0270789992064237,-0.2419109940528869,-0.0034250000026077,0.1728670001029968,-9.531868934631348,-2.2985639572143555
1757088370764653600,3.136653564453125,-0.0123749999329447,-0.0145749999210238,-0.0015124999918043,-0.0027960001025348,-0.2343219965696334,-0.0263519994914531,0.1746460050344467,-9.531292915344238,-2.300843954086304
1757088370774206500,3.14620654296875,-0.0123749999329447,-0.0097624994814395,-0.0050874999724328,0.0123880002647638,-0.2389380037784576,-0.0435799993574619,0.1762209981679916,-9.530806541442873,-2.3027560710906982
1757088370783759600,3.155759521484375,-0.0123749999329447,-0.002337499987334,-0.010037500411272,0.0182900000363588,-0.2366870045661926,-0.0666560009121894,0.1775639951229095,-9.530409812927246,-2.3043179512023926
1757088370793312500,3.1653125,-0.0111375004053115,0.0061874999664723,-0.0136124994605779,0.0153559995815157,-0.2536660134792328,-0.0749970003962516,0.1786060035228729,-9.530088424682615,-2.3055810928344727
1757088370802865400,3.174865478515625,-0.0136124994605779,0.0147124994546175,-0.0197999998927116,0.0291930008679628,-0.30137699842453,-0.0610430017113685,0.1793040037155151,-9.529850959777832,-2.306520938873291
1757088370812418300,3.184418212890625,-0.0184249989688396,0.0257124993950128,-0.0270875003188848,0.0454550012946128,-0.3297480046749115,-0.0622240006923675,0.179636999964714,-9.52967357635498,-2.3072309494018555
1757088370821971500,3.193971435546875,-0.0233750008046627,0.0354750007390975,-0.0332750007510185,0.0909769982099533,-0.3293609917163849,-0.0660469979047775,0.1796520054340362,-9.529559135437012,-2.3077049255371094
1757088370831524400,3.2035244140625,-0.0281875003129243,0.0428999997675418,-0.0356125012040138,0.1252399981021881,-0.2837759852409363,-0.0831400007009506,0.1794310063123703,-9.529519081115724,-2.307887077331543
1757088370841077200,3.2130771484375,-0.0318999998271465,0.0514249987900257,-0.0356125012040138,0.1509480029344558,-0.2482569962739944,-0.1150709986686706,0.1790219992399215,-9.529521942138672,-2.307905912399292
1757088370850630100,3.222630126953125,-0.034375000745058,0.058712501078844,-0.0368499979376792,0.1551669985055923,-0.2538380026817322,-0.1501390039920807,0.178407996892929,-9.529537200927734,-2.30788803100586
1757088370860183000,3.23218310546875,-0.0367125011980533,0.0636624991893768,-0.0368499979376792,0.1728249937295913,-0.2479410022497177,-0.1880369931459427,0.1776459962129593,-9.529535293579102,-2.3079519271850586
1757088370869736000,3.24173583984375,-0.0367125011980533,0.0636624991893768,-0.0405624993145465,0.1582500040531158,-0.2853290140628814,-0.2131049931049347,0.1767390072345733,-9.529508590698242,-2.3081328868865967
1757088370879289000,3.2512890625,-0.034375000745058,0.0599500015377998,-0.0455125011503696,0.1493829935789108,-0.2940750122070312,-0.2186129987239837,0.1757230013608932,-9.52943992614746,-2.3084869384765625
1757088370888842000,3.260842041015625,-0.0318999998271465,0.0549999997019767,-0.0552750006318092,0.135012000799179,-0.307325005531311,-0.1988400071859359,0.1745190024375915,-9.529332160949709,-2.309022903442383
1757088370898395100,3.27039501953125,-0.0306624993681907,0.053762499243021,-0.0686125010251998,0.1429290026426315,-0.2889670133590698,-0.1570660024881363,0.1730750054121017,-9.52919101715088,-2.30971097946167
1757088370907948000,3.279947998046875,-0.0331375002861022,0.062424998730421,-0.0857999995350837,0.1453830003738403,-0.3085460066795349,-0.1406439989805221,0.171324998140335,-9.529013633728027,-2.3105618953704834
1757088370917501000,3.2895009765625,-0.0404249988496303,0.075762502849102,-0.106562502682209,0.1815869957208633,-0.3396520018577575,-0.1284179985523224,0.1692660003900528,-9.528806686401367,-2.3115620613098145
1757088370927053800,3.2990537109375,-0.0477125011384487,0.0954250022768974,-0.1273249983787536,0.2226520031690597,-0.3585700094699859,-0.1290760040283203,0.166931003332138,-9.528566360473633,-2.3127150535583496
1757088370936607000,3.30860693359375,-0.0574750006198883,0.1197625026106834,-0.1480875015258789,0.2594619989395141,-0.4017490148544311,-0.1810629963874817,0.1643379926681518,-9.528267860412598,-2.3141210079193115
1757088370946159900,3.318159912109375,-0.0648999959230423,0.147949993610382,-0.1736624985933303,0.2927989959716797,-0.4547330141067505,-0.2248930037021637,0.1614670008420944,-9.527921676635742,-2.3157379627227783
1757088370955712800,3.327712646484375,-0.0734250023961067,0.1759999990463256,-0.2018499970436096,0.3458119928836822,-0.5344280004501343,-0.2887429893016815,0.1584019958972931,-9.527521133422852,-2.31758189201355
1757088370965265700,3.337265625,-0.0819500014185905,0.1930499970912933,-0.2286625057458877,0.3920679986476898,-0.5642009973526001,-0.3391669988632202,0.1551010012626648,-9.527061462402344,-2.319683074951172
1757088370974818600,3.346818603515625,-0.0892374962568283,0.2065249979496002,-0.2591874897480011,0.420863002538681,-0.5897330045700073,-0.4017089903354645,0.1514929980039596,-9.526527404785156,-2.322084903717041
1757088370984371700,3.356371826171875,-0.0941874980926513,0.2162874937057495,-0.2909500002861023,0.4911809861660003,-0.5605090260505676,-0.4536249935626983,0.147814005613327,-9.52591037750244,-2.324821949005127
1757088370993924600,3.365924560546875,-0.0979000031948089,0.2175250053405761,-0.317900002002716,0.5645959973335266,-0.5056639909744263,-0.4979889988899231,0.1441480070352554,-9.525153160095217,-2.3281140327453613
1757088371003477500,3.3754775390625,-0.1027124971151351,0.2089999914169311,-0.3398999869823456,0.6291130185127258,-0.5061360001564026,-0.5247250199317932,0.1405840069055557,-9.524236679077148,-2.3320438861846924
1757088371013030700,3.38503076171875,-0.1076624989509582,0.201712504029274,-0.3594250082969665,0.6465799808502197,-0.5123170018196106,-0.6053040027618408,0.1369860023260116,-9.523109436035156,-2.336806058883667
1757088371022583600,3.39458349609375,-0.1076624989509582,0.2052875012159347,-0.381424993276596,0.6426889896392822,-0.5451099872589111,-0.6369240283966064,0.1331409960985183,-9.521774291992188,-2.342396974563598
1757088371032136400,3.404136474609375,-0.1039500012993812,0.2322375029325485,-0.4094749987125397,0.5945910215377808,-0.5516049861907959,-0.6372020244598389,0.1286769956350326,-9.520254135131836,-2.3487329483032227
1757088371041689600,3.413689697265625,-0.0941874980926513,0.2785750031471252,-0.4437125027179718,0.5530940294265747,-0.5312070250511169,-0.572613000869751,0.1232659965753555,-9.518596649169922,-2.3556230068206787
1757088371051242500,3.423242431640625,-0.083187498152256,0.3385249972343445,-0.4852375090122223,0.5321879982948303,-0.4542030096054077,-0.4159579873085022,0.1165509968996048,-9.516902923583984,-2.362662076950073
1757088371070348300,3.442348388671875,-0.0819500014185905,0.4655750095844269,-0.5744749903678894,0.6304759979248047,-0.1727380007505417,-0.0763159990310669,0.0988399982452392,-9.513795852661133,-2.375607967376709
1757088371079901200,3.451901123046875,-0.0917124971747398,0.5083374977111816,-0.6122875213623047,0.7271959781646729,0.0167260002344846,0.03957299888134,0.0880260020494461,-9.51251983642578,-2.380944013595581
1757088371089454300,3.461454345703125,-0.1064250022172927,0.5326749682426453,-0.6440500020980835,0.8186900019645691,0.2065420001745224,0.0891809985041618,0.0761450007557869,-9.511438369750977,-2.385474920272827
1757088371099007200,3.47100732421875,-0.112475000321865,0.5436750054359436,-0.6697624921798706,0.8660770058631897,0.3969030082225799,0.0069260001182556,0.0633350014686584,-9.51043701171875,-2.3896210193634038
1757088371108560400,3.480560302734375,-0.1027124971151351,0.5449125170707703,-0.6953374743461609,0.83815598487854,0.5400440096855164,-0.047419000416994,0.0494219996035099,-9.509408950805664,-2.3937909603118896
1757088371118113300,3.49011328125,-0.084425002336502,0.5400999784469604,-0.7210500240325928,0.9193009734153748,0.6732149720191956,-0.0069309999234974,0.0345810018479824,-9.50832462310791,-2.3981029987335205
1757088371127666200,3.499666259765625,-0.0672374963760376,0.5511000156402588,-0.738099992275238,0.8663979768753052,0.789484977722168,0.0502929985523223,0.0186000000685453,-9.50719165802002,-2.4024879932403564
1757088371137219300,3.50921923828125,-0.0416624993085861,0.5669124722480774,-0.768762469291687,0.7208660244941711,0.8945620059967041,0.0381349995732307,0.0009079999872483,-9.505940437316896,-2.4071390628814697
1757088371146772200,3.518772216796875,-0.0123749999329447,0.6084374785423279,-0.8016250133514404,0.6512799859046936,0.9744840264320374,0.0529409982264041,-0.0189130008220672,-9.504528999328612,-2.412132024765014
1757088371156324900,3.528324951171875,0.0083875004202127,0.6696249842643738,-0.8298124670982361,0.7014250159263611,1.1010559797286987,0.207297995686531,-0.0428810007870197,-9.503033638000488,-2.416830062866211
1757088371165878000,3.5378779296875,0.0181499999016523,0.7379624843597412,-0.8408125042915344,0.9408850073814392,1.2026790380477903,0.2491499930620193,-0.0710370019078254,-9.501432418823242,-2.4211199283599854
1757088371175431200,3.54743115234375,0.0291499998420476,0.7942000031471252,-0.8310499787330627,1.0705870389938354,1.162081956863403,0.1737480014562606,-0.1035989969968795,-9.4996919631958,-2.424954891204834
1757088371184984000,3.556984130859375,0.0450999997556209,0.8332499861717224,-0.7992874979972839,1.3658709526062012,1.178022027015686,-0.0304349996149539,-0.1405500024557113,-9.497800827026367,-2.42822003364563
1757088371194537000,3.566536865234375,0.0548624992370605,0.8540124893188477,-0.7503374814987183,1.3333029747009275,1.0730969905853271,-0.2294609993696212,-0.1777949929237365,-9.495595932006836,-2.432568073272705
1757088371204089900,3.57608984375,0.0646250024437904,0.8467249870300293,-0.7185750007629395,1.1394670009613037,0.8238139748573303,-0.4322200119495392,-0.2158470004796981,-9.49296760559082,-2.438230037689209
1757088371213642800,3.585642822265625,0.0915749967098236,0.8271999955177307,-0.7149999737739563,0.8246240019798279,0.6067469716072083,-0.5918200016021729,-0.2555910050868988,-9.489747047424316,-2.4455130100250244
1757088371223195600,3.595195556640625,0.1403875052928924,0.7441499829292297,-0.7613375186920166,0.2535589933395386,0.4511300027370453,-0.7034270167350769,-0.2986359894275665,-9.485651969909668,-2.4547719955444336
1757088371232748800,3.604748779296875,0.20762500166893,0.6048625111579895,-0.8750500082969666,-0.3298409879207611,0.3429810106754303,-0.6493120193481445,-0.346789002418518,-9.480398178100586,-2.466140985488892
1757088371242301700,3.6143017578125,0.2626250088214874,0.4911499917507171,-1.0301499366760254,-0.6373460292816162,0.1711529940366745,-0.3880079984664917,-0.401201993227005,-9.473836898803713,-2.4792699813842773
1757088371251854800,3.623854736328125,0.2857249975204468,0.4581499993801117,-1.2134374380111694,-1.0376299619674685,0.1441099941730499,0.1793799996376037,-0.4637550115585327,-9.465932846069336,-2.4929440021514893
1757088371261407700,3.63340771484375,0.2551999986171722,0.5400999784469604,-1.4430625438690186,-1.4105019569396973,0.3001250028610229,0.5924500226974487,-0.5368480086326599,-9.456415176391602,-2.506150960922241
1757088371270960600,3.642960693359375,0.231962502002716,0.651199996471405,-1.721637487411499,-1.959223985671997,0.2164179980754852,0.5950819849967957,-0.6233999729156494,-9.44449234008789,-2.5187230110168457
1757088371280513500,3.652513427734375,0.2406249940395355,0.7147250175476074,-2.017262458801269,-2.09939193725586,0.0744170024991035,0.0994959995150566,-0.7249450087547302,-9.429027557373049,-2.5318078994750977
1757088371290066400,3.66206640625,0.2747249901294708,0.4386250078678131,-2.187074899673462,-1.0776610374450684,-0.1035749986767768,-0.5280669927597046,-0.8388149738311768,-9.409629821777344,-2.5470778942108154
1757088371299619300,3.671619384765625,0.2466749995946884,-0.6852999925613403,-2.0185000896453857,-0.0977670028805732,0.001914000022225,-0.8496170043945312,-0.95973801612854,-9.386673927307127,-2.5665860176086426
1757088371309172500,3.68117236328125,0.1929125040769577,-1.439074993133545,-1.8437374830245967,-1.0163370370864868,0.1846619993448257,-1.0991469621658323,-1.0883790254592896,-9.359373092651367,-2.5915849208831787
1757088371318725600,3.6907255859375,0.1782000064849853,-1.442787528038025,-1.8633999824523928,-2.585988044738769,0.1180899962782859,-0.8372499942779541,-1.2215100526809692,-9.329395294189451,-2.619157075881958
1757088371328278500,3.700278564453125,0.2124374955892563,-0.878350019454956,-1.9379249811172483,-2.4085769653320312,0.0987700000405311,-0.4763520061969757,-1.3595349788665771,-9.296548843383787,-2.648500919342041
1757088371337831400,3.70983154296875,0.2894375026226043,-0.1086250022053718,-1.879212498664856,-1.4652949571609497,-0.025102000683546,0.0651789978146553,-1.5070220232009888,-9.259379386901855,-2.6782031059265137
1757088371347384300,3.71938427734375,0.3786749839782715,0.5730999708175659,-1.7692124843597412,-1.7464460134506226,-0.1225040033459663,0.958166003227234,-1.6632030010223389,-9.218074798583984,-2.705570936203003
1757088371356937200,3.728937255859375,0.3884375095367431,1.039775013923645,-1.699637532234192,-1.7292790412902832,0.0844610035419464,1.9487340450286863,-1.8287409543991089,-9.173059463500977,-2.7271010875701904
1757088371366490000,3.738489990234375,0.3712500035762787,1.4564000368118286,-1.6703499555587769,-1.617568016052246,0.1455290019512176,1.986920952796936,-2.003675937652588,-9.124146461486816,-2.741621971130371
1757088371376043300,3.748043212890625,0.3469125032424927,1.8620250225067136,-1.664162516593933,-0.6959519982337952,-0.086556002497673,2.077049016952514,-2.185983896255493,-9.07228946685791,-2.74763298034668
1757088371385596200,3.75759619140625,0.3016749918460846,2.0525999069213867,-1.6103999614715576,0.9033219814300536,-0.2823930084705353,2.4550869464874268,-2.375540971755981,-9.019956588745115,-2.741554975509644
1757088371395149000,3.767149169921875,0.2136749923229217,1.8998374938964844,-1.5065875053405762,2.192431926727295,-0.1967439949512481,2.76411509513855,-2.5676560401916504,-8.96940803527832,-2.7219200134277344
1757088371404702200,3.7767021484375,0.0719124972820282,1.4526875019073486,-1.4235374927520752,2.3879520893096924,-0.1566659957170486,3.121548891067505,-2.759911060333252,-8.921420097351074,-2.687553882598877
1757088371414255000,3.786255126953125,-0.1319999992847442,0.8834375143051147,-1.4735875129699707,1.2559850215911863,-0.2998239994049072,3.44058895111084,-2.9528510570526123,-8.874654769897461,-2.637608051300049
1757088371423808000,3.79580810546875,-0.3458124995231628,0.4118124842643738,-1.6898750066757202,-0.8022689819335938,-0.3488329946994781,3.1890809535980225,-3.149264097213745,-8.82593822479248,-2.5733389854431152
1757088371433361000,3.80536083984375,-0.5535749793052673,0.1699499934911728,-1.918262481689453,-0.9410549998283386,-0.82676100730896,3.783268928527832,-3.34597396850586,-8.77448558807373,-2.5042850971221924
1757088371442913800,3.814913818359375,-0.7441499829292297,0.0647625029087066,-1.9989750385284424,0.1949449926614761,-1.4698280096054075,4.010899066925049,-3.541084051132202,-8.720006942749023,-2.4315319061279297
1757088371452467000,3.824467041015625,-0.8772500157356262,-0.0500499978661537,-1.9647375345230105,1.3491380214691162,-1.9694000482559204,3.511276960372925,-3.7318599224090576,-8.662675857543945,-2.35624098777771
1757088371462020000,3.83402001953125,-0.9334874749183656,-0.2674374878406524,-1.94397497177124,1.432191014289856,-2.025279998779297,2.851689100265503,-3.9151980876922607,-8.603145599365234,-2.279205083847046
1757088371471573000,3.843572998046875,-0.9274374842643738,-0.5631999969482422,-2.0625,0.5019479990005493,-1.8512840270996092,1.510274052619934,-4.089919090270996,-8.542055130004883,-2.2002201080322266
1757088371481126000,3.8531259765625,-0.8101499676704407,-0.8380625247955322,-2.2567875385284424,0.0316889993846416,-1.3212989568710327,-0.0473789982497692,-4.259233951568604,-8.479133605957031,-2.118546962738037
1757088371490678800,3.8626787109375,-0.6721000075340271,-1.0456874370574951,-2.349600076675415,-0.0230090003460645,-0.0687879994511604,-0.5476340055465698,-4.428657054901123,-8.413108825683594,-2.034641981124878
1757088371500231700,3.872231689453125,-0.6183375120162964,-1.07868754863739,-2.3276000022888184,-0.0754209980368614,1.0338259935379028,-0.8050810098648071,-4.599127769470215,-8.343034744262695,-1.9489059448242188
1757088371509784600,3.88178466796875,-0.5486249923706055,-0.8991125226020813,-2.1968374252319336,0.3346579968929291,1.4288179874420166,-1.7670300006866455,-4.772575855255127,-8.267069816589355,-1.8675789833068848
1757088371519337500,3.89133740234375,-0.4300999939441681,-0.4544374942779541,-1.9854999780654907,0.7512900233268738,1.6781070232391355,-2.695971965789795,-4.94649076461792,-8.185738563537598,-1.7935899496078491
1757088371528890400,3.900890380859375,-0.2835249900817871,-0.0891000032424926,-1.799875020980835,0.6832960247993469,1.8599519729614256,-2.774221897125244,-5.115572929382324,-8.100300788879395,-1.7278779745101929
1757088371538443500,3.910443603515625,-0.1772374957799911,0.1064250022172927,-1.6728249788284302,0.8360080122947693,1.7572710514068604,-2.4437389373779297,-5.277737140655518,-8.011007308959961,-1.6725889444351196
1757088371547996700,3.91999658203125,-0.0966624990105629,0.233474999666214,-1.5896375179290771,1.0806119441986084,1.4086819887161257,-2.289671897888184,-5.430922031402588,-7.918477058410644,-1.6305429935455322
1757088371557549600,3.929549560546875,-0.0049499999731779,0.2237125039100647,-1.5566375255584717,0.7395359873771667,1.149886965751648,-2.244601964950561,-5.574995040893555,-7.822762966156006,-1.602488994598389
1757088371567102500,3.9391025390625,0.0426249988377094,0.032999999821186,-1.5823500156402588,0.5873349905014038,0.8695639967918396,-1.5900410413742063,-5.711945056915283,-7.723200798034668,-1.5885299444198608
1757088371576655400,3.9486552734375,0.0683375000953674,-0.1379124969244003,-1.616587519645691,0.3647130131721496,0.393189013004303,-0.5895000100135803,-5.846030235290527,-7.618229866027832,-1.587859034538269
1757088371586208300,3.958208251953125,0.0780999958515167,-0.1013374999165535,-1.630062460899353,0.19548000395298,-0.2396569997072219,0.5043969750404358,-5.981301784515381,-7.507024765014648,-1.5978200435638428
1757088371595761200,3.96776123046875,0.0708125010132789,0.1319999992847442,-1.5860625505447388,0.2456970065832138,-0.7117210030555725,1.2411160469055176,-6.118885040283203,-7.39032506942749,-1.616091012954712
1757088371605314000,3.97731396484375,0.052387498319149,0.4263874888420105,-1.5065875053405762,0.4518199861049652,-0.9539939761161804,1.771052002906799,-6.255973815917969,-7.270943164825439,-1.6404759883880615
1757088371614867200,3.9868671875,-0.0001374999992549,0.5853375196456909,-1.4357750415802002,0.5779560208320618,-0.9433709979057312,1.8250919580459597,-6.387357234954834,-7.15274715423584,-1.668766975402832
1757088371624420000,3.996420166015625,-0.058712501078844,0.5351499915122986,-1.4235374927520752,0.3064950108528137,-0.6779260039329529,1.4364559650421145,-6.515097141265869,-7.0355658531188965,-1.693168044090271
1757088371633973200,4.00597314453125,-0.0709500014781951,0.3592875003814697,-1.4613499641418457,0.272392988204956,-0.3948329985141754,1.058832049369812,-6.639163017272949,-6.918723106384277,-1.715917944908142
1757088371643526100,4.015526123046875,-0.0477125011384487,0.079475000500679,-1.4955874681472778,0.506505012512207,-0.1417050063610077,0.8364459872245789,-6.759603977203369,-6.801804065704346,-1.7391220331192017
1757088371653079000,4.0250791015625,-0.0281875003129243,-0.1343374997377395,-1.4797749519348145,0.5937060117721558,0.0471340008080005,0.9916689991950988,-6.876659870147705,-6.684671878814697,-1.762842059135437
1757088371662632000,4.0346318359375,-0.029424998909235,-0.1453374922275543,-1.4370124340057373,0.5263199806213379,0.0875369980931282,0.935563027858734,-6.990050792694092,-6.567684173583984,-1.7864220142364502
1757088371672184800,4.044184814453125,-0.017187500372529,-0.0743874981999397,-1.4088250398635864,0.1662860065698623,0.2046120017766952,0.2705209851264953,-7.099495887756348,-6.450640201568604,-1.810338020324707
1757088371681738000,4.053738037109375,0.0450999997556209,-0.0426249988377094,-1.3990625143051147,-0.1318349987268448,0.2954719960689544,-0.3058390021324157,-7.204669952392578,-6.333694934844971,-1.833441972732544
1757088371691291000,4.063290771484375,0.0536249987781047,0.0184249989688396,-1.3990625143051147,-0.3347499966621399,0.2038239985704422,-0.3753809928894043,-7.304114818572998,-6.218451023101807,-1.853849053382873
1757088371700843800,4.07284375,0.0291499998420476,0.1064250022172927,-1.3880624771118164,0.0589190013706684,0.0663969963788986,-0.3106929957866668,-7.39831018447876,-6.1059160232543945,-1.8677669763565063
1757088371710397000,4.08239697265625,0.0010999999940395,0.1612875014543533,-1.3367749452590942,0.1913249939680099,-0.0257150009274482,-0.2275809943675995,-7.488350868225098,-5.99642276763916,-1.8723089694976809
1757088371719949800,4.09194970703125,-0.0098999999463558,0.2517625093460083,-1.309962511062622,0.0512350015342235,0.0785199999809265,0.2016070038080215,-7.574905872344971,-5.889994144439697,-1.8660709857940676
1757088371729502700,4.101502685546875,-0.0501874983310699,0.3165250122547149,-1.3112000226974487,-0.035861000418663,0.2835470139980316,0.350941002368927,-7.659167766571045,-5.78554105758667,-1.8493380546569824
1757088371739055600,4.1110556640625,-0.0013749999925494,0.2993375062942505,-1.3527250289916992,0.0845220014452934,0.6377540230751038,0.2398609966039657,-7.742724895477295,-5.681031227111816,-1.823418974876404
1757088371748608500,4.1206083984375,0.0671000033617019,0.2432374954223632,-1.3795374631881714,-0.0005510000046342,0.4649609923362732,0.3645240068435669,-7.825435161590576,-5.576752185821533,-1.7886689901351929
1757088371758161400,4.130161376953125,0.1049124971032142,0.2370499968528747,-1.385725021362305,-0.272159993648529,0.0070239999331533,0.4540509879589081,-7.906962871551514,-5.473169803619385,-1.7461390495300293
1757088371767714600,4.139714599609375,0.1196250021457672,0.3005749881267547,-1.358775019645691,-0.2660979926586151,-0.5270410180091858,0.4941520094871521,-7.986638069152832,-5.37089204788208,-1.6980860233306885
1757088371777267700,4.149267822265625,0.1123374998569488,0.3628624975681305,-1.318487524986267,-0.0529000014066696,-0.8762509822845459,0.4429050087928772,-8.063883781433105,-5.269867897033691,-1.648082971572876
1757088371786820400,4.1588203125,0.0976250022649765,0.3507624864578247,-1.302537441253662,0.1216140016913414,-1.0907150506973269,0.2570849955081939,-8.138487815856934,-5.169511795043945,-1.5998389720916748
1757088371796373500,4.16837353515625,0.1036750003695488,0.3067624866962433,-1.2952499389648438,0.3743909895420074,-0.8987129926681519,-0.0890420004725456,-8.2106351852417,-5.068483829498291,-1.557353973388672
1757088371805926100,4.177926025390625,0.0915749967098236,0.2529999911785126,-1.289199948310852,0.3303639888763428,-0.8283159732818604,-0.1678040027618408,-8.280617713928223,-4.966135025024414,-1.521996021270752
1757088371815479300,4.187479248046875,0.0963874980807304,0.2785750031471252,-1.284250020980835,-0.2077050060033798,-0.4865899980068207,-0.4555320143699646,-8.348645210266113,-4.861973762512207,-1.4932390451431274
1757088371825032200,4.1970322265625,0.1036750003695488,0.2932874858379364,-1.2647249698638916,-0.6124140024185181,-0.3731400072574615,-0.5393909811973572,-8.41478157043457,-4.756272792816162,-1.4693540334701538
1757088371834585000,4.206585205078125,0.1233374997973442,0.294524997472763,-1.2439625263214111,-0.8135650157928467,-0.3810890018939972,-0.4316990077495575,-8.479266166687012,-4.649370193481445,-1.4480869770050049
1757088371844138200,4.21613818359375,0.1343374997377395,0.2590500116348266,-1.2244374752044678,-0.65522301197052,-0.4863260090351105,-0.1711570024490356,-8.541921615600586,-4.5420098304748535,-1.4284930229187012
1757088371853691100,4.225691162109375,0.1343374997377395,0.215049996972084,-1.2109625339508057,-0.5948389768600464,-0.5063120126724243,-0.0019650000613182,-8.602704048156738,-4.434502124786377,-1.410109043121338
1757088371863244000,4.235244140625,0.1416250020265579,0.1955250054597854,-1.1987249851226809,-0.3220889866352081,-0.3457970023155212,0.071221999824047,-8.661367416381836,-4.327731132507324,-1.391165018081665
1757088371872797000,4.244796875,0.1416250020265579,0.2040500044822693,-1.1816749572753906,-0.1772609949111938,-0.2686890065670013,0.1313879936933517,-8.717756271362305,-4.222547054290772,-1.3698099851608276
1757088371882350000,4.25435009765625,0.1391499936580658,0.1930499970912933,-1.163249969482422,-0.2172739952802658,-0.3290239870548248,0.107194997370243,-8.771754264831543,-4.119287014007568,-1.3462920188903809
1757088371891903000,4.263903076171875,0.1440999954938888,0.190712496638298,-1.1449625492095947,-0.4965949952602386,-0.5429530143737793,-0.0963720008730888,-8.823708534240723,-4.017469882965088,-1.32157301902771
1757088371901456000,4.273455810546875,0.1440999954938888,0.1979999989271164,-1.114437460899353,-0.678072988986969,-0.5167419910430908,-0.1118070036172866,-8.87397575378418,-3.9164209365844727,-1.2961159944534302
1757088371911008800,4.2830087890625,0.128150001168251,0.201712504029274,-1.0839124917984009,-0.7755619883537292,-0.5534870028495789,0.2443190068006515,-8.922182083129883,-3.816582918167114,-1.27059805393219
1757088371920562000,4.29256201171875,0.0951500013470649,0.2700499892234802,-1.0338624715805054,-0.5676910281181335,-0.3860369920730591,0.5368859767913818,-8.968017578125,-3.718576908111572,-1.244699001312256
1757088371930114800,4.30211474609375,0.0560999996960163,0.3873375058174133,-0.9556249976158142,-0.3405489921569824,-0.1841759979724884,0.6124280095100403,-9.01116943359375,-3.62349009513855,-1.2169979810714722
1757088371939667700,4.311667724609375,0.0303875003010034,0.4838624894618988,-0.8958125114440918,-0.3323329985141754,-0.0283840000629425,0.3668879866600036,-9.051804542541504,-3.531064987182617,-1.1877859830856323
1757088371949220600,4.321220703125,0.0268124993890523,0.4923875033855438,-0.8676249980926514,-0.2965869903564453,-0.0370009988546371,0.1001849994063377,-9.090208053588867,-3.4407529830932617,-1.1581209897994995
1757088371958773500,4.3307734375,0.0206249989569187,0.4923875033855438,-0.8468624949455261,-0.2785269916057586,0.0046009998768568,0.1421529948711395,-9.127058029174805,-3.351212978363037,-1.128309965133667
1757088371968326700,4.34032666015625,0.0133375003933906,0.4936249852180481,-0.8248624801635742,-0.2047380059957504,-0.0825780034065246,-0.0806460008025169,-9.162802696228027,-3.261605024337769,-1.0991400480270386
1757088371977879600,4.349879638671875,0.0096249999478459,0.4716250002384186,-0.7870500087738037,-0.1532340049743652,-0.1361739933490753,-0.151087999343872,-9.197783470153809,-3.1715409755706787,-1.070351004600525
1757088371987432400,4.359432373046875,0.0083875004202127,0.4643374979496002,-0.7565249800682068,-0.3540120124816894,-0.1595550030469894,-0.1116110011935234,-9.232114791870115,-3.081242084503174,-1.040490984916687
1757088371996985300,4.3689853515625,-0.0037124999798834,0.4386250078678131,-0.7357624769210815,-0.2191780060529709,-0.0892879962921142,0.247076004743576,-9.265811920166016,-2.9909369945526123,-1.0082019567489624
1757088372006538500,4.37853857421875,-0.0441375002264976,0.3727625012397766,-0.729574978351593,-0.080376997590065,0.2650279998779297,0.6224340200424194,-9.298516273498535,-2.901262044906616,-0.9720749855041504
1757088372016091400,4.38809130859375,-0.0453750006854534,0.3190000057220459,-0.7320500016212463,0.2036730051040649,0.4298790097236633,0.3763479888439178,-9.32998275756836,-2.812480926513672,-0.9331039786338806
1757088372025644300,4.397644287109375,-0.0367125011980533,0.3409999907016754,-0.6905249953269958,0.2908659875392914,0.3997870087623596,0.1992200016975402,-9.360065460205078,-2.7249860763549805,-0.8921030163764954
1757088372035197200,4.407197265625,-0.0184249989688396,0.3715249896049499,-0.6122875213623047,0.4693549871444702,0.2333820015192031,0.2777990102767944,-9.388758659362791,-2.6392219066619877,-0.8491870164871216
1757088372044750000,4.41675,-0.0061874999664723,0.4300999939441681,-0.5242875218391418,0.3910219967365265,-0.0270419996231794,0.0715809985995292,-9.41590404510498,-2.556160926818848,-0.8049790263175964
1757088372054303200,4.42630322265625,-0.0111375004053115,0.4961000084877014,-0.4461874961853027,0.3047829866409302,-0.155922994017601,-0.0635839998722076,-9.441381454467772,-2.4765870571136475,-0.7595710158348083
1757088372063856000,4.435856201171875,0.002337499987334,0.5218124985694885,-0.3997125029563904,-0.0732040032744407,-0.0448409989476203,-0.4740209877490997,-9.465261459350586,-2.40014910697937,-0.7142159938812256
1757088372073409300,4.4454091796875,0.0096249999478459,0.4655750095844269,-0.4204750061035156,-0.7643979787826538,-0.1000450029969215,-0.703656017780304,-9.487704277038574,-2.3263609409332275,-0.6696029901504517
1757088372082962200,4.454962158203125,0.0060499999672174,0.3800500035285949,-0.4547125101089477,-1.0219860076904297,-0.043843001127243,-0.3387739956378937,-9.508962631225586,-2.2549469470977783,-0.6238440275192261
1757088372092515000,4.46451513671875,-0.0281875003129243,0.3275249898433685,-0.4877125024795532,-1.0639779567718506,-0.072062000632286,-0.0342560000717639,-9.529051780700684,-2.1858389377593994,-0.5772020220756531
1757088372102068000,4.47406787109375,-0.0428999997675418,0.3873375058174133,-0.4729999899864197,-0.9078660011291504,0.0595670007169246,-0.1038179993629455,-9.548055648803713,-2.118206024169922,-0.5305839776992798
1757088372111620900,4.483620849609375,-0.0574750006198883,0.5131499767303467,-0.4204750061035156,-0.7924270033836365,0.2242860049009323,-0.2220440059900283,-9.565909385681152,-2.051872968673706,-0.4848560094833374
1757088372121173800,4.493173828125,-0.0391874983906745,0.5315750241279602,-0.3704249858856201,-0.7764739990234375,0.2309969961643219,-0.3941890001296997,-9.582541465759276,-1.9870359897613523,-0.4412299990653991
1757088372130727000,4.502726806640625,-0.0281875003129243,0.5181000232696533,-0.3411374986171722,-0.9322310090065002,0.10538300126791,-0.3656080067157745,-9.59792137145996,-1.92428994178772,-0.3994570076465606
1757088372140280000,4.512280029296875,-0.0086624994874,0.5131499767303467,-0.3326124846935272,-0.9995239973068236,0.043418001383543,-0.3055750131607055,-9.612095832824709,-1.8642640113830569,-0.3579789996147156
1757088372149833000,4.5218330078125,-0.0049499999731779,0.4973374903202057,-0.3154250085353851,-0.8484669923782349,-0.0170370005071163,-0.1111430004239082,-9.625139236450195,-1.806676983833313,-0.3171820044517517
1757088372159385900,4.5313857421875,-0.0037124999798834,0.4973374903202057,-0.2934249937534332,-0.7084199786186218,-0.1097650006413459,-0.1648609936237335,-9.63718605041504,-1.7515660524368286,-0.2765780091285705
1757088372168938800,4.540938720703125,0.0060499999672174,0.4606249928474426,-0.2971374988555908,-0.7583950161933899,-0.2186450064182281,-0.2143460065126419,-9.648347854614258,-1.6988379955291748,-0.2361840009689331
1757088372178491600,4.55049169921875,0.0170499999076128,0.4155249893665313,-0.3106124997138977,-0.791674017906189,-0.232462003827095,-0.1388510018587112,-9.658669471740724,-1.6483839750289917,-0.1961539983749389
1757088372188044500,4.56004443359375,0.0206249989569187,0.3299999833106994,-0.3251875042915344,-0.649429976940155,-0.0961040034890174,0.1015359982848167,-9.668161392211914,-1.5997979640960691,-0.1571529954671859
1757088372197597700,4.56959765625,0.0133375003933906,0.2199999988079071,-0.3423750102519989,-0.4871590137481689,0.0619259998202323,0.3093329966068268,-9.676673889160156,-1.5534900426864624,-0.119948998093605
1757088372207150600,4.579150634765625,0.0193875003606081,0.1662375032901764,-0.3398999869823456,-0.3957340121269226,0.2371100038290023,0.2480719983577728,-9.684293746948242,-1.5093729496002195,-0.0839660018682479
1757088372216703700,4.588703857421875,0.0255750007927417,0.1405249983072281,-0.320374995470047,-0.3161619901657104,0.3189609944820404,0.1675910055637359,-9.691173553466797,-1.4670239686965942,-0.0491040013730526
1757088372226256600,4.598256591796875,0.0353375002741813,0.1405249983072281,-0.2763749957084656,-0.1272310018539428,0.3062379956245422,0.0506470017135143,-9.697497367858888,-1.425773024559021,-0.0160780008882284
1757088372235809500,4.6078095703125,0.0365750007331371,0.1577125042676925,-0.2311374992132187,-0.0781430006027221,0.2692759931087494,0.0335119999945163,-9.703489303588867,-1.384803056716919,0.0155140003189444
1757088372245362400,4.617362548828125,0.0365750007331371,0.1942874938249588,-0.1883749961853027,-0.0321419984102249,0.2859930098056793,0.0522029995918273,-9.709268569946287,-1.3435699939727783,0.0459979996085166
1757088372254915300,4.626915283203125,0.0268124993890523,0.2199999988079071,-0.1528999954462051,-0.0279549993574619,0.2417909950017929,0.1643940061330795,-9.714763641357422,-1.3027130365371704,0.0769269987940788
1757088372264468200,4.63646826171875,0.015812499448657,0.2272875010967254,-0.1285624951124191,-0.0485100001096725,0.1932069957256317,0.2017409950494766,-9.719911575317385,-1.262786030769348,0.1092320010066032
1757088372274021000,4.646021240234375,-0.0074249999597668,0.231000006198883,-0.1163249984383583,-0.0263769999146461,0.1869000047445297,0.2227859944105148,-9.724678993225098,-1.223803997039795,0.1416099965572357
1757088372283574300,4.65557421875,-0.0246124994009733,0.2285249978303909,-0.1003749966621398,0.0267210006713867,0.1938499957323074,0.1680060029029846,-9.729052543640137,-1.185981035232544,0.1741150021553039
1757088372293127200,4.665127197265625,-0.0354750007390975,0.2199999988079071,-0.0820875018835067,0.0932909995317459,0.0894600003957748,0.1800300031900406,-9.732901573181152,-1.1503640413284302,0.2066109925508499
1757088372302680000,4.67468017578125,-0.0464750006794929,0.2089999914169311,-0.0600874982774257,0.0846230015158653,-0.0002559999993536,0.2668110132217407,-9.736170768737791,-1.1174689531326294,0.2390329986810684
1757088372312233200,4.684233154296875,-0.0611874982714653,0.1955250054597854,-0.0430375002324581,0.0416139997541904,-0.1061599999666214,0.2913089990615845,-9.738886833190918,-1.0874420404434204,0.2717980146408081
1757088372321786000,4.6937861328125,-0.079475000500679,0.1845249980688095,-0.0246124994009733,0.0767109990119934,-0.1681499928236007,0.3738079965114593,-9.7410888671875,-1.0601179599761963,0.3050990104675293
1757088372331339000,4.703339111328125,-0.1137124970555305,0.1979999989271164,-0.0125124994665384,0.0678670033812522,-0.2257879972457885,0.414012998342514,-9.7428617477417,-1.0349260568618774,0.3383139967918396
1757088372340892000,4.712891845703125,-0.1344749927520752,0.2272875010967254,-0.0038499999791383,0.1444319933652877,-0.3218649923801422,0.3356930017471313,-9.744142532348633,-1.0125010013580322,0.371639996767044
1757088372350445000,4.722445068359375,-0.1516624987125396,0.2565749883651733,-0.0002749999985098,0.2035689949989318,-0.3644059896469116,0.3037390112876892,-9.74496841430664,-0.9925869703292848,0.4053139984607696
1757088372359998000,4.731998046875,-0.1687124967575073,0.2785750031471252,-0.0075624999590218,0.2573980093002319,-0.4094150066375732,0.2642840147018432,-9.74535846710205,-0.9750270247459412,0.4396829903125763
1757088372369550800,4.74155078125,-0.190712496638298,0.2762374877929687,-0.0295624993741512,0.2396969944238662,-0.4180729985237121,0.1910900026559829,-9.74532985687256,-0.9597610235214232,0.4745430052280426
1757088372379103700,4.751103759765625,-0.2054249942302703,0.2480500042438507,-0.0600874982774257,0.1769980043172836,-0.4274770021438598,0.1655340045690536,-9.744871139526367,-0.9470229744911194,0.5094119906425476
1757088372388656600,4.76065673828125,-0.2261874973773956,0.1894749999046325,-0.0906125009059906,0.1051580011844635,-0.3723480105400085,0.2847889959812164,-9.7439603805542,-0.936922013759613,0.5442789793014526
1757088372398209500,4.77020947265625,-0.2419999986886978,0.116187497973442,-0.1090374961495399,-0.0827810019254684,-0.3959609866142273,0.2245099991559982,-9.742609024047852,-0.9298099875450134,0.5789780020713806
1757088372407762700,4.7797626953125,-0.2432374954223632,0.0599500015377998,-0.1053249984979629,-0.1548160016536712,-0.278355985879898,0.2726800143718719,-9.740859031677246,-0.9254429936408995,0.6137080192565918
1757088372417315800,4.78931591796875,-0.2444749921560287,0.0208999998867511,-0.0772750005125999,-0.3171359896659851,-0.1590009927749633,0.3228890001773834,-9.738786697387695,-0.92325097322464,0.6486999988555908
1757088372426868500,4.798868408203125,-0.2432374954223632,0.0111375004053115,-0.0307999998331069,-0.4116509854793548,-0.0469130016863346,0.2586989998817444,-9.73647689819336,-0.922764003276825,0.683650016784668
1757088372436421400,4.80842138671875,-0.2419999986886978,0.0281875003129243,0.0217249989509582,-0.4722970128059387,0.0138779999688267,0.1492449939250946,-9.73398208618164,-0.9238839745521544,0.71806401014328
1757088372445974500,4.817974609375,-0.2382874935865402,0.0672374963760376,0.0609125010669231,-0.5233960151672363,-0.0542300008237361,-0.0345409996807575,-9.73135757446289,-0.9266809821128844,0.7511159777641296
1757088372455527400,4.82752734375,-0.2347124963998794,0.1209999993443489,0.0742499977350235,-0.55314701795578,-0.0925849974155426,-0.1497740000486374,-9.728631973266602,-0.9310659766197203,0.7825790047645569
1757088372465080300,4.837080322265625,-0.2261874973773956,0.1491875052452087,0.0742499977350235,-0.5106030106544495,-0.0424490012228488,-0.2343260049819946,-9.725849151611328,-0.9368379712104796,0.8122580051422119
1757088372474633200,4.84663330078125,-0.2114749997854232,0.1454750001430511,0.0926750004291534,-0.2927300035953522,0.0984489992260932,-0.2491019964218139,-9.723045349121094,-0.9436799883842468,0.8402959704399109
1757088372484186400,4.856186279296875,-0.1919499933719635,0.1344749927520752,0.1255374997854232,-0.1248539984226226,0.1722570061683654,-0.285178005695343,-9.7202787399292,-0.9511719942092896,0.8665500283241272
1757088372493739300,4.8657392578125,-0.1797125041484832,0.1319999992847442,0.1512500047683715,0.0497669987380504,0.157149001955986,-0.2947390079498291,-9.717577934265137,-0.9591619968414308,0.8907960057258606
1757088372503292200,4.875292236328125,-0.1857624948024749,0.1247124969959259,0.152487501502037,0.2472379952669143,0.1168730035424232,-0.1889930069446563,-9.714929580688477,-0.9674400091171264,0.9133750200271606
1757088372512845000,4.884844970703125,-0.1955250054597854,0.1014750003814697,0.1304875016212463,0.394688993692398,-0.0100659998133778,-0.313398003578186,-9.712392807006836,-0.9760630130767822,0.9336090087890624
1757088372522398200,4.894398193359375,-0.1894749999046325,0.0647625029087066,0.0864875018596649,0.3457030057907104,-0.2014019936323166,-0.3591170012950897,-9.710003852844238,-0.9851830005645752,0.9509559869766236
1757088372531951000,4.903951171875,-0.1809500008821487,0.0342375002801418,0.0400125011801719,0.1407179981470108,-0.175245001912117,-0.4954699873924255,-9.707902908325195,-0.9940710067749025,0.96486097574234
1757088372541504000,4.91350390625,-0.1577125042676925,0.0111375004053115,0.0169124994426965,-0.0704509988427162,-0.1629939973354339,-0.5420479774475098,-9.706171989440918,-1.0023460388183594,0.9749469757080078
1757088372551057000,4.923056884765625,-0.1381874978542328,0.0244750007987022,0.0107249999418854,-0.2435549944639206,-0.2050109952688217,-0.5459849834442139,-9.704828262329102,-1.009932041168213,0.9812219738960266
1757088372560609800,4.93260986328125,-0.1296624988317489,0.0562375001609325,0.0169124994426965,-0.2833980023860931,-0.2262679934501648,-0.4982190132141113,-9.703813552856444,-1.0170079469680786,0.9842029809951782
1757088372570162700,4.94216259765625,-0.1222374960780143,0.0769999995827674,0.0192499998956918,-0.1275739967823028,-0.253926008939743,-0.4937469959259033,-9.703069686889648,-1.0238900184631348,0.9842450022697448
1757088372579715600,4.951715576171875,-0.1174250021576881,0.0574750006198883,0.0156750008463859,0.1425440013408661,-0.2353000044822693,-0.3867399990558624,-9.702545166015623,-1.0309820175170898,0.981548011302948
1757088372589268700,4.961268798828125,-0.1209999993443489,0.0367125011980533,0.0107249999418854,0.2546910047531128,-0.1384090036153793,-0.2596369981765747,-9.702180862426758,-1.038112998008728,0.9770240187644958
1757088372598821600,4.970821533203125,-0.1296624988317489,0.0257124993950128,0.0034374999813735,0.1843339949846267,-0.2018450051546096,-0.1973350048065185,-9.701898574829102,-1.0457700490951538,0.970956027507782
1757088372608374800,4.980374755859375,-0.1222374960780143,0.0428999997675418,0.0009624999947845,0.1631440073251724,-0.0317410007119178,-0.22809399664402,-9.701730728149414,-1.0536890029907229,0.9634289741516112
1757088372617927700,4.989927734375,-0.112475000321865,0.0782374963164329,0.004674999974668,0.0920640006661415,0.0585759989917278,-0.2284319996833801,-9.70165729522705,-1.0617170333862305,0.9548640251159668
1757088372627480600,4.99948046875,-0.0989999994635582,0.0929500013589859,0.0082499999552965,0.0908759981393814,0.168954998254776,-0.1961459964513778,-9.701683044433594,-1.069471001625061,0.9456760287284852
1757088372637033500,5.009033447265625,-0.088137499988079,0.0989999994635582,0.0107249999418854,0.1165930032730102,0.2373380064964294,-0.2339510023593902,-9.701837539672852,-1.0763880014419556,0.9361339807510376
1757088372646586600,5.018586669921875,-0.0734250023961067,0.0941874980926513,0.0071499999612569,0.1427329927682876,0.2610689997673034,-0.2757889926433563,-9.702154159545898,-1.0822190046310425,0.926153004169464
1757088372656139300,5.02813916015625,-0.0611874982714653,0.0734250023961067,-0.0015124999918043,0.1755219995975494,0.2151630073785781,-0.1914380043745041,-9.702582359313965,-1.08719801902771,0.915988028049469
1757088372665692400,5.0376923828125,-0.0574750006198883,0.0464750006794929,-0.0148499999195337,0.1155750006437301,0.1365769952535629,-0.341482013463974,-9.703125,-1.091737985610962,0.9050440192222596
1757088372675245300,5.047245361328125,-0.0269499998539686,0.0159499999135732,-0.0270875003188848,0.1057460010051727,0.007424000184983,-0.4141699969768524,-9.703760147094728,-1.0961860418319702,0.8930580019950867
1757088372684798200,5.056798095703125,-0.0013749999925494,-0.002337499987334,-0.0430375002324581,0.0323459990322589,-0.1816640049219131,-0.3337810039520263,-9.70444679260254,-1.100793957710266,0.8801649808883667
1757088372694351400,5.066351318359375,0.0120999999344348,-0.002337499987334,-0.0576125010848045,0.0457840003073215,-0.2958289980888366,-0.1020829975605011,-9.705148696899414,-1.1056580543518066,0.866720974445343
1757088372703904300,5.075904296875,0.0181499999016523,0.0184249989688396,-0.05884999781847,0.0254560001194477,-0.1960339993238449,0.0671629980206489,-9.705841064453123,-1.1101269721984863,0.8537989854812622
1757088372713457200,5.08545703125,0.024337500333786,0.0404249988496303,-0.0490874983370304,0.0724840015172958,-0.0599730014801025,0.1251139938831329,-9.70654582977295,-1.1134870052337646,0.8420370221138
1757088372723010000,5.095010009765625,0.0426249988377094,0.0489500015974044,-0.0345125012099742,0.1976709961891174,-0.1369449943304062,0.1040399968624115,-9.70711898803711,-1.116479992866516,0.8320540189743042
1757088372732563000,5.10456298828125,0.0609125010669231,0.0452375002205371,-0.0173249989748001,0.2818470001220703,-0.0605310015380382,0.2127110064029693,-9.707494735717772,-1.119209051132202,0.8244839906692505
1757088372742116000,5.1141162109375,0.0646250024437904,0.0208999998867511,-0.0087999999523162,0.2685289978981018,0.0752969980239868,0.2834790050983429,-9.707718849182127,-1.121251940727234,0.8194040060043335
1757088372751669200,5.123669189453125,0.0756250023841857,-0.0133375003933906,-0.0125124994665384,0.2472590059041977,0.1487929970026016,0.1347420066595077,-9.707914352416992,-1.1222879886627195,0.8158890008926392
1757088372761222000,5.133221923828125,0.085387498140335,-0.0353375002741813,-0.0197999998927116,0.1769270002841949,0.1764660030603408,0.0039180000312626,-9.708174705505373,-1.1220190525054932,0.8132719993591309
1757088372770774800,5.14277490234375,0.0951500013470649,-0.057337500154972,-0.0235124994069337,0.0543840005993843,0.1519580036401748,-0.0511870011687278,-9.708556175231934,-1.1204320192337036,0.8109800219535828
1757088372780328000,5.152327880859375,0.1013374999165535,-0.0780999958515167,-0.0235124994069337,-0.044548001140356,0.0808769986033439,-0.0284349992871284,-9.709035873413086,-1.11798894405365,0.8086379766464233
1757088372789880800,5.161880859375,0.1013374999165535,-0.0768624991178512,-0.0148499999195337,-0.1156449988484382,-0.0152439996600151,0.015871999785304,-9.709600448608398,-1.1148680448532104,0.8062379956245422
1757088372799433700,5.171433837890625,0.0988624989986419,-0.0536249987781047,-0.0038499999791383,-0.1204930022358894,-0.0349880009889602,0.089428000152111,-9.710142135620115,-1.1117130517959597,0.8041290044784546
1757088372808986600,5.180986572265625,0.0939124971628189,-0.024337500333786,0.0094875004142522,-0.0542539991438388,-0.0158740002661943,0.1715150028467178,-9.710607528686523,-1.1088290214538574,0.8025670051574707
1757088372818539800,5.190539794921875,0.0878624990582466,0.0012374999932944,0.022962499409914,0.0115999998524785,0.0240899994969367,0.2122150063514709,-9.710954666137695,-1.1064939498901367,0.8016629815101624
1757088372828092700,5.2000927734375,0.0841500014066696,0.0159499999135732,0.0302499998360872,0.073182001709938,0.1125049963593483,0.169741004705429,-9.711177825927734,-1.1046819686889648,0.8014699816703796
1757088372837645600,5.2096455078125,0.0818125009536743,0.0074249999597668,0.0290124993771314,0.0923279970884323,0.1462090015411377,0.0942149981856346,-9.711291313171388,-1.103368043899536,0.8018850088119507
1757088372847198700,5.21919873046875,0.0756250023841857,-0.0097624994814395,0.0204875003546476,0.1069260016083717,0.1523829996585846,0.0989260002970695,-9.711334228515623,-1.1023839712142944,0.8026900291442871
1757088372856751600,5.228751708984375,0.0671000033617019,-0.0268124993890523,0.0107249999418854,0.0550640001893043,0.1546999961137771,0.0487129986286163,-9.711301803588867,-1.1014939546585083,0.8042500019073486
1757088372866304300,5.23830419921875,0.0598125010728836,-0.0340999998152256,-0.0002749999985098,0.0392250008881092,0.1489309966564178,0.0584889985620975,-9.711207389831545,-1.10030996799469,0.806954026222229
1757088372875857400,5.247857421875,0.0536249987781047,-0.0475750006735324,-0.0063249999657273,0.0398360006511211,0.0525740012526512,0.0283049996942281,-9.711103439331056,-1.098613977432251,0.8105180263519287
1757088372885410000,5.25741015625,0.0475750006735324,-0.0426249988377094,-0.0063249999657273,-0.0059699998237192,-0.058993998914957,0.0696130022406578,-9.711030006408691,-1.0964490175247192,0.8143839836120605
1757088372894963200,5.266963134765625,0.0438624992966651,-0.024337500333786,0.0009624999947845,-0.0092430002987384,-0.0958629995584487,0.0865489989519119,-9.710970878601074,-1.0942740440368652,0.8180829882621765
1757088372904516400,5.276516357421875,0.0378125011920928,-0.0060499999672174,0.0071499999612569,-0.0254369992762804,-0.1957760006189346,0.1031659990549087,-9.710864067077637,-1.0927510261535645,0.8214550018310547
1757088372914069200,5.2860693359375,0.0268124993890523,0.0111375004053115,0.0144375003874301,-0.0087320003658533,-0.2351260036230087,0.1193369999527931,-9.710719108581545,-1.0916730165481567,0.8246409893035889
1757088372923622100,5.2956220703125,0.0218624994158744,0.0232375003397464,0.0169124994426965,-0.0064849997870624,-0.2562049925327301,0.0769419968128204,-9.710549354553224,-1.0912270545959473,0.827239990234375
1757088372933175000,5.305175048828125,0.0108624994754791,0.0208999998867511,0.0131999999284744,0.0146369999274611,-0.2854009866714477,0.0911730006337165,-9.710305213928224,-1.0918680429458618,0.8291929960250854
1757088372942728200,5.314728271484375,0.0035749999806284,0.0098999999463558,0.0009624999947845,0.0578709989786148,-0.2572619915008545,0.0465719997882843,-9.70993423461914,-1.0937119722366333,0.8309680223464966
1757088372952281000,5.324281005859375,-0.0037124999798834,-0.0182875003665685,-0.0136124994605779,0.1162820011377334,-0.1752029955387115,0.0608510002493858,-9.709415435791016,-1.09660005569458,0.8330299854278564
1757088372961834200,5.333834228515625,-0.0111375004053115,-0.0340999998152256,-0.0283249989151954,0.0821980014443397,-0.0475969985127449,0.1344860047101974,-9.708770751953123,-1.1000299453735352,0.8358370065689087
1757088372971387000,5.343386962890625,-0.0147124994546175,-0.0426249988377094,-0.0332750007510185,0.0539680011570453,0.0630510002374649,0.114446997642517,-9.708069801330566,-1.1034480333328247,0.8393470048904419
1757088372980940000,5.35293994140625,-0.0123749999329447,-0.0402874983847141,-0.0295624993741512,-0.0151930004358291,0.0227910000830888,0.1093159988522529,-9.707345962524414,-1.1066670417785645,0.8434140086174011
1757088372990493000,5.362492919921875,-0.0111375004053115,-0.0365750007331371,-0.0235124994069337,-0.0618849992752075,0.1816260069608688,0.1359290033578872,-9.706684112548828,-1.1091179847717283,0.8477929830551147
1757088373000045800,5.3720458984375,-0.0098999999463558,-0.031624998897314,-0.0173249989748001,-0.0725430026650428,0.1761499941349029,0.0838569998741149,-9.70612907409668,-1.1108180284500122,0.8519369959831238
1757088373009598700,5.3815986328125,-0.0049499999731779,-0.0328624993562698,-0.0087999999523162,-0.054662998765707,0.1538410037755966,0.068692997097969,-9.705690383911133,-1.1119179725646973,0.8555219769477844
1757088373019151600,5.391151611328125,-0.0037124999798834,-0.0340999998152256,-0.0015124999918043,-0.0439999997615814,0.1922470033168792,0.1063779965043068,-9.705337524414062,-1.1125530004501345,0.8586900234222412
1757088373038257700,5.410257568359375,0.0072874999605119,-0.0292875003069639,0.0034374999813735,0.0279150009155273,0.1638309955596923,0.0115050002932548,-9.704809188842772,-1.1129080057144165,0.8641809821128845
1757088373047810800,5.419810791015625,0.0145749999210238,-0.0292875003069639,0.0059124999679625,0.0599710009992122,0.0653960034251213,-0.0724629983305931,-9.704575538635254,-1.1132320165634155,0.8664090037345886
1757088373057363500,5.429363525390625,0.0230999998748302,-0.0353375002741813,0.004674999974668,0.0909740030765533,-0.1130300015211105,-0.0923240035772323,-9.704290390014648,-1.1143800020217896,0.8682029843330383
1757088373066916600,5.43891650390625,0.0280499998480081,-0.0378125011920928,0.002199999988079,0.0854540020227432,-0.256632000207901,-0.1557939946651458,-9.703936576843262,-1.1165169477462769,0.8695070147514343
1757088373076469500,5.448469482421875,0.0340999998152256,-0.0450999997556209,-0.0027499999850988,0.0758809968829155,-0.1464129984378814,-0.1336210072040558,-9.70359992980957,-1.1189700365066528,0.8702110052108765
1757088373086022400,5.4580224609375,0.0390499979257583,-0.0536249987781047,-0.0038499999791383,0.1248600035905838,-0.030894000083208,-0.1888239979743957,-9.703362464904783,-1.1212610006332395,0.8699730038642883
1757088373095575300,5.4675751953125,0.0401500016450881,-0.057337500154972,-0.0063249999657273,0.0708580017089843,-0.0377050004899501,-0.1748290061950683,-9.70326805114746,-1.1230590343475342,0.8686689734458923
1757088373105128200,5.477128173828125,0.0390499979257583,-0.0548624992370605,-0.0112749999389052,0.0678350031375885,0.0434399992227554,-0.1979849934577942,-9.703386306762695,-1.123939037322998,0.866100013256073
1757088373114681300,5.486681396484375,0.0390499979257583,-0.0536249987781047,-0.010037500411272,0.0497509986162185,-0.0719500035047531,-0.2265660017728805,-9.703683853149414,-1.1241730451583862,0.8622410297393799
1757088373124234200,5.496234130859375,0.0340999998152256,-0.0402874983847141,-0.0075624999590218,-0.0097200004383921,-0.1358840018510818,-0.1981430053710937,-9.704141616821287,-1.1238670349121094,0.8571929931640625
1757088373133787100,5.505787109375,0.0291499998420476,-0.0292875003069639,-0.0050874999724328,-0.0018579999450594,-0.0717160031199455,-0.197282001376152,-9.704748153686523,-1.1229690313339231,0.8511890172958374
1757088373143340000,5.515340087890625,0.0255750007927417,-0.0182875003665685,0.0009624999947845,-0.0014509999891743,-0.0851769968867302,-0.197513997554779,-9.7054443359375,-1.1218429803848269,0.844353973865509
1757088373152893000,5.524892822265625,0.0268124993890523,-0.0060499999672174,0.0071499999612569,-0.0113450000062584,-0.1583739966154098,-0.189750999212265,-9.706154823303224,-1.1212129592895508,0.8366230130195618
1757088373162446000,5.534446044921875,0.0206249989569187,0.0049499999731779,0.0094875004142522,0.0074760001152753,-0.1322309970855713,-0.1790570020675659,-9.706823348999023,-1.1213849782943726,0.8281940221786499
1757088373171998700,5.543998779296875,0.0206249989569187,0.0061874999664723,0.0094875004142522,0.0072139999829232,-0.1166020035743713,-0.1758510023355484,-9.707464218139648,-1.1221970319747925,0.8191080093383789
1757088373181551900,5.5535517578125,0.0193875003606081,0.0061874999664723,0.0059124999679625,0.0044329999946057,-0.1180529966950416,-0.1412149965763092,-9.708027839660645,-1.1240919828414917,0.8093810081481934
1757088373191104800,5.563104736328125,0.0170499999076128,0.0098999999463558,-0.0002749999985098,0.0037799999117851,-0.1380989998579025,-0.1043910011649131,-9.708491325378418,-1.127055048942566,0.7992799878120422
1757088373200658000,5.572657958984375,0.0108624994754791,0.0159499999135732,-0.0038499999791383,0.0222110003232955,-0.123378001153469,-0.0703689977526664,-9.708863258361816,-1.130911946296692,0.7889950275421143
1757088373210210800,5.5822109375,0.0060499999672174,0.0196624994277954,-0.0027499999850988,0.0118349995464086,-0.1185270026326179,-0.0499339997768402,-9.709141731262209,-1.135725021362305,0.7784940004348755
1757088373219763700,5.591763671875,-0.0001374999992549,0.0232375003397464,-0.0015124999918043,0.030282000079751,-0.0798610001802444,-0.0221309997141361,-9.709320068359377,-1.1413990259170532,0.7679880261421204
1757088373229316600,5.601316650390625,-0.0049499999731779,0.0232375003397464,0.0009624999947845,0.0102049997076392,-0.0975570008158683,-0.0026599999982863,-9.709391593933104,-1.1478430032730105,0.7576820254325867
