time,seconds_elapsed,z,y,x
1757088602865042000,0.0920419921875,-1.1096830368041992,0.4265570044517517,8.551485061645508
1757088602874594800,0.1015947265625,-1.4431389570236206,-0.09942500293254852,8.421724319458008
1757088602884148000,0.11114794921875,-2.0616610050201416,-0.8146539926528931,8.178197860717773
1757088602893700900,0.120700927734375,-2.964379072189331,-1.4696290493011475,7.705904006958008
1757088602903254000,0.13025390625,-4.028219223022461,-2.0125739574432373,7.094618797302246
1757088602912807000,0.139806884765625,-5.179969787597656,-2.8508810997009277,6.501893043518066
1757088602922359800,0.14935986328125,-6.286399841308594,-4.141018867492676,5.987086772918701
1757088602931913000,0.158912841796875,-9.017366409301758,-5.648314952850342,5.399073123931885
1757088602941465900,0.1684658203125,-9.403023719787598,-6.730165004730225,5.272127151489258
1757088602951018800,0.178018798828125,-7.422551155090332,-6.915065765380859,6.13276481628418
1757088602960572000,0.187572021484375,-6.502779960632324,-6.602047920227051,5.793954849243164
1757088602970124800,0.197124755859375,-6.2535858154296875,-7.0266947746276855,4.884076118469238
1757088602979677700,0.206677734375,-6.334342956542969,-6.915495872497559,3.5056231021881104
1757088602989230800,0.21623095703125,-6.624032020568848,-6.709574222564697,3.117219924926758
1757088602998783700,0.22578369140625,-7.12301778793335,-7.196589946746826,3.704106092453003
1757088603008336600,0.235336669921875,-7.83604097366333,-7.974600791931152,4.196246147155762
1757088603027442700,0.254442626953125,-10.332980155944824,-8.223835945129395,4.868166923522949
1757088603036995800,0.263995849609375,-10.598706245422363,-7.844923973083496,5.381400108337402
1757088603046548700,0.273548828125,-11.169443130493164,-7.3079352378845215,5.837369918823242
1757088603056101600,0.2831015625,-11.308610916137695,-6.171800136566162,5.124323844909668
1757088603065654800,0.29265478515625,-12.06605339050293,-5.744250774383545,5.3695878982543945
1757088603075208000,0.3022080078125,-12.767498016357422,-5.361971855163574,5.360931873321533
1757088603084760600,0.311760498046875,-12.924358367919922,-4.496662139892578,3.2873589992523193
1757088603094313700,0.321313720703125,-12.69296646118164,-3.69046688079834,0.5068759918212891
1757088603103867000,0.330866943359375,-12.744150161743164,-3.5826759338378906,1.460595965385437
1757088603113419800,0.340419677734375,-12.738126754760742,-3.338320016860962,2.7176930904388428
1757088603122972700,0.34997265625,-12.178581237792969,-2.767595052719116,3.1868550777435303
1757088603132525800,0.35952587890625,-11.25511360168457,-2.273432970046997,3.608367919921875
1757088603142078700,0.36907861328125,-11.324045181274414,-2.433320999145508,3.548029899597168
1757088603151631600,0.378631591796875,-11.97585678100586,-3.082573890686035,3.2514588832855225
1757088603161184800,0.388184814453125,-11.092437744140625,-3.954190969467163,2.2438950538635254
1757088603170737700,0.397737548828125,-11.275250434875488,-5.229234218597412,1.060217022895813
1757088603180290800,0.407290771484375,-15.761842727661133,-6.434321880340576,0.07705999910831451
1757088603189843700,0.41684375,-14.682418823242188,-6.126068115234375,-1.553339958190918
1757088603199396900,0.42639697265625,-8.86670970916748,-5.530066967010498,-1.6200480461120605
1757088603208949800,0.43594970703125,-5.761478900909424,-5.505898952484131,0.0477060005068779
1757088603218502700,0.445502685546875,-5.959121227264404,-5.1516008377075195,0.877498984336853
1757088603228055800,0.455055908203125,-7.913829803466797,-4.634389877319336,0.6772890090942383
1757088603237608700,0.464608642578125,-8.037461280822754,-4.480205059051514,-0.12330999970436096
1757088603247161900,0.474161865234375,-6.738982200622559,-2.8083438873291016,-0.7192370295524597
1757088603256714800,0.48371484375,-5.423958778381348,-3.0606911182403564,-0.37341201305389404
1757088603266267600,0.493267578125,-3.300199031829834,-3.5831620693206787,-1.190606951713562
1757088603275820800,0.50282080078125,-4.139978885650635,-4.626296043395996,-2.7532548904418945
1757088603285374000,0.5123740234375,-6.210184097290039,-3.4858200550079346,-3.4637908935546875
1757088603294926800,0.5219267578125,-7.356480121612549,-3.012600898742676,-3.702385902404785
1757088603304479700,0.531479736328125,-6.020007133483887,-3.7292211055755615,-2.1201210021972656
1757088603314032600,0.54103271484375,-4.8281049728393555,-5.090757846832275,-1.6759920120239258
1757088603323585800,0.550585693359375,-4.413894176483154,-5.919968128204346,-1.6212760210037231
1757088603333138700,0.560138671875,-4.41395902633667,-4.167823791503906,-3.445267915725708
1757088603342691800,0.56969189453125,-3.6566970348358154,-2.043529987335205,-5.224394798278809
1757088603352244700,0.57924462890625,-3.3329970836639404,-0.9113820195198059,-5.957313060760498
1757088603361798000,0.5887978515625,-3.575658082962036,-0.48010799288749695,-6.689194202423096
1757088603371350800,0.598350830078125,-3.4013030529022217,-0.34317299723625183,-7.230241775512695
1757088603380903700,0.607903564453125,-5.31492805480957,-0.9414569735527039,-6.435072898864746
1757088603390456800,0.617456787109375,-6.48674201965332,-2.6323609352111816,-6.350165843963623
1757088603400009700,0.627009765625,-5.894539833068848,-4.683263778686523,-6.30991792678833
1757088603409563000,0.63656298828125,-3.035801887512207,-5.337830066680908,-7.086367130279541
1757088603419115800,0.64611572265625,-3.5726449489593506,-2.100614070892334,-5.496067047119141
1757088603428668700,0.655668701171875,-3.1752419471740723,-1.016785979270935,-5.606154918670654
1757088603438221800,0.665221923828125,-3.562019109725952,-0.1621900051832199,-5.497739791870117
1757088603447774700,0.674774658203125,-4.736647129058838,0.4663270115852356,-4.815445899963379
1757088603457327900,0.684327880859375,-5.985683917999268,0.9556670188903809,-4.044857978820801
1757088603466881000,0.693881103515625,-5.949814796447754,1.7309080362319946,-4.665743827819824
1757088603476434000,0.703433837890625,-3.70573091506958,1.4455729722976685,-5.11317777633667
1757088603485986800,0.71298681640625,-2.0536649227142334,1.29435396194458,-5.435628890991211
1757088603495539700,0.722539794921875,-0.8364549875259399,1.6132019758224487,-5.839198112487793
1757088603505092900,0.7320927734375,-0.7726070284843445,2.152966022491455,-6.231010913848877
1757088603514645800,0.741645751953125,-0.9477890133857727,2.2594010829925537,-6.110229969024658
1757088603524199000,0.751198974609375,-1.6168140172958374,2.315972089767456,-5.411178112030029
1757088603533752000,0.760751953125,-3.3901169300079346,1.3753149509429932,-3.7430338859558105
1757088603543305000,0.770304931640625,-2.3245649337768555,-0.2706269919872284,-5.806842803955078
1757088603552857900,0.77985791015625,-2.51127290725708,-5.943393230438232,-1.6536060571670532
1757088603562410800,0.78941064453125,-6.589949131011963,-20.000337600708008,-1.9141789674758911
1757088603571964000,0.7989638671875,-6.324191093444824,-35.38345718383789,-7.759905815124512
1757088603581517000,0.80851708984375,-5.131826877593994,-36.84196472167969,-9.445351600646973
1757088603591070000,0.818070068359375,-3.24916410446167,-31.6998291015625,-5.18713903427124
1757088603600622800,0.827622802734375,-3.559709072113037,-23.26299476623535,-1.499621033668518
1757088603610176000,0.837176025390625,-7.041762828826904,-12.997271537780762,1.6751949787139893
1757088603619729000,0.84672900390625,-8.393449783325195,-5.699462890625,1.7070059776306152
1757088603629282000,0.856281982421875,-4.909780979156494,-1.100206971168518,-0.11906900256872177
1757088603638835000,0.8658349609375,-2.3646419048309326,1.614753007888794,-2.01412296295166
1757088603648388000,0.87538818359375,-1.0979650020599365,3.208770990371704,-3.6362040042877197
1757088603657941000,0.88494091796875,-1.1344020366668701,4.1501569747924805,-4.510794162750244
1757088603667494000,0.894493896484375,-1.4380600452423096,4.781154155731201,-4.967613220214844
1757088603677046800,0.904046875,-1.682494044303894,4.991659164428711,-5.432497024536133
1757088603686599700,0.913599609375,-2.354641914367676,3.97196888923645,-5.830513954162598
1757088603696153000,0.923153076171875,-3.034912109375,1.4894609451293945,-6.078505039215088
1757088603705706000,0.9327060546875,-3.1174070835113525,-0.679955005645752,-6.073759078979492
1757088603715259100,0.942259033203125,-3.1482880115509033,-2.5127480030059814,-6.527557849884033
1757088603724812000,0.95181201171875,-3.1414899826049805,-3.712064027786255,-6.698915958404541
1757088603734365000,0.961364990234375,-3.2773749828338623,-3.9678690433502197,-6.106847763061523
1757088603743917800,0.970917724609375,-3.358423948287964,-2.6554019451141357,-4.936842918395996
1757088603753471000,0.980470947265625,-3.176966905593872,-1.438310980796814,-4.303514003753662
1757088603763024100,0.990024169921875,-2.8072431087493896,-0.7212820053100586,-4.036231994628906
1757088603772577000,0.999576904296875,-2.419037103652954,-0.25530099868774414,-3.6969919204711914
1757088603782130000,1.0091298828125,-2.2100489139556885,-0.20973600447177887,-3.429816961288452
1757088603791682800,1.018682861328125,-2.2572450637817383,-0.5505419969558716,-3.2415668964385986
1757088603801236000,1.028236083984375,-2.335638999938965,-0.7720549702644348,-3.1170530319213867
1757088603810788900,1.037788818359375,-2.2805089950561523,-0.8418279886245728,-2.912597894668579
1757088603820342000,1.047342041015625,-2.0505619049072266,-0.7935600280761719,-2.746553897857666
1757088603829895200,1.056895263671875,-1.7494659423828125,-0.6405199766159058,-2.6627440452575684
1757088603839448000,1.066447998046875,-1.4544190168380737,-0.465285986661911,-2.6384639739990234
1757088603849001000,1.0760009765625,-1.2369190454483032,-0.30492401123046875,-2.633713960647583
1757088603858553900,1.085553955078125,-1.1646870374679565,-0.21824899315834045,-2.572326898574829
1757088603868107000,1.09510693359375,-1.2505769729614258,-0.18283100426197052,-2.377763032913208
1757088603877660000,1.104659912109375,-1.3880959749221802,-0.19316299259662628,-2.1406478881835938
1757088603887212800,1.114212890625,-1.4998199939727783,-0.2347410023212433,-1.9203280210494995
1757088603896766000,1.123765869140625,-1.5220069885253906,-0.2647930085659027,-1.7387770414352417
1757088603906319000,1.133319091796875,-1.507457971572876,-0.28306499123573303,-1.6303160190582275
1757088603915872000,1.1428720703125,-1.4355440139770508,-0.2872520089149475,-1.5367770195007324
1757088603925425000,1.1524248046875,-1.329609990119934,-0.2843349874019623,-1.4844549894332886
1757088603934977800,1.161977783203125,-1.1750249862670898,-0.24554100632667542,-1.4300999641418457
1757088603944531000,1.171531005859375,-0.9856600165367126,-0.20199599862098694,-1.3128609657287598
1757088603954084000,1.181083984375,-0.8200910091400146,-0.19398599863052368,-1.1500810384750366
1757088603963637000,1.190636962890625,-0.7358700037002563,-0.189628005027771,-0.9943619966506958
1757088603982742800,1.20974267578125,-0.709492027759552,-0.19966700673103333,-0.7910770177841187
1757088604001849000,1.22884912109375,-0.6972619891166687,-0.22829100489616394,-0.711883008480072
1757088604011402200,1.23840234375,-0.6823049783706665,-0.20976600050926208,-0.7273579835891724
1757088604020955100,1.247955078125,-0.6614480018615723,-0.1941079944372177,-0.7556920051574707
1757088604030508000,1.257508056640625,-0.6144329905509949,-0.16226400434970856,-0.7936750054359436
1757088604040061000,1.26706103515625,-0.520018994808197,-0.13594000041484833,-0.8268769979476929
1757088604049614000,1.276614013671875,-0.3858509957790375,-0.1272290050983429,-0.8511729836463928
1757088604059167000,1.2861669921875,-0.29124000668525696,-0.1382949948310852,-0.8354859948158264
1757088604068720000,1.29572021484375,-0.23847399652004242,-0.17135700583457947,-0.8206719756126404
1757088604078273000,1.30527294921875,-0.20465800166130066,-0.1926420032978058,-0.7524200081825256
1757088604087826200,1.314826171875,-0.19975799322128296,-0.21399100124835968,-0.6994510293006897
1757088604097379000,1.324379150390625,-0.2084439992904663,-0.22109100222587585,-0.6811220049858093
1757088604106932000,1.333931884765625,-0.18901699781417847,-0.2019670009613037,-0.6502900123596191
1757088604116485000,1.343485107421875,-0.15688300132751465,-0.1950410008430481,-0.6440179944038391
1757088604126038000,1.3530380859375,-0.13125500082969666,-0.19554799795150757,-0.6451669931411743
1757088604135591200,1.362591064453125,-0.12331099808216095,-0.2106429934501648,-0.6510999798774719
1757088604145144000,1.37214404296875,-0.1160769984126091,-0.21175000071525574,-0.6862639784812927
1757088604154697200,1.381697265625,-0.11593200266361237,-0.24166099727153778,-0.6701120138168335
1757088604164250400,1.39125048828125,-0.12643299996852875,-0.26449498534202576,-0.6661580204963684
1757088604173803300,1.40080322265625,-0.12639600038528442,-0.2705039978027344,-0.6284180283546448
1757088604183356200,1.410356201171875,-0.07566899806261063,-0.2596360146999359,-0.5632200241088867
1757088604192909000,1.419908935546875,-0.01816900074481964,-0.24383899569511414,-0.49712198972702026
1757088604202462200,1.429462158203125,0.016157999634742737,-0.2326669991016388,-0.4437659978866577
1757088604212015000,1.43901513671875,0.055351000279188156,-0.21435299515724182,-0.41813600063323975
1757088604221568000,1.448568115234375,0.06322900205850601,-0.23193399608135223,-0.40306800603866577
1757088604231121000,1.458120849609375,0.04559899866580963,-0.23011599481105804,-0.3545370101928711
1757088604240674000,1.467674072265625,0.013155999593436718,-0.24965700507164001,-0.32892799377441406
1757088604250227000,1.47722705078125,-0.03334200009703636,-0.23768800497055054,-0.27723199129104614
1757088604259780000,1.486780029296875,-0.05895800143480301,-0.24434299767017365,-0.20802100002765656
1757088604269333200,1.496333251953125,-0.0625929981470108,-0.2530669867992401,-0.16545400023460388
1757088604278886100,1.50588623046875,-0.05653800070285797,-0.2733429968357086,-0.11202000081539154
1757088604288439000,1.51543896484375,-0.050540998578071594,-0.2910270094871521,-0.08900099992752075
1757088604297992000,1.524991943359375,-0.05597300082445145,-0.28455498814582825,-0.06276000291109085
1757088604307545000,1.534545166015625,-0.06993699818849564,-0.2730729877948761,-0.04033999890089035
1757088604317098200,1.54409814453125,-0.06720200181007385,-0.23264600336551666,-0.0029150000773370266
1757088604326651100,1.553651123046875,-0.07576700299978256,-0.23991499841213226,0.016443999484181404
1757088604336204000,1.5632041015625,-0.09736499935388565,-0.24208399653434753,0.05052800104022026
1757088604345757000,1.5727568359375,-0.11323200166225433,-0.23684599995613098,0.07118400186300278
1757088604355310000,1.58231005859375,-0.11891999840736389,-0.26023998856544495,0.0791890025138855
1757088604364863000,1.591863037109375,-0.12196700274944305,-0.28352999687194824,0.09117300063371658
1757088604374416000,1.601415771484375,-0.12252700328826904,-0.30194100737571716,0.10242900252342224
1757088604383969000,1.610968994140625,-0.09132199734449387,-0.2869040071964264,0.10168299823999405
1757088604393522000,1.62052197265625,-0.06410299986600876,-0.28390398621559143,0.10333500057458878
1757088604403075000,1.630074951171875,-0.022804999724030495,-0.27595600485801697,0.1388390064239502
1757088604412628000,1.6396279296875,-0.0068339998833835125,-0.2703790068626404,0.14977100491523743
1757088604422180900,1.649180908203125,0.014786999672651291,-0.2528890073299408,0.15112300217151642
1757088604431734000,1.658734130859375,0.014427999965846539,-0.23555199801921844,0.13201400637626648
1757088604441287000,1.668286865234375,-0.020008999854326248,-0.23265300691127777,0.10921099781990051
1757088604450840000,1.677840087890625,-0.05037200078368187,-0.2347790002822876,0.0696450024843216
1757088604460393000,1.68739306640625,-0.06779800355434418,-0.22276100516319275,0.036935001611709595
1757088604469945900,1.69694580078125,-0.057009998708963394,-0.23476099967956543,0.03339700028300285
1757088604479499000,1.7064990234375,-0.04223800078034401,-0.22743099927902222,0.06412699818611145
1757088604489052200,1.71605224609375,-0.02616400085389614,-0.24631600081920624,0.08397100120782852
1757088604498605000,1.72560498046875,-0.006837000139057636,-0.24839100241661072,0.09578999876976013
1757088604508158200,1.735158203125,-0.0023900000378489494,-0.2575950026512146,0.10225000232458115
1757088604517711000,1.744711181640625,0.004050000105053186,-0.2668969929218292,0.08543399721384048
1757088604527264000,1.754263916015625,0.01465499959886074,-0.2716119885444641,0.055706001818180084
1757088604536817000,1.76381689453125,0.02449600026011467,-0.25255998969078064,0.034398000687360764
1757088604546370000,1.7733701171875,-0.0002099999983329326,-0.21451599895954132,0.00761000020429492
1757088604555923200,1.782923095703125,-0.016797000542283058,-0.2222059965133667,-0.033713001757860184
1757088604565476000,1.79247607421875,-0.03679899871349335,-0.22528700530529022,-0.06125300005078316
1757088604575029000,1.802029052734375,-0.05110599845647812,-0.2525379955768585,-0.10107599943876266
1757088604584582100,1.81158203125,-0.05079200118780136,-0.26068300008773804,-0.10463300347328186
1757088604594135000,1.821135009765625,-0.048239000141620636,-0.2638010084629059,-0.06944599747657776
1757088604603688200,1.830688232421875,-0.025332000106573105,-0.25009700655937195,-0.05430600047111511
1757088604613241000,1.840240966796875,0.0055240001529455185,-0.2746270000934601,-0.040146999061107635
1757088604622794000,1.8497939453125,0.034749001264572144,-0.2632569968700409,-0.03594699874520302
1757088604632347100,1.85934716796875,0.057948000729084015,-0.2757200002670288,-0.020966000854969025
1757088604641900000,1.868900146484375,0.07989999651908875,-0.27395299077033997,-0.0388140007853508
1757088604651453000,1.878452880859375,0.08460699766874313,-0.24839800596237183,-0.05800500139594078
1757088604661006000,1.888006103515625,0.07517799735069275,-0.2394919991493225,-0.046911001205444336
1757088604670559000,1.89755908203125,0.0638120025396347,-0.22604000568389893,-0.08171500265598297
1757088604680112000,1.907112060546875,0.048489999026060104,-0.2173050045967102,-0.07382900267839432
1757088604689665000,1.9166650390625,0.04996899887919426,-0.2490379959344864,-0.046160001307725906
1757088604699218200,1.92621826171875,0.04266799986362457,-0.2711470127105713,-0.04258900135755539
1757088604708771000,1.93577099609375,0.042837999761104584,-0.26189500093460083,-0.012009999714791775
1757088604718324000,1.945323974609375,0.0319410003721714,-0.26680299639701843,0.01006499957293272
1757088604727876900,1.954876953125,0.03345099836587906,-0.2524639964103699,0.021994000300765038
1757088604737430000,1.964429931640625,0.033059000968933105,-0.24756500124931335,0.030612999573349953
1757088604746983200,1.973983154296875,0.03979099914431572,-0.23090499639511108,-0.0022690000478178263
1757088604756536000,1.9835361328125,0.048496000468730927,-0.23854699730873108,-0.051708001643419266
1757088604766089000,1.9930888671875,0.06576000154018402,-0.2320380061864853,-0.07349500060081482
1757088604775642000,2.00264208984375,0.10228099673986435,-0.22102899849414825,-0.09378200024366379
1757088604785195000,2.012195068359375,0.12094800174236298,-0.21487900614738464,-0.087567999958992
1757088604794748200,2.021748046875,0.13406699895858765,-0.23237299919128418,-0.04315600171685219
1757088604804301000,2.031301025390625,0.13964299857616425,-0.23535899817943573,-0.019099999219179153
1757088604813854200,2.040854248046875,0.14025500416755676,-0.2382279932498932,-0.0008140000281855464
1757088604823407000,2.050406982421875,0.13833099603652954,-0.24083800613880157,0.03464899957180023
1757088604832960000,2.0599599609375,0.09808299690485,-0.2360379993915558,0.052365999668836594
1757088604842513000,2.069512939453125,0.06478700041770935,-0.2551029920578003,0.04862400144338608
1757088604852066000,2.079066162109375,0.035620998591184616,-0.25964900851249695,0.056262001395225525
1757088604861619200,2.088619140625,0.012864000163972378,-0.28801900148391724,0.06350699812173843
1757088604871172000,2.098172119140625,0.02304000034928322,-0.2925179898738861,0.05674299970269203
1757088604880725200,2.107725341796875,0.02140199951827526,-0.26120901107788086,0.04841899871826172
1757088604890278100,2.117278076171875,0.038033001124858856,-0.24900999665260315,0.05624400079250336
1757088604899831000,2.1268310546875,0.07846800237894058,-0.2346699982881546,0.03884200006723404
1757088604909384200,2.13638427734375,0.08918300271034241,-0.23228199779987335,0.04729900136590004
1757088604918937000,2.14593701171875,0.07658500224351883,-0.23232300579547882,0.03945299983024597
1757088604928490200,2.155490234375,0.07178200036287308,-0.2515009939670563,0.03643900156021118
1757088604938043100,2.165043212890625,0.0559689998626709,-0.26582399010658264,0.035638000816106796
1757088604947596000,2.174595947265625,0.04803900048136711,-0.2752549946308136,0.04148000106215477
1757088604957149000,2.18414892578125,0.03618500009179115,-0.27511799335479736,0.03091300092637539
1757088604966702000,2.1937021484375,0.02519099973142147,-0.28216201066970825,0.023012999445199966
1757088604976255200,2.203255126953125,0.01933100074529648,-0.27264198660850525,-0.004858000203967094
1757088604985808100,2.21280810546875,0.013965999707579613,-0.25129300355911255,-0.026712000370025635
1757088604995361000,2.222361083984375,-0.004492000211030245,-0.24439600110054016,-0.04510299861431122
1757088605004914200,2.2319140625,-0.005667000077664852,-0.24981799721717834,-0.09188300371170044
1757088605014467300,2.24146728515625,0.02074199914932251,-0.2576330006122589,-0.08158600330352783
1757088605024020000,2.25102001953125,0.025340000167489052,-0.25332900881767273,-0.05575300008058548
1757088605033573000,2.260572998046875,0.05232200026512146,-0.2776170074939728,-0.029047999531030655
1757088605043126000,2.2701259765625,0.05753900110721588,-0.2777499854564667,0.0031950001139193773
1757088605052679200,2.27967919921875,0.06708600372076035,-0.2728610038757324,0.0359640009701252
1757088605062232000,2.289232177734375,0.06478899717330933,-0.2558229863643646,0.06027299910783768
1757088605071785200,2.29878515625,0.06026799976825714,-0.2386859953403473,0.07670799642801285
1757088605081338000,2.308338134765625,0.08084700256586075,-0.22392399609088898,0.08543799817562103
1757088605090891000,2.31789111328125,0.07532600313425064,-0.21631400287151337,0.08919200301170349
1757088605100444200,2.327444091796875,0.07679100334644318,-0.23746000230312347,0.0882830023765564
1757088605109997000,2.3369970703125,0.08037299662828445,-0.24423499405384064,0.08723899722099304
1757088605119550200,2.34655029296875,0.07233099639415741,-0.2678599953651428,0.07260999828577042
1757088605129103000,2.35610302734375,0.04429100081324577,-0.2937209904193878,0.08360700309276581
1757088605138656000,2.365656005859375,0.03806599974632263,-0.2908329963684082,0.08735500276088715
1757088605148209200,2.375209228515625,0.011812999844551086,-0.2712700068950653,0.06829600036144257
1757088605157762000,2.384761962890625,-0.006254999898374081,-0.25166499614715576,0.07315400242805481
1757088605167315000,2.39431494140625,-0.005013999994844198,-0.24163900315761566,0.0732870027422905
1757088605176868000,2.4038681640625,0.014263000339269638,-0.2340649962425232,0.07109399884939194
1757088605186421200,2.413421142578125,0.023490000516176224,-0.2408369928598404,0.07577600330114365
1757088605195974100,2.42297412109375,0.0412370003759861,-0.2310750037431717,0.05311699956655502
1757088605205527000,2.432527099609375,0.044213999062776566,-0.2383670061826706,0.01581599935889244
1757088605215080000,2.442079833984375,0.042500000447034836,-0.24816599488258362,0.0009640000062063336
1757088605224633000,2.451633056640625,0.034095000475645065,-0.26745301485061646,0.009518000297248363
1757088605234186000,2.46118603515625,0.010397999547421932,-0.26290398836135864,-0.01179100014269352
1757088605243739000,2.47073876953125,-0.002862999914214015,-0.2485480010509491,0.015682000666856766
1757088605253292300,2.480292236328125,0.007501000072807074,-0.24133799970149994,0.021234000101685524
1757088605262845200,2.48984521484375,0.019651999697089195,-0.23655499517917633,0.01964000053703785
1757088605272398000,2.499398193359375,0.031147999688982964,-0.24845600128173828,0.0316540002822876
1757088605281951000,2.508950927734375,0.0531730018556118,-0.26521000266075134,0.02694699913263321
1757088605291503900,2.51850390625,0.06264399737119675,-0.25796398520469666,0.03600500151515007
1757088605301057000,2.52805712890625,0.06025199964642525,-0.26990699768066406,0.0286250002682209
1757088605310610000,2.53760986328125,0.046810999512672424,-0.2556160092353821,0.01030299998819828
1757088605320163000,2.5471630859375,0.03862199932336807,-0.23884700238704681,0.02022700011730194
1757088605329716000,2.556716064453125,0.04643100127577782,-0.24361400306224823,0.02502400055527687
1757088605339269000,2.56626904296875,0.06245100125670433,-0.23406000435352325,0.022592000663280487
1757088605348822000,2.575822021484375,0.048131998628377914,-0.2459859997034073,0.022257000207901
1757088605358375000,2.585375,0.039145998656749725,-0.2316019982099533,0.019905000925064087
1757088605367928000,2.594927978515625,0.03958600014448166,-0.23644299805164337,0.010855999775230885
1757088605377481200,2.604481201171875,0.008289000019431114,-0.2340109944343567,0.01599700003862381
1757088605387034000,2.6140341796875,-0.030215000733733177,-0.25061699748039246,0.02333099953830242
1757088605396587000,2.6235869140625,-0.04362700134515762,-0.24540899693965912,0.05292300134897232
1757088605406140000,2.633139892578125,-0.04924900084733963,-0.24023599922657013,0.046994999051094055
1757088605415693000,2.642693115234375,-0.011683999560773373,-0.23996399343013763,0.04365900158882141
1757088605425246200,2.65224609375,0.010138999670743942,-0.23968200385570526,0.051823001354932785
1757088605434799000,2.661799072265625,0.04204599931836128,-0.24419699609279633,0.05711900070309639
1757088605444352000,2.67135205078125,0.07443100214004517,-0.25348401069641113,0.06657099723815918
1757088605453905200,2.6809052734375,0.09369499981403351,-0.2628050148487091,0.06637699902057648
1757088605463458000,2.6904580078125,0.09588299691677094,-0.2767130136489868,0.08609700202941895
1757088605473011200,2.70001123046875,0.07046700268983841,-0.25728100538253784,0.05721500143408775
1757088605482564000,2.709564208984375,0.05299999937415123,-0.23320400714874268,0.03922799974679947
1757088605492117200,2.7191171875,0.03431300073862076,-0.2355950027704239,0.020168999210000038
1757088605501670100,2.728670166015625,0.032634999603033066,-0.25216901302337646,0.04287999868392944
1757088605511223000,2.73822314453125,0.03800800070166588,-0.27584800124168396,0.052983999252319336
1757088605520776200,2.747776123046875,0.029684999957680702,-0.2800999879837036,0.08989699929952621
1757088605530329000,2.7573291015625,0.05122600123286247,-0.25100499391555786,0.07509300112724304
1757088605539882200,2.76688232421875,0.0647829994559288,-0.2267879992723465,0.06794899702072144
1757088605549435100,2.77643505859375,0.06629899889230728,-0.207505002617836,0.04754500091075897
1757088605558988000,2.785988037109375,0.08816199749708176,-0.23406699299812317,0.0008280000183731318
1757088605568541200,2.795541259765625,0.09060700237751007,-0.2631179988384247,-0.014128999784588814
1757088605578094000,2.805093994140625,0.07693400233983994,-0.29449599981307983,-0.015054999850690365
1757088605587647200,2.814647216796875,0.057100001722574234,-0.2708919942378998,-0.026988999918103218
1757088605597200100,2.8242001953125,0.03615700080990791,-0.25445500016212463,-0.02910800091922283
1757088605606753300,2.833753173828125,0.02548700012266636,-0.21884900331497192,-0.02157299965620041
1757088605616306200,2.84330615234375,0.019977999851107597,-0.20482200384140015,-0.02326899953186512
1757088605625859000,2.852859130859375,0.032802000641822815,-0.1955150067806244,-0.0042039998807013035
1757088605635412000,2.862411865234375,0.031615000218153,-0.21482299268245697,0.00928799994289875
1757088605644965000,2.871965087890625,0.04638500139117241,-0.21007099747657776,0.033622000366449356
1757088605654518000,2.88151806640625,0.06956999748945236,-0.23648099601268768,0.029171999543905258
1757088605664071200,2.8910712890625,0.08461099863052368,-0.24136100709438324,0.03418099880218506
1757088605673624300,2.900624267578125,0.107634998857975,-0.2628119885921478,0.06122799962759018
1757088605683177000,2.910177001953125,0.09288600087165833,-0.25790300965309143,0.05950099974870682
1757088605692730000,2.919730224609375,0.07204700261354446,-0.26487600803375244,0.06219400092959404
1757088605702283000,2.929282958984375,0.047752998769283295,-0.25273799896240234,0.048850998282432556
1757088605711836200,2.938836181640625,0.008825000375509262,-0.2405640035867691,0.040623001754283905
1757088605721389300,2.948389404296875,-0.007548999972641468,-0.2404019981622696,0.030598999932408333
1757088605730942200,2.957942138671875,-0.013826999813318253,-0.24281400442123413,0.0029380000196397305
1757088605740495000,2.9674951171875,0.0005569999921135604,-0.23333999514579773,-0.000371000001905486
1757088605750048300,2.97704833984375,0.007664999924600124,-0.22879299521446228,-0.017020000144839287
1757088605759601200,2.98660107421875,0.007631000131368637,-0.24333100020885468,-0.007854999974370003
1757088605769154300,2.996154296875,0.03707300126552582,-0.2580859959125519,-0.02862600050866604
1757088605778707200,3.005707275390625,0.04678099974989891,-0.2464900016784668,-0.020938999950885773
1757088605788260000,3.015260009765625,0.0694580003619194,-0.24682000279426575,-0.006798999849706888
1757088605797813200,3.024813232421875,0.05465399846434593,-0.2373420000076294,0.022570999339222908
1757088605807366100,3.0343662109375,0.051931001245975494,-0.22533300518989563,0.04134700074791908
1757088605816919000,3.0439189453125,0.06077900156378746,-0.22997400164604187,0.056786999106407166
1757088605826472200,3.05347216796875,0.06013299897313118,-0.24406899511814117,0.06890600174665451
1757088605836025300,3.063025390625,0.06875299662351608,-0.2581619918346405,0.06895899772644043
1757088605845578200,3.072578125,0.09514299780130386,-0.2675650119781494,0.0597819983959198
1757088605855131100,3.082131103515625,0.10648699849843979,-0.25781598687171936,0.05999799817800522
1757088605864684000,3.09168408203125,0.11032900214195251,-0.2791689932346344,0.05993499979376793
1757088605874237200,3.1012373046875,0.12520800530910492,-0.27913498878479004,0.03688500076532364
1757088605883790300,3.110790283203125,0.12804099917411804,-0.28652799129486084,0.0037169998977333307
1757088605893343200,3.12034326171875,0.11028099805116653,-0.2677519917488098,-0.020721999928355217
1757088605902896400,3.129896484375,0.07767599821090698,-0.26102301478385925,-0.04161699861288071
1757088605912449300,3.13944921875,0.05618099868297577,-0.25195199251174927,-0.05449499934911728
1757088605922002200,3.149002197265625,0.04494800046086311,-0.22857099771499634,-0.06194600090384483
1757088605931555000,3.15855517578125,0.04144600033760071,-0.2338699996471405,-0.05531499907374382
1757088605941108000,3.16810791015625,0.047290001064538956,-0.24165299534797668,-0.06481099873781204
1757088605950661000,3.1776611328125,0.052831001579761505,-0.21822400391101837,-0.04395100101828575
1757088605969767400,3.196767333984375,0.04466399922966957,-0.20247499644756317,-0.042451001703739166
1757088605979320300,3.2063203125,0.05112599954009056,-0.19842399656772614,-0.058017000555992126
1757088605988873200,3.215873291015625,0.05051000043749809,-0.2137330025434494,-0.08166199922561646
1757088605998426000,3.225426025390625,0.05183599889278412,-0.20980699360370636,-0.0605430006980896
1757088606007979300,3.234979248046875,0.07543499767780304,-0.23690100014209747,-0.0383090004324913
1757088606017532400,3.244532470703125,0.07485400140285492,-0.24919000267982483,0.021314000710844994
1757088606027085300,3.254085205078125,0.08777599781751633,-0.23961099982261658,0.06879399716854095
1757088606036638200,3.26363818359375,0.0950779989361763,-0.22500599920749664,0.10232699662446976
1757088606046191000,3.273191162109375,0.10179399698972702,-0.22227099537849426,0.11817199736833572
1757088606055744000,3.282743896484375,0.08546999841928482,-0.24809299409389496,0.12818700075149536
1757088606065297200,3.292297119140625,0.051635000854730606,-0.26917800307273865,0.11269599944353104
1757088606074850300,3.301850341796875,-0.00509499991312623,-0.29235100746154785,0.1294270008802414
1757088606084403200,3.3114033203125,-0.05402899906039238,-0.29859599471092224,0.13374799489974976
1757088606093956400,3.320956298828125,-0.07056500017642975,-0.2950969934463501,0.1442909985780716
1757088606103509200,3.33050927734375,-0.07696200162172318,-0.28447800874710083,0.13386699557304382
1757088606113062100,3.340062255859375,-0.06485500186681747,-0.27159398794174194,0.12174399942159653
1757088606122615000,3.349614990234375,-0.0715240016579628,-0.2756029963493347,0.10112299770116806
1757088606132168200,3.359168212890625,-0.05504399910569191,-0.2749969959259033,0.07916200160980225
1757088606141721300,3.368721435546875,-0.03709099814295769,-0.2793540060520172,0.06063900142908096
1757088606151274200,3.378274169921875,-0.015690000727772713,-0.2575030028820038,0.05231799930334091
1757088606160827100,3.3878271484375,0.008914000354707241,-0.2189510017633438,0.058382000774145126
1757088606170380300,3.39738037109375,0.025373000651597977,-0.19960400462150574,0.05743499845266342
1757088606179933200,3.40693310546875,0.036309000104665756,-0.1922149956226349,0.060979001224040985
1757088606189486300,3.416486328125,0.053238000720739365,-0.20422400534152985,0.03017899952828884
1757088606199039200,3.426039306640625,0.0553399994969368,-0.22590400278568268,0.014352000318467617
1757088606208592100,3.435592041015625,0.05046600103378296,-0.2525010108947754,-0.005233000032603741
1757088606218145300,3.445145263671875,0.04802500084042549,-0.25290900468826294,-0.021284999325871468
1757088606227698200,3.4546982421875,0.04811900109052658,-0.2677069902420044,-0.022762000560760498
1757088606237251000,3.4642509765625,0.06390000134706497,-0.25377899408340454,-0.014898999594151974
1757088606246804200,3.47380419921875,0.0626939982175827,-0.25430798530578613,-0.025565000250935555
1757088606256357400,3.483357421875,0.045524999499320984,-0.24275800585746765,-0.015301999635994434
1757088606265910300,3.49291015625,0.033844999969005585,-0.27167099714279175,0.005289999768137932
1757088606275463200,3.502463134765625,0.04540200158953667,-0.28135401010513306,0.010777999646961689
1757088606285016300,3.512016357421875,0.04983900114893913,-0.26718300580978394,-0.0046190000139176846
1757088606294569200,3.5215693359375,0.05178600177168846,-0.26255500316619873,-0.003522000042721629
1757088606304122000,3.5311220703125,0.06966400146484375,-0.25833600759506226,-0.05224600061774254
1757088606313675300,3.54067529296875,0.06638000160455704,-0.27100101113319397,-0.07601200044155121
1757088606323228200,3.550228271484375,0.0769909992814064,-0.2598940134048462,-0.09626399725675583
1757088606332781300,3.55978125,0.07793600112199783,-0.23934699594974518,-0.10597000271081924
1757088606342334200,3.569334228515625,0.0697920024394989,-0.21180100739002228,-0.12622599303722382
1757088606351887400,3.578887451171875,0.06450500339269638,-0.23195500671863556,-0.102292001247406
1757088606361440300,3.588440185546875,0.07334200292825699,-0.2471970021724701,-0.09131299704313278
1757088606370993200,3.5979931640625,0.05972899869084358,-0.27887699007987976,-0.06078299880027771
1757088606380546000,3.607546142578125,0.0655599981546402,-0.30567100644111633,-0.05723699927330017
1757088606390099200,3.61709912109375,0.05574600026011467,-0.3153739869594574,-0.03188199922442436
1757088606399652400,3.62665234375,0.0579879991710186,-0.3225800096988678,-0.028801999986171722
1757088606409205200,3.636205322265625,0.04210299998521805,-0.2983979880809784,-0.005810000002384186
1757088606418758100,3.645758056640625,0.03439300134778023,-0.30021199584007263,0.02212199941277504
1757088606428311000,3.65531103515625,0.018727000802755356,-0.3043699860572815,0.016496999189257622
1757088606437864200,3.6648642578125,0.02301900088787079,-0.31802400946617126,0.01044199988245964
1757088606447417000,3.6744169921875,0.03931000083684921,-0.3341340124607086,-0.011989999562501907
1757088606456970200,3.68397021484375,0.03998300060629845,-0.34793901443481445,-0.04311100021004677
1757088606466523100,3.693523193359375,0.02370000071823597,-0.35930800437927246,-0.05979999899864197
1757088606476076300,3.703076171875,-0.0013289999915286899,-0.3513149917125702,-0.05829399824142456
1757088606485629200,3.712629150390625,-0.016277000308036804,-0.3549630045890808,-0.03967300057411194
1757088606495182000,3.72218212890625,0.005578000098466873,-0.3486289978027344,-0.00015700000221841037
1757088606504735000,3.73173486328125,0.07103899866342545,-0.33257898688316345,0.013790999539196491
1757088606514288000,3.7412880859375,0.13035200536251068,-0.3500489890575409,0.003329999977722764
1757088606523841300,3.75084130859375,0.15681299567222595,-0.3317829966545105,-0.029851000756025314
1757088606533394200,3.760394287109375,0.1703909933567047,-0.3208029866218567,-0.057523999363183975
1757088606542947000,3.769947021484375,0.2424599975347519,-0.3558819890022278,-0.14109599590301514
1757088606552500200,3.779500244140625,0.2910020053386688,-0.41975000500679016,-0.21268899738788605
1757088606562053000,3.78905322265625,0.3617219924926758,-0.4337249994277954,-0.2600339949131012
1757088606571606300,3.798606201171875,0.4458020031452179,-0.4502429962158203,-0.2731519937515259
1757088606581159200,3.8081591796875,0.503387987613678,-0.413985013961792,-0.2537910044193268
1757088606590712300,3.81771240234375,0.5316579937934875,-0.3848389983177185,-0.242249995470047
1757088606600265200,3.82726513671875,0.5146480202674866,-0.32904699444770813,-0.20176999270915985
1757088606609818000,3.836818115234375,0.4797239899635315,-0.26573601365089417,-0.16129299998283386
1757088606619371300,3.846371337890625,0.47522199153900146,-0.2354000061750412,-0.09882300347089767
1757088606628924200,3.855924072265625,0.5124390125274658,-0.21692800521850586,-0.09736300259828568
1757088606638477300,3.865477294921875,0.5314760208129883,-0.1961439996957779,-0.11949100345373154
1757088606648030200,3.8750302734375,0.47008898854255676,-0.18252700567245483,-0.12504999339580536
1757088606657583000,3.8845830078125,0.3792499899864197,-0.19984200596809387,-0.10840599983930588
1757088606667136300,3.89413623046875,0.3924170136451721,-0.24080200493335724,-0.06597699970006943
1757088606676689200,3.903689208984375,0.4832479953765869,-0.262129008769989,0.002893999917432666
1757088606686242000,3.913241943359375,0.5322250127792358,-0.21831800043582916,0.08357200026512146
1757088606695795200,3.922795166015625,0.4972890019416809,-0.09976600110530853,0.17286300659179688
1757088606705348400,3.932348388671875,0.5417019724845886,0.0521869994699955,0.16842100024223328
1757088606714901200,3.9419013671875,0.6597669720649719,0.2463269978761673,0.04716699942946434
1757088606724454100,3.9514541015625,0.6946449875831604,0.3935700058937073,-0.13060900568962097
1757088606734007000,3.961007080078125,0.630994975566864,0.5323699712753296,-0.2682400047779083
1757088606743560200,3.970560302734375,0.4333750009536743,0.6149740219116211,-0.36375001072883606
1757088606753113000,3.980113037109375,0.20848999917507172,0.6674129962921143,-0.46676400303840637
1757088606762666200,3.989666259765625,0.06205600127577782,0.6751859784126282,-0.5564960241317749
1757088606772219100,3.99921923828125,0.0053610000759363174,0.6479160189628601,-0.6227189898490906
1757088606781772300,4.008772216796875,-0.030132999643683434,0.5929679870605469,-0.642346978187561
1757088606791325200,4.0183251953125,-0.05393800139427185,0.4552760124206543,-0.6663939952850342
1757088606800878000,4.027878173828125,-0.12265399843454361,0.37516099214553833,-0.7608090043067932
1757088606810431200,4.03743115234375,-0.2543039917945862,0.2776550054550171,-0.5784500241279602
1757088606819984400,4.046984375,-0.20029699802398682,0.1211249977350235,-0.33147600293159485
1757088606829537300,4.056537353515625,0.05046100169420242,0.16676700115203857,-0.17622900009155273
1757088606839090200,4.066090087890625,-0.061827000230550766,0.1856900006532669,0.01917099952697754
1757088606848643000,4.07564306640625,-0.3602690100669861,0.21733200550079346,-0.0007009999826550484
1757088606858196200,4.0851962890625,-0.38375499844551086,0.0960099995136261,-0.19473999738693237
1757088606867749000,4.0947490234375,-0.23246000707149506,0.0765490010380745,-0.36330699920654297
1757088606877302300,4.10430224609375,-0.1764100044965744,0.062157001346349716,-0.27708399295806885
1757088606886855200,4.113855224609375,-0.15195000171661377,-0.026737000793218613,0.018949000164866447
1757088606896408300,4.123408203125,-0.13516099750995636,-0.12416700273752213,0.4275059998035431
1757088606905961200,4.132961181640625,-0.4380820095539093,-0.26322299242019653,0.7345669865608215
1757088606915514000,4.14251416015625,-0.8156939744949341,-0.5394359827041626,0.7284820079803467
1757088606925067000,4.15206689453125,-0.3284069895744324,-0.7048299908638,0.8347859978675842
1757088606934620200,4.1616201171875,-0.054485999047756195,-0.8401529788970947,1.0261989831924438
1757088606944173300,4.17117333984375,-0.15257899463176727,-0.7488420009613037,0.8961849808692932
1757088606953726200,4.180726318359375,-0.34710800647735596,-0.5231959819793701,0.6396269798278809
1757088606963279000,4.190279052734375,-0.3448120057582855,-0.10805699974298477,0.3015489876270294
1757088606972832300,4.199832275390625,-0.5134879946708679,0.09277000278234482,0.15437300503253937
1757088606982385200,4.20938525390625,-0.9193059802055359,0.4322800040245056,0.11776400357484818
1757088606991938000,4.21893798828125,-0.8882719874382019,0.564860999584198,0.18538400530815125
1757088607001491200,4.2284912109375,-0.6549019813537598,0.4541339874267578,0.5628659725189209
1757088607011044400,4.23804443359375,-0.7846710085868835,0.18536999821662903,0.9182119965553284
1757088607020597200,4.24759716796875,-0.5068609714508057,-0.029015999287366867,1.2770479917526245
1757088607030150100,4.257150146484375,-0.4337570071220398,-0.17947399616241455,1.4565860033035278
1757088607039703000,4.266703125,-0.2729960083961487,-0.09714200347661972,1.0750230550765991
1757088607049256200,4.276256103515625,0.48389700055122375,-0.221342995762825,1.1510200500488281
1757088607058809000,4.28580908203125,0.46386200189590454,-0.21834500133991241,1.0431100130081177
1757088607068362000,4.295362060546875,0.41302600502967834,-0.22299200296401978,1.3006609678268433
1757088607077915100,4.3049150390625,0.49084800481796265,-0.2102299928665161,1.003121018409729
1757088607087468000,4.314468017578125,0.7060279846191406,-0.31474199891090393,0.9213460087776184
1757088607097021200,4.324021240234375,0.9920259714126587,-0.3998270034790039,1.1997829675674438
1757088607106574000,4.333573974609375,1.279237985610962,-0.33522701263427734,0.9681419730186462
1757088607116127000,4.343126953125,0.9059789776802063,-0.2703140079975128,0.5802279710769653
1757088607125680000,4.35268017578125,0.3104879856109619,-0.18137800693511963,0.32973000407218933
1757088607135233300,4.3622333984375,0.32619398832321167,-0.006812000181525946,-0.16411399841308594
1757088607144786200,4.3717861328125,0.3807910084724426,0.06767500191926956,-0.6985120177268982
1757088607154339000,4.381339111328125,0.20460200309753418,0.07781200110912323,-0.6804010272026062
1757088607163892000,4.39089208984375,0.2987399995326996,0.0526139996945858,-0.3509489893913269
1757088607173445000,4.400445068359375,-0.029324999079108238,0.21276800334453583,-0.35911300778388977
1757088607182998000,4.409998046875,0.049125999212265015,0.3426640033721924,-0.6049240231513977
1757088607192551200,4.41955126953125,0.10677699744701385,0.4597949981689453,-0.7542979717254639
1757088607202104000,4.42910400390625,-0.007739999797195196,0.7460790276527405,-0.9278200268745422
1757088607211657200,4.4386572265625,0.05971299856901169,0.860427975654602,-1.031978964805603
1757088607221210000,4.448210205078125,0.09954000264406204,0.7912120223045349,-1.103140950202942
1757088607230763000,4.457762939453125,-0.05083400011062622,0.6202759742736816,-0.9142889976501465
1757088607240316000,4.46731591796875,0.1876010000705719,0.2509799897670746,-0.5455390214920044
1757088607249869000,4.476869140625,0.4602409899234772,-0.13270099461078644,-0.3082540035247803
1757088607259422000,4.486421875,0.47100600600242615,-0.5147809982299805,0.004004000220447779
1757088607268975000,4.49597509765625,0.4081850051879883,-0.8299319744110107,0.2943139970302582
1757088607278528000,4.505528076171875,0.1728920042514801,-1.0667489767074585,0.3986450135707855
1757088607288081200,4.5150810546875,-0.2696230113506317,-1.0457149744033813,0.2847850024700165
1757088607297634000,4.524634033203125,-0.23521000146865845,-0.9414790272712708,0.07825800031423569
1757088607307187000,4.53418701171875,-0.20875200629234314,-0.7591670155525208,-0.019641999155282974
1757088607316739800,4.54373974609375,0.1743279993534088,-0.6995530128479004,0.31348899006843567
1757088607326293200,4.553293212890625,0.3054240047931671,-0.6764810085296631,0.2394700050354004
1757088607335846100,4.56284619140625,0.13289199769496918,-0.5485780239105225,0.2541300058364868
1757088607345399000,4.57239892578125,0.0460829995572567,-0.18494699895381927,0.11096899956464767
1757088607354952000,4.581951904296875,0.1698780059814453,0.14593100547790527,-0.07216600328683853
1757088607364505000,4.591505126953125,0.22753700613975525,0.3218660056591034,-0.14083799719810486
1757088607374057700,4.6010576171875,-0.0207349993288517,0.45433899760246277,-0.19402900338172913
1757088607383611000,4.61061083984375,-0.22165599465370178,0.594747006893158,-0.16260099411010742
1757088607393164000,4.6201640625,-0.23562699556350708,0.684033989906311,-0.08039399981498718
1757088607402717000,4.629717041015625,-0.07360299676656723,0.6950910091400146,0.07055900245904922
1757088607412270000,4.63927001953125,-0.08274199813604355,0.6203799843788147,0.123990997672081
1757088607421823000,4.648822998046875,0.03385100141167641,0.5523369908332825,0.16721299290657043
1757088607431376000,4.6583759765625,0.20891399681568146,0.4090780019760132,0.1404920071363449
1757088607440929300,4.66792919921875,0.3474369943141937,0.23992599546909332,0.034658998250961304
1757088607450482200,4.677482177734375,0.1452690064907074,0.10860300064086914,-0.23021399974822998
1757088607460035000,4.68703515625,0.12043900042772293,-0.06550200283527374,-0.25825101137161255
1757088607469588000,4.696587890625,-0.10767900198698044,-0.18838299810886383,-0.22439700365066528
1757088607479140900,4.706140869140625,-0.09752000123262405,-0.3891949951648712,-0.012682000175118446
1757088607488694000,4.715694091796875,0.06013600155711174,-0.4579069912433624,0.07991799712181091
1757088607498247000,4.725246826171875,0.12943300604820251,-0.40270501375198364,-0.014022000133991241
1757088607507800000,4.734800048828125,0.11371099948883057,-0.2513439953327179,-0.010731000453233719
1757088607517353000,4.74435302734375,0.12109199911355972,-0.1656789928674698,-0.1953890025615692
1757088607526906000,4.753906005859375,0.07228299975395203,-0.15834900736808777,-0.23102299869060516
1757088607536459000,4.763458984375,0.006138999946415424,-0.13453200459480286,-0.29623401165008545
1757088607546012200,4.77301220703125,-0.14964300394058228,-0.10239099711179733,-0.2280450016260147
1757088607555565000,4.78256494140625,-0.20363900065422058,-0.2761540114879608,-0.13076899945735931
1757088607565118200,4.7921181640625,-0.1320520043373108,-0.34784701466560364,-0.130840003490448
1757088607574671000,4.801671142578125,-0.014554000459611416,-0.4514339864253998,0.15747299790382385
1757088607584224000,4.81122412109375,-0.07964999973773956,-0.5705580115318298,0.23033000528812408
1757088607593777000,4.82077685546875,-0.1521569937467575,-0.5660399794578552,0.23354700207710266
1757088607603330000,4.830330078125,-0.42105498909950256,-0.5274509787559509,0.20559899508953094
1757088607612883000,4.839883056640625,-0.6857969760894775,-0.5382239818572998,0.2861270010471344
1757088607622435800,4.849435791015625,-0.46279099583625793,-0.47524699568748474,0.15821200609207153
1757088607631989000,4.858989013671875,-0.2834959924221039,-0.41141200065612793,-0.03984599933028221
1757088607641542000,4.8685419921875,-0.3958359956741333,-0.38951998949050903,-0.17139600217342377
1757088607651095000,4.878094970703125,-0.32201099395751953,-0.47684499621391296,-0.10185199975967407
1757088607660648000,4.88764794921875,-0.191554993391037,-0.5755940079689026,0.1349879950284958
1757088607670200800,4.897200927734375,-0.11951400339603424,-0.5612490177154541,0.1337900012731552
1757088607679754000,4.90675390625,0.013894000090658665,-0.46287399530410767,0.06573200225830078
1757088607689307100,4.91630712890625,-0.0010839999886229634,-0.27650099992752075,-0.10312999784946442
1757088607698860000,4.925860107421875,-0.006157000083476305,-0.21875600516796112,-0.1825219988822937
1757088607708413000,4.935412841796875,-0.0929659977555275,-0.2713240087032318,-0.1874449998140335
1757088607717965800,4.9449658203125,-0.050732001662254333,-0.28359100222587585,-0.18510499596595764
1757088607727519000,4.95451904296875,-0.00874400045722723,-0.14711099863052368,-0.18914900720119476
1757088607737071900,4.96407177734375,-0.22722800076007843,0.06654399633407593,-0.2554120123386383
1757088607746625000,4.973625,-0.16935500502586365,0.19880299270153046,-0.15751299262046814
1757088607756178000,4.983177978515625,-0.04927700012922287,0.1876700073480606,0.07410299777984619
1757088607765731000,4.99273095703125,0.01632400043308735,0.19345100224018097,0.06128700077533722
1757088607775284000,5.002283935546875,0.052202001214027405,0.20424500107765198,-0.010827000252902508
1757088607784836900,5.0118369140625,0.06891600042581558,0.10964299738407135,-0.04188099876046181
1757088607794390000,5.02139013671875,0.05382699891924858,-0.05657399818301201,-0.053029000759124756
1757088607803943000,5.03094287109375,0.0824510008096695,-0.28797098994255066,-0.0185139998793602
1757088607813496000,5.04049609375,0.21400600671768188,-0.5124030113220215,-0.08778700232505798
1757088607823049000,5.050049072265625,0.1724729984998703,-0.5726040005683899,-0.0028689999599009752
1757088607832601900,5.059601806640625,0.20489299297332764,-0.5016520023345947,0.08115799725055695
1757088607842154800,5.06915478515625,0.42087000608444214,-0.2602689862251282,0.023914000019431114
1757088607851708200,5.078708251953125,0.6419829726219177,-0.06275700032711029,-0.09210100024938583
1757088607861260800,5.0882607421875,0.4295229911804199,-0.01579499989748001,-0.2775990068912506
1757088607870814000,5.09781396484375,0.1495780050754547,-0.11573600023984909,-0.4340369999408722
1757088607880366800,5.107366943359375,0.01233300007879734,-0.1385280042886734,-0.3317529857158661
1757088607889920000,5.116919921875,-0.0280969999730587,-0.11819300055503845,-0.22325600683689117
1757088607899473000,5.126472900390625,0.0013940000208094716,0.06282900273799896,-0.18503400683403015
1757088607909025800,5.13602587890625,0.13094399869441986,0.18300700187683105,-0.2482060045003891
1757088607918579000,5.145578857421875,0.22506099939346313,0.18136300146579742,-0.2692820131778717
1757088607928131800,5.1551318359375,0.3064019978046417,0.04274599999189377,-0.2905380129814148
1757088607937685000,5.16468505859375,0.14975999295711517,0.013172999955713749,-0.010708999820053577
1757088607947238000,5.17423779296875,-0.30240398645401,0.10232199728488922,0.2679559886455536
1757088607956790800,5.183790771484375,-0.6783120036125183,0.25554001331329346,0.44085100293159485
1757088607966343700,5.19334375,-0.685280978679657,0.3224239945411682,0.2770709991455078
1757088607975897000,5.20289697265625,-0.5224599838256836,0.22978800535202026,0.07426799833774567
1757088607985450000,5.212449951171875,-0.6032950282096863,0.2531970143318176,0.031029999256134033
1757088607995003000,5.2220029296875,-1.0410809516906738,0.5656729936599731,0.5436130166053772
1757088608004556000,5.23155615234375,-1.2084989547729492,0.9508270025253296,0.26618099212646484
1757088608014109000,5.24110888671875,-1.098649024963379,1.3304920196533203,0.27758100628852844
1757088608023661800,5.250661865234375,-0.9694479703903198,1.4771549701690674,0.04435199871659279
1757088608033215000,5.260215087890625,-0.8992230296134949,1.2485439777374268,-0.22361500561237335
1757088608042768000,5.269767822265625,-1.1281019449234009,0.9838209748268127,-0.2687399983406067
1757088608052320800,5.27932080078125,-1.2162259817123413,0.7252439856529236,0.023053999990224838
1757088608061874000,5.2888740234375,-1.1203750371932983,0.4786739945411682,0.3549570143222809
1757088608071426800,5.2984267578125,-0.787168025970459,0.2292809933423996,0.5402510166168213
1757088608080979700,5.307979736328125,-0.5279340147972107,0.09092699736356735,0.4600749909877777
1757088608090532900,5.317532958984375,-0.2534239888191223,0.019972000271081924,0.3011859953403473
1757088608100085800,5.327085693359375,-0.0967010036110878,0.06984499841928482,0.2327820062637329
1757088608109638700,5.336638671875,-0.045173998922109604,0.16273799538612366,0.2514449954032898
1757088608119192000,5.346192138671875,-0.009882000274956226,0.24170300364494324,0.26634499430656433
1757088608128744700,5.35574462890625,0.030952999368309975,0.34716999530792236,0.2716299891471863
1757088608138297900,5.3652978515625,0.06981900334358215,0.4528050124645233,0.3204199969768524
1757088608147850800,5.374850830078125,0.13931000232696533,0.4487040042877197,0.35628101229667664
1757088608157403600,5.384403564453125,0.10557500272989273,0.4225809872150421,0.31975099444389343
1757088608166956500,5.39395654296875,0.07334200292825699,0.29447299242019653,0.2986780107021332
1757088608176509700,5.403509765625,-0.005665000062435865,0.10356900095939636,0.3441750109195709
1757088608186062600,5.4130625,-0.10494200140237808,-0.06803300231695175,0.41061198711395264
1757088608195615700,5.42261572265625,-0.11873199790716171,-0.191103994846344,0.41439399123191833
1757088608205168600,5.432168701171875,-0.10895399749279022,-0.2237209975719452,0.396016001701355
1757088608214721800,5.4417216796875,-0.08014000207185745,-0.1543090045452118,0.38892900943756104
1757088608224274700,5.451274658203125,-0.01157000008970499,-0.17421700060367584,0.3995180130004883
1757088608233827600,5.46082763671875,0.05909299850463867,-0.19769799709320068,0.31201499700546265
1757088608243380700,5.470380615234375,0.10546299815177917,-0.2884880006313324,0.22711199522018433
1757088608252934000,5.479933837890625,0.08965300023555756,-0.3605000078678131,0.1415639966726303
1757088608262486800,5.48948681640625,0.014147000387310982,-0.40112999081611633,0.1046999990940094
1757088608272039700,5.499039794921875,-0.0546099990606308,-0.6122639775276184,0.005162000190466642
1757088608281592600,5.508592529296875,0.016176000237464905,-0.9572640061378479,-0.09156200289726257
1757088608291145500,5.5181455078125,0.0380840003490448,-0.971746027469635,-0.01590000092983246
1757088608300698600,5.52769873046875,-0.029009999707341194,-0.724465012550354,-0.027473000809550285
1757088608310251500,5.53725146484375,0.06112699955701828,-0.4623990058898926,0.031069999560713768
1757088608319805000,5.546804931640625,0.040123000741004944,-0.12783199548721313,-0.07061199843883514
1757088608329357800,5.55635791015625,-0.043191999197006226,0.0025190000887960196,-0.176829993724823
1757088608338910700,5.56591064453125,-0.17111200094223022,0.1966550052165985,-0.37109899520874023
1757088608348463600,5.575463623046875,-0.06270699948072433,0.31896498799324036,-0.49899500608444214
1757088608358016500,5.5850166015625,0.0639519989490509,0.2946839928627014,-0.4349299967288971
1757088608367569700,5.594569580078125,0.21140900254249573,0.22238099575042725,-0.4192480146884918
1757088608377122600,5.60412255859375,0.33560800552368164,0.0010999999940395355,-0.4238339960575104
1757088608386675700,5.61367578125,0.30890899896621704,-0.015238000079989433,-0.4030269980430603
1757088608396228600,5.623228515625,0.19963499903678894,0.10979100316762924,-0.3866170048713684
1757088608405781500,5.632781494140625,0.16119100153446198,0.24220800399780273,-0.4253610074520111
1757088608415334700,5.642334716796875,0.18548299372196198,0.29918399453163147,-0.4510279893875122
1757088608424887800,5.6518876953125,0.1838120073080063,0.2916800081729889,-0.5197629928588867
1757088608434440700,5.661440673828125,0.15373800694942474,0.3630160093307495,-0.47255000472068787
1757088608443993600,5.67099365234375,0.10218600183725357,0.36164501309394836,-0.4457789957523346
1757088608453546800,5.680546630859375,0.05966300144791603,0.34133100509643555,-0.35331401228904724
1757088608463099600,5.690099609375,0.054990001022815704,0.3852039873600006,-0.22960999608039856
1757088608472652800,5.69965283203125,0.07106900215148926,0.3436659872531891,-0.16937099397182465
1757088608482205700,5.709205810546875,0.13121700286865234,0.16569900512695312,-0.15510199964046478
1757088608491758800,5.7187587890625,0.07953500002622604,-0.06284199655056,-0.2448199987411499
1757088608501311700,5.728311767578125,0.0005840000230818987,-0.09146799892187119,-0.19915799796581268
1757088608510864600,5.73786474609375,-0.04532499983906746,-0.12825199961662292,-0.18996599316596985
1757088608520417500,5.74741748046875,-0.08662299811840057,-0.1514350026845932,-0.19244100153446198
1757088608529970700,5.756970703125,-0.05984000116586685,-0.24108900129795074,-0.06208299845457077
1757088608539523800,5.76652392578125,-0.005898999981582165,-0.3729569911956787,0.03968200087547302
1757088608549076700,5.77607666015625,-0.033211998641490936,-0.310481995344162,0.1021139994263649
1757088608558629600,5.785629638671875,0.012582000344991684,-0.41647300124168396,0.15410000085830688
1757088608568182800,5.795182861328125,0.031051000580191612,-0.43824800848960876,0.30451899766921997
1757088608577735700,5.804735595703125,0.09995199739933014,-0.40269699692726135,0.3014189898967743
1757088608587288600,5.81428857421875,0.10435499995946884,-0.3559719920158386,0.330269992351532
1757088608596841700,5.823841796875,0.11896400153636932,-0.2715339958667755,0.32597100734710693
1757088608606394600,5.83339453125,0.08199399709701538,-0.13563300669193268,0.3366590142250061
1757088608615947500,5.842947509765625,0.010529999621212482,-0.03093400038778782,0.283035010099411
1757088608625500400,5.85250048828125,-0.018758999183773994,-0.18761999905109406,0.26612499356269836
1757088608635053600,5.862053466796875,-0.03919000178575516,-0.2246060073375702,0.31515300273895264
1757088608644606500,5.8716064453125,-0.03449000045657158,-0.11872699856758118,0.2179259955883026
1757088608654159600,5.88115966796875,-0.05341700091958046,-0.16977299749851227,0.08988700062036514
1757088608663712500,5.89071240234375,-0.014582999981939793,-0.1563519984483719,0.038816001266241074
1757088608673265700,5.900265625,-0.01597299985587597,-0.1345369964838028,-0.011699000373482704
1757088608682818600,5.909818603515625,-0.016798999160528183,-0.13007999956607819,-0.08153499662876129
1757088608692371500,5.919371337890625,-0.01751900091767311,-0.14692799746990204,-0.09494400024414062
1757088608701924400,5.92892431640625,-0.01076200045645237,-0.15000200271606445,-0.12777100503444672
1757088608711477200,5.938477294921875,-0.002839999971911311,-0.047171998769044876,-0.1680160015821457
1757088608721030400,5.948030517578125,0.015192000195384026,-0.008806000463664532,-0.19882699847221375
1757088608730583600,5.95758349609375,-0.013648999854922295,0.07003699988126755,-0.2434449940919876
1757088608740136400,5.967136474609375,0.009877000004053116,0.040720000863075256,-0.24252499639987946
1757088608749689300,5.976689453125,-0.00016199999663513154,0.0334479995071888,-0.2505890130996704
1757088608759242500,5.986242431640625,-0.005218000151216984,0.04917600005865097,-0.2602599859237671
1757088608768795400,5.99579541015625,-0.008035000413656235,0.05506499856710434,-0.23319700360298157
1757088608778348300,6.005348388671875,0.0034179999493062496,0.06537999957799911,-0.20987799763679504
1757088608787901200,6.014901123046875,0.012206999585032463,0.05493700131773949,-0.1880190074443817
1757088608797454000,6.0244541015625,0.042514000087976456,0.07492800056934357,-0.17458100616931915
1757088608807007200,6.03400732421875,0.05112399905920029,0.07603099942207336,-0.16221199929714203
1757088608816560400,6.043560302734375,0.0595569983124733,0.07725600153207779,-0.14184099435806274
1757088608826113300,6.05311328125,0.05846000090241432,0.0942239984869957,-0.12969699501991272
1757088608835666200,6.062666259765625,0.040741998702287674,0.12363599985837936,-0.10925199836492538
1757088608845219300,6.07221923828125,0.030097000300884247,0.12182000279426575,-0.0781560018658638
1757088608854772200,6.081772216796875,-0.002305000089108944,0.0905190035700798,-0.06838800013065338
1757088608864325000,6.0913251953125,-0.023654000833630562,0.024653000757098198,0.01338099967688322
1757088608873878300,6.100878173828125,-0.03355899825692177,-0.0011269999668002129,0.06799300014972687
1757088608883431200,6.11043115234375,-0.024538999423384666,0.018112000077962875,0.1096619963645935
1757088608892984300,6.119984375,-0.025332000106573105,0.021020999178290367,0.1278800070285797
1757088608902537200,6.129537109375,0.0021389999892562628,-0.01607700064778328,0.12411800026893616
1757088608912090000,6.139090087890625,0.029186999425292015,-0.039468999952077866,0.1495710015296936
1757088608921643000,6.14864306640625,0.049001000821590424,-0.04588500037789345,0.14140799641609192
1757088608931196200,6.158196044921875,0.05205100029706955,-0.05690599977970123,0.13839000463485718
1757088608940749000,6.1677490234375,0.06228699907660484,-0.0654589980840683,0.13811300694942474
1757088608950302200,6.17730224609375,0.04882600158452988,-0.055941998958587646,0.12451999634504318
1757088608959855400,6.18685546875,0.05017700046300888,-0.03375700116157532,0.08934900164604187
1757088608969408300,6.196408203125,0.042121998965740204,-0.02406900003552437,0.07674799859523773
1757088608978961200,6.205961181640625,0.019657999277114868,-0.033181000500917435,0.0786610022187233
1757088608988514000,6.21551416015625,-0.01739799976348877,-0.04403100162744522,0.10789000242948532
1757088608998067200,6.225067138671875,-0.028164999559521675,-0.051973000168800354,0.09205199778079987
1757088609007620000,6.2346201171875,-0.09796000272035599,-0.005675000138580799,-0.0038300000596791506
1757088609017173200,6.24417333984375,-0.012404999695718288,-0.0018390000332146883,0.030069999396800995
1757088609026726100,6.25372607421875,0.0227230004966259,-0.00023600000713486224,0.06035299971699715
1757088609036279000,6.263279052734375,0.029503999277949333,0.03080900013446808,0.04908600077033043
1757088609045832000,6.27283203125,0.036315999925136566,0.026141000911593437,0.05274200066924095
1757088609055385000,6.282385009765625,0.035861000418663025,0.01723499968647957,0.05634000152349472
1757088609064938000,6.29193798828125,0.026047000661492348,0.022206999361515045,0.027931999415159225
1757088609074491000,6.301490966796875,0.033059000968933105,0.017700999975204468,0.014650000259280205
1757088609084044000,6.3110439453125,0.037769999355077744,0.008635999634861946,-0.006940000224858522
1757088609093597000,6.320596923828125,0.021012000739574432,0.00672199996188283,-0.015819000080227852
1757088609103150000,6.330150146484375,0.01870799995958805,0.025210000574588776,-0.0038880000356584787
1757088609112703000,6.339702880859375,-0.0026050000451505184,0.0561399981379509,0.01875000074505806
1757088609122256100,6.349256103515625,0.006945999804884195,0.0403980016708374,0.03810599818825722
1757088609131809000,6.35880908203125,0.006945999804884195,0.04812299832701683,0.05228700116276741
1757088609141362200,6.368362060546875,-0.010122000239789486,0.01921899989247322,0.06577199697494507
1757088609150915000,6.3779150390625,0.001353000057861209,-0.01686199940741062,0.04007299989461899
1757088609160468000,6.387468017578125,0.037689000368118286,-0.019293999299407005,0.25651100277900696
1757088609170020900,6.397020751953125,0.03451700136065483,0.0062409997917711735,0.0381149984896183
1757088609179573800,6.40657373046875,-0.013310999609529972,0.011505999602377415,-0.034908998757600784
1757088609189127000,6.416126953125,0.02945300005376339,-0.013066999614238739,0.0073990002274513245
1757088609198680000,6.42568017578125,-0.004131999798119068,-0.01891000010073185,-0.010563000105321407
1757088609208233000,6.43523291015625,0.008189000189304352,0.02526400052011013,-0.020966000854969025
1757088609217785900,6.444785888671875,0.022884000092744827,0.02211499959230423,-0.035597000271081924
1757088609227338800,6.4543388671875,0.023127000778913498,0.035280998796224594,-0.018132999539375305
1757088609236892000,6.463891845703125,0.03279300034046173,0.021005000919103622,-0.02915400080382824
1757088609246444800,6.47344482421875,0.006678999867290258,0.018540000542998314,-0.048638999462127686
1757088609255998000,6.482998046875,-0.007083999924361706,0.013433000072836876,-0.09595099836587906
1757088609265550800,6.49255078125,0.00813400000333786,0.024139000102877617,-0.1061680018901825
1757088609275104000,6.50210400390625,0.011233000084757805,0.027192000299692154,-0.0657379999756813
1757088609284657000,6.511656982421875,0.02645600028336048,0.043873000890016556,-0.0727280005812645
1757088609294209800,6.521209716796875,0.03701400011777878,0.05992899835109711,-0.07936400175094604
1757088609303763000,6.530762939453125,0.03060000017285347,0.05279900133609772,-0.06543699651956558
1757088609313315800,6.54031591796875,0.026210999116301537,0.005510000046342611,-0.07976900041103363
1757088609322869000,6.549868896484375,0.017078999429941177,0.010556000284850597,-0.08449400216341019
1757088609332422000,6.559421875,0.012551999650895596,-0.000645000021904707,-0.06880299746990204
1757088609341974800,6.568974853515625,0.010517000220716,0.0042420001700520515,-0.06742999702692032
1757088609351527700,6.578527587890625,0.00836899969726801,-0.020982999354600906,-0.06813299655914307
1757088609361080800,6.588080810546875,-0.01795399934053421,-0.03857399895787239,-0.03701300173997879
1757088609370633700,6.5976337890625,-0.02294600009918213,-0.06234399974346161,-0.025793999433517456
1757088609380186600,6.6071865234375,-0.035200998187065125,-0.07642199844121933,-0.01763400062918663
1757088609389739800,6.61673974609375,-0.03786399960517883,-0.07662700116634369,-0.010033000260591507
1757088609399293000,6.62629296875,-0.0309820007532835,-0.06131700053811073,0.024176999926567078
1757088609408845800,6.635845703125,-0.014465999789536,-0.04947799816727638,0.031115999445319176
1757088609418398700,6.645398681640625,-0.00013000000035390258,-0.02698099985718727,0.023912999778985977
1757088609427951600,6.65495166015625,0.01421900000423193,-0.021692000329494476,0.028195999562740326
1757088609437504500,6.66450439453125,0.009227000176906586,-0.04635100066661835,0.02989399991929531
1757088609447058000,6.674057861328125,-0.017472999170422554,-0.07017400115728378,0.03597300127148628
1757088609456610800,6.68361083984375,-0.010223999619483948,-0.0457720011472702,0.00994499959051609
1757088609466163700,6.693163818359375,-0.009774000383913517,-0.005104000214487314,0.014847000129520893
1757088609475716600,6.702716552734375,0.026998000219464302,0.03788100183010101,0.0011950000189244747
1757088609485269500,6.71226953125,0.04737599939107895,0.07635299861431122,-0.00930699985474348
1757088609494822400,6.721822509765625,0.0485600009560585,0.088127002120018,0.005716000217944384
1757088609504375600,6.73137548828125,0.07830499857664108,0.08182299882173538,0.008652999997138977
1757088609513928700,6.7409287109375,0.07444100081920624,0.09244100004434586,0.018218999728560448
1757088609523481600,6.750481689453125,0.08735600113868713,0.10559000074863434,0.011462000198662281
1757088609533034800,6.76003466796875,0.09787900000810623,0.1254960000514984,0.018552999943494797
1757088609542587600,6.769587646484375,0.10118100047111511,0.1247439980506897,0.00748400017619133
1757088609552140800,6.779140869140625,0.10200899839401245,0.12244900315999985,0.006298999767750502
1757088609561693700,6.788693603515625,0.10516099631786346,0.10968799889087677,-0.010300000198185444
1757088609571246600,6.79824658203125,0.08875799924135208,0.07301300019025803,0.008237999863922596
1757088609580799500,6.807799560546875,0.043333999812603,0.04067999869585037,0.0240860003978014
1757088609590352600,6.8173525390625,0.01421399973332882,-0.007915000431239605,0.03920900076627731
1757088609599905500,6.826905517578125,-0.01261099986732006,-0.015571000054478645,0.05126599967479706
1757088609609458400,6.83645849609375,-0.03981100022792816,-0.050144001841545105,0.06925299763679504
1757088609619011600,6.846011474609375,-0.03832000121474266,-0.06255000084638596,0.056485000997781754
1757088609628564700,6.855564697265625,-0.04636500030755997,-0.08155699819326401,0.03057599999010563
1757088609638117600,6.86511767578125,-0.035158999264240265,-0.0750190019607544,0.026133999228477478
1757088609647670500,6.87467041015625,-0.018887000158429146,-0.06939200311899185,-0.0055149998515844345
1757088609657223400,6.884223388671875,-0.01178400032222271,-0.04888699948787689,-0.03082600049674511
1757088609666776300,6.8937763671875,0.011988000012934208,-0.03411300107836723,0.00636899983510375
1757088609676329500,6.90332958984375,-0.004712999798357487,-0.004604999907314777,0.016798999160528183
1757088609685882400,6.91288232421875,0.012041999958455563,-0.015138999558985233,0.013123000040650368
1757088609695435500,6.922435546875,0.03375599905848503,0.013725999742746353,0.0117790000513196
1757088609704988400,6.931988525390625,0.029292000457644463,0.027729999274015427,-0.0006350000039674342
1757088609714541600,6.94154150390625,0.0369580015540123,0.041127000004053116,-0.009897000156342983
1757088609724094500,6.951094482421875,0.046950001269578934,0.042890001088380814,-0.007387000136077404
1757088609733647400,6.9606474609375,0.05950799956917763,0.05177399888634682,-0.03444499894976616
1757088609743200300,6.9702001953125,0.07193200290203094,0.04703599959611893,-0.02828899957239628
1757088609752753400,6.97975341796875,0.0627719983458519,0.03607200086116791,-0.040369000285863876
1757088609762306600,6.989306640625,0.055955998599529266,0.028063999488949776,-0.0426659993827343
1757088609771859500,6.998859375,0.037094999104738235,0.02047000080347061,-0.04033200070261955
1757088609781412400,7.008412353515625,0.01103300042450428,0.006337999831885099,-0.04215100035071373
1757088609790965200,7.01796533203125,0.011203000321984291,-0.0024800000246614218,-0.03471300005912781
1757088609800518400,7.027518310546875,0.004248000215739012,-0.008685999549925327,-0.047961000353097916
1757088609810071300,7.0370712890625,-0.00038499999209307134,-0.010177000425755978,-0.038072001188993454
1757088609819624400,7.04662451171875,0.002094999887049198,-0.004914000164717436,-0.019840000197291374
1757088609829177600,7.056177490234375,0.009328000247478485,-0.0114139998331666,-0.023228000849485397
1757088609838730500,7.06573046875,0.02382799983024597,0.002778999973088503,-0.022109000012278557
1757088609848283400,7.075283447265625,0.02401600033044815,0.011661999858915806,-0.01878800056874752
1757088609857836300,7.084836181640625,0.038656000047922134,0.024669000878930092,-0.022631999105215073
1757088609867389400,7.094389404296875,0.04600999876856804,0.025675000622868538,-0.005993000231683254
1757088609876942300,7.1039423828125,0.029357999563217163,0.019843999296426773,0.0008900000248104334
1757088609886495500,7.11349560546875,0.024633999913930893,0.016676999628543854,0.002894999925047159
1757088609896048400,7.12304833984375,0.03416299819946289,0.011711999773979187,0.006978000048547983
1757088609905601300,7.132601318359375,0.029364999383687973,0.011641999706625938,-0.0027890000492334366
1757088609915154200,7.142154296875,0.03879699856042862,0.007230000104755163,0.010638999752700329
1757088609924707000,7.15170703125,0.024233000352978706,-0.0014309999532997608,0.009859999641776085
1757088609934260200,7.16126025390625,0.03830000013113022,-0.011870999820530415,0.011308999732136726
1757088609943813000,7.170813232421875,0.018769999966025352,-0.01747399941086769,0.02882399968802929
1757088609953366300,7.1803662109375,0.016177000477910042,-0.013965999707579613,0.009208999574184418
1757088609962919200,7.189919189453125,0.0016339999856427312,-0.006149999797344208,0.017868999391794205
1757088609972472000,7.19947216796875,0.003868000116199255,-0.010266000404953957,0.014750000089406967
1757088609982025200,7.209025146484375,0.01549299992620945,-0.020618999376893044,0.02303900010883808
1757088609991578400,7.218578369140625,0.012795000337064266,-0.010088999755680561,0.0261049997061491
1757088610001131300,7.22813134765625,0.014967000111937523,-0.00014000000373926014,0.029201000928878784
1757088610010684200,7.23768408203125,0.031502000987529755,-0.011068000458180904,0.009209999814629555
1757088610020237300,7.2472373046875,0.03365600109100342,-0.001053999993018806,0.02418999932706356
1757088610029790200,7.256790283203125,0.03340499848127365,-0.007426000200212002,0.017983999103307724
1757088610039343000,7.266343017578125,0.028447000309824944,-0.008936000056564808,0.0055160000920295715
1757088610048896000,7.27589599609375,0.016455000266432762,-0.0038010000716894865,-0.006207999773323536
1757088610058449000,7.285448974609375,0.021088000386953354,-0.012470999732613564,0.005423000082373619
1757088610068001800,7.295001708984375,0.025752000510692596,-0.002443999983370304,0.007197000086307526
1757088610077555200,7.30455517578125,0.016083000227808952,-0.011117000132799149,-0.00687299994751811
1757088610087108000,7.314108154296875,0.021093999966979027,0.012380000203847885,-0.029221000149846077
1757088610096661000,7.323660888671875,0.011673999950289726,0.011880000121891499,-0.016371000558137894
1757088610106214000,7.3332138671875,0.01664000004529953,0.015961000695824623,-0.015573999844491482
1757088610115767000,7.34276708984375,0.014535999856889248,0.028831999748945236,-0.017076000571250916
1757088610125320000,7.35231982421875,0.024261999875307083,0.01179799996316433,-0.023161999881267548
1757088610134872800,7.361872802734375,0.02671400085091591,0.007031999994069338,-0.012993000447750092
1757088610144426000,7.371426025390625,0.04119199886918068,0.011695999652147293,-0.021647000685334206
1757088610153979000,7.380978759765625,0.022359000518918037,0.022501999512314796,-0.03198299929499626
1757088610163532000,7.390531982421875,0.020287999883294106,0.016896000131964684,-0.037053000181913376
1757088610173085000,7.4000849609375,0.02301199920475483,0.029683999717235565,-0.021536000072956085
1757088610182638000,7.40963818359375,0.02316799946129322,0.012288999743759632,-0.0136329997330904
1757088610192191000,7.41919091796875,0.01630599983036518,0.018415000289678574,-0.030998000875115395
1757088610201744100,7.428744140625,0.023654000833630562,0.012954999692738056,-0.01589599996805191
1757088610211297000,7.438297119140625,0.031052999198436737,0.021410999819636345,-0.017619000747799873
1757088610220850000,7.447849853515625,0.026345999911427498,0.009018000215291977,-0.01017600018531084
1757088610230402800,7.45740283203125,0.03126699849963188,0.006521999835968018,-0.02576100081205368
1757088610239955700,7.466955810546875,0.01942100003361702,0.003963000141084194,-0.019954999908804893
1757088610249508900,7.4765087890625,0.019392000511288643,-0.0006079999729990959,-0.005555999930948019
1757088610259061800,7.486061767578125,0.01928200013935566,-0.0002899999963119626,0.008150000125169754
1757088610268615000,7.495614990234375,0.033688001334667206,0.020323000848293304,0.004931999836117029
1757088610278167800,7.505167724609375,0.033661000430583954,0.026305999606847763,0.019826000556349754
1757088610287720700,7.514720703125,0.036104001104831696,0.02509699948132038,0.00914900004863739
1757088610297273600,7.524273681640625,0.03375599905848503,0.014901000075042248,-0.0031709999311715364
1757088610306826800,7.53382666015625,0.024125000461935997,0.014240000396966934,0.019373999908566475
1757088610316379600,7.543379638671875,0.007011000066995621,-0.015891000628471375,0.038725998252630234
1757088610325932500,7.5529326171875,0.0018870000494644046,-0.010234000161290169,0.03895200043916702
1757088610335486000,7.56248583984375,-0.0010519999777898192,-0.018262000754475594,0.05714099854230881
1757088610345038800,7.572038818359375,0.015414999797940254,0.0060350000858306885,0.03080200031399727
1757088610354591700,7.581591796875,0.031814999878406525,-0.0024339999072253704,0.02154799923300743
1757088610364144600,7.59114453125,0.031436000019311905,-0.015050999820232391,0.012943999841809273
1757088610373697500,7.600697509765625,0.05527200177311897,-0.00002499999936844688,-0.00879599992185831
1757088610383250700,7.610250732421875,0.04345700144767761,0.013956000097095966,-0.022128000855445862
1757088610392803600,7.619803466796875,0.02924400009214878,0.004354000091552734,-0.02308100089430809
1757088610402356500,7.6293564453125,0.010091000236570835,0.0019290000200271606,0.005628000013530254
1757088610411909600,7.63890966796875,-0.006703999824821949,0.004259000066667795,0.009992999956011772
1757088610421462500,7.648462646484375,-0.011408000253140926,0.011063000187277794,-0.004046999849379063
1757088610431015400,7.658015380859375,-0.0019890000112354755,-0.007306000217795372,0.007395999971777201
1757088610440568600,7.667568603515625,0.014739000238478184,0.004863000009208918,-0.004608000162988901
1757088610450121500,7.67712158203125,0.0316849984228611,0.01637299917638302,-0.027324000373482704
1757088610459674400,7.68667431640625,0.0366629995405674,0.004563999827951193,-0.037262000143527985
1757088610469227500,7.6962275390625,0.04159900173544884,0.009043999947607517,-0.019440999254584312
1757088610478780400,7.705780517578125,0.032391998916864395,0.01999099925160408,-0.03871599957346916
1757088610488333600,7.71533349609375,0.023173000663518906,0.02336299978196621,-0.027473999187350273
1757088610497886500,7.724886474609375,0.0090549997985363,0.022021999582648277,-0.01001800037920475
1757088610507439400,7.734439453125,0.014053000137209892,0.011880000121891499,-0.023042000830173492
1757088610516992300,7.7439921875,0.014259999617934227,0.01597600057721138,-0.019520999863743782
1757088610526545200,7.753545166015625,0.016790000721812248,0.015562999993562698,-0.016326000913977623
1757088610536098300,7.763098388671875,0.024018000811338425,0.010590000078082085,-0.008946999907493591
1757088610545651500,7.7726513671875,0.019301999360322952,0.00812700018286705,-0.01550699956715107
1757088610555204400,7.782204345703125,0.0361349992454052,0.010447000153362751,-0.017271000891923904
1757088610564757200,7.79175732421875,0.040814001113176346,-0.003263999940827489,-0.0031469999812543392
1757088610574310100,7.80131005859375,0.03835200145840645,-0.004801000002771616,-0.014649000018835068
1757088610583863300,7.81086328125,0.021581999957561493,0.009424000047147274,-0.0005740000051446259
1757088610593416200,7.820416259765625,0.01191799994558096,0.009327000007033348,0.008011999540030956
1757088610602969300,7.82996923828125,0.011777999810874462,0.0003060000017285347,0.00018200000340584666
1757088610612522200,7.839522216796875,0.02124200016260147,0.0054060001857578754,0.0018710000440478325
1757088610622075100,7.8490751953125,0.02356399968266487,0.003361999988555908,-0.005563999991863966
1757088610631628300,7.858628173828125,0.03794100135564804,0.014977999962866306,-0.0035230000503361225
1757088610641181200,7.86818115234375,0.033055998384952545,0.0010499999625608325,0.00092299998505041
1757088610650734000,7.877734130859375,0.03783800080418587,0.012802000157535076,0.002950000111013651
1757088610660287200,7.887287353515625,0.023406000807881355,0.01247899979352951,0.01623300090432167
1757088610669840400,7.89684033203125,0.02811099961400032,0.005332000087946653,0.013059999793767929
1757088610679393300,7.906393310546875,0.009043999947607517,0.014140999875962734,0.00812199991196394
1757088610688946200,7.9159462890625,0.011491999961435795,0.01569800078868866,0.014755000360310078
1757088610698499000,7.9254990234375,0.008932000026106834,-0.0007169999880716205,0.025537999346852303
1757088610708052200,7.93505224609375,0.0015879999846220016,-0.009473999962210655,0.013061000034213066
1757088610717605000,7.944605224609375,0.015900999307632446,-0.004062999971210957,-0.0034209999721497297
1757088610727158300,7.954158203125,0.035030998289585114,0.0034469999372959137,-0.00801599957048893
1757088610736711200,7.963711181640625,0.03022800013422966,0.005861000157892704,-0.0009210000280290842
1757088610746264000,7.97326416015625,0.042233001440763474,0.00810800027102232,-0.00797600019723177
1757088610755817000,7.98281689453125,0.02313300035893917,0.01245499961078167,-0.0032339999452233315
1757088610765370000,7.9923701171875,0.02297299914062023,-0.012697000056505203,-0.0032579998951405287
1757088610774923000,8.001923095703125,0.003806999884545803,-0.0048340000212192535,-0.016853999346494675
1757088610784476200,8.01147607421875,0.013338999822735786,-0.006378999911248684,-0.016178999096155167
1757088610794029000,8.021029052734375,0.022809000685811043,-0.012399000115692616,-0.013333000242710114
1757088610803582200,8.030582275390625,0.010706000030040741,-0.01589900068938732,-0.01293299999088049
1757088610813135000,8.040135009765624,0.017789000645279884,-0.016776999458670616,-0.023900000378489494
1757088610822688000,8.04968798828125,0.01053600013256073,-0.0019729998894035816,-0.004856999963521957
1757088610832241000,8.059240966796875,0.027344999834895134,0.00761000020429492,-0.018724000081419945
1757088610841793800,8.068793701171876,0.012980000115931034,-0.006155999843031168,-0.01793700084090233
1757088610851347200,8.07834716796875,0.01058799959719181,-0.007969999685883522,-0.017162999138236046
1757088610860900000,8.087900146484374,0.022494999691843987,0.003930999897420406,0.006054999772459269
1757088610870453000,8.097452880859375,0.015336000360548496,0.008334999904036522,0.0010059999767690897
1757088610880006000,8.107005859375,0.022585000842809677,0.0012730000307783484,-0.014952000230550766
1757088610889559000,8.11655908203125,0.01760699972510338,-0.014364000409841537,0.003794000018388033
1757088610899112000,8.12611181640625,0.022388000041246414,0.011563999578356743,0.007977000437676907
1757088610908664800,8.135664794921874,0.01991800032556057,0.008892999961972237,0.01882299967110157
1757088610918217700,8.1452177734375,0.022350000217556953,0.02007400058209896,0.010979999788105488
1757088610927771000,8.15477099609375,0.012597999535501003,-0.005607000086456537,0.014933000318706036
1757088610937323800,8.16432373046875,0.007751999888569117,0.0016550000291317701,0.00966500025242567
1757088610946877000,8.173876953125,0.022204000502824783,0.010986999608576298,-0.006585000082850456
1757088610956429800,8.183429931640624,0.022262999787926674,0.012893999926745892,0.0029249999206513166
1757088610965982700,8.192982666015626,0.0031709999311715364,0.010138999670743942,-0.0016700000269338489
1757088610975535900,8.202535888671875,0.007876000367105007,0.005198999773710966,0.016455000266432762
1757088610985088800,8.2120888671875,0.012659999541938305,0.011874999850988388,0.008564000017940998
1757088610994642000,8.221641845703125,0.02466600015759468,0.006850999779999256,-0.003360999980941415
1757088611004194800,8.23119482421875,0.04157799854874611,0.024836000055074692,-0.0034129999112337828
1757088611013747700,8.240747802734376,0.03691700100898743,0.01229500025510788,-0.010084999725222588
1757088611023300600,8.250300537109375,0.022866999730467796,0.02532700076699257,-0.02071000076830387
1757088611032853500,8.259853515625,0.030168000608682632,0.015316000208258629,-0.010540000163018703
1757088611042406700,8.26940673828125,0.030324000865221024,0.017169000580906868,-0.01449699979275465
1757088611051959800,8.278959716796875,0.03752899914979935,0.01218700036406517,-0.004945000167936087
1757088611061512700,8.2885126953125,0.04749000072479248,0.04606899991631508,-0.02538199909031391
1757088611071065600,8.298065673828125,0.057395000010728836,0.03508999943733215,-0.028767000883817673
1757088611080618800,8.30761865234375,0.033674001693725586,0.026700999587774277,-0.009002000093460083
1757088611090171600,8.317171630859375,0.017243999987840652,0.02771800011396408,-0.017123999074101448
1757088611099724800,8.326724853515625,0.007845999673008919,0.015054999850690365,-0.00190100003965199
1757088611109277700,8.336277587890624,0.00060299999313429,0.010046999901533127,0.025953000411391258
1757088611118830800,8.345830810546875,0.009925000369548798,0.005594000220298767,0.04064000025391579
1757088611128383500,8.355383544921875,0.00970499962568283,0.0016420000465586782,0.020410999655723572
1757088611137936600,8.3649365234375,0.033341001719236374,-0.004290999844670296,0.019021999090909958
1757088611147489500,8.374489501953125,0.057107001543045044,-0.005295000039041042,-0.009643999859690666
1757088611157042400,8.38404248046875,0.04048899933695793,0.009325000457465649,-0.03424900025129318
1757088611166595600,8.393595703125,0.055156998336315155,0.01183599978685379,-0.055045001208782196
1757088611176148700,8.403148681640625,0.03870199993252754,0.016100000590085983,-0.03595900163054466
1757088611185701600,8.41270166015625,0.014825999736785889,0.015395999886095524,0.009266999550163746
1757088611195254500,8.422254638671875,0.0051299999468028545,0.01724099926650524,0.031314000487327576
1757088611204807400,8.431807373046874,-0.0070409998297691345,0.007710999809205532,0.02937600016593933
1757088611214360600,8.441360595703125,0.004784000106155872,0.005710999947041273,0.009301000274717808
1757088611223913500,8.45091357421875,0.016498999670147896,-0.005123999901115894,0.008259999565780163
1757088611233466400,8.46046630859375,0.03319000080227852,0.004894999787211418,-0.010999999940395355
1757088611243019500,8.47001953125,0.04508800059556961,0.003019999945536256,-0.013438999652862549
1757088611252572700,8.47957275390625,0.03802099823951721,0.0034759999252855778,-0.038047999143600464
1757088611262125600,8.48912548828125,0.028359999880194664,-0.011988000012934208,-0.02280599996447563
1757088611271678500,8.498678466796875,0.02138100005686283,-0.0019890000112354755,-0.046557001769542694
1757088611281231400,8.5082314453125,-0.009576000273227692,0.0004149999876972288,-0.01854499988257885
1757088611290784300,8.5177841796875,-0.016572000458836555,0.0045369998551905155,0.00395999988541007
1757088611300337200,8.527337158203125,0.0170460008084774,0.013306999579071999,0.015859000384807587
1757088611309890300,8.536890380859376,0.02904300019145012,0.010607999749481678,0.006126999855041504
1757088611319443200,8.546443115234375,0.03850499913096428,0.015154999680817127,0.021432999521493912
1757088611328996400,8.555996337890624,0.040511999279260635,0.0031820000149309635,0.07269400358200073
1757088611338549200,8.56554931640625,0.01875299960374832,-0.035468000918626785,-0.010493000037968159
1757088611348102100,8.57510205078125,-0.012527000159025192,-0.038290999829769135,-0.004656000062823296
1757088611357655000,8.584655029296876,-0.01512799970805645,-0.05013100057840347,0.0038079998921602964
1757088611367208200,8.594208251953125,-0.02019999921321869,-0.008953000418841839,0.07822500169277191
1757088611376761000,8.603760986328124,-0.037335000932216644,0.038864001631736755,0.14315900206565857
1757088611386314200,8.613314208984375,-0.02341100014746189,0.00468500005081296,0.09963899850845337
1757088611395867100,8.6228671875,0.05243099853396416,0.006953000091016293,0.1254809945821762
1757088611405420000,8.632419921875,0.07317099720239639,-0.041106000542640686,0.07022900134325027
1757088611414973200,8.64197314453125,0.07937999814748764,-0.09781000018119812,0.034442998468875885
1757088611424526000,8.651526123046875,0.08628500252962112,-0.029524000361561775,0.011845000088214874
1757088611434079000,8.661078857421876,0.07917100191116333,0.003324999939650297,-0.002686999971047044
1757088611443632000,8.670632080078125,0.02271999977529049,0.1130329966545105,0.011609000153839588
1757088611453185300,8.680185302734374,-0.002498999936506152,0.13095900416374207,0.011664999648928642
1757088611462738200,8.68973828125,0.005073000211268663,0.04672599956393242,0.0189800001680851
1757088611472291000,8.699291015625,0.002377999946475029,0.005925000179558992,0.06385300308465958
1757088611481844000,8.708843994140626,0.035955000668764114,0.10108800232410431,0.10311000049114227
1757088611491396900,8.71839697265625,0.036090999841690063,0.07320400327444077,0.06834600120782852
1757088611500949800,8.72794970703125,0.054951999336481094,0.019663000479340553,0.07404699921607971
1757088611510503000,8.7375029296875,0.056915998458862305,0.0006169999833218753,0.07494600117206573
1757088611520056000,8.74705615234375,0.01822499930858612,-0.013383000157773495,0.06221200153231621
1757088611529609000,8.75660888671875,-0.001383999944664538,-0.07182499766349792,0.002750999992713332
1757088611539162000,8.766162109375,-0.025691000744700432,-0.11372999846935272,-0.057874999940395355
1757088611548714800,8.77571484375,-0.03785799816250801,-0.13079899549484253,-0.10140199959278107
1757088611558268000,8.785267822265626,-0.033075001090765,-0.11072699725627899,-0.11578000336885452
1757088611567820800,8.79482080078125,-0.01848899945616722,-0.08040300011634827,-0.12294500321149826
1757088611577373700,8.804373779296874,-0.0013599999947473407,-0.06283599883317947,-0.14156700670719147
1757088611586926800,8.8139267578125,0.016064999625086784,-0.057509999722242355,-0.1887030005455017
1757088611596480000,8.82347998046875,0.0120430001989007,-0.0638979971408844,-0.21042600274085999
1757088611606033000,8.833032958984376,0.025211000815033913,-0.045152001082897186,-0.25568100810050964
1757088611615585800,8.842585693359375,0.024073999375104904,-0.027677999809384346,-0.2467229962348938
1757088611625138700,8.852138671875,0.018293000757694244,-0.004406000021845102,-0.2524079978466034
1757088611634691600,8.861691650390625,0.007978999987244606,0.031197000294923782,-0.25562000274658203
1757088611644244700,8.87124462890625,0.006916999816894531,0.00635599996894598,-0.24517199397087097
1757088611653798000,8.8807978515625,0.005888000130653381,0.041586000472307205,-0.201446995139122
1757088611663350800,8.890350830078125,0.01459799986332655,0.07507199794054031,-0.1942259967327118
1757088611672903700,8.899903564453124,0.04732400178909302,0.11372099816799164,-0.15560099482536316
1757088611682456600,8.90945654296875,0.02777799963951111,0.1951580047607422,-0.11978299915790558
1757088611692009700,8.919009765625,0.13871599733829498,0.11905500292778015,-0.03681299835443497
1757088611701562600,8.928562744140624,0.017350999638438225,0.017271000891923904,-0.15848900377750397
1757088611711115500,8.938115478515625,0.04774799942970276,0.15282200276851654,-0.1995069980621338
1757088611720668700,8.947668701171875,0.12941400706768036,0.10366900265216827,-0.38650500774383545
1757088611730221600,8.9572216796875,0.11534000188112259,0.04160400107502937,-0.051238998770713806
1757088611739774700,8.966774658203125,0.017035000026226044,-0.03239100053906441,-0.09681600332260132
1757088611749327600,8.97632763671875,0.05308099836111069,0.033539000898599625,-0.04908899962902069
1757088611758880500,8.985880615234375,0.04782700166106224,-0.010649999603629112,0.012199999764561653
1757088611768433400,8.995433349609375,0.03025900013744831,-0.07496099919080734,-0.011036000214517117
1757088611777986600,9.004986572265626,0.04605599865317345,-0.1045759990811348,0.006444000173360109
1757088611787539700,9.014539794921875,0.02772499993443489,-0.11518599838018417,0.17969800531864166
1757088611797092600,9.024092529296874,-0.04837299883365631,-0.178289994597435,0.07684800028800964
1757088611806645500,9.0336455078125,-0.10141400247812271,-0.06577900052070618,-0.06614399701356888
1757088611816198400,9.043198486328125,-0.01786700077354908,-0.03375399857759476,-0.06648500263690948
1757088611825751300,9.052751220703126,-0.025262000039219856,-0.008662999607622623,-0.0527539998292923
1757088611835304200,9.06230419921875,0.07472699880599976,-0.01707500033080578,0.03354499861598015
1757088611844857300,9.071857421875,0.11184100061655045,-0.06320200115442276,0.07901299744844437
1757088611854410500,9.081410400390626,0.08929300308227539,-0.016147999092936516,0.11564899981021881
1757088611863963400,9.09096337890625,0.06928800046443939,0.014955000020563602,0.14217199385166168
1757088611873516300,9.100516357421874,0.023322999477386475,0.03488500043749809,0.12020400166511536
1757088611883069200,9.110069091796875,0.010773999616503716,0.0036430000327527523,0.11379499733448029
1757088611892622300,9.119622314453125,-0.004474000073969364,-0.02386399917304516,0.15392200648784637
1757088611902175200,9.12917529296875,-0.012961000204086304,-0.049956001341342926,0.1940850019454956
1757088611911728400,9.138728271484375,-0.02636300027370453,-0.0567610003054142,0.20685799419879913
1757088611921281300,9.14828125,-0.01584099978208542,-0.056352000683546066,0.20774899423122406
1757088611930834400,9.15783447265625,0.004282000008970499,-0.07640600204467773,0.18651099503040314
1757088611940387300,9.16738720703125,0.002948000095784664,-0.10013099759817123,0.16067799925804138
1757088611949940200,9.176940185546876,0.004459000192582607,-0.0060259997844696045,0.3051089942455292
1757088611959493000,9.1864931640625,0.08495499938726425,-0.0004299999854993075,0.40549299120903015
1757088611969046300,9.19604638671875,0.08509299904108047,-0.014084000140428543,0.2027219980955124
1757088611978599200,9.20559912109375,0.042532000690698624,0.06065899878740311,0.17444199323654175
1757088611988152300,9.21515234375,0.09593100100755692,0.016248999163508415,0.09216800332069397
1757088611997705200,9.224705322265624,0.03565699979662895,-0.010816999711096287,-0.1629980057477951
1757088612007258000,9.234258056640625,-0.0850439965724945,0.13096299767494202,-0.33792799711227417
1757088612016811000,9.24381103515625,0.008390000090003014,0.2421019971370697,-0.03388600051403046
1757088612026364200,9.2533642578125,0.02689499966800213,0.2521040141582489,-0.0002749999985098839
1757088612035917300,9.262917236328125,0.013973000459372997,0.21460199356079102,-0.00904100015759468
1757088612045470200,9.27247021484375,0.04495299980044365,0.10821899771690369,0.09580399841070175
1757088612055023000,9.282023193359375,-0.00836700014770031,0.09907999634742737,0.12805700302124023
1757088612064576000,9.291575927734375,-0.011258999817073345,0.11788000166416168,0.10571199655532837
1757088612074129000,9.30112890625,0.04851600155234337,0.09716500341892242,-0.006548999808728695
1757088612083682000,9.31068212890625,0.018585000187158585,0.1643580049276352,-0.1057410016655922
1757088612093235000,9.32023486328125,0.019633999094367027,0.0798019990324974,-0.16295300424098969
1757088612102788000,9.3297880859375,0.0295570008456707,0.0038620000705122948,-0.12172400206327438
1757088612112341000,9.339341064453125,0.00595899997279048,0.06289800256490707,-0.04501299932599068
1757088612121894000,9.348893798828126,-0.03216300159692764,0.09604500234127045,0.037050001323223114
1757088612131447000,9.358447021484375,-0.02507299929857254,0.16426099836826324,0.15261299908161163
1757088612141000000,9.368,-0.03141000121831894,0.09560099989175797,0.19512300193309784
1757088612150552800,9.377552734375,-0.03392999991774559,0.08088299632072449,0.2735069990158081
1757088612160106000,9.38710595703125,0.11351600289344788,0.05706999823451042,0.3857940137386322
1757088612169659000,9.396658935546874,0.059324998408555984,-0.04808099940419197,0.28899499773979187
1757088612179212000,9.4062119140625,-0.035326000303030014,-0.07775399833917618,0.06685800105333328
1757088612188765000,9.415764892578125,0.15176799893379211,-0.11706600338220596,-0.0919639989733696
1757088612198317800,9.42531787109375,-0.10990700125694275,-0.16973400115966797,-0.42533499002456665
1757088612207870700,9.43487060546875,-0.05584000051021576,-0.23284000158309937,-0.3689729869365692
1757088612217423600,9.444423583984374,0.1500750035047531,-0.2196429967880249,-0.11658599972724915
1757088612226977000,9.45397705078125,0.1339080035686493,-0.1844020038843155,0.25714799761772156
1757088612236529700,9.46352978515625,-0.1453160047531128,-0.18964800238609314,0.2873519957065582
1757088612246082800,9.473082763671876,-0.20652100443840027,-0.2082030028104782,0.234608992934227
1757088612255635700,9.4826357421875,0.03967700153589249,-0.20283600687980652,0.20584599673748016
1757088612265188600,9.492188720703124,-0.025126999244093895,-0.03863399848341942,0.15765999257564545
1757088612274741500,9.501741455078125,0.00790099985897541,0.041211001574993134,0.03477799892425537
1757088612284294700,9.511294677734375,0.11047700047492981,0.01023900043219328,-0.012385999783873558
1757088612293847600,9.52084765625,0.013385999947786331,0.029079999774694443,0.14083799719810486
1757088612303400700,9.530400634765625,-0.08340699970722198,0.05304199829697609,0.13512299954891205
1757088612312953600,9.53995361328125,-0.17810000479221344,-0.03240999951958656,-0.03308599814772606
1757088612322506800,9.5495068359375,0.0708480030298233,-0.08861999958753586,-0.24957899749279022
1757088612332059600,9.5590595703125,0.31746000051498413,0.26377999782562256,0.08986300230026245
1757088612341612500,9.568612548828124,0.21113799512386322,0.5152770280838013,0.13285599648952484
1757088612351165400,9.57816552734375,0.17011499404907227,0.44595199823379517,0.010228999890387058
1757088612360718600,9.587718505859375,0.04874200001358986,0.24534399807453156,0.01850000023841858
1757088612370271500,9.597271484375,-0.009359999559819698,0.07360699772834778,-0.015825999900698662
1757088612379824600,9.60682470703125,-0.14249500632286072,0.1172500029206276,0.012195000424981117
1757088612389377500,9.61637744140625,-0.10461000353097916,0.12172400206327438,-0.12251900136470795
1757088612398930400,9.625930419921875,-0.08886200189590454,-0.004091999959200621,-0.27890700101852417
1757088612408483600,9.635483642578125,-0.09453999996185303,-0.16190899908542633,-0.2773610055446625
1757088612418036500,9.645036376953126,0.023058999329805374,-0.26342400908470154,-0.17722399532794952
1757088612427589600,9.654589599609375,0.13969099521636963,-0.16656799614429474,-0.052427999675273895
1757088612437142500,9.664142578125,0.21427200734615326,0.0034809999633580446,-0.11369200050830841
1757088612446695400,9.6736953125,0.2286130040884018,0.06232300028204918,-0.21390999853610992
1757088612456248300,9.683248291015625,0.008085999637842178,-0.13489100337028503,-0.568103015422821
1757088612465801200,9.69280126953125,-0.20527200400829315,-0.323172003030777,-0.9519529938697815
1757088612475354400,9.702354248046875,-0.2127169966697693,-0.492684006690979,-0.8675090074539185
1757088612484907300,9.7119072265625,-0.903954029083252,0.2643600106239319,0.046629998832941055
1757088612494460400,9.72146044921875,0.72598797082901,-0.29699501395225525,0.08193700015544891
1757088612504013300,9.731013427734375,0.062352001667022705,-0.214370995759964,-0.1449670046567917
1757088612513566200,9.740566162109374,-0.28073200583457947,-0.019504999741911888,0.04124699905514717
1757088612523119400,9.750119384765625,-0.8689259886741638,3.2556099891662598,1.26453697681427
1757088612532672300,9.75967236328125,0.8832650184631348,2.7169220447540283,0.7049540281295776
1757088612542225200,9.76922509765625,1.5550470352172852,-2.687985897064209,-1.1103719472885132
1757088612551778300,9.7787783203125,-0.12005600333213806,-4.046466827392578,-1.9963669776916504
1757088612561331200,9.788331298828124,-1.6259020566940308,-0.8770830035209656,-1.0050469636917114
1757088612570884000,9.797884033203125,0.6946439743041992,-0.007776999846100807,0.05372399836778641
1757088612580437200,9.807437255859375,-0.0849979966878891,0.33455199003219604,0.6429610252380371
1757088612589990100,9.816990234375,-1.5981999635696411,1.632897973060608,0.10919699817895889
1757088612599543000,9.82654296875,1.3965630531311035,0.9634950160980225,-0.9899740219116211
1757088612609096200,9.83609619140625,1.0230369567871094,-0.11939699947834015,0.2903989851474762
1757088612618649000,9.845649169921876,0.2722330093383789,-0.12940099835395813,1.0372869968414307
1757088612628202200,9.8552021484375,0.2407130002975464,0.6556050181388855,0.5064110159873962
1757088612637755100,9.864755126953124,-0.006173000205308199,0.6670569777488708,0.21918700635433197
1757088612647308000,9.87430810546875,-0.30836498737335205,-1.0942169427871704,0.6624159812927246
1757088612656861000,9.88386083984375,-0.6264349818229675,-1.6533639430999756,1.0085419416427612
1757088612666413800,9.893413818359376,-0.5541509985923767,-1.048454999923706,0.748898983001709
1757088612675967000,9.902967041015625,-0.5738909840583801,-1.0015150308609009,0.8839679956436157
1757088612685520000,9.912519775390624,-0.6320499777793884,-0.13442300260066986,0.3180620074272156
1757088612695072800,9.92207275390625,-0.15022499859333038,0.2972019910812378,-0.6468170285224915
1757088612704626000,9.9316259765625,0.5687739849090576,0.5118340253829956,-0.2374590039253235
1757088612714179000,9.941178955078126,0.4614979922771454,-0.09824299812316895,0.010424000211060047
1757088612723732000,9.95073193359375,-0.8887929916381836,0.04901999980211258,-0.9735770225524902
1757088612733284900,9.960284912109374,-0.6914359927177429,0.7385309934616089,-0.5526440143585205
1757088612742838000,9.969838134765626,0.14107799530029297,0.4041529893875122,0.4958159923553467
1757088612752391000,9.979390869140625,0.5076429843902588,0.10489500313997269,0.21704299747943878
1757088612761943800,9.98894384765625,0.7593610286712646,-0.10712400078773499,-0.08955000340938568
1757088612771496700,9.99849658203125,0.642104983329773,-0.2189200073480606,-0.0525830015540123
1757088612781049900,10.0080498046875,0.1463800072669983,0.19990099966526031,-0.8479300141334534
1757088612790602800,10.017602783203126,-0.08131200075149536,0.5248619914054871,-1.0301719903945923
1757088612800155600,10.02715576171875,-0.33838099241256714,0.30458301305770874,-0.453792005777359
1757088612809708500,10.03670849609375,-0.310153990983963,-0.20717599987983704,0.10940500348806381
1757088612819261700,10.04626171875,-0.42573800683021545,-0.2136330008506775,-0.4474630057811737
1757088612828814800,10.05581494140625,0.07965999841690063,-0.20964699983596802,-0.2112790048122406
1757088612838367700,10.06536767578125,0.33778300881385803,-0.6127430200576782,0.5779889822006226
1757088612847920600,10.074920654296875,0.112916000187397,-0.8576949834823608,0.17250299453735352
1757088612857473500,10.0844736328125,-0.0481639988720417,-1.075853943824768,0.13820600509643555
1757088612867026400,10.0940263671875,-0.33494600653648376,-0.9491959810256958,0.5433369874954224
1757088612876579600,10.10357958984375,-0.5202040076255798,-0.8789259791374207,-0.35461699962615967
1757088612886132500,10.113132568359376,-0.5018320083618164,-0.8467280268669128,-0.5794649720191956
1757088612895685600,10.122685546875,-0.7016919851303101,-0.37313899397850037,-0.4554629921913147
1757088612905238500,10.132238525390624,-0.3761749863624573,0.06703100353479385,-0.22543799877166748
1757088612914791400,10.14179150390625,-0.056554000824689865,0.19109700620174408,0.020448999479413033
1757088612924344300,10.15134423828125,0.19424599409103394,0.26699399948120117,-0.08053000271320343
1757088612933897500,10.1608974609375,0.39607399702072144,0.6363980174064636,-0.17505000531673431
1757088612943450400,10.170450439453125,0.6281690001487732,0.863241970539093,-0.2521800100803375
1757088612953003500,10.18000341796875,0.3814910054206848,0.8361510038375854,-0.28891798853874207
1757088612962556400,10.189556396484376,0.2933189868927002,1.0594359636306763,-0.4461739957332611
1757088612972109600,10.199109619140625,0.015255999751389027,1.1104769706726074,-0.5000720024108887
1757088612981662500,10.208662353515624,-0.06821499764919281,1.1609580516815186,-0.16708600521087646
1757088612991215400,10.21821533203125,0.22324499487876892,1.0040030479431152,0.02589699998497963
1757088613000768300,10.227768310546875,0.24453499913215637,0.867995023727417,-0.5026260018348694
1757088613010321200,10.237321044921876,0.00622900016605854,0.4527119994163513,-0.811152994632721
1757088613019874300,10.246874267578125,-0.3446339964866638,-0.8399069905281067,-0.5739910006523132
1757088613029427500,10.256427490234374,-0.3617599904537201,-3.001339912414551,0.5034300088882446
1757088613038980400,10.26598046875,0.036678001284599304,-3.9630510807037354,1.4827500581741333
1757088613048533200,10.275533203125,0.08131600171327591,-4.304673194885254,2.0729970932006836
1757088613058086100,10.285086181640626,-0.6427680253982544,-4.140322208404541,1.2210110425949097
1757088613067639000,10.29463916015625,-1.124959945678711,-3.835779905319214,0.09480500221252441
1757088613077192200,10.304192138671874,-0.9673889875411987,-3.5730600357055664,0.24896499514579773
1757088613086745000,10.3137451171875,-0.5981870293617249,-3.0095620155334473,-0.7235509753227234
1757088613096298000,10.323298095703125,0.6018530130386353,-2.649554967880249,-2.504910945892334
1757088613105851100,10.33285107421875,-0.9062809944152832,-1.258924961090088,-3.1212708950042725
1757088613115404300,10.342404296875,-0.5999709963798523,-0.3495759963989258,-2.5979878902435303
1757088613124957000,10.35195703125,-0.7808169722557068,0.5608850121498108,-1.2311780452728271
1757088613134510000,10.361510009765626,-0.5953670144081116,1.199524998664856,-1.382949948310852
1757088613144063200,10.371063232421875,-0.07483000308275223,1.2012239694595337,-0.5042099952697754
1757088613153616400,10.380616455078124,-0.14467200636863708,1.2456419467926025,1.7006789445877075
1757088613163169000,10.3901689453125,-0.3804379999637604,1.0154249668121338,2.594104051589966
1757088613172722000,10.399721923828125,-0.3138960003852844,0.22515200078487396,1.7260819673538208
1757088613182275000,10.409275146484376,-0.37222498655319214,-0.885254979133606,0.4284040033817291
1757088613191828000,10.418827880859375,0.229653000831604,-1.9193240404129028,0.8049370050430298
1757088613201380900,10.428380859375,-0.1446170061826706,-2.4367051124572754,0.8310099840164185
1757088613210933800,10.437933837890625,-0.337348997592926,-3.4630680084228516,0.6472070217132568
1757088613220487000,10.44748681640625,0.8842800259590149,-3.8823659420013428,-0.33772599697113037
1757088613230040000,10.4570400390625,2.612035036087036,-2.377769947052002,-0.9505670070648193
1757088613239593000,10.466593017578125,3.19419002532959,1.14992094039917,0.6479610204696655
1757088613249145900,10.476145751953124,3.1182138919830322,2.979696035385132,1.6272170543670654
1757088613258698800,10.48569873046875,2.030548095703125,2.136460065841675,1.2975269556045532
1757088613268251600,10.495251708984375,-2.4930949211120605,-0.5294679999351501,1.1134560108184814
1757088613277804500,10.504804443359374,-3.1341629028320312,-0.4217959940433502,1.5039269924163818
1757088613287357700,10.514357666015625,-2.065361976623535,-3.840024948120117,0.38374900817871094
1757088613296910800,10.523910888671875,2.70398211479187,-6.211875915527344,2.083017110824585
1757088613306463700,10.533463623046876,5.414931774139404,-4.06118106842041,6.496275901794434
1757088613316016600,10.5430166015625,3.814450979232788,-1.0689899921417236,6.242663860321045
1757088613325569500,10.552569580078124,3.585395097732544,1.7236770391464233,3.7733891010284424
1757088613335122700,10.562122802734375,0.7369840145111084,3.282912015914917,1.8236379623413086
1757088613344675600,10.571675537109375,1.2187139987945557,-0.27824801206588745,-3.440279960632324
1757088613354228500,10.581228515625,-2.535876989364624,-1.9499200582504272,-3.3974130153656006
1757088613363781600,10.59078173828125,-2.592525005340576,-2.9723129272460938,-3.0859670639038086
1757088613373334800,10.600334716796874,-5.13240385055542,-3.0120959281921387,-4.6169281005859375
1757088613382887700,10.6098876953125,-4.861746788024902,-2.6206469535827637,-4.781251907348633
1757088613392440600,10.619440673828125,-3.062242031097412,0.2894110083580017,-1.9155889749526978
1757088613401993500,10.628993408203126,-3.1890439987182617,1.0889099836349487,-1.1008960008621216
1757088613411546600,10.638546630859375,-3.062927007675171,0.8224120140075684,-0.5908380150794983
1757088613421099500,10.648099609375,-4.055991172790527,0.5634080171585083,-0.544219970703125
1757088613430652700,10.657652587890626,-4.456833839416504,-0.34219101071357727,-0.8553119897842407
1757088613440205600,10.66720556640625,-2.282815933227539,-0.8074629902839661,-0.2206059992313385
1757088613449758500,10.676758544921874,1.7440650463104248,-0.5975170135498047,1.4246740341186523
1757088613459311600,10.6863115234375,4.283539772033691,-0.5309640169143677,1.5023900270462036
1757088613468864300,10.6958642578125,6.108219146728516,-0.31831398606300354,2.7976839542388916
1757088613478417400,10.70541748046875,6.048189163208008,0.10552000254392624,3.0309479236602783
1757088613487970300,10.71497021484375,3.54121994972229,0.4414210021495819,3.482274055480957
1757088613497523200,10.724523193359374,-0.12783999741077423,0.06491000205278397,4.849585056304932
1757088613507076400,10.734076416015625,-4.422436237335205,-1.0701860189437866,7.009372234344482
1757088613516629200,10.743629150390625,-8.862106323242188,-0.5226179957389832,7.8176469802856445
1757088613526182100,10.75318212890625,-9.367294311523438,0.936627984046936,7.862297058105469
1757088613535735300,10.7627353515625,-8.639399528503418,1.571951985359192,7.0703020095825195
1757088613545288200,10.7722880859375,-7.708514213562012,1.5498759746551514,4.346488952636719
1757088613554841000,10.781841064453126,-6.350316047668457,1.068727970123291,1.2523590326309204
1757088613564394200,10.791394287109375,-5.525084972381592,0.28286999464035034,0.41499099135398865
1757088613573947100,10.800947021484374,-5.331604957580566,0.027538999915122986,1.3152430057525635
1757088613583500300,10.810500244140625,-4.5258259773254395,-0.026576999574899673,0.4556640088558197
1757088613593053200,10.82005322265625,-3.3726840019226074,0.09210799634456635,0.04742500185966492
1757088613602606000,10.829606201171876,-2.4001059532165527,0.4782490134239197,0.022505000233650208
1757088613612159200,10.8391591796875,-0.728551983833313,0.7065500020980835,0.6670290231704712
1757088613621712100,10.848712158203124,1.344467043876648,0.4698539972305298,2.0102779865264893
1757088613631265300,10.858265380859375,2.150723934173584,0.6262750029563904,3.412431001663208
1757088613640818200,10.867818115234375,2.7162210941314697,0.2219409942626953,4.333026885986328
1757088613650371000,10.87737109375,3.0199859142303467,-0.2504259943962097,5.146883010864258
1757088613659924000,10.886924072265625,3.0696709156036377,0.00043700000969693065,5.151946067810059
1757088613669477000,10.89647705078125,2.9443390369415283,0.33462199568748474,4.032033920288086
1757088613679030000,10.906030029296875,2.6774210929870605,0.34992799162864685,2.486208915710449
1757088613688583200,10.915583251953125,2.7644829750061035,0.7370489835739136,1.6895400285720825
1757088613698136000,10.925135986328126,3.3368470668792725,1.3104219436645508,1.6029269695281982
1757088613707689000,10.93468896484375,4.421977996826172,1.2209500074386597,1.2417479753494263
1757088613717241900,10.944241943359375,4.158511161804199,0.08297300338745117,0.6666749715805054
1757088613726794800,10.953794677734376,2.9527769088745117,-0.8270310163497925,0.0864730030298233
1757088613736347600,10.96334765625,1.5256390571594238,-1.2993409633636475,-0.5724949836730957
1757088613745900800,10.97290087890625,0.37021398544311523,-1.519577980041504,-1.1021770238876343
1757088613755453700,10.98245361328125,-0.17221300303936005,-1.755213975906372,-1.5045959949493408
1757088613765006800,10.9920068359375,-0.27395498752593994,-1.890705943107605,-2.123610019683838
1757088613774559700,11.001559814453126,-0.1476449966430664,-2.023292064666748,-2.8186581134796143
1757088613784112600,11.011112548828125,0.006864999886602163,-2.2075140476226807,-3.171113967895508
1757088613793665800,11.020665771484374,0.3945010006427765,-2.6587820053100586,-4.206658840179443
1757088613803218700,11.03021875,0.6401969790458679,-2.7401750087738037,-5.4815168380737305
1757088613812771600,11.039771484375,0.7459790110588074,-2.6056599617004395,-5.935743808746338
1757088613822324700,11.04932470703125,0.7232779860496521,-2.5294508934020996,-6.099532127380371
1757088613831877600,11.058877685546875,0.4138700067996979,-2.4389090538024902,-6.44052791595459
1757088613841430800,11.0684306640625,-0.24388299882411957,-2.265181064605713,-6.672929763793945
1757088613850983700,11.077983642578126,-0.8902660012245178,-2.141632080078125,-6.690052032470703
1757088613860536600,11.08753662109375,-1.5958820581436157,-1.95203697681427,-6.5406928062438965
1757088613870089500,11.09708935546875,-2.46560001373291,-1.5942330360412598,-6.592380046844482
1757088613879642600,11.106642578125,-3.49908709526062,-1.3165379762649536,-6.862837791442871
1757088613889195800,11.11619580078125,-4.474669933319092,-1.1091209650039673,-7.104211807250977
1757088613898748700,11.125748779296876,-5.5498199462890625,-1.623134970664978,-7.025694847106934
1757088613908301600,11.135301513671875,-6.236023902893066,-2.478295087814331,-6.6539387702941895
1757088613917854500,11.1448544921875,-1.9061930179595947,-2.8761401176452637,2.9598910808563232
1757088613927407400,11.154407470703125,-2.051192045211792,-2.9471049308776855,8.074722290039062
1757088613936960500,11.16396044921875,-1.322759985923767,-2.6659278869628906,10.946050643920898
1757088613946513400,11.173513427734376,0.28712698817253113,-2.5247809886932373,11.115645408630371
1757088613956066600,11.183066650390625,-0.2538889944553375,-3.3209879398345947,7.558277130126953
1757088613965619500,11.192619384765624,1.6853729486465454,-1.8942439556121826,3.568351984024048
1757088613975172400,11.20217236328125,0.41255301237106323,-0.4682439863681793,-0.0705839991569519
1757088613984725500,11.2117255859375,-0.6399869918823242,2.607769012451172,-4.862263202667236
1757088613994278100,11.221278076171876,2.10715389251709,1.4856410026550293,-6.119335174560547
1757088614013384200,11.24038427734375,1.793478012084961,2.9449450969696045,-7.305850982666016
1757088614022937300,11.249937255859376,0.793615996837616,1.7380659580230713,-3.735304117202759
1757088614032490200,11.259490234375,-0.01564900018274784,-0.08757100254297256,-0.6186360120773315
1757088614042043100,11.269043212890624,-0.9349240064620972,-1.082808017730713,0.9273300170898438
1757088614051596300,11.27859619140625,-1.7713860273361206,-1.5609890222549438,1.9241340160369873
1757088614061149200,11.288149169921875,-1.6798980236053467,-1.7689499855041504,2.3377931118011475
1757088614070702300,11.297702392578126,-1.1275449991226196,-1.4478809833526611,1.7371070384979248
1757088614080255200,11.307255126953125,-0.17437399923801422,-0.7993599772453308,0.7592809796333313
1757088614089808400,11.316808349609374,0.7184000015258789,-0.2685120105743408,0.09349499642848969
1757088614099361300,11.326361328125,1.4337589740753174,-0.038527000695466995,-0.2811340093612671
1757088614108914200,11.3359140625,1.7660269737243652,-0.012612000107765198,-0.3476560115814209
1757088614118467000,11.345467041015626,1.6617079973220825,-0.15418900549411774,-0.31602299213409424
1757088614128020000,11.35502001953125,1.3029069900512695,-0.3717469871044159,-0.07819399982690811
1757088614137572900,11.36457275390625,0.8647069931030273,-0.4693540036678314,0.17003899812698364
1757088614147126000,11.3741259765625,0.3654409945011139,-0.5745700001716614,0.29120099544525146
1757088614156679200,11.38367919921875,0.07693800330162048,-0.6264320015907288,0.2981790006160736
1757088614166232000,11.393232177734374,-0.06902600079774857,-0.5827140212059021,0.30821698904037476
1757088614175785000,11.402784912109375,-0.053362999111413956,-0.5127589702606201,0.3065209984779358
1757088614185337900,11.412337890625,-0.045990001410245895,-0.4502370059490204,0.24765299260616302
1757088614194890800,11.421890869140626,-0.0531499981880188,-0.49086299538612366,0.0970430001616478
1757088614204444000,11.43144384765625,-0.17140600085258484,-0.5408890247344971,-0.055282000452280045
1757088614213997000,11.4409970703125,-0.40072599053382874,-0.5175089836120605,-0.040070999413728714
1757088614223549700,11.4505498046875,-0.44706499576568604,-0.32511600852012634,-0.0029700000304728746
1757088614233102800,11.460102783203125,-0.3491849899291992,-0.09689400345087051,-0.08544199913740158
1757088614242656000,11.469656005859376,-0.18636199831962585,0.007594999857246876,-0.1624709963798523
1757088614252209000,11.479208984375,-0.035909999161958694,-0.043783001601696014,-0.13387300074100494
1757088614261761800,11.48876171875,0.5385649800300598,-0.2519479990005493,0.08921899646520615
1757088614271314700,11.498314697265625,-0.1675879955291748,0.0867689996957779,-0.22286400198936462
1757088614280867800,11.507867919921875,-0.3656519949436188,0.09213300049304962,-0.3610300123691559
1757088614290420700,11.517420654296876,-0.45670199394226074,-0.0627020001411438,-0.3792009949684143
1757088614299974000,11.526973876953125,-0.29155901074409485,-0.2017650008201599,-0.045914001762866974
1757088614309526800,11.53652685546875,0.03994999825954437,-0.07325699925422668,0.3025200068950653
