time,seconds_elapsed,z,y,x
1757088602855489000,0.082489013671875,6.907050132751465,-2.6680500507354736,4.0920000076293945
1757088602865042000,0.0920419921875,6.979050159454346,-2.682000160217285,3.9600002765655518
1757088602874594800,0.1015947265625,6.937950134277344,-2.9700000286102295,4.216950416564941
1757088602884148000,0.11114794921875,6.604950428009033,-3.42900013923645,4.408050060272217
1757088602893700900,0.120700927734375,5.974950313568115,-3.81000018119812,4.425000190734863
1757088602903254000,0.13025390625,5.1660003662109375,-4.059000015258789,4.366950035095215
1757088602912807000,0.139806884765625,4.240050315856934,-4.5859503746032715,4.399050235748291
1757088602922359800,0.14935986328125,3.3130502700805664,-5.551050186157227,4.564050197601318
1757088602931913000,0.158912841796875,0.700950026512146,-6.729000091552734,4.657050132751465
1757088602941465900,0.1684658203125,0.31995001435279846,-7.969050407409668,5.565000057220459
1757088602951018800,0.178018798828125,2.281050205230713,-7.885050296783447,7.162050247192383
1757088602960572000,0.187572021484375,3.1210501194000244,-7.297950267791748,7.540050506591797
1757088602970124800,0.197124755859375,3.2320501804351807,-7.44705057144165,7.336050510406494
1757088602979677700,0.206677734375,2.839050054550171,-7.452000141143799,6.928950309753418
1757088602989230800,0.21623095703125,2.1469500064849854,-7.3750505447387695,7.4509501457214355
1757088602998783700,0.22578369140625,1.3540500402450562,-7.641000270843506,8.611950874328613
1757088603008336600,0.235336669921875,0.31995001435279846,-8.211000442504883,9.634950637817383
1757088603027442700,0.254442626953125,-2.842050075531006,-8.110050201416016,11.196000099182129
1757088603036995800,0.263995849609375,-3.4360501766204834,-7.597950458526611,12.075000762939453
1757088603046548700,0.273548828125,-4.302000045776367,-6.943950176239014,12.82905101776123
1757088603056101600,0.2831015625,-4.703999996185303,-5.716050148010254,12.360000610351562
1757088603065654800,0.29265478515625,-5.674050331115723,-5.215050220489502,12.78795051574707
1757088603075208000,0.3022080078125,-6.538950443267822,-4.777050018310547,12.913050651550293
1757088603084760800,0.3117607421875,-6.823050498962402,-3.871950149536133,10.939950942993164
1757088603094313700,0.321313720703125,-6.6820502281188965,-3.055950164794922,8.229000091552734
1757088603103867000,0.330866943359375,-6.783000469207764,-2.9700000286102295,9.223050117492676
1757088603113419800,0.340419677734375,-6.804000377655029,-2.761050224304199,10.504050254821777
1757088603122972700,0.34997265625,-6.273000240325928,-2.2300500869750977,10.996950149536133
1757088603132525800,0.35952587890625,-5.383950233459473,-1.7680500745773315,11.446950912475586
1757088603142078700,0.36907861328125,-5.478000164031982,-1.9500000476837158,11.407050132751465
1757088603151631600,0.378631591796875,-6.124050140380859,-2.6200501918792725,11.107050895690918
1757088603161184800,0.388184814453125,-5.200050354003906,-3.5149502754211426,10.071000099182129
1757088603170737700,0.397737548828125,-5.313000202178955,-4.819950103759766,8.835000038146973
1757088603180290800,0.407290771484375,-9.699000358581543,-6.082050323486328,7.777050495147705
1757088603189843700,0.41684375,-8.506950378417969,-5.874000072479248,6.060000419616699
1757088603199396900,0.42639697265625,-2.6020500659942627,-5.392950057983398,5.9239501953125
1757088603208949800,0.43594970703125,0.33000001311302185,-5.803950309753418,7.726950168609619
1757088603218502700,0.445502685546875,-0.12195000797510147,-5.8120503425598145,8.730000495910645
1757088603228055800,0.455055908203125,-2.442000150680542,-5.613000392913818,8.755949974060059
1757088603237608700,0.464608642578125,-2.952000141143799,-5.779950141906738,8.160000801086426
1757088603247161900,0.474161865234375,-1.6920000314712524,-4.15500020980835,7.581000328063965
1757088603256714800,0.48371484375,-0.675000011920929,-4.666950225830078,8.055000305175781
1757088603266267600,0.493267578125,1.2660000324249268,-5.473950386047363,7.279050350189209
1757088603275820800,0.50282080078125,0.4039500057697296,-6.541950225830078,5.722950458526611
1757088603285374000,0.5123740234375,-1.6710001230239868,-5.437950134277344,5.00700044631958
1757088603294926800,0.5219267578125,-2.8030500411987305,-5.029050350189209,4.746000289916992
1757088603304479700,0.531479736328125,-1.7209501266479492,-6.124950408935547,6.361950397491455
1757088603314032600,0.54103271484375,-0.7129500508308411,-7.890000343322754,6.77400016784668
1757088603323585800,0.550585693359375,-0.26100000739097595,-8.797050476074219,6.783000469207764
1757088603333138700,0.560138671875,-0.4240500330924988,-7.4920501708984375,4.873050212860107
1757088603342691800,0.56969189453125,0.2959500253200531,-5.509950160980225,3.052950143814087
1757088603352244700,0.57924462890625,0.544950008392334,-4.558950424194336,2.2770001888275146
1757088603361798000,0.5887978515625,0.1960500031709671,-4.353000164031982,1.492050051689148
1757088603371350800,0.598350830078125,0.25095000863075256,-4.488000392913818,0.8719500303268433
1757088603380903700,0.607903564453125,-1.7860500812530518,-5.383050441741943,1.5640500783920288
1757088603390456800,0.617456787109375,-3.0640501976013184,-7.368000507354736,1.5250500440597534
1757088603400009700,0.627009765625,-2.743950128555298,-10.075950622558594,1.2499500513076782
1757088603409563000,0.63656298828125,0.21705001592636108,-10.92300033569336,0.2880000174045563
1757088603419115800,0.64611572265625,-0.22005000710487366,-7.842000484466553,1.7119500637054443
1757088603428668700,0.655668701171875,0.22905001044273376,-6.901050090789795,1.4610000848770142
1757088603438221800,0.665221923828125,-0.16995000839233398,-6.19005012512207,1.453950047492981
1757088603447774700,0.674774658203125,-1.429050087928772,-5.713050365447998,2.0429999828338623
1757088603457327900,0.684327880859375,-2.820000171661377,-5.380950450897217,2.7370500564575195
1757088603466881000,0.693881103515625,-2.9350502490997314,-4.768050193786621,2.0310001373291016
1757088603476434000,0.703433837890625,-0.7609500288963318,-5.211000442504883,1.4580000638961792
1757088603485986800,0.71298681640625,0.9640500545501709,-5.503050327301025,0.9559500217437744
1757088603495539700,0.722539794921875,2.3620500564575195,-5.308950424194336,0.325950026512146
1757088603505092900,0.7320927734375,2.6550002098083496,-4.885050296783447,-0.3240000009536743
1757088603514645800,0.741645751953125,2.7169501781463623,-4.8919501304626465,-0.4900500178337097
1757088603524199000,0.751198974609375,2.2710001468658447,-4.947000026702881,-0.09195000678300858
1757088603533752000,0.760751953125,0.6960000395774841,-5.995950222015381,1.2690000534057617
1757088603543305000,0.770304931640625,1.9170000553131104,-7.746000289916992,-1.0860000848770142
1757088603552857900,0.77985791015625,1.8480000495910645,-13.509000778198242,2.8090500831604004
1757088603562410800,0.78941064453125,-2.193000078201294,-27.65205192565918,2.3610000610351562
1757088603571964000,0.7989638671875,-1.9969501495361328,-43.162052154541016,-3.6450002193450928
1757088603581517000,0.80851708984375,-0.9499500393867493,-44.80305099487305,-5.5320000648498535
1757088603591070000,0.818070068359375,0.7459500432014465,-39.8509521484375,-1.477950096130371
1757088603600622800,0.827622802734375,0.23400001227855682,-31.569002151489258,2.074050188064575
1757088603610176000,0.837176025390625,-3.4590001106262207,-21.41805076599121,5.2009501457214355
1757088603619729000,0.84672900390625,-5.025000095367432,-14.206050872802734,5.236950397491455
1757088603629282000,0.856281982421875,-1.9939501285552979,-9.760050773620605,3.44100022315979
1757088603638835000,0.8658349609375,0.43695002794265747,-7.069050312042236,1.5780000686645508
1757088603648388000,0.87538818359375,1.6609500646591187,-5.473950386047363,-0.00795000046491623
1757088603657941000,0.88494091796875,1.636950135231018,-4.516050338745117,-0.853950023651123
1757088603667494000,0.894493896484375,1.3830000162124634,-3.859950065612793,-1.2889500856399536
1757088603677046800,0.904046875,1.2130500078201294,-3.621000289916992,-1.7440500259399414
1757088603686599700,0.913599609375,0.6270000338554382,-4.6120500564575195,-2.1439499855041504
1757088603696153000,0.923153076171875,0.022950001060962677,-7.071000099182129,-2.4000000953674316
1757088603705706000,0.9327060546875,-0.1360500007867813,-9.397950172424316,-2.716050148010254
1757088603715259100,0.942259033203125,-0.1270500123500824,-11.220000267028809,-3.1780500411987305
1757088603724812000,0.95181201171875,-0.10005000233650208,-12.415050506591797,-3.355950117111206
1757088603734365000,0.961364990234375,-0.23895001411437988,-12.670950889587402,-2.7619500160217285
1757088603743917800,0.970917724609375,-0.34005001187324524,-11.362051010131836,-1.5810000896453857
1757088603753471000,0.980470947265625,-0.34905001521110535,-10.285950660705566,-1.1599500179290771
1757088603763024100,0.990024169921875,-0.15300001204013824,-9.694950103759766,-1.1050500869750977
1757088603772577000,0.999576904296875,0.0880500078201294,-9.336000442504883,-0.973050057888031
1757088603782130000,1.0091298828125,0.17205001413822174,-9.381000518798828,-0.906000018119812
1757088603791682800,1.018682861328125,0.004050000105053186,-9.802950859069824,-0.909000039100647
1757088603801236000,1.028236083984375,-0.19395001232624054,-10.09695053100586,-0.9679500460624695
1757088603810788900,1.037788818359375,-0.2560500204563141,-10.231050491333008,-0.9370500445365906
1757088603820342000,1.047342041015625,-0.13395000994205475,-10.23900032043457,-0.934950053691864
1757088603829895200,1.056895263671875,0.07095000147819519,-10.132950782775879,-1.0090500116348267
1757088603839448000,1.066447998046875,0.28395000100135803,-9.999000549316406,-1.141050100326538
1757088603849001000,1.0760009765625,0.4300500154495239,-9.874950408935547,-1.2919501066207886
1757088603858553900,1.085553955078125,0.4350000321865082,-9.820050239562988,-1.3830000162124634
1757088603868107000,1.09510693359375,0.2770500183105469,-9.81195068359375,-1.3300501108169556
1757088603877660000,1.104659912109375,0.05895000323653221,-9.84795093536377,-1.2220500707626343
1757088603887212800,1.114212890625,-0.13905000686645508,-9.913050651550293,-1.1190000772476196
1757088603896766000,1.123765869140625,-0.24900001287460327,-9.963000297546387,-1.045050024986267
1757088603906319000,1.133319091796875,-0.32100000977516174,-9.999000549316406,-1.0380001068115234
1757088603915872000,1.1428720703125,-0.33000001311302185,-10.018050193786621,-1.0399500131607056
1757088603925425000,1.1524248046875,-0.2989500164985657,-10.027950286865234,-1.0810500383377075
1757088603934977800,1.161977783203125,-0.21000000834465027,-9.999000549316406,-1.117050051689148
1757088603944531000,1.171531005859375,-0.07605000585317612,-9.963000297546387,-1.0830000638961792
1757088603954084000,1.181083984375,0.04200000315904617,-9.961050033569336,-0.9949500560760498
1757088603963637000,1.190636962890625,0.08505000174045563,-9.961050033569336,-0.9040500521659851
1757088603982742800,1.20974267578125,0.032999999821186066,-9.97800064086914,-0.8100000619888306
1757088604001849000,1.22884912109375,-0.031050002202391624,-10.011000633239746,-0.8250000476837158
1757088604011402200,1.23840234375,-0.05205000191926956,-9.994050025939941,-0.8869500160217285
1757088604020955100,1.247955078125,-0.06705000251531601,-9.979950904846191,-0.9640500545501709
1757088604030508000,1.257508056640625,-0.05205000191926956,-9.949050903320312,-1.0519500970840454
1757088604040061000,1.26706103515625,0.013950000517070293,-9.922950744628906,-1.1380500793457031
1757088604049614000,1.276614013671875,0.1290000081062317,-9.913050651550293,-1.2169500589370728
1757088604059167000,1.2861669921875,0.21000000834465027,-9.922950744628906,-1.2559500932693481
1757088604068720000,1.29572021484375,0.2530499994754791,-9.954000473022461,-1.2940500974655151
1757088604078273000,1.30527294921875,0.27900001406669617,-9.973050117492676,-1.2750000953674316
1757088604087826200,1.314826171875,0.2770500183105469,-9.991950035095215,-1.2679500579833984
1757088604097379000,1.324379150390625,0.25995001196861267,-9.997050285339355,-1.2940500974655151
1757088604106932000,1.333931884765625,0.27195000648498535,-9.975000381469727,-1.3060500621795654
1757088604116485000,1.343485107421875,0.2989500164985657,-9.9660005569458,-1.3420500755310059
1757088604126038000,1.3530380859375,0.31995001435279846,-9.963000297546387,-1.384950041770935
1757088604135591200,1.362591064453125,0.32505002617836,-9.975000381469727,-1.4329500198364258
1757088604145144000,1.37214404296875,0.33000001311302185,-9.973050117492676,-1.5120000839233398
1757088604154697000,1.381697021484375,0.3270000219345093,-9.999000549316406,-1.537950038909912
1757088604164250400,1.39125048828125,0.3130500018596649,-10.018050193786621,-1.5769500732421875
1757088604173803300,1.40080322265625,0.3079500198364258,-10.021050453186035,-1.579050064086914
1757088604183356200,1.410356201171875,0.3559500277042389,-10.006050109863281,-1.549950122833252
1757088604192909000,1.419908935546875,0.4129500091075897,-9.987000465393066,-1.5169501304626465
1757088604202462200,1.429462158203125,0.44895002245903015,-9.973050117492676,-1.4929500818252563
1757088604212015000,1.43901513671875,0.4930500090122223,-9.951000213623047,-1.495050072669983
1757088604221568000,1.448568115234375,0.5040000081062317,-9.9660005569458,-1.5070500373840332
1757088604231121000,1.458120849609375,0.4900500178337097,-9.961050033569336,-1.4830501079559326
1757088604240674000,1.467674072265625,0.45900002121925354,-9.97800064086914,-1.480950117111206
1757088604250227000,1.47722705078125,0.41100001335144043,-9.963000297546387,-1.4500501155853271
1757088604259780000,1.486780029296875,0.3820500075817108,-9.967950820922852,-1.396950125694275
1757088604269333200,1.496333251953125,0.3750000298023224,-9.975000381469727,-1.3680000305175781
1757088604278886100,1.50588623046875,0.37800002098083496,-9.994050025939941,-1.324950098991394
1757088604288439000,1.51543896484375,0.37995001673698425,-10.011000633239746,-1.311000108718872
1757088604297992000,1.524991943359375,0.37005001306533813,-10.003950119018555,-1.2919501066207886
1757088604307545000,1.534545166015625,0.35100001096725464,-9.991950035095215,-1.2750000953674316
1757088604317098200,1.54409814453125,0.34905001521110535,-9.951000213623047,-1.240950107574463
1757088604326651100,1.553651123046875,0.3340500295162201,-9.958050727844238,-1.2250500917434692
1757088604336204000,1.5632041015625,0.3060000240802765,-9.961050033569336,-1.1910001039505005
1757088604345757000,1.5727568359375,0.28200000524520874,-9.955950736999512,-1.1700000762939453
1757088604355310000,1.58231005859375,0.2670000195503235,-9.979950904846191,-1.1599500179290771
1757088604364863000,1.591863037109375,0.2550000250339508,-10.003950119018555,-1.1460000276565552
1757088604374416000,1.601415771484375,0.2460000067949295,-10.023000717163086,-1.13100004196167
1757088604383969000,1.610968994140625,0.27000001072883606,-10.009050369262695,-1.1290500164031982
1757088604393522000,1.62052197265625,0.29100000858306885,-10.006050109863281,-1.1239500045776367
1757088604403075000,1.630074951171875,0.33000001311302185,-9.999000549316406,-1.0830000638961792
1757088604412628000,1.6396279296875,0.3439500033855438,-9.994050025939941,-1.0669500827789307
1757088604422180900,1.649180908203125,0.3660000264644623,-9.97800064086914,-1.059000015258789
1757088604431734000,1.658734130859375,0.3660000264644623,-9.961050033569336,-1.0740000009536743
1757088604441287000,1.668286865234375,0.33000001311302185,-9.958050727844238,-1.0930500030517578
1757088604450840000,1.677840087890625,0.2959500253200531,-9.961050033569336,-1.13100004196167
1757088604460393000,1.68739306640625,0.2749500274658203,-9.949050903320312,-1.1650500297546387
1757088604469945900,1.69694580078125,0.28200000524520874,-9.961050033569336,-1.1700000762939453
1757088604479499000,1.7064990234375,0.2939999997615814,-9.954000473022461,-1.1380500793457031
1757088604489052200,1.71605224609375,0.3079500198364258,-9.973050117492676,-1.117050051689148
1757088604498605000,1.72560498046875,0.3270000219345093,-9.975000381469727,-1.102950096130371
1757088604508158200,1.735158203125,0.33195000886917114,-9.985050201416016,-1.0930500030517578
1757088604517711000,1.744711181640625,0.33900001645088196,-9.994050025939941,-1.1069999933242798
1757088604527264000,1.754263916015625,0.35100001096725464,-9.999000549316406,-1.1359500885009766
1757088604536817000,1.76381689453125,0.3630000054836273,-9.979950904846191,-1.158000111579895
1757088604546370000,1.7733701171875,0.33900001645088196,-9.942000389099121,-1.1860500574111938
1757088604555923000,1.7829228515625,0.32295000553131104,-9.949050903320312,-1.231950044631958
1757088604565476000,1.79247607421875,0.30105000734329224,-9.951000213623047,-1.2649500370025635
1757088604575029000,1.802029052734375,0.28395000100135803,-9.97800064086914,-1.3129500150680542
1757088604584582100,1.81158203125,0.28200000524520874,-9.985050201416016,-1.324950098991394
1757088604594135000,1.821135009765625,0.28200000524520874,-9.987000465393066,-1.29705011844635
1757088604603688200,1.830688232421875,0.30300000309944153,-9.973050117492676,-1.287000060081482
1757088604613241000,1.840240966796875,0.3340500295162201,-9.997050285339355,-1.2769500017166138
1757088604622794000,1.8497939453125,0.3660000264644623,-9.985050201416016,-1.2769500017166138
1757088604632347100,1.85934716796875,0.39195001125335693,-9.997050285339355,-1.2649500370025635
1757088604641900000,1.868900146484375,0.41805002093315125,-9.994050025939941,-1.287000060081482
1757088604651453000,1.878452880859375,0.42795002460479736,-9.967950820922852,-1.311000108718872
1757088604661006000,1.888006103515625,0.4230000078678131,-9.958050727844238,-1.3039500713348389
1757088604670559000,1.89755908203125,0.4159500300884247,-9.943950653076172,-1.3440001010894775
1757088604680112000,1.907112060546875,0.4039500057697296,-9.934950828552246,-1.3420500755310059
1757088604689665000,1.9166650390625,0.40905001759529114,-9.9660005569458,-1.3180500268936157
1757088604699218200,1.92621826171875,0.4039500057697296,-9.987000465393066,-1.3180500268936157
1757088604708771000,1.93577099609375,0.40605002641677856,-9.97800064086914,-1.2889500856399536
1757088604718324000,1.945323974609375,0.39705002307891846,-9.982050895690918,-1.2679500579833984
1757088604727876900,1.954876953125,0.39900001883506775,-9.967950820922852,-1.2559500932693481
1757088604737430000,1.964429931640625,0.39900001883506775,-9.963000297546387,-1.2460500001907349
1757088604746983200,1.973983154296875,0.40605002641677856,-9.946950912475586,-1.2799500226974487
1757088604756536000,1.9835361328125,0.4159500300884247,-9.954000473022461,-1.3320000171661377
1757088604766089000,1.9930888671875,0.4350000321865082,-9.946950912475586,-1.3590000867843628
1757088604775642000,2.00264208984375,0.4759500324726105,-9.934950828552246,-1.384950041770935
1757088604785195000,2.012195068359375,0.49995002150535583,-9.927000045776367,-1.384950041770935
1757088604794748200,2.021748046875,0.5190000534057617,-9.943950653076172,-1.3440001010894775
1757088604804301000,2.031301025390625,0.531000018119812,-9.946950912475586,-1.3230000734329224
1757088604813854200,2.040854248046875,0.5380499958992004,-9.949050903320312,-1.3060500621795654
1757088604823407000,2.050406982421875,0.5430000424385071,-9.951000213623047,-1.270050048828125
1757088604832960000,2.0599599609375,0.5070000290870667,-9.946950912475586,-1.2510000467300415
1757088604842513000,2.069512939453125,0.4759500324726105,-9.9660005569458,-1.2529500722885132
1757088604852066000,2.079066162109375,0.44700002670288086,-9.970050811767578,-1.2439500093460083
1757088604861619200,2.088619140625,0.4230000078678131,-9.999000549316406,-1.2340500354766846
1757088604871172000,2.098172119140625,0.4330500066280365,-10.003950119018555,-1.2390000820159912
1757088604880725200,2.107725341796875,0.4300500154495239,-9.973050117492676,-1.2460500001907349
1757088604890278100,2.117278076171875,0.44700002670288086,-9.961050033569336,-1.2370500564575195
1757088604899831000,2.1268310546875,0.4900500178337097,-9.946950912475586,-1.2529500722885132
1757088604909384200,2.13638427734375,0.5040000081062317,-9.943950653076172,-1.2439500093460083
1757088604918937000,2.14593701171875,0.49500003457069397,-9.943950653076172,-1.2510000467300415
1757088604928490200,2.155490234375,0.4930500090122223,-9.963000297546387,-1.2529500722885132
1757088604938043100,2.165043212890625,0.47805002331733704,-9.97800064086914,-1.2529500722885132
1757088604947596000,2.174595947265625,0.4710000157356262,-9.987000465393066,-1.2460500001907349
1757088604957149000,2.18414892578125,0.45900002121925354,-9.987000465393066,-1.2559500932693481
1757088604966702000,2.1937021484375,0.44700002670288086,-9.994050025939941,-1.2630000114440918
1757088604976255200,2.203255126953125,0.43995001912117004,-9.985050201416016,-1.2919501066207886
1757088604985808100,2.21280810546875,0.4330500066280365,-9.963000297546387,-1.3159500360488892
1757088604995361000,2.222361083984375,0.41100001335144043,-9.955950736999512,-1.3369500637054443
1757088605004914200,2.2319140625,0.40605002641677856,-9.961050033569336,-1.3900500535964966
1757088605014467300,2.24146728515625,0.4300500154495239,-9.967950820922852,-1.384950041770935
1757088605024020000,2.25102001953125,0.4330500066280365,-9.963000297546387,-1.3639500141143799
1757088605033573000,2.260572998046875,0.45900002121925354,-9.987000465393066,-1.3399500846862793
1757088605043126000,2.2701259765625,0.4639500081539154,-9.987000465393066,-1.308000087738037
1757088605052679200,2.27967919921875,0.4729500114917755,-9.982050895690918,-1.2750000953674316
1757088605062232000,2.289232177734375,0.4710000157356262,-9.9660005569458,-1.2490500211715698
1757088605071785200,2.29878515625,0.46605002880096436,-9.949050903320312,-1.228950023651123
1757088605081338000,2.308338134765625,0.48795002698898315,-9.934950828552246,-1.2169500589370728
1757088605090891000,2.31789111328125,0.4830000102519989,-9.927000045776367,-1.210050106048584
1757088605100444200,2.327444091796875,0.4849500358104706,-9.949050903320312,-1.2079501152038574
1757088605109997000,2.3369970703125,0.4900500178337097,-9.955950736999512,-1.2060000896453857
1757088605119550200,2.34655029296875,0.4830000102519989,-9.979950904846191,-1.2169500589370728
1757088605129103000,2.35610302734375,0.4540500342845917,-10.006050109863281,-1.2030000686645508
1757088605138656000,2.365656005859375,0.44700002670288086,-10.003950119018555,-1.1959500312805176
1757088605148209200,2.375209228515625,0.41805002093315125,-9.985050201416016,-1.2130500078201294
1757088605157762000,2.384761962890625,0.39705002307891846,-9.9660005569458,-1.2060000896453857
1757088605167315000,2.39431494140625,0.3940500319004059,-9.955950736999512,-1.2030000686645508
1757088605176868000,2.4038681640625,0.41100001335144043,-9.949050903320312,-1.2030000686645508
1757088605186421200,2.413421142578125,0.41805002093315125,-9.955950736999512,-1.1959500312805176
1757088605195974100,2.42297412109375,0.4350000321865082,-9.946950912475586,-1.2169500589370728
1757088605205527000,2.432527099609375,0.43695002794265747,-9.954000473022461,-1.2559500932693481
1757088605215080000,2.442079833984375,0.4350000321865082,-9.963000297546387,-1.27305006980896
1757088605224633000,2.451633056640625,0.4249500334262848,-9.982050895690918,-1.2649500370025635
1757088605234186000,2.46118603515625,0.39900001883506775,-9.97800064086914,-1.2889500856399536
1757088605243739000,2.47073876953125,0.3820500075817108,-9.963000297546387,-1.2630000114440918
1757088605253292300,2.480292236328125,0.39000001549720764,-9.955950736999512,-1.2580500841140747
1757088605262845200,2.48984521484375,0.39900001883506775,-9.951000213623047,-1.2610501050949097
1757088605272398000,2.499398193359375,0.40905001759529114,-9.963000297546387,-1.2490500211715698
1757088605281951000,2.508950927734375,0.4300500154495239,-9.979950904846191,-1.2529500722885132
1757088605291503900,2.51850390625,0.43995001912117004,-9.973050117492676,-1.2439500093460083
1757088605301057000,2.52805712890625,0.43695002794265747,-9.985050201416016,-1.2510000467300415
1757088605310610000,2.53760986328125,0.4230000078678131,-9.970050811767578,-1.270050048828125
1757088605320163000,2.5471630859375,0.4129500091075897,-9.954000473022461,-1.2610501050949097
1757088605329716000,2.556716064453125,0.4210500121116638,-9.958050727844238,-1.2559500932693481
1757088605339269000,2.56626904296875,0.43695002794265747,-9.949050903320312,-1.2580500841140747
1757088605348822000,2.575822021484375,0.4230000078678131,-9.961050033569336,-1.2580500841140747
1757088605358375000,2.585375,0.4129500091075897,-9.946950912475586,-1.2610501050949097
1757088605367928000,2.594927978515625,0.4129500091075897,-9.951000213623047,-1.270050048828125
1757088605377481200,2.604481201171875,0.37995001673698425,-9.949050903320312,-1.2649500370025635
1757088605387034000,2.6140341796875,0.33705002069473267,-9.9660005569458,-1.2580500841140747
1757088605396587000,2.6235869140625,0.31800001859664917,-9.961050033569336,-1.227000117301941
1757088605406140000,2.633139892578125,0.3060000240802765,-9.955950736999512,-1.231950044631958
1757088605415693000,2.642693115234375,0.33900001645088196,-9.955950736999512,-1.2340500354766846
1757088605425246200,2.65224609375,0.35805001854896545,-9.955950736999512,-1.2250500917434692
1757088605434799000,2.661799072265625,0.39000001549720764,-9.961050033569336,-1.2169500589370728
1757088605444352000,2.67135205078125,0.4230000078678131,-9.970050811767578,-1.2060000896453857
1757088605453905200,2.6809052734375,0.44505003094673157,-9.979950904846191,-1.2030000686645508
1757088605463458000,2.6904580078125,0.44895002245903015,-9.994050025939941,-1.1790000200271606
1757088605473011200,2.70001123046875,0.4249500334262848,-9.975000381469727,-1.2060000896453857
1757088605482564000,2.709564208984375,0.40905001759529114,-9.951000213623047,-1.2220500707626343
1757088605492117200,2.7191171875,0.39000001549720764,-9.954000473022461,-1.240950107574463
1757088605501670100,2.728670166015625,0.38700002431869507,-9.970050811767578,-1.2169500589370728
1757088605511223000,2.73822314453125,0.39195001125335693,-9.994050025939941,-1.2060000896453857
1757088605520776200,2.747776123046875,0.3820500075817108,-9.999000549316406,-1.1650500297546387
1757088605530329000,2.7573291015625,0.4039500057697296,-9.970050811767578,-1.1770501136779785
1757088605539882200,2.76688232421875,0.41805002093315125,-9.946950912475586,-1.1820000410079956
1757088605549435100,2.77643505859375,0.4210500121116638,-9.927000045776367,-1.201050043106079
1757088605558988000,2.785988037109375,0.44505003094673157,-9.954000473022461,-1.2490500211715698
1757088605568541200,2.795541259765625,0.44895002245903015,-9.982050895690918,-1.2649500370025635
1757088605578094000,2.805093994140625,0.43695002794265747,-10.01400089263916,-1.2679500579833984
1757088605587647200,2.814647216796875,0.41805002093315125,-9.99000072479248,-1.2820500135421753
1757088605597200100,2.8242001953125,0.39705002307891846,-9.973050117492676,-1.287000060081482
1757088605606753300,2.833753173828125,0.3850500285625458,-9.937050819396973,-1.2820500135421753
1757088605616306200,2.84330615234375,0.37800002098083496,-9.922950744628906,-1.287000060081482
1757088605625859000,2.852859130859375,0.39000001549720764,-9.913050651550293,-1.270050048828125
1757088605635412000,2.862411865234375,0.38700002431869507,-9.931950569152832,-1.2580500841140747
1757088605644965000,2.871965087890625,0.4020000100135803,-9.927000045776367,-1.2340500354766846
1757088605654518000,2.88151806640625,0.4249500334262848,-9.954000473022461,-1.2390000820159912
1757088605664071200,2.8910712890625,0.4420500099658966,-9.958050727844238,-1.2340500354766846
1757088605673624300,2.900624267578125,0.46905001997947693,-9.979950904846191,-1.2060000896453857
1757088605683177000,2.910177001953125,0.45705002546310425,-9.975000381469727,-1.2060000896453857
1757088605692730000,2.919730224609375,0.43695002794265747,-9.982050895690918,-1.201050043106079
1757088605702283000,2.929282958984375,0.4129500091075897,-9.970050811767578,-1.2130500078201294
1757088605711836200,2.938836181640625,0.3730500042438507,-9.958050727844238,-1.2199500799179077
1757088605721389300,2.948389404296875,0.3540000021457672,-9.958050727844238,-1.228950023651123
1757088605730942200,2.957942138671875,0.3439500033855438,-9.961050033569336,-1.2580500841140747
1757088605740495000,2.9674951171875,0.3559500277042389,-9.951000213623047,-1.2630000114440918
1757088605750048300,2.97704833984375,0.361050009727478,-9.946950912475586,-1.2820500135421753
1757088605759601200,2.98660107421875,0.35805001854896545,-9.961050033569336,-1.2750000953674316
1757088605769154300,2.996154296875,0.38700002431869507,-9.975000381469727,-1.2990000247955322
1757088605778707200,3.005707275390625,0.39705002307891846,-9.963000297546387,-1.2940500974655151
1757088605788260000,3.015260009765625,0.4210500121116638,-9.963000297546387,-1.2820500135421753
1757088605797813200,3.024813232421875,0.40605002641677856,-9.954000473022461,-1.2529500722885132
1757088605807366100,3.0343662109375,0.4039500057697296,-9.942000389099121,-1.2340500354766846
1757088605816919000,3.0439189453125,0.4129500091075897,-9.946950912475586,-1.2169500589370728
1757088605826472200,3.05347216796875,0.4129500091075897,-9.961050033569336,-1.2030000686645508
1757088605836025300,3.063025390625,0.4230000078678131,-9.975000381469727,-1.201050043106079
1757088605845578200,3.072578125,0.4519500136375427,-9.985050201416016,-1.2079501152038574
1757088605855131100,3.082131103515625,0.46605002880096436,-9.975000381469727,-1.2060000896453857
1757088605864684000,3.09168408203125,0.4729500114917755,-9.997050285339355,-1.2030000686645508
1757088605874237200,3.1012373046875,0.4930500090122223,-9.997050285339355,-1.2250500917434692
1757088605883790300,3.110790283203125,0.49995002150535583,-10.003950119018555,-1.2580500841140747
1757088605893343200,3.12034326171875,0.4849500358104706,-9.985050201416016,-1.2850500345230103
1757088605902896400,3.129896484375,0.4540500342845917,-9.97800064086914,-1.308000087738037
1757088605912449300,3.13944921875,0.4330500066280365,-9.967950820922852,-1.324950098991394
1757088605922002200,3.149002197265625,0.4210500121116638,-9.943950653076172,-1.3369500637054443
1757088605931555000,3.15855517578125,0.4159500300884247,-9.949050903320312,-1.3350000381469727
1757088605941108000,3.16810791015625,0.4210500121116638,-9.955950736999512,-1.3489500284194946
1757088605950661000,3.1776611328125,0.4249500334262848,-9.931950569152832,-1.3320000171661377
1757088605960214300,3.18721435546875,0.40605002641677856,-9.913050651550293,-1.3300501108169556
1757088605969767400,3.196767333984375,0.4129500091075897,-9.915000915527344,-1.3399500846862793
1757088605979320300,3.2063203125,0.41805002093315125,-9.910950660705566,-1.3609501123428345
1757088605988873200,3.215873291015625,0.4159500300884247,-9.925050735473633,-1.3920000791549683
1757088605998426000,3.225426025390625,0.4159500300884247,-9.919950485229492,-1.3780500888824463
1757088606007979300,3.234979248046875,0.43995001912117004,-9.946950912475586,-1.3609501123428345
1757088606017532400,3.244532470703125,0.43995001912117004,-9.958050727844238,-1.3039500713348389
1757088606027085300,3.254085205078125,0.4540500342845917,-9.949050903320312,-1.2559500932693481
1757088606036638200,3.26363818359375,0.4639500081539154,-9.934950828552246,-1.2199500799179077
1757088606046191000,3.273191162109375,0.4729500114917755,-9.931950569152832,-1.201050043106079
1757088606055744000,3.282743896484375,0.45900002121925354,-9.958050727844238,-1.1860500574111938
1757088606065297200,3.292297119140625,0.4249500334262848,-9.979950904846191,-1.1980500221252441
1757088606074850300,3.301850341796875,0.3660000264644623,-10.003950119018555,-1.1770501136779785
1757088606084403200,3.3114033203125,0.31095001101493835,-10.011000633239746,-1.1670000553131104
1757088606093956400,3.320956298828125,0.286950021982193,-10.009050369262695,-1.1500500440597534
1757088606103509200,3.33050927734375,0.27195000648498535,-9.999000549316406,-1.15500009059906
1757088606113062100,3.340062255859375,0.2770500183105469,-9.987000465393066,-1.1620500087738037
1757088606122615000,3.349614990234375,0.26295000314712524,-9.991950035095215,-1.1790000200271606
1757088606132168200,3.359168212890625,0.27195000648498535,-9.991950035095215,-1.1980500221252441
1757088606141721300,3.368721435546875,0.28395000100135803,-9.997050285339355,-1.215000033378601
1757088606151274200,3.378274169921875,0.30105000734329224,-9.975000381469727,-1.2220500707626343
1757088606160827100,3.3878271484375,0.32295000553131104,-9.937050819396973,-1.215000033378601
1757088606170380300,3.39738037109375,0.33705002069473267,-9.918000221252441,-1.215000033378601
1757088606179933200,3.40693310546875,0.3460500240325928,-9.910950660705566,-1.210050106048584
1757088606189486300,3.416486328125,0.3630000054836273,-9.922950744628906,-1.240950107574463
1757088606199039200,3.426039306640625,0.3660000264644623,-9.943950653076172,-1.2580500841140747
1757088606208592100,3.435592041015625,0.361050009727478,-9.970050811767578,-1.2799500226974487
1757088606218145300,3.445145263671875,0.35805001854896545,-9.970050811767578,-1.2990000247955322
1757088606227698200,3.4546982421875,0.35805001854896545,-9.985050201416016,-1.3039500713348389
1757088606237251000,3.4642509765625,0.3750000298023224,-9.970050811767578,-1.2990000247955322
1757088606246804200,3.47380419921875,0.3750000298023224,-9.970050811767578,-1.3129500150680542
1757088606256357400,3.483357421875,0.35805001854896545,-9.958050727844238,-1.3060500621795654
1757088606265910300,3.49291015625,0.3460500240325928,-9.987000465393066,-1.287000060081482
1757088606275463200,3.502463134765625,0.35805001854896545,-9.997050285339355,-1.2820500135421753
1757088606285016300,3.512016357421875,0.3630000054836273,-9.982050895690918,-1.2990000247955322
1757088606294569200,3.5215693359375,0.3660000264644623,-9.97800064086914,-1.2990000247955322
1757088606304122000,3.5311220703125,0.3850500285625458,-9.973050117492676,-1.3519500494003296
1757088606313675300,3.54067529296875,0.3820500075817108,-9.985050201416016,-1.380000114440918
1757088606323228200,3.550228271484375,0.3940500319004059,-9.973050117492676,-1.4070000648498535
1757088606332781300,3.55978125,0.39705002307891846,-9.951000213623047,-1.423050045967102
1757088606342334200,3.569334228515625,0.39000001549720764,-9.922950744628906,-1.4520000219345093
1757088606351887400,3.578887451171875,0.3850500285625458,-9.942000389099121,-1.4350500106811523
1757088606361440300,3.588440185546875,0.3940500319004059,-9.955950736999512,-1.4310001134872437
1757088606370993200,3.5979931640625,0.37995001673698425,-9.987000465393066,-1.4040000438690186
1757088606380546000,3.607546142578125,0.3850500285625458,-10.01400089263916,-1.4040000438690186
1757088606390099200,3.61709912109375,0.3730500042438507,-10.023000717163086,-1.380000114440918
1757088606399652400,3.62665234375,0.3730500042438507,-10.030050277709961,-1.3780500888824463
1757088606409205200,3.636205322265625,0.3540000021457672,-10.006050109863281,-1.3540500402450562
1757088606418758100,3.645758056640625,0.34200000762939453,-10.009050369262695,-1.3230000734329224
1757088606428311000,3.65531103515625,0.31995001435279846,-10.01400089263916,-1.324950098991394
1757088606437864200,3.6648642578125,0.31800001859664917,-10.027950286865234,-1.327950119972229
1757088606447417000,3.6744169921875,0.3270000219345093,-10.045050621032715,-1.3470001220703125
1757088606456970200,3.68397021484375,0.31995001435279846,-10.059000015258789,-1.3759500980377197
1757088606466523100,3.693523193359375,0.2939999997615814,-10.071000099182129,-1.3900500535964966
1757088606476076300,3.703076171875,0.2550000250339508,-10.063950538635254,-1.384950041770935
1757088606485629200,3.712629150390625,0.22395001351833344,-10.069050788879395,-1.3609501123428345
1757088606495182000,3.72218212890625,0.22905001044273376,-10.063950538635254,-1.3129500150680542
1757088606504735000,3.73173486328125,0.27900001406669617,-10.0489501953125,-1.2889500856399536
1757088606514288000,3.7412880859375,0.32505002617836,-10.069050788879395,-1.2889500856399536
1757088606523841300,3.75084130859375,0.33705002069473267,-10.051950454711914,-1.3129500150680542
1757088606533394200,3.760394287109375,0.3340500295162201,-10.0420503616333,-1.3320000171661377
1757088606542947000,3.769947021484375,0.39195001125335693,-10.07805061340332,-1.4110500812530518
1757088606552500200,3.779500244140625,0.42795002460479736,-10.143000602722168,-1.477950096130371
1757088606562053000,3.78905322265625,0.48795002698898315,-10.156950950622559,-1.5240000486373901
1757088606571606300,3.798606201171875,0.5640000104904175,-10.174050331115723,-1.5360000133514404
1757088606581159200,3.8081591796875,0.6169500350952148,-10.138050079345703,-1.5139501094818115
1757088606590712300,3.81771240234375,0.6409500241279602,-10.1089506149292,-1.5000001192092896
1757088606600265200,3.82726513671875,0.6169500350952148,-10.05405044555664,-1.4550000429153442
1757088606609818000,3.836818115234375,0.5719500184059143,-9.991950035095215,-1.4070000648498535
1757088606619371300,3.846371337890625,0.5550000071525574,-9.963000297546387,-1.3320000171661377
1757088606628924200,3.855924072265625,0.5809500217437744,-9.946950912475586,-1.3180500268936157
1757088606638477300,3.865477294921875,0.5910000205039978,-9.927000045776367,-1.327950119972229
1757088606648030200,3.8750302734375,0.5160000324249268,-9.915000915527344,-1.3200000524520874
1757088606657583000,3.8845830078125,0.40605002641677856,-9.934950828552246,-1.2889500856399536
1757088606667136300,3.89413623046875,0.39900001883506775,-9.97800064086914,-1.228950023651123
1757088606676689200,3.903689208984375,0.4729500114917755,-10.00200080871582,-1.1380500793457031
1757088606686242000,3.913241943359375,0.5070000290870667,-9.961050033569336,-1.0309500694274902
1757088606695795200,3.922795166015625,0.4519500136375427,-9.846000671386719,-0.909000039100647
1757088606705348400,3.932348388671875,0.4759500324726105,-9.697050094604492,-0.8800500631332397
1757088606714901200,3.9419013671875,0.5790000557899475,-9.505950927734375,-0.9760500192642212
1757088606724454100,3.9514541015625,0.6000000238418579,-9.360000610351562,-1.141050100326538
1757088606734007000,3.961007080078125,0.5190000534057617,-9.22095012664795,-1.2769500017166138
1757088606743560200,3.970560302734375,0.28905001282691956,-9.136950492858887,-1.380000114440918
1757088606753113000,3.980113037109375,0.013950000517070293,-9.082050323486328,-1.5000001192092896
1757088606762666200,3.989666259765625,-0.1960500031709671,-9.070050239562988,-1.6150500774383545
1757088606772219100,3.99921923828125,-0.32505002617836,-9.091950416564941,-1.7130000591278076
1757088606781772300,4.008772216796875,-0.43995001912117004,-9.1399507522583,-1.7680500745773315
1757088606791325200,4.0183251953125,-0.547950029373169,-9.268950462341309,-1.8300000429153442
1757088606800878000,4.027878173828125,-0.7060500383377075,-9.337950706481934,-1.9720500707626343
1757088606810431200,4.03743115234375,-0.9360000491142273,-9.42495059967041,-1.828050136566162
1757088606819984400,4.046984375,-0.9790500402450562,-9.571050643920898,-1.6050000190734863
1757088606829537300,4.056537353515625,-0.814050018787384,-9.516000747680664,-1.4659500122070312
1757088606839090200,4.066090087890625,-1.024049997329712,-9.48705005645752,-1.2750000953674316
1757088606848643000,4.07564306640625,-1.4479501247406006,-9.440999984741211,-1.2990000247955322
1757088606858196200,4.0851962890625,-1.6060501337051392,-9.544050216674805,-1.5100500583648682
1757088606867749000,4.0947490234375,-1.585050106048584,-9.541950225830078,-1.711050033569336
1757088606877302300,4.10430224609375,-1.6570501327514648,-9.532050132751465,-1.6600500345230103
1757088606886855200,4.113855224609375,-1.759950041770935,-9.597000122070312,-1.3900500535964966
1757088606896408300,4.123408203125,-1.8720000982284546,-9.670950889587402,-0.9850500226020813
1757088606905961200,4.132961181640625,-2.3269500732421875,-9.784050941467285,-0.6619500517845154
1757088606915514000,4.14251416015625,-2.8819501399993896,-10.026000022888184,-0.6499500274658203
1757088606925067000,4.15206689453125,-2.5500001907348633,-10.159950256347656,-0.5179499983787537
1757088606934620200,4.1616201171875,-2.4130501747131348,-10.267050743103027,-0.286050021648407
1757088606944173300,4.17117333984375,-2.653050184249878,-10.144950866699219,-0.3750000298023224
1757088606953726200,4.180726318359375,-3.000000238418579,-9.882000923156738,-0.6000000238418579
1757088606963279000,4.190279052734375,-3.1549501419067383,-9.421950340270996,-0.9250500202178955
1757088606972832300,4.199832275390625,-3.495000123977661,-9.168000221252441,-1.0690500736236572
1757088606982385200,4.20938525390625,-4.104000091552734,-8.7610502243042,-1.1050500869750977
1757088606991938000,4.21893798828125,-4.278000354766846,-8.554950714111328,-1.0330500602722168
1757088607001491200,4.2284912109375,-4.234950065612793,-8.596050262451172,-0.6330000162124634
1757088607011044400,4.23804443359375,-4.555950164794922,-8.791950225830078,-0.23595000803470612
1757088607020597200,4.24759716796875,-4.4509501457214355,-8.94105052947998,0.18900001049041748
1757088607030150100,4.257150146484375,-4.5420002937316895,-9.027000427246094,0.4549500346183777
1757088607039703000,4.266703125,-4.537050247192383,-8.878950119018555,0.14595000445842743
1757088607049256200,4.276256103515625,-3.888000249862671,-8.958000183105469,0.30195000767707825
1757088607058809000,4.28580908203125,-4.009950160980225,-8.910000801086426,0.26805001497268677
1757088607068362000,4.295362060546875,-4.162950038909912,-8.869050025939941,0.62295001745224
1757088607077915100,4.3049150390625,-4.185000419616699,-8.809050559997559,0.40995001792907715
1757088607087468000,4.314468017578125,-4.060050010681152,-8.869050025939941,0.40995001792907715
1757088607097021200,4.324021240234375,-3.8550002574920654,-8.914950370788574,0.7900500297546387
1757088607106574000,4.333573974609375,-3.637050151824951,-8.814000129699707,0.6490500569343567
1757088607116127000,4.343126953125,-4.099050045013428,-8.69895076751709,0.32295000553131104
1757088607125680000,4.35268017578125,-4.815000057220459,-8.539050102233887,0.11505000293254852
1757088607135233300,4.3622333984375,-4.921950340270996,-8.287050247192383,-0.3720000088214874
1757088607144786200,4.3717861328125,-4.984950065612793,-8.136000633239746,-0.9469500184059143
1757088607154339000,4.381339111328125,-5.284050464630127,-8.043000221252441,-0.9709500670433044
1757088607163892000,4.39089208984375,-5.305050373077393,-7.987950325012207,-0.6640500426292419
1757088607173445000,4.400445068359375,-5.767950057983398,-7.73205041885376,-0.6960000395774841
1757088607182998000,4.409998046875,-5.823000431060791,-7.501950263977051,-0.9799500703811646
1757088607192551200,4.41955126953125,-5.8969502449035645,-7.282050132751465,-1.1820000410079956
1757088607202104000,4.42910400390625,-6.153000354766846,-6.879000186920166,-1.4209500551223755
1757088607211657200,4.4386572265625,-6.2220001220703125,-6.6469502449035645,-1.6030501127243042
1757088607221210000,4.448210205078125,-6.309000492095947,-6.601950168609619,-1.76295006275177
1757088607230763000,4.457762939453125,-6.579000473022461,-6.658950328826904,-1.6530001163482666
1757088607240316000,4.46731591796875,-6.438000202178955,-6.934050559997559,-1.3369500637054443
1757088607249869000,4.476869140625,-6.238950252532959,-7.2460503578186035,-1.13100004196167
1757088607259422000,4.486421875,-6.292050361633301,-7.567050457000732,-0.8269500136375427
1757088607268975000,4.49597509765625,-6.414000511169434,-7.825050354003906,-0.5299500226974487
1757088607278528000,4.505528076171875,-6.711000442504883,-8.002050399780273,-0.41805002093315125
1757088607288081200,4.5150810546875,-7.228050231933594,-7.9069504737854,-0.5299500226974487
1757088607297634000,4.524634033203125,-7.266000270843506,-7.726950168609619,-0.7429500222206116
1757088607307187000,4.53418701171875,-7.3120503425598145,-7.468050479888916,-0.8490000367164612
1757088607316739800,4.54373974609375,-6.988950252532959,-7.345950126647949,-0.5040000081062317
1757088607326293200,4.553293212890625,-6.9120001792907715,-7.264950275421143,-0.5710500478744507
1757088607335846100,4.56284619140625,-7.147050380706787,-7.069050312042236,-0.5539500117301941
1757088607345399000,4.57239892578125,-7.306950569152832,-6.621000289916992,-0.7050000429153442
1757088607354952000,4.581951904296875,-7.261950492858887,-6.196950435638428,-0.906000018119812
1757088607364505000,4.591505126953125,-7.282950401306152,-5.9239501953125,-0.9970500469207764
1757088607374057700,4.6010576171875,-7.618050575256348,-5.682000160217285,-1.0740000009536743
1757088607383611000,4.61061083984375,-7.91295051574707,-5.4210004806518555,-1.062000036239624
1757088607393164000,4.6201640625,-8.020950317382812,-5.208000183105469,-0.9919500350952148
1757088607402717000,4.629717041015625,-7.945950508117676,-5.079000473022461,-0.8440500497817993
1757088607412270000,4.63927001953125,-8.03700065612793,-5.041050434112549,-0.7890000343322754
1757088607421823000,4.648822998046875,-7.993950366973877,-5.005050182342529,-0.7410000562667847
1757088607431376000,4.6583759765625,-7.882050514221191,-5.056950092315674,-0.7630500197410583
1757088607440929300,4.66792919921875,-7.795950412750244,-5.148000240325928,-0.8680500388145447
1757088607450482200,4.677482177734375,-8.04900074005127,-5.199000358581543,-1.1460000276565552
1757088607460035000,4.68703515625,-8.121000289916992,-5.296950340270996,-1.1890500783920288
1757088607469588000,4.696587890625,-8.395950317382812,-5.341950416564941,-1.1670000553131104
1757088607479140900,4.706140869140625,-8.42805004119873,-5.47605037689209,-0.9540000557899475
1757088607488694000,4.715694091796875,-8.305950164794922,-5.48805046081543,-0.8509500622749329
1757088607498247000,4.725246826171875,-8.269950866699219,-5.377950191497803,-0.9400500655174255
1757088607507800000,4.734800048828125,-8.322000503540039,-5.164950370788574,-0.9300000667572021
1757088607517353000,4.74435302734375,-8.353050231933594,-5.0119500160217285,-1.1190000772476196
1757088607526906000,4.753906005859375,-8.442000389099121,-4.933050155639648,-1.1620500087738037
1757088607536459000,4.763458984375,-8.550000190734863,-4.8319501876831055,-1.2370500564575195
1757088607546012200,4.77301220703125,-8.75100040435791,-4.717050075531006,-1.1650500297546387
1757088607555565000,4.78256494140625,-8.847000122070312,-4.816050052642822,-1.0519500970840454
1757088607565118200,4.7921181640625,-8.812950134277344,-4.818000316619873,-1.0330500602722168
1757088607574671000,4.801671142578125,-8.728950500488281,-4.863000392913818,-0.7050000429153442
1757088607584224000,4.81122412109375,-8.824950218200684,-4.930050373077393,-0.5850000381469727
1757088607593777000,4.82077685546875,-8.928000450134277,-4.873050212860107,-0.5350500345230103
1757088607603330000,4.830330078125,-9.229950904846191,-4.77495002746582,-0.5179499983787537
1757088607612883000,4.839883056640625,-9.529050827026367,-4.7220001220703125,-0.3840000033378601
1757088607622435800,4.849435791015625,-9.337050437927246,-4.600050449371338,-0.46095001697540283
1757088607631989000,4.858989013671875,-9.187050819396973,-4.480050086975098,-0.6190500259399414
1757088607641542000,4.8685419921875,-9.32805061340332,-4.399050235748291,-0.7189500331878662
1757088607651095000,4.878094970703125,-9.280050277709961,-4.4320502281188965,-0.6169500350952148
1757088607660648000,4.88764794921875,-9.172050476074219,-4.485000133514404,-0.3340500295162201
1757088607670200800,4.897200927734375,-9.121950149536133,-4.425000190734863,-0.29295000433921814
1757088607679754000,4.90675390625,-9.009000778198242,-4.282050132751465,-0.3270000219345093
1757088607689307100,4.91630712890625,-9.04800033569336,-4.042050361633301,-0.46995002031326294
1757088607698860000,4.925860107421875,-9.076050758361816,-3.9300003051757812,-0.5230500102043152
1757088607708413000,4.935412841796875,-9.187050819396973,-3.9270002841949463,-0.4990500211715698
1757088607717965800,4.9449658203125,-9.166950225830078,-3.8839502334594727,-0.46605002880096436
1757088607727519000,4.95451904296875,-9.151050567626953,-3.6850502490997314,-0.43905001878738403
1757088607737071900,4.96407177734375,-9.400050163269043,-3.3930001258850098,-0.4849500358104706
1757088607746625000,4.973625,-9.373050689697266,-3.1780500411987305,-0.3630000054836273
1757088607756178000,4.983177978515625,-9.282000541687012,-3.1110000610351562,-0.09195000678300858
1757088607765731000,4.99273095703125,-9.244050025939941,-3.0289502143859863,-0.06599999964237213
1757088607775284000,5.002283935546875,-9.234000205993652,-2.943000078201294,-0.10395000129938126
1757088607784836900,5.0118369140625,-9.241950035095215,-2.9670002460479736,-0.10695000737905502
1757088607794390000,5.02139013671875,-9.277950286865234,-3.0700502395629883,-0.09000000357627869
1757088607803943000,5.03094287109375,-9.265950202941895,-3.2500500679016113,-0.025050001218914986
1757088607813496000,5.04049609375,-9.145950317382812,-3.4360501766204834,-0.06795000284910202
1757088607823049000,5.050049072265625,-9.199050903320312,-3.460050106048584,0.04605000093579292
1757088607832601900,5.059601806640625,-9.178950309753418,-3.3450002670288086,0.15600000321865082
1757088607842154800,5.06915478515625,-8.980950355529785,-3.0460500717163086,0.1099500060081482
1757088607851708200,5.078708251953125,-8.779950141906738,-2.7799501419067383,-0.00795000046491623
1757088607861260800,5.0882607421875,-9.01395034790039,-2.656050205230713,-0.21405000984668732
1757088607870814000,5.09781396484375,-9.31605052947998,-2.6770501136779785,-0.40605002641677856
1757088607880366800,5.107366943359375,-9.473999977111816,-2.622000217437744,-0.33195000886917114
1757088607889920000,5.116919921875,-9.534000396728516,-2.527050018310547,-0.23295001685619354
1757088607899473000,5.126472900390625,-9.523950576782227,-2.266050100326538,-0.1879500150680542
1757088607909025800,5.13602587890625,-9.414000511169434,-2.0650501251220703,-0.23595000803470612
1757088607918579000,5.145578857421875,-9.337050437927246,-1.9900500774383545,-0.23595000803470612
1757088607928131800,5.1551318359375,-9.270000457763672,-2.0650501251220703,-0.23595000803470612
1757088607937685000,5.16468505859375,-9.439949989318848,-2.0310001373291016,0.08400000631809235
1757088607947238000,5.17423779296875,-9.907050132751465,-1.8679500818252563,0.41700002551078796
1757088607956790800,5.183790771484375,-10.300050735473633,-1.6260000467300415,0.6439500451087952
1757088607966343700,5.19334375,-10.324050903320312,-1.4659500122070312,0.51705002784729
1757088607975897000,5.20289697265625,-10.17495059967041,-1.4760000705718994,0.34005001187324524
1757088607985450000,5.212449951171875,-10.269000053405762,-1.3750500679016113,0.32295000553131104
1757088607995003000,5.2220029296875,-10.71405029296875,-1.01295006275177,0.8550000190734863
1757088608004556000,5.23155615234375,-10.88895034790039,-0.5800500512123108,0.5890500545501709
1757088608014109000,5.24110888671875,-10.786050796508789,-0.15405000746250153,0.6109500527381897
1757088608023661800,5.250661865234375,-10.675950050354004,0.12495000660419464,0.39000001549720764
1757088608033215000,5.260215087890625,-10.621050834655762,0.010050000622868538,0.12195000797510147
1757088608042768000,5.269767822265625,-10.852950096130371,-0.22305001318454742,0.08895000070333481
1757088608052320800,5.27932080078125,-10.944000244140625,-0.45600003004074097,0.39000001549720764
1757088608061874000,5.2888740234375,-10.851000785827637,-0.6780000329017639,0.7330500483512878
1757088608071426800,5.2984267578125,-10.519950866699219,-0.8890500664710999,0.9600000381469727
1757088608080979700,5.307979736328125,-10.261950492858887,-1.0039499998092651,0.9240000247955322
1757088608090532900,5.317532958984375,-9.985950469970703,-1.0639500617980957,0.8070000410079956
1757088608100085800,5.327085693359375,-9.82800006866455,-1.0060499906539917,0.7780500650405884
1757088608109638700,5.336638671875,-9.77595043182373,-0.9030000567436218,0.8359500169754028
1757088608119192000,5.346192138671875,-9.739950180053711,-0.8100000619888306,0.8860500454902649
1757088608128744700,5.35574462890625,-9.699000358581543,-0.6829500198364258,0.9240000247955322
1757088608138297900,5.3652978515625,-9.661050796508789,-0.5490000247955322,1.0080000162124634
1757088608147850800,5.374850830078125,-9.5910005569458,-0.5250000357627869,1.081950068473816
1757088608157403600,5.384403564453125,-9.62505054473877,-0.5250000357627869,1.081950068473816
1757088608166956500,5.39395654296875,-9.655950546264648,-0.6349500417709351,1.0969500541687012
1757088608176509700,5.403509765625,-9.733050346374512,-0.8190000653266907,1.1779500246047974
1757088608186062600,5.4130625,-9.82800006866455,-0.9940500259399414,1.281000018119812
1757088608195615700,5.42261572265625,-9.838050842285156,-1.128000020980835,1.3189500570297241
1757088608205168600,5.432168701171875,-9.823050498962402,-1.1759999990463257,1.3339500427246094
1757088608214721800,5.4417216796875,-9.790050506591797,-1.1209501028060913,1.360050082206726
1757088608224274700,5.451274658203125,-9.715950012207031,-1.1590501070022583,1.4080500602722168
1757088608233827600,5.46082763671875,-9.63900089263916,-1.2049500942230225,1.3549500703811646
1757088608243380700,5.470380615234375,-9.586050033569336,-1.324950098991394,1.3000500202178955
1757088608252934000,5.479933837890625,-9.59595012664795,-1.4299501180648804,1.237950086593628
1757088608262486800,5.48948681640625,-9.664950370788574,-1.5040500164031982,1.221000075340271
1757088608272039700,5.499039794921875,-9.727950096130371,-1.758000135421753,1.1350500583648682
1757088608281592600,5.508592529296875,-9.64905071258545,-2.164950132369995,1.0440000295639038
1757088608291145500,5.5181455078125,-9.618000030517578,-2.2420501708984375,1.1299500465393066
1757088608300698600,5.52769873046875,-9.676950454711914,-2.0380501747131348,1.1299500465393066
1757088608310251500,5.53725146484375,-9.582000732421875,-1.801050066947937,1.207050085067749
1757088608319805000,5.546804931640625,-9.60105037689209,-1.4680501222610474,1.1179500818252563
1757088608329357800,5.55635791015625,-9.685050010681152,-1.3290001153945923,1.0180500745773315
1757088608338910700,5.56591064453125,-9.816000938415527,-1.114050030708313,0.817050039768219
1757088608348463600,5.575463623046875,-9.712950706481934,-0.9660000205039978,0.673050045967102
1757088608358016500,5.5850166015625,-9.5910005569458,-0.9679500460624695,0.7230000495910645
1757088608367569700,5.594569580078125,-9.448050498962402,-1.0249500274658203,0.7230000495910645
1757088608377122600,5.60412255859375,-9.325050354003906,-1.2480000257492065,0.6990000605583191
1757088608386675700,5.61367578125,-9.354000091552734,-1.26705002784729,0.6990000605583191
1757088608396228600,5.623228515625,-9.466950416564941,-1.1359500885009766,0.6949500441551208
1757088608405781500,5.632781494140625,-9.510000228881836,-0.987000048160553,0.6319500207901001
1757088608415334700,5.642334716796875,-9.490950584411621,-0.9100500345230103,0.5820000171661377
1757088608424887800,5.6518876953125,-9.498000144958496,-0.89805006980896,0.48405003547668457
1757088608434440700,5.661440673828125,-9.534000396728516,-0.8029500246047974,0.5029500126838684
1757088608443993600,5.67099365234375,-9.5910005569458,-0.778950035572052,0.5010000467300415
1757088608453546800,5.680546630859375,-9.63900089263916,-0.7740000486373901,0.5680500268936157
1757088608463099600,5.690099609375,-9.64905071258545,-0.7020000219345093,0.673050045967102
1757088608472652800,5.69965283203125,-9.63705062866211,-0.7189500331878662,0.7180500626564026
1757088608482205700,5.709205810546875,-9.579000473022461,-0.8839500546455383,0.7180500626564026
1757088608491758800,5.7187587890625,-9.631950378417969,-1.1160000562667847,0.6130500435829163
1757088608501311700,5.728311767578125,-9.711000442504883,-1.152000069618225,0.6490500569343567
1757088608510864600,5.73786474609375,-9.756000518798828,-1.2000000476837158,0.6490500569343567
1757088608520417500,5.74741748046875,-9.796950340270996,-1.2360000610351562,0.6370500326156616
1757088608529970700,5.756970703125,-9.768000602722168,-1.3440001010894775,0.7660500407218933
1757088608539523800,5.76652392578125,-9.711000442504883,-1.5019500255584717,0.8740500211715698
1757088608549076700,5.77607666015625,-9.735000610351562,-1.4610000848770142,0.9460500478744507
1757088608558629600,5.785629638671875,-9.685050010681152,-1.5949500799179077,1.0110000371932983
1757088608568182800,5.795182861328125,-9.661050796508789,-1.6459500789642334,1.1830500364303589
1757088608577735700,5.804735595703125,-9.586050033569336,-1.6360501050949097,1.2019500732421875
1757088608587288600,5.81428857421875,-9.57705020904541,-1.6120500564575195,1.2550500631332397
1757088608596841700,5.823841796875,-9.558000564575195,-1.5450000762939453,1.2739500999450684
1757088608606394600,5.83339453125,-9.5910005569458,-1.4179500341415405,1.3069500923156738
1757088608615947500,5.842947509765625,-9.661050796508789,-1.3150500059127808,1.2720000743865967
1757088608625500400,5.85250048828125,-9.687000274658203,-1.4830501079559326,1.2690000534057617
1757088608635053600,5.862053466796875,-9.703950881958008,-1.533000111579895,1.336050033569336
1757088608644606500,5.8716064453125,-9.697050094604492,-1.4350500106811523,1.2520500421524048
1757088608654159600,5.88115966796875,-9.712950706481934,-1.4970000982284546,1.1299500465393066
1757088608663712500,5.89071240234375,-9.673050880432129,-1.495050072669983,1.081950068473816
1757088608673265700,5.900265625,-9.673050880432129,-1.4830501079559326,1.0320000648498535
1757088608682818600,5.909818603515625,-9.673050880432129,-1.4869500398635864,0.9580500721931458
1757088608692371500,5.919371337890625,-9.673050880432129,-1.5139501094818115,0.9390000700950623
1757088608701924400,5.92892431640625,-9.664950370788574,-1.5259500741958618,0.89805006980896
1757088608711477200,5.938477294921875,-9.658050537109375,-1.4250000715255737,0.8479500412940979
1757088608721030400,5.948030517578125,-9.642000198364258,-1.3870500326156616,0.8050500154495239
1757088608730583600,5.95758349609375,-9.673050880432129,-1.3030500411987305,0.7450500130653381
1757088608740136400,5.967136474609375,-9.651000022888184,-1.3290001153945923,0.7300500273704529
1757088608749689300,5.976689453125,-9.663000106811523,-1.3339500427246094,0.7069500088691711
1757088608759242500,5.986242431640625,-9.670050621032715,-1.3150500059127808,0.6799500584602356
1757088608768795400,5.99579541015625,-9.675000190734863,-1.3060500621795654,0.6919500231742859
1757088608778348300,6.005348388671875,-9.664950370788574,-1.2910500764846802,0.7020000219345093
1757088608787901200,6.014901123046875,-9.658050537109375,-1.297950029373169,0.7110000252723694
1757088608797454000,6.0244541015625,-9.630000114440918,-1.2739500999450684,0.7140000462532043
1757088608807007200,6.03400732421875,-9.622050285339355,-1.270050048828125,0.7159500122070312
1757088608816560400,6.043560302734375,-9.61500072479248,-1.2649500370025635,0.7279500365257263
1757088608826113300,6.05311328125,-9.618000030517578,-1.2430500984191895,0.7330500483512878
1757088608835666200,6.062666259765625,-9.63705062866211,-1.207050085067749,0.7470000386238098
1757088608845219300,6.07221923828125,-9.64905071258545,-1.2030000686645508,0.7740000486373901
1757088608854772200,6.081772216796875,-9.682050704956055,-1.228950023651123,0.7780500650405884
1757088608864325000,6.0913251953125,-9.703950881958008,-1.2940500974655151,0.859950065612793
1757088608873878300,6.100878173828125,-9.712950706481934,-1.3200000524520874,0.9169500470161438
1757088608883431200,6.11043115234375,-9.703950881958008,-1.300950050354004,0.9649500250816345
1757088608892984300,6.119984375,-9.703950881958008,-1.297950029373169,0.9910500645637512
1757088608902537200,6.129537109375,-9.675000190734863,-1.339050054550171,0.9960000514984131
1757088608912090000,6.139090087890625,-9.646050453186035,-1.3680000305175781,1.0320000648498535
1757088608921643000,6.14864306640625,-9.62505054473877,-1.380000114440918,1.0350000858306885
1757088608931196200,6.158196044921875,-9.619950294494629,-1.396950125694275,1.0420500040054321
1757088608940749000,6.1677490234375,-9.607950210571289,-1.4110500812530518,1.051050066947937
1757088608950302200,6.17730224609375,-9.619950294494629,-1.4059500694274902,1.0470000505447388
1757088608959855400,6.18685546875,-9.618000030517578,-1.3870500326156616,1.0180500745773315
1757088608969408300,6.196408203125,-9.62505054473877,-1.380000114440918,1.0110000371932983
1757088608978961200,6.205961181640625,-9.646050453186035,-1.3920000791549683,1.0180500745773315
1757088608988514000,6.21551416015625,-9.682050704956055,-1.4059500694274902,1.054050087928772
1757088608998067200,6.225067138671875,-9.691950798034668,-1.4179500341415405,1.0440000295639038
1757088609007620000,6.2346201171875,-9.760950088500977,-1.3729500770568848,0.9510000348091125
1757088609017173200,6.24417333984375,-9.675000190734863,-1.3699500560760498,0.9889500737190247
1757088609026726100,6.25372607421875,-9.63900089263916,-1.3699500560760498,1.0249500274658203
1757088609036279000,6.263279052734375,-9.631950378417969,-1.339050054550171,1.0180500745773315
1757088609045832000,6.27283203125,-9.62505054473877,-1.3440001010894775,1.0249500274658203
1757088609055385000,6.282385009765625,-9.62505054473877,-1.3530000448226929,1.0320000648498535
1757088609064938000,6.29193798828125,-9.634050369262695,-1.3489500284194946,1.0060499906539917
1757088609074491000,6.301490966796875,-9.62700080871582,-1.3530000448226929,0.9940500259399414
1757088609084044000,6.3110439453125,-9.622050285339355,-1.363050103187561,0.9720000624656677
1757088609093597000,6.320596923828125,-9.63900089263916,-1.3650000095367432,0.9630000591278076
1757088609103150000,6.330150146484375,-9.642000198364258,-1.3459500074386597,0.9750000238418579
1757088609112703000,6.339702880859375,-9.663000106811523,-1.3129500150680542,0.999000072479248
1757088609122256100,6.349256103515625,-9.652950286865234,-1.3270500898361206,1.0200001001358032
1757088609131809000,6.35880908203125,-9.652950286865234,-1.3170000314712524,1.0369499921798706
1757088609141362200,6.368362060546875,-9.670050621032715,-1.3459500074386597,1.054050087928772
1757088609150915000,6.3779150390625,-9.658050537109375,-1.384950041770935,1.0300500392913818
1757088609160468000,6.387468017578125,-9.619950294494629,-1.3890000581741333,1.2619500160217285
1757088609170020900,6.397020751953125,-9.622050285339355,-1.3650000095367432,1.0489500761032104
1757088609179573800,6.40657373046875,-9.670050621032715,-1.3609501123428345,0.9750000238418579
1757088609189127000,6.416126953125,-9.62700080871582,-1.3870500326156616,1.0180500745773315
1757088609198680000,6.42568017578125,-9.661050796508789,-1.39395010471344,0.999000072479248
1757088609208233000,6.43523291015625,-9.64905071258545,-1.3489500284194946,0.987000048160553
1757088609217785900,6.444785888671875,-9.634050369262695,-1.3510500192642212,0.970050036907196
1757088609227338800,6.4543388671875,-9.634050369262695,-1.3369500637054443,0.987000048160553
1757088609236892000,6.463891845703125,-9.62505054473877,-1.3510500192642212,0.9750000238418579
1757088609246444800,6.47344482421875,-9.651000022888184,-1.3530000448226929,0.9529500603675842
1757088609255998000,6.482998046875,-9.664950370788574,-1.3579500913619995,0.9000000357627869
1757088609265550800,6.49255078125,-9.651000022888184,-1.3459500074386597,0.8839500546455383
1757088609275104000,6.50210400390625,-9.64905071258545,-1.3410000801086426,0.9199500679969788
1757088609284657000,6.511656982421875,-9.634050369262695,-1.321950078010559,0.9079500436782837
1757088609294209800,6.521209716796875,-9.62505054473877,-1.3030500411987305,0.8959500193595886
1757088609303763000,6.530762939453125,-9.631950378417969,-1.308000087738037,0.9049500226974487
1757088609313315800,6.54031591796875,-9.63705062866211,-1.3560000658035278,0.8860500454902649
1757088609322869000,6.549868896484375,-9.646050453186035,-1.3510500192642212,0.8770500421524048
1757088609332422000,6.559421875,-9.651000022888184,-1.363050103187561,0.8880000710487366
1757088609341974800,6.568974853515625,-9.652950286865234,-1.3579500913619995,0.8860500454902649
1757088609351527700,6.578527587890625,-9.655950546264648,-1.384950041770935,0.8809500336647034
1757088609361080800,6.588080810546875,-9.682050704956055,-1.4040000438690186,0.9100500345230103
1757088609370633700,6.5976337890625,-9.687000274658203,-1.4299501180648804,0.9199500679969788
1757088609380186600,6.6071865234375,-9.699000358581543,-1.4470500946044922,0.9270000457763672
1757088609389739800,6.61673974609375,-9.700950622558594,-1.4490001201629639,0.9340500235557556
1757088609399293000,6.62629296875,-9.694050788879395,-1.4350500106811523,0.970050036907196
1757088609408845800,6.635845703125,-9.676950454711914,-1.423050045967102,0.9790500402450562
1757088609418398700,6.645398681640625,-9.663000106811523,-1.3990501165390015,0.9750000238418579
1757088609427951600,6.65495166015625,-9.64905071258545,-1.3920000791549683,0.9820500612258911
1757088609437504500,6.66450439453125,-9.652950286865234,-1.4160000085830688,0.987000048160553
1757088609447057700,6.6740576171875,-9.679950714111328,-1.440000057220459,0.9960000514984131
1757088609456610800,6.68361083984375,-9.673050880432129,-1.4130001068115234,0.9720000624656677
1757088609466163700,6.693163818359375,-9.673050880432129,-1.3680000305175781,0.9790500402450562
1757088609475716600,6.702716552734375,-9.63705062866211,-1.3170000314712524,0.9670500755310059
1757088609485269500,6.71226953125,-9.618000030517578,-1.270050048828125,0.9580500721931458
1757088609494822400,6.721822509765625,-9.618000030517578,-1.2480000257492065,0.9750000238418579
1757088609504375600,6.73137548828125,-9.58905029296875,-1.2460500001907349,0.9790500402450562
1757088609513928700,6.7409287109375,-9.594000816345215,-1.227000117301941,0.9910500645637512
1757088609523481600,6.750481689453125,-9.582000732421875,-1.2049500942230225,0.987000048160553
1757088609533034800,6.76003466796875,-9.571950912475586,-1.1759999990463257,0.9960000514984131
1757088609542587600,6.769587646484375,-9.570000648498535,-1.168950080871582,0.987000048160553
1757088609552140800,6.779140869140625,-9.570000648498535,-1.1640000343322754,0.987000048160553
1757088609561693700,6.788693603515625,-9.567000389099121,-1.1710500717163086,0.970050036907196
1757088609571246600,6.79824658203125,-9.58395004272461,-1.2049500942230225,0.9889500737190247
1757088609580799500,6.807799560546875,-9.630000114440918,-1.2360000610351562,1.0060499906539917
1757088609590352600,6.8173525390625,-9.658050537109375,-1.2859500646591187,1.0230000019073486
1757088609599905500,6.826905517578125,-9.685050010681152,-1.2960000038146973,1.0369499921798706
1757088609609458400,6.83645849609375,-9.711000442504883,-1.3339500427246094,1.0579500198364258
1757088609619011600,6.846011474609375,-9.709050178527832,-1.3510500192642212,1.0489500761032104
1757088609628564700,6.855564697265625,-9.715950012207031,-1.3750500679016113,1.0249500274658203
1757088609638117600,6.86511767578125,-9.703950881958008,-1.3729500770568848,1.0230000019073486
1757088609647670500,6.87467041015625,-9.687000274658203,-1.3699500560760498,0.9910500645637512
1757088609657223400,6.884223388671875,-9.679950714111328,-1.3510500192642212,0.9649500250816345
1757088609666776300,6.8937763671875,-9.655950546264648,-1.3369500637054443,1.0030500888824463
1757088609676329500,6.90332958984375,-9.673050880432129,-1.3060500621795654,1.0150500535964966
1757088609685882400,6.91288232421875,-9.655950546264648,-1.3150500059127808,1.01295006275177
1757088609695435500,6.922435546875,-9.634050369262695,-1.284000039100647,1.01295006275177
1757088609704988400,6.931988525390625,-9.63900089263916,-1.26705002784729,1.0009500980377197
1757088609714541600,6.94154150390625,-9.631950378417969,-1.2499500513076782,0.9910500645637512
1757088609724094500,6.951094482421875,-9.622050285339355,-1.2460500001907349,0.9940500259399414
1757088609733647400,6.9606474609375,-9.610050201416016,-1.2340500354766846,0.9649500250816345
1757088609743200500,6.970200439453125,-9.598050117492676,-1.2360000610351562,0.970050036907196
1757088609752753400,6.97975341796875,-9.607950210571289,-1.2460500001907349,0.9559500217437744
1757088609762306600,6.989306640625,-9.61500072479248,-1.2529500722885132,0.9510000348091125
1757088609771859500,6.998859375,-9.634050369262695,-1.2600001096725464,0.9510000348091125
1757088609781412400,7.008412353515625,-9.661050796508789,-1.2739500999450684,0.9460500478744507
1757088609790965200,7.01796533203125,-9.661050796508789,-1.284000039100647,0.9510000348091125
1757088609800518400,7.027518310546875,-9.667950630187988,-1.2910500764846802,0.9340500235557556
1757088609810071300,7.0370712890625,-9.673050880432129,-1.2940500974655151,0.9409500360488892
1757088609819624400,7.04662451171875,-9.670050621032715,-1.2889500856399536,0.9580500721931458
1757088609829177600,7.056177490234375,-9.663000106811523,-1.2960000038146973,0.9529500603675842
1757088609838730500,7.06573046875,-9.64905071258545,-1.2820500135421753,0.9529500603675842
1757088609848283400,7.075283447265625,-9.64905071258545,-1.2720000743865967,0.9559500217437744
1757088609857836300,7.084836181640625,-9.634050369262695,-1.2580500841140747,0.9510000348091125
1757088609867389400,7.094389404296875,-9.62700080871582,-1.2550500631332397,0.9670500755310059
1757088609876942300,7.1039423828125,-9.643950462341309,-1.2600001096725464,0.9750000238418579
1757088609886495500,7.11349560546875,-9.64905071258545,-1.2619500160217285,0.9769500494003296
1757088609896048400,7.12304833984375,-9.63900089263916,-1.26705002784729,0.9820500612258911
1757088609905601300,7.132601318359375,-9.643950462341309,-1.26705002784729,0.9720000624656677
1757088609915154200,7.142154296875,-9.634050369262695,-1.2720000743865967,0.987000048160553
1757088609924707000,7.15170703125,-9.64905071258545,-1.2820500135421753,0.987000048160553
1757088609934260200,7.16126025390625,-9.634050369262695,-1.2940500974655151,0.9889500737190247
1757088609943813000,7.170813232421875,-9.652950286865234,-1.300950050354004,1.0080000162124634
1757088609953366300,7.1803662109375,-9.655950546264648,-1.297950029373169,0.9889500737190247
1757088609962919200,7.189919189453125,-9.670050621032715,-1.2910500764846802,0.999000072479248
1757088609972472000,7.19947216796875,-9.667950630187988,-1.2960000038146973,0.9960000514984131
1757088609982025200,7.209025146484375,-9.655950546264648,-1.308000087738037,1.0060499906539917
1757088609991578400,7.218578369140625,-9.658050537109375,-1.297950029373169,1.0110000371932983
1757088610001131300,7.22813134765625,-9.655950546264648,-1.2889500856399536,1.0150500535964966
1757088610010684200,7.23768408203125,-9.63900089263916,-1.300950050354004,0.9960000514984131
1757088610020237300,7.2472373046875,-9.63705062866211,-1.2910500764846802,1.01295006275177
1757088610029790200,7.256790283203125,-9.63705062866211,-1.297950029373169,1.0080000162124634
1757088610039343000,7.266343017578125,-9.642000198364258,-1.300950050354004,0.9960000514984131
1757088610048896000,7.27589599609375,-9.652950286865234,-1.2960000038146973,0.984000027179718
1757088610058449000,7.285448974609375,-9.64905071258545,-1.3060500621795654,0.9960000514984131
1757088610068002000,7.295001953125,-9.643950462341309,-1.2960000038146973,0.999000072479248
1757088610077555200,7.30455517578125,-9.652950286865234,-1.3060500621795654,0.984000027179718
1757088610087108000,7.314108154296875,-9.64905071258545,-1.2820500135421753,0.9600000381469727
1757088610096661000,7.323660888671875,-9.658050537109375,-1.2820500135421753,0.9720000624656677
1757088610106214000,7.3332138671875,-9.652950286865234,-1.2769500017166138,0.9720000624656677
1757088610115767000,7.34276708984375,-9.655950546264648,-1.2619500160217285,0.970050036907196
1757088610125320000,7.35231982421875,-9.646050453186035,-1.2790501117706299,0.9630000591278076
1757088610134872800,7.361872802734375,-9.643950462341309,-1.284000039100647,0.9720000624656677
1757088610144426000,7.371426025390625,-9.630000114440918,-1.2790501117706299,0.9630000591278076
1757088610153979000,7.380978759765625,-9.64905071258545,-1.26705002784729,0.9510000348091125
1757088610163532000,7.390531982421875,-9.651000022888184,-1.2720000743865967,0.9439500570297241
1757088610173085000,7.4000849609375,-9.64905071258545,-1.2580500841140747,0.9580500721931458
1757088610182638000,7.40963818359375,-9.64905071258545,-1.2739500999450684,0.9649500250816345
1757088610192191000,7.41919091796875,-9.655950546264648,-1.26705002784729,0.9460500478744507
1757088610201744100,7.428744140625,-9.64905071258545,-1.2720000743865967,0.9600000381469727
1757088610211297000,7.438297119140625,-9.642000198364258,-1.2619500160217285,0.9580500721931458
1757088610220850000,7.447849853515625,-9.646050453186035,-1.2739500999450684,0.9649500250816345
1757088610230402800,7.45740283203125,-9.642000198364258,-1.2769500017166138,0.9480000734329224
1757088610239955700,7.466955810546875,-9.652950286865234,-1.2790501117706299,0.9529500603675842
1757088610249508900,7.4765087890625,-9.652950286865234,-1.284000039100647,0.9670500755310059
1757088610259061800,7.486061767578125,-9.652950286865234,-1.284000039100647,0.9820500612258911
1757088610268615000,7.495614990234375,-9.63900089263916,-1.2619500160217285,0.9790500402450562
1757088610278167800,7.505167724609375,-9.63900089263916,-1.2550500631332397,0.9960000514984131
1757088610287720700,7.514720703125,-9.63705062866211,-1.2550500631332397,0.987000048160553
1757088610297273600,7.524273681640625,-9.63900089263916,-1.2649500370025635,0.9750000238418579
1757088610306826800,7.53382666015625,-9.64905071258545,-1.2649500370025635,0.999000072479248
1757088610316379600,7.543379638671875,-9.664950370788574,-1.2960000038146973,1.0200001001358032
1757088610325932500,7.5529326171875,-9.670050621032715,-1.2910500764846802,1.0230000019073486
1757088610335486000,7.56248583984375,-9.673050880432129,-1.300950050354004,1.0440000295639038
1757088610345038800,7.572038818359375,-9.655950546264648,-1.2769500017166138,1.0200001001358032
1757088610354591700,7.581591796875,-9.63900089263916,-1.2859500646591187,1.01295006275177
1757088610364144600,7.59114453125,-9.63900089263916,-1.300950050354004,1.0060499906539917
1757088610373697500,7.600697509765625,-9.61500072479248,-1.2859500646591187,0.984000027179718
1757088610383250700,7.610250732421875,-9.62700080871582,-1.2720000743865967,0.970050036907196
1757088610392803600,7.619803466796875,-9.642000198364258,-1.2820500135421753,0.9670500755310059
1757088610402356500,7.6293564453125,-9.661050796508789,-1.284000039100647,0.9960000514984131
1757088610411909600,7.63890966796875,-9.676950454711914,-1.2820500135421753,1.0009500980377197
1757088610421462500,7.648462646484375,-9.682050704956055,-1.2739500999450684,0.987000048160553
1757088610431015400,7.658015380859375,-9.673050880432129,-1.2940500974655151,0.999000072479248
1757088610440568600,7.667568603515625,-9.655950546264648,-1.2820500135421753,0.987000048160553
1757088610450121500,7.67712158203125,-9.63900089263916,-1.270050048828125,0.9630000591278076
1757088610459674400,7.68667431640625,-9.634050369262695,-1.2820500135421753,0.9510000348091125
1757088610469227500,7.6962275390625,-9.630000114440918,-1.2769500017166138,0.9670500755310059
1757088610478780400,7.705780517578125,-9.63900089263916,-1.2649500370025635,0.9460500478744507
1757088610488333600,7.71533349609375,-9.64905071258545,-1.2600001096725464,0.9559500217437744
1757088610497886500,7.724886474609375,-9.663000106811523,-1.2600001096725464,0.9720000624656677
1757088610507439400,7.734439453125,-9.658050537109375,-1.270050048828125,0.9580500721931458
1757088610516992300,7.7439921875,-9.658050537109375,-1.2649500370025635,0.9600000381469727
1757088610526545200,7.753545166015625,-9.655950546264648,-1.2649500370025635,0.9630000591278076
1757088610536098300,7.763098388671875,-9.64905071258545,-1.270050048828125,0.970050036907196
1757088610545651500,7.7726513671875,-9.652950286865234,-1.2720000743865967,0.9630000591278076
1757088610555204400,7.782204345703125,-9.63705062866211,-1.270050048828125,0.9600000381469727
1757088610564757200,7.79175732421875,-9.631950378417969,-1.284000039100647,0.9750000238418579
1757088610574310100,7.80131005859375,-9.634050369262695,-1.2859500646591187,0.9630000591278076
1757088610583863300,7.81086328125,-9.651000022888184,-1.2720000743865967,0.9769500494003296
1757088610593416200,7.820416259765625,-9.661050796508789,-1.2720000743865967,0.987000048160553
1757088610602969300,7.82996923828125,-9.661050796508789,-1.2820500135421753,0.9790500402450562
1757088610612522200,7.839522216796875,-9.651000022888184,-1.2769500017166138,0.9820500612258911
1757088610622075100,7.8490751953125,-9.64905071258545,-1.2790501117706299,0.9750000238418579
1757088610631628300,7.858628173828125,-9.634050369262695,-1.26705002784729,0.9769500494003296
1757088610641181200,7.86818115234375,-9.63900089263916,-1.2820500135421753,0.9820500612258911
1757088610650734000,7.877734130859375,-9.634050369262695,-1.270050048828125,0.984000027179718
1757088610660287200,7.887287353515625,-9.64905071258545,-1.270050048828125,0.999000072479248
1757088610669840400,7.89684033203125,-9.643950462341309,-1.2769500017166138,0.9960000514984131
1757088610679393300,7.906393310546875,-9.663000106811523,-1.26705002784729,0.9910500645637512
1757088610688946200,7.9159462890625,-9.661050796508789,-1.2649500370025635,0.999000072479248
1757088610698499000,7.9254990234375,-9.663000106811523,-1.2820500135421753,1.0110000371932983
1757088610708052200,7.93505224609375,-9.670050621032715,-1.2910500764846802,0.999000072479248
1757088610717605000,7.944605224609375,-9.655950546264648,-1.2859500646591187,0.9820500612258911
1757088610727158300,7.954158203125,-9.63705062866211,-1.2790501117706299,0.9769500494003296
1757088610736711200,7.963711181640625,-9.642000198364258,-1.2769500017166138,0.984000027179718
1757088610746264000,7.97326416015625,-9.630000114440918,-1.2739500999450684,0.9769500494003296
1757088610755817000,7.98281689453125,-9.64905071258545,-1.270050048828125,0.9820500612258911
1757088610765370000,7.9923701171875,-9.64905071258545,-1.2960000038146973,0.9820500612258911
1757088610774923000,8.001923095703125,-9.667950630187988,-1.2889500856399536,0.9670500755310059
1757088610784476200,8.01147607421875,-9.658050537109375,-1.2910500764846802,0.9670500755310059
1757088610794029000,8.021029052734375,-9.64905071258545,-1.297950029373169,0.970050036907196
1757088610803582200,8.030582275390625,-9.661050796508789,-1.3030500411987305,0.970050036907196
1757088610813135000,8.040135009765624,-9.652950286865234,-1.3060500621795654,0.9580500721931458
1757088610822688000,8.04968798828125,-9.661050796508789,-1.2910500764846802,0.9769500494003296
1757088610832241000,8.059240966796875,-9.643950462341309,-1.2820500135421753,0.9630000591278076
1757088610841793800,8.068793701171876,-9.658050537109375,-1.2960000038146973,0.9630000591278076
1757088610851347200,8.07834716796875,-9.661050796508789,-1.297950029373169,0.9630000591278076
1757088610860900000,8.087900146484374,-9.64905071258545,-1.2859500646591187,0.987000048160553
1757088610870453000,8.097452880859375,-9.655950546264648,-1.2820500135421753,0.9820500612258911
1757088610880006000,8.107005859375,-9.64905071258545,-1.2889500856399536,0.9649500250816345
1757088610889559000,8.11655908203125,-9.652950286865234,-1.3060500621795654,0.984000027179718
1757088610899112000,8.12611181640625,-9.64905071258545,-1.2790501117706299,0.9889500737190247
1757088610908664800,8.135664794921874,-9.651000022888184,-1.2820500135421753,1.0009500980377197
1757088610918217700,8.1452177734375,-9.64905071258545,-1.270050048828125,0.9940500259399414
1757088610927771000,8.15477099609375,-9.658050537109375,-1.2960000038146973,0.999000072479248
1757088610937323800,8.16432373046875,-9.663000106811523,-1.2889500856399536,0.9940500259399414
1757088610946877000,8.173876953125,-9.64905071258545,-1.2790501117706299,0.9769500494003296
1757088610956429800,8.183429931640624,-9.64905071258545,-1.2769500017166138,0.987000048160553
1757088610965982700,8.192982666015626,-9.667950630187988,-1.2790501117706299,0.9820500612258911
1757088610975535900,8.202535888671875,-9.663000106811523,-1.284000039100647,1.0009500980377197
1757088610985088800,8.2120888671875,-9.658050537109375,-1.2769500017166138,0.9940500259399414
1757088610994642000,8.221641845703125,-9.646050453186035,-1.2820500135421753,0.9820500612258911
1757088611004194800,8.23119482421875,-9.630000114440918,-1.2619500160217285,0.9820500612258911
1757088611013747700,8.240747802734376,-9.634050369262695,-1.2739500999450684,0.9750000238418579
1757088611023300600,8.250300537109375,-9.64905071258545,-1.2600001096725464,0.9630000591278076
1757088611032853500,8.259853515625,-9.642000198364258,-1.270050048828125,0.9720000624656677
1757088611042406700,8.26940673828125,-9.642000198364258,-1.26705002784729,0.9670500755310059
1757088611051959800,8.278959716796875,-9.634050369262695,-1.2720000743865967,0.9769500494003296
1757088611061512700,8.2885126953125,-9.62505054473877,-1.2360000610351562,0.9559500217437744
1757088611071065600,8.298065673828125,-9.61500072479248,-1.2460500001907349,0.9510000348091125
1757088611080618800,8.30761865234375,-9.63900089263916,-1.2529500722885132,0.970050036907196
1757088611090171600,8.317171630859375,-9.655950546264648,-1.2499500513076782,0.9600000381469727
1757088611099724800,8.326724853515625,-9.664950370788574,-1.2619500160217285,0.9750000238418579
1757088611109277700,8.336277587890624,-9.673050880432129,-1.26705002784729,1.0030500888824463
1757088611118830800,8.345830810546875,-9.663000106811523,-1.2720000743865967,1.0200001001358032
1757088611128383500,8.355383544921875,-9.663000106811523,-1.2769500017166138,1.0009500980377197
1757088611137936600,8.3649365234375,-9.63900089263916,-1.284000039100647,1.0009500980377197
1757088611147489500,8.374489501953125,-9.61500072479248,-1.2859500646591187,0.9720000624656677
1757088611157042400,8.38404248046875,-9.631950378417969,-1.2720000743865967,0.9460500478744507
1757088611166595600,8.393595703125,-9.618000030517578,-1.270050048828125,0.9220500588417053
1757088611176148700,8.403148681640625,-9.634050369262695,-1.2649500370025635,0.9390000700950623
1757088611185701600,8.41270166015625,-9.658050537109375,-1.2649500370025635,0.984000027179718
1757088611195254500,8.422254638671875,-9.667950630187988,-1.2619500160217285,1.0080000162124634
1757088611204807400,8.431807373046874,-9.679950714111328,-1.2720000743865967,1.0080000162124634
1757088611214360600,8.441360595703125,-9.667950630187988,-1.2739500999450684,0.9889500737190247
1757088611223913500,8.45091357421875,-9.655950546264648,-1.2859500646591187,0.9889500737190247
1757088611233466400,8.46046630859375,-9.63900089263916,-1.2769500017166138,0.970050036907196
1757088611243019500,8.47001953125,-9.62700080871582,-1.2790501117706299,0.9670500755310059
1757088611252572700,8.47957275390625,-9.634050369262695,-1.2790501117706299,0.9409500360488892
1757088611262125600,8.48912548828125,-9.643950462341309,-1.2960000038146973,0.9559500217437744
1757088611271678500,8.498678466796875,-9.651000022888184,-1.2859500646591187,0.9289500713348389
1757088611281231400,8.5082314453125,-9.682050704956055,-1.284000039100647,0.9559500217437744
1757088611290784300,8.5177841796875,-9.688950538635254,-1.2790501117706299,0.9769500494003296
1757088611300337200,8.527337158203125,-9.655950546264648,-1.270050048828125,0.9889500737190247
1757088611309890300,8.536890380859376,-9.643950462341309,-1.2720000743865967,0.9790500402450562
1757088611319443200,8.546443115234375,-9.634050369262695,-1.26705002784729,0.9960000514984131
1757088611328996400,8.555996337890624,-9.631950378417969,-1.2790501117706299,1.051050066947937
1757088611338549200,8.56554931640625,-9.652950286865234,-1.3200000524520874,0.9670500755310059
1757088611348102100,8.57510205078125,-9.685050010681152,-1.324950098991394,0.9720000624656677
1757088611357655000,8.584655029296876,-9.687000274658203,-1.339050054550171,0.9790500402450562
1757088611367208200,8.594208251953125,-9.691950798034668,-1.297950029373169,1.055999994277954
1757088611376761000,8.603760986328124,-9.709050178527832,-1.2480000257492065,1.128000020980835
1757088611386314200,8.613314208984375,-9.694050788879395,-1.2820500135421753,1.0900501012802124
1757088611395867100,8.6228671875,-9.618000030517578,-1.2790501117706299,1.1230500936508179
1757088611405420000,8.632419921875,-9.59595012664795,-1.3290001153945923,1.072950005531311
1757088611414973200,8.64197314453125,-9.58905029296875,-1.3920000791549683,1.0390501022338867
1757088611424526000,8.651526123046875,-9.582000732421875,-1.324950098991394,1.0180500745773315
1757088611434079000,8.661078857421876,-9.58905029296875,-1.2910500764846802,1.0030500888824463
1757088611443632000,8.670632080078125,-9.646050453186035,-1.1740500926971436,1.0180500745773315
1757088611453185300,8.680185302734374,-9.673050880432129,-1.1470500230789185,1.0180500745773315
1757088611462738200,8.68973828125,-9.664950370788574,-1.228950023651123,1.0249500274658203
1757088611472291000,8.699291015625,-9.667950630187988,-1.270050048828125,1.072950005531311
1757088611481844000,8.708843994140626,-9.634050369262695,-1.168950080871582,1.1179500818252563
1757088611491396900,8.71839697265625,-9.634050369262695,-1.1929500102996826,1.0870500802993774
1757088611500949800,8.72794970703125,-9.61500072479248,-1.2460500001907349,1.0969500541687012
1757088611510503000,8.7375029296875,-9.61305046081543,-1.2649500370025635,1.1020500659942627
1757088611520056000,8.74705615234375,-9.651000022888184,-1.2790501117706299,1.0920000076293945
1757088611529609000,8.75660888671875,-9.670050621032715,-1.3410000801086426,1.0320000648498535
1757088611539162000,8.766162109375,-9.694050788879395,-1.3890000581741333,0.9670500755310059
1757088611548714800,8.77571484375,-9.706050872802734,-1.4130001068115234,0.9169500470161438
1757088611558268000,8.785267822265626,-9.700950622558594,-1.3990501165390015,0.8959500193595886
1757088611567820800,8.79482080078125,-9.687000274658203,-1.3729500770568848,0.8809500336647034
1757088611577373700,8.804373779296874,-9.670050621032715,-1.3579500913619995,0.8550000190734863
1757088611586926800,8.8139267578125,-9.652950286865234,-1.3560000658035278,0.7980000376701355
1757088611596480000,8.82347998046875,-9.658050537109375,-1.3650000095367432,0.7639500498771667
1757088611606033000,8.833032958984376,-9.646050453186035,-1.3489500284194946,0.703950047492981
1757088611615585800,8.842585693359375,-9.64905071258545,-1.3320000171661377,0.6990000605583191
1757088611625138700,8.852138671875,-9.655950546264648,-1.308000087738037,0.6799500584602356
1757088611634691600,8.861691650390625,-9.667950630187988,-1.270050048828125,0.6630000472068787
1757088611644244700,8.87124462890625,-9.670050621032715,-1.2940500974655151,0.661050021648407
1757088611653798000,8.8807978515625,-9.673050880432129,-1.2550500631332397,0.6949500441551208
1757088611663350800,8.890350830078125,-9.664950370788574,-1.2169500589370728,0.6919500231742859
1757088611672903700,8.899903564453124,-9.634050369262695,-1.1710500717163086,0.7230000495910645
1757088611682456600,8.90945654296875,-9.655950546264648,-1.0780500173568726,0.7540500164031982
1757088611692009700,8.919009765625,-9.546000480651855,-1.1470500230789185,0.8380500674247742
1757088611701562600,8.928562744140624,-9.667950630187988,-1.2499500513076782,0.7069500088691711
1757088611711115500,8.938115478515625,-9.63900089263916,-1.1069999933242798,0.6589500308036804
1757088611720668700,8.947668701171875,-9.559950828552246,-1.1500500440597534,0.45000001788139343
1757088611730221600,8.9572216796875,-9.574050903320312,-1.210050106048584,0.7860000133514404
1757088611739774700,8.966774658203125,-9.673050880432129,-1.2859500646591187,0.7380000352859497
1757088611749327600,8.97632763671875,-9.63705062866211,-1.2190500497817993,0.7860000133514404
1757088611758880500,8.985880615234375,-9.642000198364258,-1.2649500370025635,0.8500500321388245
1757088611768433400,8.995433349609375,-9.658050537109375,-1.3339500427246094,0.8290500640869141
1757088611777986600,9.004986572265626,-9.642000198364258,-1.3699500560760498,0.8479500412940979
1757088611787539700,9.014539794921875,-9.658050537109375,-1.3870500326156616,1.0300500392913818
1757088611797092600,9.024092529296874,-9.733050346374512,-1.4610000848770142,0.931950032711029
1757088611806645500,9.0336455078125,-9.784950256347656,-1.3530000448226929,0.7860000133514404
1757088611816198400,9.043198486328125,-9.700950622558594,-1.324950098991394,0.7830000519752502
1757088611825751300,9.052751220703126,-9.709050178527832,-1.300950050354004,0.7980000376701355
1757088611835304200,9.06230419921875,-9.607950210571289,-1.3099501132965088,0.8880000710487366
1757088611844857300,9.071857421875,-9.570000648498535,-1.3609501123428345,0.9409500360488892
1757088611854410500,9.081410400390626,-9.5910005569458,-1.3150500059127808,0.987000048160553
1757088611863963400,9.09096337890625,-9.610050201416016,-1.284000039100647,1.0230000019073486
1757088611873516300,9.100516357421874,-9.655950546264648,-1.2619500160217285,1.0080000162124634
1757088611883069200,9.110069091796875,-9.667950630187988,-1.2940500974655151,1.0080000162124634
1757088611892622300,9.119622314453125,-9.682050704956055,-1.321950078010559,1.055999994277954
1757088611902175200,9.12917529296875,-9.688950538635254,-1.3510500192642212,1.1059499979019165
1757088611911728400,9.138728271484375,-9.700950622558594,-1.3609501123428345,1.1299500465393066
1757088611921281300,9.14828125,-9.688950538635254,-1.363050103187561,1.141950011253357
1757088611930834400,9.15783447265625,-9.667950630187988,-1.3870500326156616,1.1299500465393066
1757088611940387300,9.16738720703125,-9.667950630187988,-1.4160000085830688,1.111050009727478
1757088611949940200,9.176940185546876,-9.664950370788574,-1.3200000524520874,1.26705002784729
1757088611959493000,9.1864931640625,-9.58395004272461,-1.3099501132965088,1.3819500207901
1757088611969046300,9.19604638671875,-9.58395004272461,-1.3200000524520874,1.1830500364303589
1757088611978599200,9.20559912109375,-9.62700080871582,-1.2360000610351562,1.1610000133514404
1757088611988152300,9.21515234375,-9.574050903320312,-1.2739500999450684,1.0800000429153442
1757088611997705200,9.224705322265624,-9.63705062866211,-1.297950029373169,0.8089500665664673
1757088612007258000,9.234258056640625,-9.760950088500977,-1.1470500230789185,0.6079500317573547
1757088612016811000,9.24381103515625,-9.670050621032715,-1.0230000019073486,0.9049500226974487
1757088612026364200,9.2533642578125,-9.652950286865234,-1.0009500980377197,0.9360000491142273
1757088612035917300,9.262917236328125,-9.667950630187988,-1.0300500392913818,0.9240000247955322
1757088612045470200,9.27247021484375,-9.63705062866211,-1.1359500885009766,1.0320000648498535
1757088612055023000,9.282023193359375,-9.688950538635254,-1.144950032234192,1.0699501037597656
1757088612064576000,9.291575927734375,-9.691950798034668,-1.1260499954223633,1.054050087928772
1757088612074129000,9.30112890625,-9.631950378417969,-1.1470500230789185,0.9409500360488892
1757088612083682000,9.31068212890625,-9.663000106811523,-1.075950026512146,0.8359500169754028
1757088612093235000,9.32023486328125,-9.663000106811523,-1.1590501070022583,0.7690500617027283
1757088612102788000,9.3297880859375,-9.652950286865234,-1.237950086593628,0.8020500540733337
1757088612112341000,9.339341064453125,-9.676950454711914,-1.1790000200271606,0.8770500421524048
1757088612121894000,9.348893798828126,-9.715950012207031,-1.1430000066757202,0.9600000381469727
1757088612131447000,9.358447021484375,-9.709050178527832,-1.068000078201294,1.0849500894546509
1757088612141000000,9.368,-9.712950706481934,-1.1380500793457031,1.141950011253357
1757088612150552800,9.377552734375,-9.712950706481934,-1.1569499969482422,1.2400500774383545
1757088612160106000,9.38710595703125,-9.562950134277344,-1.1880000829696655,1.377000093460083
1757088612169659000,9.396658935546874,-9.61305046081543,-1.3060500621795654,1.3030500411987305
1757088612179212000,9.4062119140625,-9.703950881958008,-1.3459500074386597,1.1020500659942627
1757088612188765000,9.415764892578125,-9.511950492858887,-1.3990501165390015,0.9670500755310059
1757088612198317800,9.42531787109375,-9.771000862121582,-1.4680501222610474,0.6420000195503235
1757088612207870700,9.43487060546875,-9.712950706481934,-1.549950122833252,0.7069500088691711
1757088612217423600,9.444423583984374,-9.502950668334961,-1.555050015449524,0.9790500402450562
1757088612226977000,9.45397705078125,-9.511950492858887,-1.533000111579895,1.39395010471344
1757088612236529700,9.46352978515625,-9.784950256347656,-1.546950101852417,1.4659500122070312
1757088612246082800,9.473082763671876,-9.84000015258789,-1.5709500312805176,1.4560500383377075
1757088612255635700,9.4826357421875,-9.586050033569336,-1.5709500312805176,1.4800500869750977
1757088612265188600,9.492188720703124,-9.643950462341309,-1.4040000438690186,1.489050030708313
1757088612274741500,9.501741455078125,-9.606000900268555,-1.3150500059127808,1.4130001068115234
1757088612284294700,9.511294677734375,-9.498000144958496,-1.3410000801086426,1.4059500694274902
1757088612293847600,9.52084765625,-9.58905029296875,-1.3170000314712524,1.603950023651123
1757088612303400700,9.530400634765625,-9.679950714111328,-1.2859500646591187,1.6429500579833984
1757088612312953600,9.53995361328125,-9.771000862121582,-1.3680000305175781,1.5010501146316528
1757088612322506800,9.5495068359375,-9.522000312805176,-1.420050024986267,1.2880500555038452
1757088612332059600,9.5590595703125,-9.27495002746582,-1.0420500040054321,1.6500000953674316
1757088612341612500,9.568612548828124,-9.382950782775879,-0.7480500340461731,1.7190001010894775
1757088612351165400,9.57816552734375,-9.426000595092773,-0.778950035572052,1.6140000820159912
1757088612360718600,9.587718505859375,-9.547950744628906,-0.9559500217437744,1.6360501050949097
1757088612370271500,9.597271484375,-9.606000900268555,-1.1190000772476196,1.6120500564575195
1757088612379824600,9.60682470703125,-9.736950874328613,-1.0660500526428223,1.6549500226974487
1757088612389377500,9.61637744140625,-9.699000358581543,-1.054050087928772,1.5280500650405884
1757088612398930400,9.625930419921875,-9.685050010681152,-1.1809500455856323,1.363050103187561
1757088612408483600,9.635483642578125,-9.691950798034668,-1.3489500284194946,1.3480501174926758
1757088612418036500,9.645036376953126,-9.574050903320312,-1.4640001058578491,1.437000036239624
1757088612427589600,9.654589599609375,-9.457050323486328,-1.3729500770568848,1.5610500574111938
1757088612437142500,9.664142578125,-9.382950782775879,-1.1980500221252441,1.5010501146316528
1757088612446695400,9.6736953125,-9.369000434875488,-1.1329500675201416,1.4059500694274902
1757088612456248300,9.683248291015625,-9.58905029296875,-1.339050054550171,1.0470000505447388
1757088612465801200,9.69280126953125,-9.804000854492188,-1.546950101852417,0.6349500417709351
1757088612475354400,9.702354248046875,-9.814050674438477,-1.7440500259399414,0.6850500106811523
1757088612484907300,9.7119072265625,-10.503000259399414,-0.9439500570297241,1.6429500579833984
1757088612494460400,9.72146044921875,-8.860950469970703,-1.4970000982284546,1.758000135421753
1757088612504013300,9.731013427734375,-9.523950576782227,-1.4080500602722168,1.5370501279830933
1757088612513566200,9.740566162109374,-9.86400032043457,-1.2000000476837158,1.7500500679016113
1757088612523119400,9.750119384765625,-10.438950538635254,2.089050054550171,3.0580501556396484
1757088612532672300,9.75967236328125,-8.656949996948242,1.7440500259399414,2.751000165939331
1757088612542225200,9.76922509765625,-7.944000244140625,-3.8479502201080322,1.0300500392913818
1757088612551778300,9.7787783203125,-9.61500072479248,-5.224950313568115,0.15105000138282776
1757088612561331200,9.788331298828124,-11.124000549316406,-2.0530500411987305,1.1329500675201416
1757088612570884000,9.797884033203125,-8.803950309753418,-1.1710500717163086,2.196000099182129
1757088612580437200,9.807437255859375,-9.586050033569336,-0.7980000376701355,2.7870001792907715
1757088612589990100,9.816990234375,-11.109000205993652,0.5389500260353088,2.2320001125335693
1757088612599543000,9.82654296875,-8.140049934387207,-0.037050001323223114,1.0609500408172607
1757088612609096200,9.83609619140625,-8.527950286865234,-1.0470000505447388,2.3080501556396484
1757088612618649000,9.845649169921876,-9.282000541687012,-0.999000072479248,3.0649502277374268
1757088612628202200,9.8552021484375,-9.32805061340332,-0.13005000352859497,2.502000093460083
1757088612637755100,9.864755126953124,-9.594000816345215,-0.05295000225305557,2.1480000019073486
1757088612647308000,9.87430810546875,-9.90000057220459,-1.858950138092041,2.5530002117156982
1757088612656861000,9.88386083984375,-10.231050491333008,-2.4120001792907715,2.8369500637054443
1757088612666413800,9.893413818359376,-10.152000427246094,-1.858950138092041,2.5909500122070312
1757088612675967000,9.902967041015625,-10.16295051574707,-1.8660000562667847,2.742000102996826
1757088612685520000,9.912519775390624,-10.213950157165527,-1.0060499906539917,2.2129499912261963
1757088612695072800,9.92207275390625,-9.730050086975098,-0.5629500150680542,1.2619500160217285
1757088612704626000,9.9316259765625,-9.004950523376465,-0.3450000286102295,1.7050501108169556
1757088612714179000,9.941178955078126,-9.115050315856934,-1.0249500274658203,1.9060500860214233
1757088612723732000,9.95073193359375,-10.4839506149292,-0.9420000314712524,0.7879500389099121
1757088612733284900,9.960284912109374,-10.293000221252441,-0.2659500241279602,1.168950080871582
1757088612742838000,9.969838134765626,-9.445050239562988,-0.6180000305175781,2.2890000343322754
1757088612752391000,9.979390869140625,-9.064050674438477,-0.9370500445365906,2.074050188064575
1757088612761943800,9.98894384765625,-8.806050300598145,-1.1640000343322754,1.7940000295639038
1757088612771496700,9.99849658203125,-8.916000366210938,-1.2859500646591187,1.8610501289367676
1757088612781049900,10.0080498046875,-9.418950080871582,-0.8460000157356262,1.0420500040054321
1757088612790602800,10.017602783203126,-9.661050796508789,-0.48405003547668457,0.8070000410079956
1757088612800155600,10.02715576171875,-9.925950050354004,-0.6850500106811523,1.3480501174926758
1757088612809708500,10.03670849609375,-9.898050308227539,-1.207050085067749,1.908000111579895
1757088612819261700,10.04626171875,-10.020000457763672,-1.2169500589370728,1.3150500059127808
1757088612828814800,10.05581494140625,-9.523950576782227,-1.2049500942230225,1.5010501146316528
1757088612838367700,10.06536767578125,-9.265950202941895,-1.6189501285552979,2.2870500087738037
1757088612847920600,10.074920654296875,-9.490950584411621,-1.8850500583648682,1.8679500818252563
1757088612857473500,10.0844736328125,-9.646050453186035,-2.136000156402588,1.8439500331878662
1757088612867026400,10.0940263671875,-9.919050216674805,-2.0329501628875732,2.3110501766204834
1757088612876579600,10.10357958984375,-10.099050521850586,-1.984950065612793,1.4299501180648804
1757088612886132500,10.113132568359376,-10.080000877380371,-1.9830000400543213,1.1899501085281372
1757088612895685600,10.122685546875,-10.282950401306152,-1.519050121307373,1.2880500555038452
1757088612905238500,10.132238525390624,-9.961950302124023,-1.068000078201294,1.4989501237869263
1757088612914791400,10.14179150390625,-9.643950462341309,-0.9300000667572021,1.7479500770568848
1757088612924344300,10.15134423828125,-9.394950866699219,-0.8340000510215759,1.6500000953674316
1757088612933897500,10.1608974609375,-9.196050643920898,-0.42000001668930054,1.5660001039505005
1757088612943450400,10.170450439453125,-8.965950012207031,-0.13005000352859497,1.5130500793457031
1757088612953003500,10.18000341796875,-9.213000297546387,-0.09405000507831573,1.5109500885009766
1757088612962556400,10.189556396484376,-9.301950454711914,0.20400001108646393,1.3890000581741333
1757088612972109600,10.199109619140625,-9.582000732421875,0.33105000853538513,1.3579500913619995
1757088612981662500,10.208662353515624,-9.664950370788574,0.45795002579689026,1.7190001010894775
1757088612991215400,10.21821533203125,-9.373050689697266,0.36900001764297485,1.9399501085281372
1757088613000768300,10.227768310546875,-9.354000091552734,0.2880000174045563,1.4179500341415405
1757088613010321200,10.237321044921876,-9.5910005569458,-0.1080000028014183,1.1209501028060913
1757088613019874300,10.246874267578125,-9.928950309753418,-1.4659500122070312,1.4029500484466553
1757088613029427500,10.256427490234374,-9.928950309753418,-3.642000198364258,2.5570502281188965
1757088613038980400,10.26598046875,-9.507000923156738,-4.624050140380859,3.6349501609802246
1757088613048533200,10.275533203125,-9.433050155639648,-4.99500036239624,4.342950344085693
1757088613058086100,10.285086181640626,-10.120050430297852,-4.867950439453125,3.630000114440918
1757088613067639000,10.29463916015625,-10.563000679016113,-4.605000019073486,2.641050100326538
1757088613077192200,10.304192138671874,-10.357050895690918,-4.380000114440918,2.9569501876831055
1757088613086745000,10.3137451171875,-9.928950309753418,-3.8460001945495605,2.1739501953125
1757088613096298000,10.323298095703125,-8.689050674438477,-3.690000057220459,0.4549500346183777
1757088613105851100,10.33285107421875,-10.177950859069824,-2.3929500579833984,-0.13500000536441803
1757088613115404300,10.342404296875,-9.850050926208496,-1.5229500532150269,0.43800002336502075
1757088613124957000,10.35195703125,-9.976950645446777,-0.597000002861023,1.971000075340271
1757088613134510000,10.361510009765626,-9.727950096130371,0.0799500048160553,2.0089499950408936
1757088613144063200,10.371063232421875,-9.117000579833984,0.09405000507831573,3.1249501705169678
1757088613153616400,10.380616455078124,-9.045000076293945,0.13199999928474426,5.662950038909912
1757088613163169000,10.3901689453125,-9.153000831604004,-0.17100000381469727,6.811950206756592
1757088613172722000,10.399721923828125,-8.947050094604492,-1.0369499921798706,6.201000213623047
1757088613182275000,10.409275146484376,-8.835000038146973,-2.281949996948242,5.181000232696533
1757088613191828000,10.418827880859375,-8.020950317382812,-3.5299501419067383,5.854050159454346
1757088613201380900,10.428380859375,-8.204999923706055,-4.164000034332275,6.142050266265869
1757088613210933800,10.437933837890625,-8.194950103759766,-5.328000068664551,6.208950519561768
1757088613220487000,10.44748681640625,-6.730050086975098,-6.115950107574463,5.422950267791748
1757088613230040000,10.4570400390625,-4.82895040512085,-4.7820000648498535,4.966050148010254
1757088613239593000,10.466593017578125,-4.084050178527832,-1.4440500736236572,6.6850504875183105
1757088613249145900,10.476145751953124,-3.8830502033233643,0.3360000252723694,7.963950157165527
1757088613258698800,10.48569873046875,-4.669050216674805,-0.6210000514984131,7.906050205230713
1757088613268251600,10.495251708984375,-8.952000617980957,-3.541950225830078,7.849050521850586
1757088613277804500,10.504804443359374,-9.27495002746582,-3.6570000648498535,8.430000305175781
1757088613287357700,10.514357666015625,-7.882050514221191,-7.264950275421143,7.497000217437744
1757088613296910800,10.523910888671875,-2.91795015335083,-9.80505084991455,9.268050193786621
1757088613306463700,10.533463623046876,-0.04305000230669975,-7.786950588226318,13.741050720214844
1757088613316016600,10.5430166015625,-1.50600004196167,-4.8949503898620605,13.53795051574707
1757088613325569500,10.552569580078124,-1.6350001096725464,-2.187000036239624,11.095050811767578
1757088613335122700,10.562122802734375,-4.393050193786621,-0.5130000114440918,9.268050193786621
1757088613344675600,10.571675537109375,-3.8550002574920654,-4.147950172424316,4.006050109863281
1757088613354228500,10.581228515625,-7.687950134277344,-6.037050247192383,3.8770501613616943
1757088613363781600,10.59078173828125,-7.630050182342529,-7.1449503898620605,4.219050407409668
1757088613373334800,10.600334716796874,-10.039050102233887,-7.267050266265869,2.7300000190734863
1757088613382887700,10.6098876953125,-9.594000816345215,-6.97005033493042,2.623950242996216
1757088613392440600,10.619440673828125,-7.747950553894043,-4.150050163269043,5.466000080108643
1757088613401993500,10.628993408203126,-7.834050178527832,-3.373950242996216,6.292050361633301
1757088613411546600,10.638546630859375,-7.506000518798828,-3.7140002250671387,6.880950450897217
1757088613421099500,10.648099609375,-8.28600025177002,-4.035000324249268,7.012950420379639
1757088613430652700,10.657652587890626,-8.467950820922852,-4.990050315856934,6.790050506591797
1757088613440205600,10.66720556640625,-6.064050197601318,-5.497950077056885,7.516050338745117
1757088613449758500,10.676758544921874,-1.7880001068115234,-5.328000068664551,9.253950119018555
1757088613459311600,10.6863115234375,1.01895010471344,-5.308950424194336,9.418950080871582
1757088613468864300,10.6958642578125,3.1330502033233643,-5.152950286865234,10.794000625610352
1757088613478417400,10.70541748046875,3.4020001888275146,-4.794000148773193,11.10300064086914
1757088613487970300,10.71497021484375,1.2559500932693481,-4.531050205230713,11.620050430297852
1757088613497523200,10.724523193359374,-2.041949987411499,-4.969050407409668,13.044000625610352
1757088613507076400,10.734076416015625,-5.989950180053711,-6.130050182342529,15.261000633239746
1757088613516629200,10.743629150390625,-10.135050773620605,-5.557950496673584,16.13504981994629
1757088613526182100,10.75318212890625,-10.402950286865234,-4.027950286865234,16.255050659179688
1757088613535735300,10.7627353515625,-9.475950241088867,-3.283050060272217,15.54900074005127
1757088613545288200,10.7722880859375,-8.381999969482422,-3.1710002422332764,12.915000915527344
1757088613554841000,10.781841064453126,-6.889950275421143,-3.5080502033233643,9.907950401306152
1757088613564394200,10.791394287109375,-5.9569501876831055,-4.150050163269043,9.151050567626953
1757088613573947100,10.800947021484374,-5.689050197601318,-4.252950191497803,10.129950523376465
1757088613583500300,10.810500244140625,-4.831050395965576,-4.15500020980835,9.345000267028809
1757088613593053200,10.82005322265625,-3.7990500926971436,-3.8749501705169678,9.004950523376465
1757088613602606000,10.829606201171876,-2.860950231552124,-3.322050094604492,9.051000595092773
1757088613612159200,10.8391591796875,-1.0800000429153442,-2.9190001487731934,9.771000862121582
1757088613621712100,10.848712158203124,1.158000111579895,-3.0460500717163086,11.16195011138916
1757088613631265300,10.858265380859375,2.1760501861572266,-2.7780001163482666,12.609000205993652
1757088613640818200,10.867818115234375,2.9830501079559326,-3.063000202178955,13.569000244140625
1757088613650371000,10.87737109375,3.526050090789795,-3.3889501094818115,14.422950744628906
1757088613659924000,10.886924072265625,3.793950080871582,-2.9479501247406006,14.47605037689209
1757088613669477000,10.89647705078125,3.853950262069702,-2.3809502124786377,13.411050796508789
1757088613679030000,10.906030029296875,3.7510502338409424,-2.104950189590454,11.919000625610352
1757088613688583200,10.915583251953125,4.005000114440918,-1.4419500827789307,11.170050621032715
1757088613698136000,10.925135986328126,4.759050369262695,-0.5800500512123108,11.119050979614258
1757088613707689000,10.93468896484375,6.0420002937316895,-0.36705002188682556,10.782000541687012
1757088613717241900,10.944241943359375,5.997000217437744,-1.1910001039505005,10.213950157165527
1757088613726794800,10.953794677734376,5.026950359344482,-1.7820000648498535,9.622950553894043
1757088613736347600,10.96334765625,3.96405029296875,-1.9969501495361328,8.89995002746582
1757088613745900800,10.97290087890625,3.1429500579833984,-1.9950001239776611,8.292000770568848
1757088613755453700,10.98245361328125,2.8939502239227295,-1.9350000619888306,7.807950496673584
1757088613765006800,10.9920068359375,3.0949501991271973,-1.7869501113891602,7.0849504470825195
1757088613774559700,11.001559814453126,3.5190000534057617,-1.6500000953674316,6.268050193786621
1757088613784112600,11.011112548828125,3.967050075531006,-1.576050043106079,5.778000354766846
1757088613793665800,11.020665771484374,4.651050090789795,-1.7749500274658203,4.582950115203857
1757088613803218700,11.03021875,5.164050102233887,-1.6189501285552979,3.1459500789642334
1757088613812771600,11.039771484375,5.509050369262695,-1.26705002784729,2.5309500694274902
1757088613822324700,11.04932470703125,5.704950332641602,-0.9889500737190247,2.205000162124634
1757088613831877600,11.058877685546875,5.596950054168701,-0.7120500206947327,1.702950119972229
1757088613841430800,11.0684306640625,5.133000373840332,-0.36705002188682556,1.3050000667572021
1757088613850983700,11.077983642578126,4.675050258636475,-0.08895000070333481,1.1179500818252563
1757088613860536600,11.08753662109375,4.162950038909912,0.24000000953674316,1.0870500802993774
1757088613870089700,11.09708984375,3.496950149536133,0.7260000109672546,0.8380500674247742
1757088613879642600,11.106642578125,2.6760001182556152,1.1119500398635864,0.3570000231266022
1757088613889195800,11.11619580078125,1.9270501136779785,1.3990501165390015,-0.11100000888109207
1757088613898748700,11.125748779296876,1.1010000705718994,0.9300000667572021,-0.286050021648407
1757088613908301600,11.135301513671875,0.697950005531311,0.07500000298023224,-0.2070000171661377
1757088613917854500,11.1448544921875,5.2759504318237305,-0.5130000114440918,9.204000473022461
1757088613927407400,11.154407470703125,5.568000316619873,-0.5149500370025635,13.747950553894043
1757088613936960500,11.16396044921875,6.7510504722595215,-0.10395000129938126,15.886051177978516
1757088613946513400,11.173513427734376,8.812950134277344,0.2639999985694885,15.076951026916504
1757088613956066600,11.183066650390625,8.638050079345703,-0.22800001502037048,10.30305004119873
1757088613965619500,11.192619384765624,10.741950035095215,1.492050051689148,5.19795036315918
1757088613975172400,11.20217236328125,9.499950408935547,3.1180500984191895,0.775950014591217
1757088613984725500,11.2117255859375,8.443950653076172,6.267000198364258,-4.359000205993652
1757088613994278100,11.221278076171876,11.178000450134277,5.19195032119751,-5.74500036239624
1757088614013384200,11.24038427734375,10.807050704956055,6.789000511169434,-6.933000564575195
1757088614022937300,11.249937255859376,9.784950256347656,5.629950046539307,-3.3199501037597656
1757088614032490200,11.259490234375,8.965950012207031,3.8269500732421875,-0.208950012922287
1757088614042043100,11.269043212890624,8.046000480651855,2.8309500217437744,1.3459500074386597
1757088614051596300,11.27859619140625,7.225050449371338,2.3209500312805176,2.3110501766204834
1757088614061149200,11.288149169921875,7.34505033493042,2.055000066757202,2.632050037384033
1757088614070702300,11.297702392578126,7.932000160217285,2.3020501136779785,1.912950038909912
1757088614080255200,11.307255126953125,8.937000274658203,2.824050188064575,0.8670000433921814
1757088614089808400,11.316808349609374,9.873000144958496,3.24495005607605,0.1099500060081482
1757088614099361300,11.326361328125,10.612950325012207,3.4099502563476562,-0.33195000886917114
1757088614108914200,11.3359140625,10.963050842285156,3.3889501094818115,-0.44700002670288086
1757088614118467000,11.345467041015626,10.869000434875488,3.2160000801086426,-0.44700002670288086
1757088614128020000,11.35502001953125,10.516950607299805,2.9790000915527344,-0.22605000436306
1757088614137572900,11.36457275390625,10.098000526428223,2.8279502391815186,0.022050000727176666
1757088614147126000,11.3741259765625,9.616950035095215,2.6730000972747803,0.15300001204013824
1757088614156679200,11.38367919921875,9.34695053100586,2.5699501037597656,0.17295001447200775
1757088614166232000,11.393232177734374,9.217050552368164,2.565000057220459,0.18900001049041748
1757088614175785000,11.402784912109375,9.247950553894043,2.5890002250671387,0.1870500147342682
1757088614185337900,11.412337890625,9.270000457763672,2.6080501079559326,0.11505000293254852
1757088614194890800,11.421890869140626,9.277050018310547,2.5219500064849854,-0.06599999964237213
1757088614204444000,11.43144384765625,9.172050476074219,2.428950071334839,-0.2670000195503235
1757088614213997000,11.4409970703125,8.952000617980957,2.4190502166748047,-0.3049500286579132
1757088614223549700,11.4505498046875,8.908050537109375,2.5960500240325928,-0.3169500231742859
1757088614233102800,11.460102783203125,9.004050254821777,2.826000213623047,-0.4440000355243683
1757088614242656000,11.469656005859376,9.16200065612793,2.9410500526428223,-0.5590500235557556
1757088614252209000,11.479208984375,9.307950019836426,2.8999500274658203,-0.5539500117301941
1757088614261761800,11.48876171875,9.880950927734375,2.6989500522613525,-0.33195000886917114
1757088614271314700,11.498314697265625,9.16200065612793,3.0769500732421875,-0.6330000162124634
1757088614280867800,11.507867919921875,8.953950881958008,3.115950107574463,-0.7630500197410583
1757088614290420700,11.517420654296876,8.860950469970703,2.9670002460479736,-0.7870500087738037
1757088614299974000,11.526973876953125,9.032999992370605,2.803950071334839,-0.4630500078201294
1757088614309526800,11.53652685546875,9.375,2.8980002403259277,-0.12300000339746475
