time,seconds_elapsed,gyro_x,gyro_y,gyro_z,acc_x,acc_y,acc_z,grav_x,grav_y,grav_z
1757088602865042000,0.0920419921875,2.3578500747680664,-5.471950054168701,1.5061750411987305,-1.1096830368041992,0.4265570044517517,8.551485061645508,8.088807106018066,-3.1092898845672607,-4.590631008148193
1757088602874594800,0.1015947265625,2.4946625232696533,-5.811574935913086,1.701562523841858,-1.4431389570236206,-0.0994250029325485,8.421724319458008,8.103445053100586,-3.0973570346832275,-4.571332931518555
1757088602884148000,0.11114794921875,2.6082375049591064,-6.181725025177002,1.9178500175476076,-2.0616610050201416,-0.8146539926528931,8.178197860717773,8.132368087768555,-3.0726470947265625,-4.530282020568848
1757088602893700900,0.120700927734375,2.726762533187866,-6.582537651062012,2.169475078582764,-2.964379072189331,-1.4696290493011477,7.705904006958008,8.174942970275879,-3.0342230796813965,-4.464777946472168
1757088602903254000,0.13025390625,2.886812448501587,-7.09197473526001,2.437050104141236,-4.028219223022461,-2.0125739574432373,7.094618797302246,8.230244636535645,-2.9811019897460938,-4.371583938598633
1757088602912807000,0.139806884765625,3.095674991607666,-7.645412445068359,2.700912475585937,-5.179969787597656,-2.850881099700928,6.501893043518066,8.296806335449219,-2.912403106689453,-4.247196197509766
1757088602922359800,0.14935986328125,3.325437545776367,-8.035087585449219,2.963675022125244,-6.286399841308594,-4.141018867492676,5.987086772918701,8.372359275817871,-2.827441930770874,-4.088809013366699
1757088602931913000,0.158912841796875,3.5795373916625977,-7.845749855041504,3.1675875186920166,-9.017366409301758,-5.648314952850342,5.399073123931885,8.453852653503418,-2.726016044616699,-3.896351099014282
1757088602941465900,0.1684658203125,3.904449939727783,-8.09737491607666,3.07229995727539,-9.403023719787598,-6.730165004730225,5.272127151489258,8.53559398651123,-2.632508993148804,-3.65217399597168
1757088602951018800,0.178018798828125,4.015687465667725,-8.391900062561035,3.1688249111175537,-7.422551155090332,-6.915065765380859,6.13276481628418,8.616358757019043,-2.525567054748535,-3.3711800575256348
1757088602960572000,0.187572021484375,4.0694499015808105,-8.11813735961914,3.547637462615967,-6.502779960632324,-6.602047920227051,5.793954849243164,8.693154335021973,-2.4049460887908936,-3.054331064224243
1757088602970124800,0.197124755859375,4.153737545013428,-7.981325149536133,3.9385499954223633,-6.253585815429688,-7.0266947746276855,4.884076118469238,8.762995719909668,-2.270514965057373,-2.7021639347076416
1757088602979677700,0.206677734375,4.284362316131592,-7.761462688446045,4.3526997566223145,-6.334342956542969,-6.915495872497559,3.5056231021881104,8.817243576049805,-2.14188289642334,-2.301424980163574
1757088602989230800,0.21623095703125,4.409074783325195,-7.509837627410889,4.725325107574463,-6.624032020568848,-6.709574222564697,3.117219924926758,8.8513765335083,-2.01971697807312,-1.8551679849624636
1757088602998783700,0.22578369140625,4.422412395477295,-7.2555999755859375,5.055187702178955,-7.12301778793335,-7.196589946746826,3.704106092453003,8.870835304260254,-1.8864879608154297,-1.3801939487457275
1757088603008336600,0.235336669921875,4.346787452697754,-6.851212501525879,5.323999881744385,-7.83604097366333,-7.974600791931152,4.196246147155762,8.874227523803711,-1.7428499460220337,-0.8787090182304382
1757088603027442700,0.254442626953125,3.980212450027466,-5.689475059509277,5.381337642669678,-10.332980155944824,-8.223835945129395,4.868166923522949,8.831133842468262,-1.4286459684371948,0.1923030018806457
1757088603036995800,0.263995849609375,3.729825019836426,-5.129849910736084,5.221287250518799,-10.598706245422363,-7.844923973083496,5.381400108337402,8.784826278686523,-1.2608449459075928,0.7565190196037292
1757088603046548700,0.273548828125,3.338774919509888,-4.305262565612793,4.9977126121521,-11.169443130493164,-7.3079352378845215,5.837369918823242,8.723722457885742,-1.0872119665145874,1.3356460332870483
1757088603056101600,0.2831015625,3.0590999126434326,-3.6027750968933105,4.663037300109863,-11.308610916137695,-6.171800136566162,5.124323844909668,8.649460792541504,-0.9089720249176024,1.9269620180130005
1757088603065654800,0.29265478515625,2.765812397003174,-2.7439498901367188,4.2928876876831055,-12.06605339050293,-5.744250774383545,5.3695878982543945,8.549951553344727,-0.739022970199585,2.5081470012664795
1757088603075208000,0.3022080078125,2.413949966430664,-1.9962249994277956,3.790737390518189,-12.767498016357422,-5.361971855163574,5.360931873321533,8.428010940551758,-0.5790560245513916,3.0742359161376958
1757088603084760600,0.311760498046875,2.0878000259399414,-1.505074977874756,3.249537467956543,-12.924358367919922,-4.496662139892578,3.28735899925232,8.286017417907715,-0.4308170080184936,3.620904922485352
1757088603094313700,0.321313720703125,2.042562484741211,-1.0004500150680542,2.770624876022339,-12.69296646118164,-3.69046688079834,0.5068759918212891,8.126789093017578,-0.2967619895935058,4.143392086029053
1757088603103867000,0.330866943359375,2.068274974822998,-0.4824874997138977,2.297762393951416,-12.744150161743164,-3.58267593383789,1.460595965385437,7.953833103179932,-0.1793649941682815,4.636681079864502
1757088603113419800,0.340419677734375,1.877699971199036,-0.2320999950170517,1.820087432861328,-12.738126754760742,-3.338320016860962,2.7176930904388428,7.770505905151367,-0.0800329968333244,5.097161769866943
1757088603122972700,0.34997265625,1.601599931716919,-0.2748624980449676,1.4169374704360962,-12.178581237792969,-2.767595052719116,3.1868550777435303,7.57983922958374,0.0008730000117793,5.524776935577393
1757088603132525800,0.35952587890625,1.2753125429153442,-0.3957250118255615,1.124887466430664,-11.25511360168457,-2.273432970046997,3.608367919921875,7.387163162231445,0.0880969986319542,5.902101993560791
1757088603142078700,0.36907861328125,0.9589250087738036,-0.2699125111103058,0.8904500007629395,-11.324045181274414,-2.433320999145508,3.548029899597168,7.194243907928467,0.1607809960842132,6.243591785430908
1757088603151631600,0.378631591796875,0.6852999925613403,0.1039500012993812,0.5421624779701233,-11.97585678100586,-3.082573890686035,3.2514588832855225,7.005561828613281,0.2187300026416778,6.549091815948486
1757088603161184800,0.388184814453125,0.5020124912261963,0.5583875179290771,0.2452999949455261,-11.092437744140623,-3.954190969467163,2.2438950538635254,6.82587194442749,0.2616750001907348,6.817814826965332
1757088603170737700,0.397737548828125,0.4030124843120575,0.9432500004768372,0.0034374999813735,-11.275250434875488,-5.229234218597412,1.060217022895813,6.665288925170898,0.3089280128479004,7.035377025604248
1757088603180290800,0.407290771484375,0.3786749839782715,1.3316874504089355,-0.4999499917030334,-15.761842727661133,-6.434321880340576,0.0770599991083145,6.52983283996582,0.359811007976532,7.2036662101745605
1757088603189843700,0.41684375,0.4837250113487243,1.5003999471664429,-1.1046749353408811,-14.682418823242188,-6.126068115234375,-1.553339958190918,6.414699077606201,0.3946349918842315,7.33892297744751
1757088603199396900,0.42639697265625,0.6632999777793884,1.1948750019073486,-1.122962474822998,-8.86670970916748,-5.530066967010498,-1.6200480461120603,6.320061206817627,0.4133119881153106,7.444180965423584
1757088603208949800,0.43594970703125,0.7182999849319458,0.568149983882904,-0.7027624845504761,-5.761478900909424,-5.505898952484131,0.0477060005068779,6.23339319229126,0.4007500112056732,7.532610893249512
1757088603218502700,0.445502685546875,0.6437749862670898,-0.135574996471405,-0.2470874935388565,-5.959121227264404,-5.15160083770752,0.877498984336853,6.15069580078125,0.362064003944397,7.608838081359863
1757088603228055800,0.455055908203125,0.5582500100135803,-0.5680124759674072,-0.0515624992549419,-7.913829803466797,-4.634389877319336,0.6772890090942383,6.066133975982666,0.3007799983024597,7.678120136260986
1757088603237608700,0.464608642578125,0.5202999711036682,-0.6375874876976013,-0.0283249989151954,-8.037461280822754,-4.480205059051514,-0.1233099997043609,5.977053165435791,0.2175749987363815,7.742711067199707
1757088603247161900,0.474161865234375,0.5875374674797058,-0.4947249889373779,0.0082499999552965,-6.738982200622559,-2.8083438873291016,-0.7192370295524597,5.899172782897949,0.1274559944868087,7.795938968658447
1757088603256714800,0.48371484375,0.572825014591217,-0.4336749911308288,0.1463000029325485,-5.423958778381348,-3.0606911182403564,-0.373412013053894,5.8170318603515625,0.0206920001655817,7.846413135528564
1757088603266267600,0.493267578125,0.5374875068664551,-0.4042499959468841,0.3345375061035156,-3.300199031829834,-3.5831620693206787,-1.190606951713562,5.733935832977295,-0.103083997964859,7.892302989959717
1757088603275820800,0.50282080078125,0.5680124759674072,-0.3834874927997589,0.4883999824523926,-4.139978885650635,-4.626296043395996,-2.7532548904418945,5.656134128570557,-0.2300840020179748,7.933475971221924
1757088603285374000,0.5123740234375,0.6595875024795532,-0.1575749963521957,0.3845874965190887,-6.210184097290039,-3.4858200550079346,-3.4637908935546875,5.582557201385498,-0.3594320118427276,7.970873832702637
1757088603294926800,0.5219267578125,0.822112500667572,0.1564749926328659,0.0609125010669231,-7.356480121612549,-3.012600898742676,-3.702385902404785,5.512138843536377,-0.4908899962902069,8.005158424377441
1757088603304479700,0.531479736328125,0.8368250131607056,0.4203374981880188,-0.1920875012874603,-6.020007133483887,-3.7292211055755615,-2.1201210021972656,5.430387020111084,-0.6395440101623535,8.039941787719727
1757088603314032600,0.54103271484375,0.8061624765396118,0.5326749682426453,-0.3276624977588653,-4.828104972839356,-5.090757846832275,-1.6759920120239258,5.340839862823486,-0.8063899874687195,8.071908950805664
1757088603323585800,0.550585693359375,0.769587516784668,0.6146249771118164,-0.4119499921798706,-4.413894176483154,-5.919968128204346,-1.6212760210037231,5.254967212677002,-0.9755449891090392,8.100187301635742
1757088603333138700,0.560138671875,0.9101125001907348,0.6121500134468079,-0.5451874732971191,-4.41395902633667,-4.167823791503906,-3.445267915725708,5.1621809005737305,-1.165958046913147,8.123151779174805
1757088603342691800,0.56969189453125,1.403599977493286,-0.1318625062704086,-0.8053374886512756,-3.656697034835816,-2.043529987335205,-5.224394798278809,5.067296981811523,-1.3624060153961182,8.14422607421875
1757088603352244700,0.57924462890625,1.880037546157837,-0.5631999969482422,-0.8908625245094299,-3.3329970836639404,-0.911382019519806,-5.957313060760498,4.966639041900635,-1.566741943359375,8.1646146774292
1757088603361798000,0.5887978515625,2.395662546157837,-0.8929250240325928,-1.026437520980835,-3.575658082962036,-0.4801079928874969,-6.689194202423096,4.85712194442749,-1.7808539867401123,8.18492317199707
1757088603371350800,0.598350830078125,2.916100025177002,-0.9198749661445618,-1.2464375495910645,-3.4013030529022217,-0.3431729972362518,-7.230241775512695,4.73662805557251,-2.005681037902832,8.20503044128418
1757088603380903700,0.607903564453125,3.221487522125244,-0.8428750038146973,-1.4405875205993652,-5.31492805480957,-0.941456973552704,-6.435072898864746,4.604290962219238,-2.240370035171509,8.22429370880127
1757088603390456800,0.617456787109375,3.300962448120117,-0.6474875211715698,-1.314774990081787,-6.48674201965332,-2.6323609352111816,-6.350165843963623,4.462187767028809,-2.4840199947357178,8.240884780883789
1757088603400009700,0.627009765625,3.2520124912261963,-0.0365750007331371,-0.4962374866008758,-5.894539833068848,-4.683263778686523,-6.30991792678833,4.315127849578857,-2.738722085952759,8.23493766784668
1757088603409563000,0.63656298828125,3.1152000427246094,0.7416750192642212,0.9550749659538268,-3.035801887512207,-5.337830066680908,-7.086367130279541,4.18596076965332,-2.9850010871887207,8.211018562316895
1757088603419115800,0.64611572265625,2.9233875274658203,0.2382874935865402,1.5171749591827393,-3.5726449489593506,-2.100614070892334,-5.496067047119141,4.0799970626831055,-3.223144054412842,8.167488098144531
1757088603428668700,0.655668701171875,2.8648123741149902,-0.550962507724762,1.6258000135421753,-3.1752419471740723,-1.016785979270935,-5.606154918670654,3.9959869384765625,-3.452341079711914,8.106668472290039
1757088603438221800,0.665221923828125,2.8232874870300293,-1.3877874612808228,1.403462529182434,-3.562019109725952,-0.1621900051832199,-5.497739791870117,3.913276910781861,-3.686405897140503,8.039244651794434
1757088603447774700,0.674774658203125,2.7328124046325684,-2.064562559127808,0.8817874789237976,-4.736647129058838,0.4663270115852356,-4.815445899963379,3.841201066970825,-3.915072917938232,7.9607439041137695
1757088603457327900,0.684327880859375,2.4824249744415283,-2.334612369537353,0.1683000028133392,-5.985683917999268,0.9556670188903807,-4.044857978820801,3.771122932434082,-4.137344837188721,7.876358985900879
1757088603466881000,0.693881103515625,2.344374895095825,-1.9754624366760252,-0.3851374983787536,-5.949814796447754,1.7309080362319946,-4.665743827819824,3.694612979888916,-4.366497039794922,7.787383079528809
1757088603476434000,0.703433837890625,2.3468499183654785,-0.7965375185012817,-0.3117125034332275,-3.70573091506958,1.4455729722976685,-5.11317777633667,3.614881992340088,-4.601694107055664,7.692436218261719
1757088603485986800,0.71298681640625,2.4409000873565674,0.8247249722480774,0.3601124882698059,-2.0536649227142334,1.29435396194458,-5.435628890991211,3.5381710529327397,-4.840744972229004,7.589591026306152
1757088603495539700,0.722539794921875,2.5984749794006348,1.880312442779541,1.041837453842163,-0.8364549875259399,1.6132019758224487,-5.839198112487793,3.4832260608673096,-5.067043781280518,7.473744869232178
1757088603505092900,0.7320927734375,2.8355250358581543,2.222412586212158,1.5012249946594238,-0.7726070284843445,2.152966022491455,-6.231010913848877,3.448889970779419,-5.278988838195801,7.346542835235596
1757088603514645800,0.741645751953125,3.1018624305725098,2.2357499599456787,1.6869875192642212,-0.9477890133857728,2.2594010829925537,-6.110229969024658,3.424509048461914,-5.492702960968018,7.2072978019714355
1757088603524199000,0.751198974609375,3.2924375534057617,2.075700044631958,1.6735124588012695,-1.6168140172958374,2.315972089767456,-5.411178112030029,3.4194509983062744,-5.689637184143066,7.057305812835693
1757088603533752000,0.760751953125,3.2850124835968018,1.9988374710083008,1.4194124937057495,-3.3901169300079346,1.3753149509429932,-3.7430338859558105,3.426114082336426,-5.884881019592285,6.894050121307373
1757088603543305000,0.770304931640625,3.336437463760376,1.3964500427246094,1.277649998664856,-2.3245649337768555,-0.2706269919872284,-5.806842803955078,3.444288969039917,-6.076258182525635,6.71832799911499
1757088603552857900,0.77985791015625,3.298487424850464,0.5046250224113464,1.324125051498413,-2.51127290725708,-5.943393230438232,-1.6536060571670532,3.4736719131469727,-6.2608819007873535,6.532392978668213
1757088603562410800,0.78941064453125,2.971100091934204,-0.6890124678611755,0.9062625169754028,-6.589949131011963,-20.000337600708008,-1.9141789674758911,3.510875940322876,-6.436260223388672,6.34105110168457
1757088603571964000,0.7989638671875,3.287487506866455,-1.9387500286102293,0.1121999993920326,-6.324191093444824,-35.38345718383789,-7.759905815124512,3.550803899765014,-6.603131771087647,6.146793842315674
1757088603581517000,0.80851708984375,4.101212501525879,-2.6351873874664307,-0.5988125205039978,-5.131826877593994,-36.84196472167969,-9.445351600646973,3.588766098022461,-6.764386177062988,5.948636054992676
1757088603591070000,0.818070068359375,4.321074962615967,-3.2741498947143555,-0.8566250205039978,-3.24916410446167,-31.6998291015625,-5.18713903427124,3.6310410499572754,-6.9023261070251465,5.756021976470947
1757088603600622800,0.827622802734375,3.776162385940552,-4.366312503814697,-0.6355249881744385,-3.559709072113037,-23.26299476623535,-1.499621033668518,3.658073902130127,-7.038363933563232,5.565992832183838
1757088603610176000,0.837176025390625,2.734050035476685,-4.841512680053711,-0.602524995803833,-7.041762828826904,-12.997271537780762,1.6751949787139893,3.669557094573975,-7.172311782836914,5.381853103637695
1757088603619729000,0.84672900390625,1.6674624681472778,-4.185500144958496,-0.904337465763092,-8.393449783325195,-5.699462890625,1.7070059776306152,3.667694091796875,-7.303427219390869,5.20498514175415
1757088603629282000,0.856281982421875,0.8171625137329102,-2.984575033187866,-0.9458624720573424,-4.909780979156494,-1.100206971168518,-0.1190690025687217,3.6438589096069336,-7.435019016265869,5.035414218902588
1757088603638835000,0.8658349609375,0.1880999952554702,-1.7531249523162842,-0.6355249881744385,-2.3646419048309326,1.614753007888794,-2.01412296295166,3.6186370849609375,-7.560198783874512,4.872122764587402
1757088603648388000,0.87538818359375,-0.1882375031709671,-0.7170624732971191,-0.2226125001907348,-1.0979650020599363,3.208770990371704,-3.63620400428772,3.598356008529663,-7.677523136138916,4.714377880096436
1757088603657941000,0.88494091796875,-0.3740000128746032,0.0599500015377998,0.1255374997854232,-1.13440203666687,4.1501569747924805,-4.510794162750244,3.58624005317688,-7.785915851593018,4.562375068664551
1757088603667494000,0.894493896484375,-0.45210000872612,0.6109125018119812,0.3443000018596649,-1.4380600452423096,4.781154155731201,-4.967613220214844,3.580120086669922,-7.885176181793213,4.417664051055908
1757088603677046800,0.904046875,-0.4533374905586242,1.0030624866485596,0.4750624895095825,-1.682494044303894,4.991659164428711,-5.432497024536133,3.574012041091919,-7.975945949554443,4.282468795776367
1757088603686599700,0.913599609375,-0.3873375058174133,1.1985875368118286,0.5275874733924866,-2.354641914367676,3.97196888923645,-5.830513954162598,3.563127994537353,-8.05904769897461,4.158490180969238
1757088603696153000,0.923153076171875,-0.3007124960422516,1.1375374794006348,0.450587511062622,-3.034912109375,1.4894609451293943,-6.078505039215088,3.5446770191192627,-8.135171890258789,4.047072887420654
1757088603705706000,0.9327060546875,-0.2469500005245208,0.9933000206947328,0.3235374987125397,-3.1174070835113525,-0.679955005645752,-6.073759078979492,3.510458946228028,-8.213506698608398,3.93391489982605
1757088603715259100,0.942259033203125,-0.1539999991655349,0.7367249727249146,0.2025374919176101,-3.1482880115509038,-2.512748003005981,-6.527557849884033,3.467078924179077,-8.285721778869629,3.8354220390319824
1757088603724812000,0.95181201171875,-0.0257124993950128,0.2750000059604645,0.1292500048875808,-3.1414899826049805,-3.712064027786255,-6.698915958404541,3.414783000946045,-8.352307319641113,3.7519280910491934
1757088603734365000,0.961364990234375,0.0818125009536743,-0.2931500077247619,0.076724998652935,-3.2773749828338623,-3.96786904335022,-6.106847763061523,3.354559898376465,-8.413697242736816,3.683128118515015
1757088603743917800,0.970917724609375,0.1025749966502189,-0.6535375118255615,0.0169124994426965,-3.358423948287964,-2.655401945114136,-4.936842918395996,3.287498950958252,-8.470712661743164,3.6277339458465576
1757088603753471000,0.980470947265625,0.0878624990582466,-0.7255874872207642,-0.0466125011444091,-3.176966905593872,-1.438310980796814,-4.303514003753662,3.2090299129486084,-8.530525207519531,3.5710999965667725
1757088603763024100,0.990024169921875,0.1000999957323074,-0.5912500023841858,-0.088137499988079,-2.8072431087493896,-0.7212820053100586,-4.036231994628906,3.125361919403076,-8.590267181396484,3.5119330883026123
1757088603772577000,0.999576904296875,0.1013374999165535,-0.3517250120639801,-0.0820875018835067,-2.419037103652954,-0.2553009986877441,-3.696991920471192,3.0416789054870605,-8.646272659301758,3.4524519443511963
1757088603782130000,1.0091298828125,0.0841500014066696,-0.1160499975085258,-0.0270875003188848,-2.2100489139556885,-0.2097360044717788,-3.429816961288452,2.9609920978546143,-8.697291374206543,3.393197059631348
1757088603791682800,1.018682861328125,0.0585750006139278,0.0562375001609325,0.0327249988913536,-2.2572450637817383,-0.5505419969558716,-3.241566896438598,2.884376049041748,-8.744590759277344,3.3311309814453125
1757088603801236000,1.028236083984375,0.0426249988377094,0.1820500046014785,0.0644875019788742,-2.335638999938965,-0.7720549702644348,-3.1170530319213867,2.8123600482940674,-8.78984260559082,3.262239933013916
1757088603810788900,1.037788818359375,0.0268124993890523,0.2517625093460083,0.0644875019788742,-2.2805089950561523,-0.8418279886245728,-2.912597894668579,2.7451839447021484,-8.83399772644043,3.184475898742676
1757088603820342000,1.047342041015625,0.0120999999344348,0.2455749958753585,0.0474375002086162,-2.0505619049072266,-0.7935600280761719,-2.746553897857666,2.695241928100586,-8.873273849487305,3.097012996673584
1757088603829895200,1.056895263671875,0.0010999999940395,0.1759999990463256,0.0266750007867813,-1.7494659423828125,-0.6405199766159058,-2.6627440452575684,2.6461660861968994,-8.913744926452637,3.000032901763916
1757088603839448000,1.066447998046875,-0.0001374999992549,0.062424998730421,0.0131999999284744,-1.4544190168380735,-0.465285986661911,-2.6384639739990234,2.5951530933380127,-8.95630168914795,2.8935210704803467
1757088603849001000,1.0760009765625,0.0060499999672174,-0.0585750006139278,0.0107249999418854,-1.2369190454483032,-0.3049240112304687,-2.633713960647583,2.539942979812622,-9.001468658447266,2.777759075164795
1757088603858553900,1.085553955078125,0.0145749999210238,-0.1453374922275543,0.0217249989509582,-1.1646870374679563,-0.2182489931583404,-2.572326898574829,2.478868007659912,-9.049467086791992,2.6533260345458984
1757088603868107000,1.09510693359375,0.0218624994158744,-0.1783374994993209,0.0339624993503093,-1.2505769729614258,-0.1828310042619705,-2.377763032913208,2.41046404838562,-9.100324630737305,2.521298885345459
1757088603877660000,1.104659912109375,0.0291499998420476,-0.1526249945163726,0.0351999998092651,-1.3880959749221802,-0.1931629925966262,-2.1406478881835938,2.33376407623291,-9.15388298034668,2.382895946502685
1757088603887212800,1.114212890625,0.031624998897314,-0.1025749966502189,0.0339624993503093,-1.4998199939727783,-0.2347410023212433,-1.9203280210494995,2.248868942260742,-9.209773063659668,2.23903489112854
1757088603896766000,1.123765869140625,0.0303875003010034,-0.0488125011324882,0.0364375002682209,-1.5220069885253906,-0.2647930085659027,-1.7387770414352417,2.163471937179565,-9.258784294128418,2.1058459281921387
1757088603906319000,1.133319091796875,0.0280499998480081,-0.0035749999806284,0.0424874983727932,-1.507457971572876,-0.283064991235733,-1.6303160190582275,2.0717339515686035,-9.30921459197998,1.9680089950561523
1757088603915872000,1.1428720703125,0.0255750007927417,0.0257124993950128,0.0499125011265277,-1.4355440139770508,-0.2872520089149475,-1.5367770195007324,1.974943995475769,-9.36061954498291,1.82566499710083
1757088603925425000,1.1524248046875,0.0255750007927417,0.0379500016570091,0.0559624992311,-1.329609990119934,-0.2843349874019623,-1.4844549894332886,1.8745629787445068,-9.412632942199709,1.6785850524902344
1757088603934977800,1.161977783203125,0.0280499998480081,0.0318999998271465,0.0559624992311,-1.1750249862670898,-0.2455410063266754,-1.4300999641418457,1.7718570232391355,-9.465007781982422,1.526473045349121
1757088603944531000,1.171531005859375,0.0303875003010034,0.0086624994874,0.0547249987721443,-0.9856600165367126,-0.2019959986209869,-1.3128609657287598,1.6759400367736816,-9.510661125183104,1.3807710409164429
1757088603954084000,1.181083984375,0.0328624993562698,-0.0195249989628791,0.0534874983131885,-0.8200910091400146,-0.1939859986305236,-1.1500810384750366,1.586398959159851,-9.550315856933594,1.2419699430465698
1757088603963637000,1.190636962890625,0.031624998897314,-0.0390499979257583,0.0522499978542327,-0.7358700037002563,-0.189628005027771,-0.9943619966506958,1.5021209716796875,-9.584844589233398,1.1103099584579468
1757088603982742800,1.20974267578125,0.0280499998480081,-0.0683375000953674,0.0522499978542327,-0.709492027759552,-0.1996670067310333,-0.7910770177841187,1.346181035041809,-9.64128303527832,0.8681489825248718
1757088604001849000,1.22884912109375,0.0181499999016523,-0.0818125009536743,0.0609125010669231,-0.6972619891166687,-0.2282910048961639,-0.711883008480072,1.2063950300216677,-9.683713912963867,0.6529719829559326
1757088604011402200,1.23840234375,0.0145749999210238,-0.0866250023245811,0.0669625028967857,-0.6823049783706665,-0.209766000509262,-0.7273579835891724,1.1420520544052124,-9.700692176818848,0.554407000541687
1757088604020955100,1.247955078125,0.0120999999344348,-0.0866250023245811,0.0669625028967857,-0.6614480018615723,-0.1941079944372177,-0.7556920051574707,1.0807080268859863,-9.715351104736328,0.4613290131092071
1757088604030508000,1.257508056640625,0.0108624994754791,-0.0830499976873397,0.0644875019788742,-0.6144329905509949,-0.1622640043497085,-0.7936750054359436,1.0218290090560913,-9.727987289428713,0.3735190033912658
1757088604040061000,1.26706103515625,0.0133375003933906,-0.0780999958515167,0.0609125010669231,-0.520018994808197,-0.1359400004148483,-0.8268769979476929,0.9651529788970948,-9.738832473754885,0.2908389866352081
1757088604049614000,1.276614013671875,0.015812499448657,-0.0743874981999397,0.0620125010609626,-0.3858509957790375,-0.1272290050983429,-0.8511729836463928,0.9108880162239076,-9.748051643371582,0.2130409926176071
1757088604059167000,1.2861669921875,0.0193875003606081,-0.0818125009536743,0.0657249987125396,-0.2912400066852569,-0.1382949948310852,-0.8354859948158264,0.8595690131187439,-9.755785942077637,0.1396390050649643
1757088604068720000,1.29572021484375,0.0230999998748302,-0.0951500013470649,0.0694374963641166,-0.2384739965200424,-0.1713570058345794,-0.8206719756126404,0.8117849826812744,-9.762142181396484,0.0700479969382286
1757088604078273000,1.30527294921875,0.0255750007927417,-0.1073874980211258,0.0706750005483627,-0.2046580016613006,-0.1926420032978058,-0.7524200081825256,0.7679769992828369,-9.767240524291992,0.0038719999138265
1757088604087826200,1.314826171875,0.0255750007927417,-0.1098624989390373,0.0694374963641166,-0.1997579932212829,-0.2139910012483596,-0.6994510293006897,0.7282019853591919,-9.771218299865724,-0.0592270009219646
1757088604097379000,1.324379150390625,0.0255750007927417,-0.1000999957323074,0.0669625028967857,-0.2084439992904663,-0.2210910022258758,-0.6811220049858093,0.6923419833183289,-9.77419662475586,-0.119496002793312
1757088604106932000,1.333931884765625,0.0230999998748302,-0.0830499976873397,0.0620125010609626,-0.1890169978141784,-0.2019670009613037,-0.6502900123596191,0.6601830124855042,-9.77630615234375,-0.1771090030670166
1757088604116485000,1.343485107421875,0.0193875003606081,-0.0598125010728836,0.0609125010669231,-0.1568830013275146,-0.1950410008430481,-0.6440179944038391,0.6314759850502014,-9.777658462524414,-0.2321799993515014
1757088604126038000,1.3530380859375,0.015812499448657,-0.0353375002741813,0.0644875019788742,-0.1312550008296966,-0.1955479979515075,-0.6451669931411743,0.6058639883995056,-9.778362274169922,-0.2848339974880218
1757088604135591200,1.362591064453125,0.0133375003933906,-0.0195249989628791,0.0706750005483627,-0.1233109980821609,-0.2106429934501648,-0.6510999798774719,0.5828580260276794,-9.778528213500977,-0.3354009985923767
1757088604145144000,1.37214404296875,0.0120999999344348,-0.0108624994754791,0.0742499977350235,-0.1160769984126091,-0.2117500007152557,-0.6862639784812927,0.5620229840278625,-9.778238296508787,-0.3844499886035919
1757088604164250400,1.39125048828125,0.0133375003933906,0.0001374999992549,0.0681999996304512,-0.1264329999685287,-0.2644949853420257,-0.6661580204963684,0.5259889960289001,-9.77650260925293,-0.4795440137386322
1757088604173803300,1.40080322265625,0.0145749999210238,0.0111375004053115,0.0596750006079673,-0.1263960003852844,-0.2705039978027344,-0.6284180283546448,0.5106009840965271,-9.775115966796877,-0.5261049866676331
1757088604183356200,1.410356201171875,0.0145749999210238,0.0281875003129243,0.0510125011205673,-0.0756689980626106,-0.2596360146999359,-0.5632200241088867,0.4970139861106872,-9.773420333862305,-0.5721210241317749
1757088604192909000,1.419908935546875,0.0120999999344348,0.0526624992489814,0.0474375002086162,-0.0181690007448196,-0.2438389956951141,-0.4971219897270202,0.4853259921073913,-9.771445274353027,-0.6174560189247131
1757088604202462200,1.429462158203125,0.0096249999478459,0.0807124972343444,0.0461999997496604,0.0161579996347427,-0.2326669991016388,-0.4437659978866577,0.4755429923534393,-9.769224166870115,-0.6619229912757874
1757088604212015000,1.43901513671875,0.0083875004202127,0.1051874980330467,0.048675000667572,0.0553510002791881,-0.2143529951572418,-0.4181360006332397,0.4677160084247589,-9.766775131225586,-0.705377995967865
1757088604221568000,1.448568115234375,0.0083875004202127,0.1222374960780143,0.048675000667572,0.063229002058506,-0.2319339960813522,-0.4030680060386657,0.4617260098457336,-9.764130592346191,-0.7476540207862854
1757088604231121000,1.458120849609375,0.0120999999344348,0.1234750002622604,0.0510125011205673,0.0455989986658096,-0.230115994811058,-0.3545370101928711,0.4572679996490478,-9.76133632659912,-0.7885100245475769
1757088604240674000,1.467674072265625,0.015812499448657,0.108762502670288,0.0499125011265277,0.0131559995934367,-0.24965700507164,-0.328927993774414,0.4538390040397644,-9.758447647094728,-0.8277909755706787
1757088604250227000,1.47722705078125,0.0193875003606081,0.0867625027894973,0.0474375002086162,-0.0333420000970363,-0.2376880049705505,-0.2772319912910461,0.4510000050067901,-9.755513191223145,-0.8654000163078308
1757088604259780000,1.486780029296875,0.0206249989569187,0.0734250023961067,0.0437249988317489,-0.058958001434803,-0.2443429976701736,-0.2080210000276565,0.4484879970550537,-9.752581596374512,-0.9011800289154052
1757088604269333200,1.496333251953125,0.0193875003606081,0.0697124972939491,0.0412499979138374,-0.0625929981470108,-0.2530669867992401,-0.1654540002346038,0.4461739957332611,-9.74968147277832,-0.9351980090141296
1757088604278886100,1.50588623046875,0.0170499999076128,0.075762502849102,0.0376750007271766,-0.0565380007028579,-0.2733429968357086,-0.1120200008153915,0.4440410137176513,-9.746831893920898,-0.967441976070404
1757088604288439000,1.51543896484375,0.0145749999210238,0.0867625027894973,0.0364375002682209,-0.0505409985780715,-0.2910270094871521,-0.0890009999275207,0.4421310126781463,-9.744053840637209,-0.9978860020637512
1757088604297992000,1.524991943359375,0.0133375003933906,0.0965249985456466,0.0351999998092651,-0.0559730008244514,-0.2845549881458282,-0.0627600029110908,0.4403870105743408,-9.741360664367676,-1.0265439748764038
1757088604307545000,1.534545166015625,0.0108624994754791,0.1064250022172927,0.0339624993503093,-0.0699369981884956,-0.2730729877948761,-0.0403399989008903,0.4386740028858185,-9.738775253295898,-1.0533759593963623
1757088604317098200,1.54409814453125,0.0120999999344348,0.112475000321865,0.0327249988913536,-0.0672020018100738,-0.2326460033655166,-0.002915000077337,0.4369080066680908,-9.736323356628418,-1.078305959701538
1757088604326651100,1.553651123046875,0.0108624994754791,0.1149500012397766,0.0314874984323978,-0.0757670029997825,-0.2399149984121322,0.0164439994841814,0.4350090026855469,-9.734021186828612,-1.1012680530548096
1757088604336204000,1.5632041015625,0.0108624994754791,0.1099999994039535,0.0302499998360872,-0.0973649993538856,-0.2420839965343475,0.0505280010402202,0.4328770041465759,-9.731904983520508,-1.1220660209655762
1757088604345757000,1.5727568359375,0.0083875004202127,0.1014750003814697,0.0290124993771314,-0.1132320016622543,-0.2368459999561309,0.0711840018630027,0.4304670095443725,-9.729991912841797,-1.1406949758529663
1757088604355310000,1.58231005859375,0.0083875004202127,0.0917124971747398,0.0254375003278255,-0.1189199984073638,-0.2602399885654449,0.0791890025138855,0.4278169870376587,-9.728288650512695,-1.1571320295333862
1757088604364863000,1.591863037109375,0.0096249999478459,0.075762502849102,0.022962499409914,-0.121967002749443,-0.2835299968719482,0.0911730006337165,0.4249620139598846,-9.726799011230469,-1.171442985534668
1757088604374416000,1.601415771484375,0.0108624994754791,0.0599500015377998,0.0204875003546476,-0.122527003288269,-0.3019410073757171,0.1024290025234222,0.4217979907989502,-9.7255220413208,-1.1837760210037231
1757088604383969000,1.610968994140625,0.0096249999478459,0.0501874983310699,0.0181499999016523,-0.0913219973444938,-0.2869040071964264,0.101682998239994,0.418273001909256,-9.724446296691896,-1.1943219900131226
1757088604393522000,1.62052197265625,0.0108624994754791,0.0428999997675418,0.0169124994426965,-0.0641029998660087,-0.2839039862155914,0.1033350005745887,0.4143849909305572,-9.723559379577637,-1.203241944313049
1757088604403075000,1.630074951171875,0.0108624994754791,0.0354750007390975,0.0181499999016523,-0.0228049997240304,-0.2759560048580169,0.1388390064239502,0.4101519882678985,-9.722874641418455,-1.2104990482330322
1757088604412628000,1.6396279296875,0.0108624994754791,0.0306624993681907,0.0217249989509582,-0.0068339998833835,-0.2703790068626404,0.1497710049152374,0.4056339859962463,-9.72238826751709,-1.2161140441894531
1757088604422180900,1.649180908203125,0.0108624994754791,0.0232375003397464,0.022962499409914,0.0147869996726512,-0.2528890073299408,0.1511230021715164,0.400950014591217,-9.722088813781738,-1.2202069759368896
1757088604431734000,1.658734130859375,0.0096249999478459,0.0184249989688396,0.0266750007867813,0.0144279999658465,-0.2355519980192184,0.1320140063762664,0.3962169885635376,-9.72195529937744,-1.22290301322937
1757088604441287000,1.668286865234375,0.0072874999605119,0.0111375004053115,0.0279124993830919,-0.0200089998543262,-0.2326530069112777,0.1092109978199005,0.3914799988269806,-9.721967697143556,-1.2243880033493042
1757088604450840000,1.677840087890625,0.0083875004202127,0.0001374999992549,0.0279124993830919,-0.0503720007836818,-0.2347790002822876,0.0696450024843216,0.3867410123348236,-9.722087860107422,-1.224982976913452
1757088604460393000,1.68739306640625,0.0096249999478459,-0.0145749999210238,0.0266750007867813,-0.0677980035543441,-0.2227610051631927,0.0369350016117095,0.381972998380661,-9.722285270690918,-1.2249269485473633
1757088604469945900,1.69694580078125,0.0133375003933906,-0.0255750007927417,0.0241999998688697,-0.0570099987089633,-0.2347609996795654,0.0333970002830028,0.3772079944610595,-9.722538948059082,-1.2244160175323486
1757088604479499000,1.7064990234375,0.0145749999210238,-0.0280499998480081,0.022962499409914,-0.042238000780344,-0.2274309992790222,0.0641269981861114,0.3724839985370636,-9.722846031188965,-1.2234530448913574
1757088604489052200,1.71605224609375,0.0145749999210238,-0.031624998897314,0.0241999998688697,-0.0261640008538961,-0.2463160008192062,0.0839710012078285,0.3678810000419616,-9.723200798034668,-1.222051024436951
1757088604498605000,1.72560498046875,0.0133375003933906,-0.0340999998152256,0.0279124993830919,-0.0068370001390576,-0.2483910024166107,0.0957899987697601,0.3635280132293701,-9.723596572875977,-1.2202379703521729
1757088604508158200,1.735158203125,0.0120999999344348,-0.0365750007331371,0.0302499998360872,-0.0023900000378489,-0.2575950026512146,0.1022500023245811,0.3594500124454498,-9.724024772644045,-1.2180739641189575
1757088604517711000,1.744711181640625,0.0096249999478459,-0.0402874983847141,0.0302499998360872,0.0040500001050531,-0.2668969929218292,0.0854339972138404,0.3556979894638061,-9.724472045898438,-1.2156579494476318
1757088604527264000,1.754263916015625,0.0072874999605119,-0.0415249988436698,0.0302499998360872,0.0146549995988607,-0.2716119885444641,0.05570600181818,0.3523719906806946,-9.724909782409668,-1.2131630182266235
1757088604536817000,1.76381689453125,0.0060499999672174,-0.0438624992966651,0.0314874984323978,0.0244960002601146,-0.2525599896907806,0.0343980006873607,0.3495559990406036,-9.725321769714355,-1.210724949836731
1757088604546370000,1.7733701171875,0.0048124999739229,-0.0463375002145767,0.0314874984323978,-0.0002099999983329,-0.2145159989595413,0.0076100002042949,0.3472119867801666,-9.725692749023438,-1.2084629535675049
1757088604565476000,1.79247607421875,0.0060499999672174,-0.057337500154972,0.0290124993771314,-0.0367989987134933,-0.2252870053052902,-0.0612530000507831,0.3437719941139221,-9.726247787475586,-1.2050479650497437
1757088604575029000,1.802029052734375,0.0060499999672174,-0.0671000033617019,0.0279124993830919,-0.0511059984564781,-0.2525379955768585,-0.1010759994387626,0.3424800038337707,-9.72640895843506,-1.2041280269622805
1757088604584582100,1.81158203125,0.0083875004202127,-0.0743874981999397,0.0241999998688697,-0.0507920011878013,-0.260683000087738,-0.1046330034732818,0.3413349986076355,-9.726492881774902,-1.2037849426269531
1757088604594135000,1.821135009765625,0.0096249999478459,-0.0743874981999397,0.0241999998688697,-0.0482390001416206,-0.2638010084629059,-0.0694459974765777,0.3402130007743835,-9.726502418518066,-1.2040259838104248
1757088604603688200,1.830688232421875,0.0083875004202127,-0.0683375000953674,0.022962499409914,-0.0253320001065731,-0.2500970065593719,-0.0543060004711151,0.3391019999980926,-9.726439476013184,-1.2048360109329224
1757088604613241000,1.840240966796875,0.0083875004202127,-0.0560999996960163,0.022962499409914,0.0055240001529455,-0.2746270000934601,-0.0401469990611076,0.3380089998245239,-9.726309776306152,-1.2061660289764404
1757088604622794000,1.8497939453125,0.0060499999672174,-0.0463375002145767,0.022962499409914,0.0347490012645721,-0.2632569968700409,-0.035946998745203,0.336993008852005,-9.72612190246582,-1.2079440355300903
1757088604632347100,1.85934716796875,0.0035749999806284,-0.0378125011920928,0.022962499409914,0.057948000729084,-0.2757200002670288,-0.020966000854969,0.3362079858779907,-9.725882530212402,-1.2100549936294556
1757088604641900000,1.868900146484375,-0.0001374999992549,-0.0340999998152256,0.022962499409914,0.0798999965190887,-0.2739529907703399,-0.0388140007853508,0.3357999920845032,-9.725600242614746,-1.21241295337677
1757088604651453000,1.878452880859375,-0.0026124999858438,-0.0365750007331371,0.0241999998688697,0.0846069976687431,-0.2483980059623718,-0.0580050013959407,0.3358410000801086,-9.725275993347168,-1.214967966079712
1757088604661006000,1.888006103515625,-0.0049499999731779,-0.0415249988436698,0.0266750007867813,0.0751779973506927,-0.2394919991493225,-0.0469110012054443,0.3362950086593628,-9.724920272827148,-1.2176569700241089
1757088604670559000,1.89755908203125,-0.0061874999664723,-0.0475750006735324,0.0279124993830919,0.0638120025396347,-0.2260400056838989,-0.0817150026559829,0.3370980024337768,-9.72451114654541,-1.2206599712371826
1757088604680112000,1.907112060546875,-0.0061874999664723,-0.0512874983251094,0.0279124993830919,0.0484899990260601,-0.2173050045967102,-0.0738290026783943,0.33815398812294,-9.72404670715332,-1.2240229845046997
1757088604689665000,1.9166650390625,-0.0049499999731779,-0.0560999996960163,0.0266750007867813,0.0499689988791942,-0.2490379959344864,-0.0461600013077259,0.3393830060958862,-9.723535537719728,-1.2276999950408936
1757088604699218200,1.92621826171875,-0.0026124999858438,-0.0598125010728836,0.022962499409914,0.0426679998636245,-0.2711470127105713,-0.0425890013575553,0.340721994638443,-9.722977638244627,-1.2317110300064087
1757088604708771000,1.93577099609375,-0.0026124999858438,-0.0622874982655048,0.0192499998956918,0.0428379997611045,-0.2618950009346008,-0.0120099997147917,0.3421339988708496,-9.722389221191406,-1.235936999320984
1757088604718324000,1.945323974609375,-0.0026124999858438,-0.061049997806549,0.0169124994426965,0.0319410003721714,-0.2668029963970184,0.0100649995729327,0.343544989824295,-9.721792221069336,-1.2402399778366089
1757088604727876900,1.954876953125,-0.0026124999858438,-0.0548624992370605,0.0119624994695186,0.033450998365879,-0.2524639964103699,0.021994000300765,0.3448930084705353,-9.721197128295898,-1.24452805519104
1757088604737430000,1.964429931640625,-0.0074249999597668,-0.0450999997556209,0.0082499999552965,0.0330590009689331,-0.2475650012493133,0.0306129995733499,0.3462220132350921,-9.720623016357422,-1.248671054840088
1757088604746983200,1.973983154296875,-0.0123749999329447,-0.0353375002741813,0.0059124999679625,0.0397909991443157,-0.230904996395111,-0.0022690000478178,0.347582995891571,-9.720067977905272,-1.2526370286941528
1757088604756536000,1.9835361328125,-0.0147124994546175,-0.0305249989032745,0.0059124999679625,0.0484960004687309,-0.238546997308731,-0.0517080016434192,0.3490639925003052,-9.719525337219238,-1.256466031074524
1757088604766089000,1.9930888671875,-0.0147124994546175,-0.0292875003069639,0.0059124999679625,0.065760001540184,-0.2320380061864853,-0.0734950006008148,0.3507629930973053,-9.718994140625,-1.2601200342178345
1757088604775642000,2.00264208984375,-0.0123749999329447,-0.0280499998480081,0.0071499999612569,0.1022809967398643,-0.2210289984941482,-0.0937820002436637,0.3528060019016266,-9.718462944030762,-1.2636549472808838
1757088604785195000,2.012195068359375,-0.0074249999597668,-0.0255750007927417,0.0071499999612569,0.1209480017423629,-0.2148790061473846,-0.087567999958992,0.355239987373352,-9.717915534973145,-1.267179012298584
1757088604794748200,2.021748046875,-0.0049499999731779,-0.0268124993890523,0.0071499999612569,0.1340669989585876,-0.2323729991912841,-0.0431560017168521,0.3580450117588043,-9.717365264892578,-1.2706090211868286
1757088604804301000,2.031301025390625,-0.0026124999858438,-0.0292875003069639,0.0071499999612569,0.1396429985761642,-0.2353589981794357,-0.0190999992191791,0.3611550033092499,-9.716814994812012,-1.2739360332489014
1757088604813854200,2.040854248046875,-0.0013749999925494,-0.0305249989032745,0.0082499999552965,0.1402550041675567,-0.2382279932498932,-0.0008140000281855,0.3644999861717224,-9.716270446777344,-1.2771300077438354
1757088604823407000,2.050406982421875,-0.0001374999992549,-0.031624998897314,0.0107249999418854,0.1383309960365295,-0.2408380061388015,0.0346489995718002,0.3680219948291778,-9.715740203857422,-1.280150055885315
1757088604832960000,2.0599599609375,-0.0001374999992549,-0.0305249989032745,0.0107249999418854,0.09808299690485,-0.2360379993915558,0.0523659996688365,0.3715429902076721,-9.715242385864258,-1.2829129695892334
1757088604842513000,2.069512939453125,-0.0001374999992549,-0.0292875003069639,0.0094875004142522,0.0647870004177093,-0.2551029920578003,0.048624001443386,0.3749279975891113,-9.714786529541016,-1.285372018814087
1757088604852066000,2.079066162109375,-0.0013749999925494,-0.0292875003069639,0.0094875004142522,0.0356209985911846,-0.2596490085124969,0.0562620013952255,0.3781029880046844,-9.71437644958496,-1.2875369787216189
1757088604861619200,2.088619140625,0.0010999999940395,-0.031624998897314,0.0071499999612569,0.0128640001639723,-0.2880190014839172,0.0635069981217384,0.3810099959373474,-9.714032173156738,-1.2892919778823853
1757088604871172000,2.098172119140625,0.0010999999940395,-0.031624998897314,0.0071499999612569,0.0230400003492832,-0.2925179898738861,0.056742999702692,0.3837189972400665,-9.71374225616455,-1.290673017501831
1757088604880725200,2.107725341796875,0.002337499987334,-0.0305249989032745,0.0059124999679625,0.0214019995182752,-0.2612090110778808,0.0484189987182617,0.3862240016460418,-9.713493347167969,-1.2918100357055664
1757088604890278100,2.117278076171875,-0.0001374999992549,-0.0292875003069639,0.004674999974668,0.0380330011248588,-0.2490099966526031,0.0562440007925033,0.3886109888553619,-9.71328353881836,-1.2926820516586304
1757088604899831000,2.1268310546875,-0.0001374999992549,-0.0280499998480081,0.0059124999679625,0.0784680023789405,-0.2346699982881546,0.038842000067234,0.3910199999809265,-9.71308708190918,-1.2934290170669556
1757088604909384200,2.13638427734375,-0.0001374999992549,-0.0268124993890523,0.0094875004142522,0.0891830027103424,-0.2322819977998733,0.0472990013659,0.393545001745224,-9.712898254394531,-1.2940930128097534
1757088604918937000,2.14593701171875,-0.0001374999992549,-0.0268124993890523,0.0107249999418854,0.0765850022435188,-0.2323230057954788,0.0394529998302459,0.3961760103702545,-9.712709426879885,-1.2947269678115845
1757088604928490200,2.155490234375,-0.0001374999992549,-0.024337500333786,0.0082499999552965,0.071782000362873,-0.2515009939670563,0.0364390015602111,0.3989090025424957,-9.712512016296388,-1.2953770160675049
1757088604938043100,2.165043212890625,-0.0013749999925494,-0.0255750007927417,0.0082499999552965,0.0559689998626709,-0.2658239901065826,0.0356380008161067,0.4016920030117035,-9.712322235107422,-1.295956015586853
1757088604947596000,2.174595947265625,-0.0026124999858438,-0.0280499998480081,0.0059124999679625,0.0480390004813671,-0.2752549946308136,0.0414800010621547,0.4044679999351501,-9.712162971496582,-1.2963049411773682
1757088604957149000,2.18414892578125,-0.0049499999731779,-0.0340999998152256,0.0034374999813735,0.0361850000917911,-0.2751179933547973,0.0309130009263753,0.4071440100669861,-9.712043762207031,-1.2963780164718628
1757088604966702000,2.1937021484375,-0.0061874999664723,-0.0378125011920928,0.0009624999947845,0.0251909997314214,-0.2821620106697082,0.0230129994451999,0.4095619916915893,-9.711980819702148,-1.2961130142211914
1757088604976255200,2.203255126953125,-0.0074249999597668,-0.0365750007331371,0.0009624999947845,0.0193310007452964,-0.2726419866085052,-0.004858000203967,0.411650002002716,-9.711965560913086,-1.295578956604004
1757088604985808100,2.21280810546875,-0.0098999999463558,-0.0280499998480081,-0.0002749999985098,0.0139659997075796,-0.2512930035591125,-0.0267120003700256,0.4133450090885162,-9.711977005004885,-1.2949650287628174
1757088604995361000,2.222361083984375,-0.0111375004053115,-0.0133375003933906,-0.0002749999985098,-0.0044920002110302,-0.2443960011005401,-0.0451029986143112,0.4145660102367401,-9.712003707885742,-1.2943830490112305
1757088605004914200,2.2319140625,-0.0111375004053115,0.0012374999932944,-0.0027499999850988,-0.0056670000776648,-0.2498179972171783,-0.0918830037117004,0.4152779877185821,-9.71202278137207,-1.2940189838409424
1757088605014467300,2.24146728515625,-0.0086624994874,0.0134749999269843,-0.0050874999724328,0.0207419991493225,-0.2576330006122589,-0.0815860033035278,0.4155310094356537,-9.712021827697754,-1.2939540147781372
1757088605024020000,2.25102001953125,-0.0061874999664723,0.0159499999135732,-0.0050874999724328,0.025340000167489,-0.2533290088176727,-0.0557530000805854,0.415457010269165,-9.711995124816896,-1.2941739559173584
1757088605033573000,2.260572998046875,-0.0037124999798834,0.0147124994546175,-0.0050874999724328,0.0523220002651214,-0.2776170074939728,-0.0290479995310306,0.4152419865131378,-9.71194553375244,-1.294600009918213
1757088605043126000,2.2701259765625,-0.0013749999925494,0.0134749999269843,-0.0063249999657273,0.0575390011072158,-0.2777499854564667,0.0031950001139193,0.4149839878082275,-9.711880683898926,-1.295179009437561
1757088605052679200,2.27967919921875,-0.0013749999925494,0.0147124994546175,-0.0075624999590218,0.0670860037207603,-0.2728610038757324,0.0359640009701252,0.4147869944572449,-9.711799621582031,-1.2958370447158811
1757088605062232000,2.289232177734375,-0.0013749999925494,0.0184249989688396,-0.0075624999590218,0.0647889971733093,-0.2558229863643646,0.0602729991078376,0.4146150052547455,-9.711718559265137,-1.2964930534362793
1757088605071785200,2.29878515625,-0.0001374999992549,0.0244750007987022,-0.0063249999657273,0.0602679997682571,-0.2386859953403473,0.0767079964280128,0.414467990398407,-9.711647987365724,-1.2970689535140991
1757088605081338000,2.308338134765625,-0.0013749999925494,0.0269499998539686,-0.0063249999657273,0.0808470025658607,-0.2239239960908889,0.085437998175621,0.4143620133399963,-9.711584091186523,-1.2975709438323977
1757088605090891000,2.31789111328125,-0.0013749999925494,0.0219999998807907,-0.0063249999657273,0.0753260031342506,-0.2163140028715133,0.0891920030117034,0.4141600131988525,-9.711545944213867,-1.2979340553283691
1757088605100444200,2.327444091796875,0.0010999999940395,0.0184249989688396,-0.0050874999724328,0.0767910033464431,-0.2374600023031234,0.0882830023765564,0.4138219952583313,-9.711524963378906,-1.298187017440796
1757088605109997000,2.3369970703125,-0.0001374999992549,0.0122375003993511,-0.0050874999724328,0.0803729966282844,-0.2442349940538406,0.087238997220993,0.4133929908275604,-9.711527824401855,-1.2983020544052124
1757088605119550200,2.34655029296875,0.0010999999940395,0.0061874999664723,-0.0038499999791383,0.0723309963941574,-0.2678599953651428,0.0726099982857704,0.4128870069980621,-9.711548805236816,-1.2983150482177734
1757088605129103000,2.35610302734375,0.002337499987334,0.0024749999865889,-0.0027499999850988,0.0442910008132457,-0.2937209904193878,0.0836070030927658,0.4122729897499084,-9.711590766906738,-1.2981990575790403
1757088605138656000,2.365656005859375,0.0035749999806284,0.0049499999731779,-0.0015124999918043,0.0380659997463226,-0.2908329963684082,0.0873550027608871,0.4115749895572662,-9.71164894104004,-1.2979789972305298
1757088605148209200,2.375209228515625,0.002337499987334,0.0061874999664723,-0.0015124999918043,0.011812999844551,-0.2712700068950653,0.0682960003614425,0.4107579886913299,-9.711721420288086,-1.2976930141448977
1757088605157762000,2.384761962890625,0.0035749999806284,0.0049499999731779,-0.0015124999918043,-0.006254999898374,-0.2516649961471557,0.0731540024280548,0.4098170101642608,-9.711810111999512,-1.2973270416259766
1757088605167315000,2.39431494140625,0.0035749999806284,0.0061874999664723,-0.0038499999791383,-0.0050139999948441,-0.2416390031576156,0.0732870027422905,0.4087589979171753,-9.711923599243164,-1.2968050241470337
1757088605176868000,2.4038681640625,0.002337499987334,0.0098999999463558,-0.0038499999791383,0.0142630003392696,-0.2340649962425232,0.0710939988493919,0.4076670110225677,-9.712066650390623,-1.2960690259933472
1757088605186421200,2.413421142578125,0.002337499987334,0.0147124994546175,-0.0038499999791383,0.0234900005161762,-0.2408369928598404,0.0757760033011436,0.4066269993782043,-9.712244987487791,-1.295050024986267
1757088605195974100,2.42297412109375,0.002337499987334,0.0159499999135732,-0.0038499999791383,0.0412370003759861,-0.2310750037431717,0.053116999566555,0.4057179987430572,-9.712464332580566,-1.29367995262146
1757088605205527000,2.432527099609375,0.002337499987334,0.0147124994546175,-0.0015124999918043,0.0442139990627765,-0.2383670061826706,0.0158159993588924,0.4049040079116821,-9.712709426879885,-1.2920860052108765
1757088605215080000,2.442079833984375,0.0035749999806284,0.0122375003993511,-0.0015124999918043,0.0425000004470348,-0.2481659948825836,0.0009640000062063,0.4041660130023956,-9.712967872619627,-1.2903729677200315
1757088605224633000,2.451633056640625,0.0048124999739229,0.0086624994874,-0.0015124999918043,0.034095000475645,-0.2674530148506164,0.0095180002972483,0.4034009873867035,-9.713236808776855,-1.2885899543762207
1757088605234186000,2.46118603515625,0.0048124999739229,0.0049499999731779,-0.0027499999850988,0.0103979995474219,-0.2629039883613586,-0.0117910001426935,0.4025259912014007,-9.713500022888184,-1.286882996559143
1757088605243739000,2.47073876953125,0.0048124999739229,0.0049499999731779,-0.0038499999791383,-0.002862999914214,-0.2485480010509491,0.0156820006668567,0.4014739990234375,-9.71375846862793,-1.2852699756622314
1757088605253292300,2.480292236328125,0.0035749999806284,0.0111375004053115,-0.0063249999657273,0.007501000072807,-0.2413379997014999,0.0212340001016855,0.4002679884433746,-9.714003562927246,-1.283797025680542
1757088605262845200,2.48984521484375,0.002337499987334,0.0208999998867511,-0.0063249999657273,0.0196519996970891,-0.2365549951791763,0.0196400005370378,0.39894700050354,-9.714229583740234,-1.2825000286102295
1757088605272398000,2.499398193359375,0.002337499987334,0.0306624993681907,-0.0050874999724328,0.0311479996889829,-0.2484560012817382,0.0316540002822876,0.3974820077419281,-9.714438438415527,-1.281366944313049
1757088605281951000,2.508950927734375,0.0010999999940395,0.0354750007390975,-0.0027499999850988,0.0531730018556118,-0.2652100026607513,0.0269469991326332,0.3959549963474273,-9.714628219604492,-1.2804100513458252
1757088605291503900,2.51850390625,-0.0001374999992549,0.0354750007390975,-0.0027499999850988,0.0626439973711967,-0.2579639852046966,0.03600500151515,0.3943879902362823,-9.714799880981444,-1.2795909643173218
1757088605301057000,2.52805712890625,-0.0001374999992549,0.0306624993681907,-0.0027499999850988,0.0602519996464252,-0.269906997680664,0.0286250002682209,0.3927609920501709,-9.714953422546388,-1.2789349555969238
1757088605310610000,2.53760986328125,-0.0013749999925494,0.0244750007987022,-0.0050874999724328,0.0468109995126724,-0.2556160092353821,0.0103029999881982,0.3910439908504486,-9.715085983276367,-1.2784539461135864
1757088605320163000,2.5471630859375,-0.0013749999925494,0.017187500372529,-0.0063249999657273,0.038621999323368,-0.2388470023870468,0.0202270001173019,0.3892920017242431,-9.71519660949707,-1.2781579494476318
1757088605329716000,2.556716064453125,-0.0013749999925494,0.0122375003993511,-0.0038499999791383,0.0464310012757778,-0.2436140030622482,0.0250240005552768,0.3875569999217987,-9.715283393859863,-1.278033971786499
1757088605339269000,2.56626904296875,-0.0037124999798834,0.0098999999463558,-0.0002749999985098,0.0624510012567043,-0.2340600043535232,0.0225920006632804,0.3859829902648926,-9.715347290039062,-1.2780239582061768
1757088605348822000,2.575822021484375,-0.0061874999664723,0.0122375003993511,0.0009624999947845,0.0481319986283779,-0.2459859997034073,0.022257000207901,0.384579986333847,-9.715392112731934,-1.2781120538711548
1757088605358375000,2.585375,-0.0049499999731779,0.0159499999135732,0.0009624999947845,0.0391459986567497,-0.2316019982099533,0.019905000925064,0.3833299875259399,-9.715415000915527,-1.2783160209655762
1757088605367928000,2.594927978515625,-0.0049499999731779,0.0147124994546175,0.002199999988079,0.0395860001444816,-0.2364429980516433,0.0108559997752308,0.3821839988231659,-9.715415000915527,-1.2786569595336914
1757088605377481200,2.604481201171875,-0.0037124999798834,0.0098999999463558,0.002199999988079,0.0082890000194311,-0.2340109944343567,0.0159970000386238,0.3810279965400696,-9.715396881103516,-1.2791390419006348
1757088605387034000,2.6140341796875,-0.0001374999992549,0.0049499999731779,0.0009624999947845,-0.0302150007337331,-0.2506169974803924,0.0233309995383024,0.3796919882297516,-9.715377807617188,-1.2796850204467771
1757088605396587000,2.6235869140625,-0.0001374999992549,0.0061874999664723,-0.0027499999850988,-0.0436270013451576,-0.2454089969396591,0.0529230013489723,0.3780989944934845,-9.715383529663086,-1.2801040410995483
1757088605406140000,2.633139892578125,-0.0001374999992549,0.0098999999463558,-0.0050874999724328,-0.0492490008473396,-0.2402359992265701,0.046994999051094,0.376222014427185,-9.715421676635742,-1.280369997024536
1757088605415693000,2.642693115234375,-0.0001374999992549,0.0134749999269843,-0.0038499999791383,-0.0116839995607733,-0.2399639934301376,0.0436590015888214,0.3742009997367859,-9.715478897094728,-1.280521035194397
1757088605425246200,2.65224609375,-0.0001374999992549,0.017187500372529,-0.0027499999850988,0.0101389996707439,-0.2396820038557052,0.0518230013549327,0.3721790015697479,-9.71556282043457,-1.2804689407348633
1757088605434799000,2.661799072265625,-0.0013749999925494,0.017187500372529,-0.0027499999850988,0.0420459993183612,-0.2441969960927963,0.0571190007030963,0.3702920079231262,-9.71566104888916,-1.2802670001983645
1757088605444352000,2.67135205078125,-0.0013749999925494,0.0159499999135732,-0.0027499999850988,0.0744310021400451,-0.2534840106964111,0.0665709972381591,0.3686220049858093,-9.715771675109863,-1.2798999547958374
1757088605453905200,2.6809052734375,-0.0013749999925494,0.0134749999269843,-0.0027499999850988,0.0936949998140335,-0.2628050148487091,0.0663769990205764,0.3671939969062805,-9.715895652770996,-1.279363036155701
1757088605463458000,2.6904580078125,-0.0049499999731779,0.0061874999664723,-0.0015124999918043,0.0958829969167709,-0.2767130136489868,0.0860970020294189,0.3659929931163788,-9.716039657592772,-1.2786140441894531
1757088605473011200,2.70001123046875,-0.0061874999664723,-0.0010999999940395,0.0009624999947845,0.0704670026898384,-0.2572810053825378,0.0572150014340877,0.364888995885849,-9.716196060180664,-1.2777329683303833
1757088605482564000,2.709564208984375,-0.0049499999731779,-0.0085249999538064,0.002199999988079,0.0529999993741512,-0.2332040071487426,0.0392279997467994,0.3638150095939636,-9.71635627746582,-1.276816964149475
1757088605492117200,2.7191171875,-0.0026124999858438,-0.0133375003933906,0.0009624999947845,0.0343130007386207,-0.2355950027704239,0.02016899921,0.3627170026302337,-9.71651554107666,-1.275915026664734
1757088605501670100,2.728670166015625,-0.0013749999925494,-0.0133375003933906,-0.0002749999985098,0.032634999603033,-0.2521690130233764,0.0428799986839294,0.3616299927234649,-9.716689109802246,-1.2749099731445312
1757088605511223000,2.73822314453125,-0.0001374999992549,-0.0120999999344348,-0.0015124999918043,0.0380080007016658,-0.2758480012416839,0.0529839992523193,0.3605839908123016,-9.716875076293944,-1.2737950086593628
1757088605520776200,2.747776123046875,0.002337499987334,-0.0072874999605119,-0.0027499999850988,0.0296849999576807,-0.2800999879837036,0.0898969992995262,0.3595049977302551,-9.717084884643556,-1.2724889516830444
1757088605530329000,2.7573291015625,0.0010999999940395,-0.0010999999940395,-0.0027499999850988,0.0512260012328624,-0.2510049939155578,0.075093001127243,0.3583909869194031,-9.717315673828123,-1.2710440158843994
1757088605539882200,2.76688232421875,-0.0001374999992549,0.0037124999798834,-0.0027499999850988,0.0647829994559288,-0.2267879992723465,0.0679489970207214,0.3573189973831177,-9.717557907104492,-1.269497990608215
1757088605549435100,2.77643505859375,-0.0026124999858438,0.0086624994874,-0.0027499999850988,0.0662989988923072,-0.207505002617836,0.0475450009107589,0.3563199937343597,-9.71780490875244,-1.267886996269226
1757088605558988000,2.785988037109375,-0.0037124999798834,0.0098999999463558,-0.0027499999850988,0.0881619974970817,-0.2340669929981231,0.0008280000183731,0.3554480075836181,-9.718043327331545,-1.2663079500198364
1757088605568541200,2.795541259765625,-0.0037124999798834,0.0037124999798834,-0.0015124999918043,0.09060700237751,-0.2631179988384247,-0.0141289997845888,0.3548040091991424,-9.718263626098633,-1.2648019790649414
1757088605578094000,2.805093994140625,-0.0049499999731779,-0.0060499999672174,-0.0002749999985098,0.0769340023398399,-0.2944959998130798,-0.0150549998506903,0.3544740080833435,-9.718463897705078,-1.2633609771728516
1757088605587647200,2.814647216796875,-0.0037124999798834,-0.0133375003933906,-0.0002749999985098,0.0571000017225742,-0.2708919942378998,-0.0269889999181032,0.3544659912586212,-9.718626976013184,-1.2621190547943115
1757088605597200100,2.8242001953125,-0.0037124999798834,-0.015812499448657,-0.0015124999918043,0.0361570008099079,-0.2544550001621246,-0.0291080009192228,0.3547439873218536,-9.718754768371582,-1.261067032814026
1757088605606753300,2.833753173828125,-0.0013749999925494,-0.0133375003933906,-0.0027499999850988,0.0254870001226663,-0.2188490033149719,-0.0215729996562004,0.3551599979400635,-9.718852043151855,-1.260200023651123
1757088605616306200,2.84330615234375,-0.0001374999992549,-0.0072874999605119,-0.0027499999850988,0.0199779998511075,-0.2048220038414001,-0.0232689995318651,0.3556259870529175,-9.71891975402832,-1.2595579624176023
1757088605625859000,2.852859130859375,0.002337499987334,0.0001374999992549,-0.0015124999918043,0.0328020006418228,-0.1955150067806244,-0.0042039998807013,0.3560880124568939,-9.718957901000977,-1.2591259479522705
1757088605635412000,2.862411865234375,0.0035749999806284,0.0098999999463558,-0.0027499999850988,0.031615000218153,-0.2148229926824569,0.0092879999428987,0.3564330041408539,-9.718976974487305,-1.2588950395584106
1757088605644965000,2.871965087890625,0.0060499999672174,0.017187500372529,-0.0027499999850988,0.0463850013911724,-0.2100709974765777,0.0336220003664493,0.3566440045833587,-9.718979835510254,-1.258813977241516
1757088605654518000,2.88151806640625,0.0048124999739229,0.0196624994277954,-0.0038499999791383,0.0695699974894523,-0.2364809960126876,0.0291719995439052,0.3567630052566528,-9.718955993652344,-1.2589600086212158
1757088605664071200,2.8910712890625,0.0072874999605119,0.0134749999269843,-0.0038499999791383,0.0846109986305236,-0.2413610070943832,0.034180998802185,0.3568930029869079,-9.718912124633787,-1.2592450380325315
1757088605673624300,2.900624267578125,0.0060499999672174,0.0012374999932944,-0.0027499999850988,0.107634998857975,-0.2628119885921478,0.0612279996275901,0.3571549952030182,-9.71886920928955,-1.2595069408416748
1757088605683177000,2.910177001953125,0.0048124999739229,-0.0145749999210238,-0.0015124999918043,0.0928860008716583,-0.2579030096530914,0.0595009997487068,0.3575780093669891,-9.718832015991213,-1.2596780061721802
1757088605692730000,2.919730224609375,0.0035749999806284,-0.0268124993890523,-0.0015124999918043,0.0720470026135444,-0.2648760080337524,0.062194000929594,0.3581210076808929,-9.718793869018556,-1.2598049640655518
1757088605702283000,2.929282958984375,0.002337499987334,-0.0328624993562698,-0.0015124999918043,0.0477529987692832,-0.2527379989624023,0.0488509982824325,0.3587110042572021,-9.718751907348633,-1.259958028793335
1757088605711836200,2.938836181640625,-0.0001374999992549,-0.0353375002741813,-0.0002749999985098,0.0088250003755092,-0.2405640035867691,0.0406230017542839,0.3592759966850281,-9.718694686889648,-1.2602479457855225
1757088605721389300,2.948389404296875,-0.0001374999992549,-0.0328624993562698,-0.0002749999985098,-0.0075489999726414,-0.2404019981622696,0.0305989999324083,0.3596999943256378,-9.718626022338867,-1.2606569528579712
1757088605730942200,2.957942138671875,-0.0013749999925494,-0.0218624994158744,-0.0002749999985098,-0.0138269998133182,-0.2428140044212341,0.0029380000196397,0.3599199950695038,-9.71854305267334,-1.2612370252609253
1757088605740495000,2.9674951171875,-0.0001374999992549,-0.0133375003933906,0.0009624999947845,0.0005569999921135,-0.2333399951457977,-0.0003710000019054,0.3599750101566314,-9.718448638916016,-1.2619539499282837
1757088605750048300,2.97704833984375,-0.0001374999992549,-0.0060499999672174,-0.0015124999918043,0.0076649999246001,-0.2287929952144622,-0.0170200001448392,0.359809011220932,-9.71835231781006,-1.2627379894256592
1757088605759601200,2.98660107421875,0.0010999999940395,-0.0048124999739229,-0.0015124999918043,0.0076310001313686,-0.2433310002088546,-0.00785499997437,0.3594090044498443,-9.71826457977295,-1.2635300159454346
1757088605769154300,2.996154296875,0.002337499987334,-0.0097624994814395,-0.0027499999850988,0.0370730012655258,-0.2580859959125519,-0.028626000508666,0.3588880002498626,-9.718170166015623,-1.264407992362976
1757088605778707200,3.005707275390625,0.0035749999806284,-0.0170499999076128,-0.0038499999791383,0.0467809997498989,-0.2464900016784668,-0.0209389999508857,0.3583270013332367,-9.718072891235352,-1.2653089761734009
1757088605788260000,3.015260009765625,0.0048124999739229,-0.0206249989569187,-0.0038499999791383,0.0694580003619194,-0.2468200027942657,-0.0067989998497068,0.3578589856624603,-9.717975616455078,-1.2661850452423096
1757088605797813200,3.024813232421875,0.0060499999672174,-0.0218624994158744,-0.0038499999791383,0.0546539984643459,-0.2373420000076294,0.0225709993392229,0.357477992773056,-9.717889785766602,-1.2669559717178345
1757088605807366100,3.0343662109375,0.0060499999672174,-0.0230999998748302,-0.0038499999791383,0.0519310012459754,-0.2253330051898956,0.041347000747919,0.3571969866752624,-9.71782112121582,-1.2675529718399048
1757088605816919000,3.0439189453125,0.0060499999672174,-0.0230999998748302,-0.0050874999724328,0.0607790015637874,-0.2299740016460418,0.0567869991064071,0.3569949865341186,-9.717775344848633,-1.267969012260437
1757088605826472200,3.05347216796875,0.0048124999739229,-0.0218624994158744,-0.0050874999724328,0.0601329989731311,-0.2440689951181411,0.0689060017466545,0.3568859994411468,-9.717748641967772,-1.2681959867477417
1757088605836025300,3.063025390625,0.0048124999739229,-0.0182875003665685,-0.0063249999657273,0.068752996623516,-0.2581619918346405,0.0689589977264404,0.3568449914455414,-9.71773910522461,-1.268286943435669
1757088605845578200,3.072578125,0.0035749999806284,-0.015812499448657,-0.0075624999590218,0.0951429978013038,-0.2675650119781494,0.0597819983959198,0.3568829894065857,-9.717741012573242,-1.2682609558105469
1757088605855131100,3.082131103515625,0.0010999999940395,-0.0145749999210238,-0.0075624999590218,0.1064869984984397,-0.2578159868717193,0.0599979981780052,0.3569869995117187,-9.717756271362305,-1.2681159973144531
1757088605864684000,3.09168408203125,-0.0001374999992549,-0.0170499999076128,-0.0063249999657273,0.1103290021419525,-0.2791689932346344,0.0599349997937679,0.3570919930934906,-9.71777629852295,-1.2679309844970703
1757088605874237200,3.1012373046875,-0.0037124999798834,-0.0218624994158744,-0.0063249999657273,0.1252080053091049,-0.27913498878479,0.0368850007653236,0.3572709858417511,-9.717793464660645,-1.267758011817932
1757088605883790300,3.110790283203125,-0.0037124999798834,-0.0268124993890523,-0.0075624999590218,0.128040999174118,-0.2865279912948608,0.0037169998977333,0.357583999633789,-9.71778678894043,-1.2677069902420044
1757088605893343200,3.12034326171875,-0.0037124999798834,-0.0305249989032745,-0.0075624999590218,0.1102809980511665,-0.2677519917488098,-0.0207219999283552,0.3580490052700043,-9.717755317687988,-1.2678200006484983
1757088605902896400,3.129896484375,-0.0049499999731779,-0.0305249989032745,-0.0075624999590218,0.0776759982109069,-0.2610230147838592,-0.0416169986128807,0.3586769998073578,-9.717690467834473,-1.268136978149414
1757088605912449300,3.13944921875,-0.0049499999731779,-0.0268124993890523,-0.010037500411272,0.0561809986829757,-0.2519519925117492,-0.0544949993491172,0.3594410121440887,-9.717591285705566,-1.2686710357666016
1757088605922002200,3.149002197265625,-0.0049499999731779,-0.0206249989569187,-0.010037500411272,0.0449480004608631,-0.2285709977149963,-0.0619460009038448,0.3603329956531524,-9.717466354370115,-1.2693769931793213
1757088605931555000,3.15855517578125,-0.0037124999798834,-0.0133375003933906,-0.0125124994665384,0.0414460003376007,-0.2338699996471405,-0.0553149990737438,0.361281007528305,-9.717318534851074,-1.2702219486236572
1757088605941108000,3.16810791015625,-0.0026124999858438,-0.0060499999672174,-0.0125124994665384,0.0472900010645389,-0.2416529953479766,-0.064810998737812,0.362293004989624,-9.717155456542969,-1.271183967590332
1757088605950661000,3.1776611328125,-0.0001374999992549,0.0012374999932944,-0.0125124994665384,0.0528310015797615,-0.2182240039110183,-0.0439510010182857,0.3633849918842315,-9.716974258422852,-1.2722519636154177
1757088605969767400,3.196767333984375,0.0048124999739229,0.0159499999135732,-0.0173249989748001,0.0446639992296695,-0.2024749964475631,-0.0424510017037391,0.3653590083122253,-9.716594696044922,-1.2745620012283323
1757088605979320300,3.2063203125,0.0083875004202127,0.0219999998807907,-0.0185624994337558,0.0511259995400905,-0.1984239965677261,-0.0580170005559921,0.3661560118198395,-9.716381072998049,-1.2759519815444946
1757088605988873200,3.215873291015625,0.0108624994754791,0.0244750007987022,-0.0185624994337558,0.050510000437498,-0.2137330025434494,-0.0816619992256164,0.3668420016765594,-9.716124534606934,-1.2776830196380615
1757088605998426000,3.225426025390625,0.015812499448657,0.0244750007987022,-0.0148499999195337,0.0518359988927841,-0.2098069936037063,-0.0605430006980896,0.3674449920654297,-9.715824127197266,-1.2797720432281494
1757088606007979300,3.234979248046875,0.0181499999016523,0.0269499998539686,-0.0112749999389052,0.075434997677803,-0.2369010001420974,-0.0383090004324913,0.3680289983749389,-9.71547794342041,-1.2821999788284302
1757088606017532400,3.244532470703125,0.0206249989569187,0.032999999821186,-0.0075624999590218,0.0748540014028549,-0.2491900026798248,0.0213140007108449,0.3686099946498871,-9.71510124206543,-1.2848479747772217
1757088606027085300,3.254085205078125,0.0218624994158744,0.0379500016570091,-0.0063249999657273,0.0877759978175163,-0.2396109998226165,0.0687939971685409,0.3692150115966797,-9.714712142944336,-1.2875930070877075
1757088606036638200,3.26363818359375,0.0206249989569187,0.0391874983906745,-0.0027499999850988,0.0950779989361763,-0.2250059992074966,0.1023269966244697,0.3698169887065887,-9.714325904846191,-1.2903189659118652
1757088606046191000,3.273191162109375,0.0206249989569187,0.0354750007390975,-0.0015124999918043,0.101793996989727,-0.2222709953784942,0.1181719973683357,0.3704110085964203,-9.713948249816896,-1.2929879426956177
1757088606055744000,3.282743896484375,0.0181499999016523,0.0257124993950128,-0.0015124999918043,0.0854699984192848,-0.2480929940938949,0.1281870007514953,0.3709360063076019,-9.71358585357666,-1.295562982559204
1757088606065297200,3.292297119140625,0.0193875003606081,0.0122375003993511,0.0009624999947845,0.0516350008547306,-0.2691780030727386,0.112695999443531,0.3712620139122009,-9.71324634552002,-1.298037052154541
1757088606074850300,3.301850341796875,0.0181499999016523,-0.002337499987334,-0.0015124999918043,-0.0050949999131262,-0.2923510074615478,0.1294270008802414,0.3712149858474731,-9.712955474853516,-1.3002519607543943
1757088606084403200,3.3114033203125,0.0170499999076128,-0.0120999999344348,-0.0038499999791383,-0.0540289990603923,-0.2985959947109222,0.1337479948997497,0.3706920146942138,-9.712729454040527,-1.302109956741333
1757088606093956400,3.320956298828125,0.0133375003933906,-0.015812499448657,-0.0075624999590218,-0.0705650001764297,-0.2950969934463501,0.1442909985780716,0.3697240054607391,-9.7125825881958,-1.3035039901733398
1757088606103509200,3.33050927734375,0.0120999999344348,-0.0097624994814395,-0.0087999999523162,-0.0769620016217231,-0.2844780087471008,0.1338669955730438,0.3683600127696991,-9.712512969970703,-1.3044220209121704
1757088606113062100,3.340062255859375,0.0108624994754791,-0.002337499987334,-0.0087999999523162,-0.0648550018668174,-0.2715939879417419,0.1217439994215965,0.3666670024394989,-9.712516784667969,-1.30486798286438
1757088606122615000,3.349614990234375,0.0096249999478459,0.0049499999731779,-0.0075624999590218,-0.0715240016579628,-0.2756029963493347,0.101122997701168,0.364654004573822,-9.71258544921875,-1.304908037185669
1757088606132168200,3.359168212890625,0.0072874999605119,0.0098999999463558,-0.0087999999523162,-0.0550439991056919,-0.2749969959259033,0.0791620016098022,0.3623490035533905,-9.712713241577148,-1.3045649528503418
1757088606141721300,3.368721435546875,0.0072874999605119,0.0111375004053115,-0.010037500411272,-0.0370909981429576,-0.2793540060520172,0.0606390014290809,0.3597820103168487,-9.712889671325684,-1.3039289712905884
1757088606151274200,3.378274169921875,0.0072874999605119,0.0086624994874,-0.010037500411272,-0.0156900007277727,-0.2575030028820038,0.0523179993033409,0.3570800125598907,-9.71310329437256,-1.3030339479446411
1757088606160827100,3.3878271484375,0.0083875004202127,0.0049499999731779,-0.010037500411272,0.0089140003547072,-0.2189510017633438,0.0583820007741451,0.3543179929256439,-9.71335792541504,-1.3018510341644287
1757088606170380300,3.39738037109375,0.0083875004202127,0.0001374999992549,-0.0112749999389052,0.0253730006515979,-0.1996040046215057,0.0574349984526634,0.3515349924564361,-9.71365737915039,-1.3003209829330444
1757088606179933200,3.40693310546875,0.0072874999605119,-0.0048124999739229,-0.0112749999389052,0.0363090001046657,-0.1922149956226349,0.0609790012240409,0.3487739861011505,-9.714015007019045,-1.298354983329773
1757088606189486300,3.416486328125,0.0060499999672174,-0.0120999999344348,-0.010037500411272,0.0532380007207393,-0.2042240053415298,0.0301789995282888,0.3460699915885925,-9.7144136428833,-1.2960669994354248
1757088606199039200,3.426039306640625,0.0048124999739229,-0.0230999998748302,-0.0075624999590218,0.0553399994969368,-0.2259040027856826,0.0143520003184676,0.3433640003204345,-9.71484375,-1.293552041053772
1757088606208592100,3.435592041015625,0.0060499999672174,-0.0340999998152256,-0.0075624999590218,0.0504660010337829,-0.2525010108947754,-0.0052330000326037,0.3406319916248321,-9.715276718139648,-1.2910280227661133
1757088606218145300,3.445145263671875,0.0083875004202127,-0.0426249988377094,-0.0075624999590218,0.0480250008404254,-0.2529090046882629,-0.0212849993258714,0.3378309905529022,-9.715688705444336,-1.2886790037155151
1757088606227698200,3.4546982421875,0.0108624994754791,-0.0426249988377094,-0.0087999999523162,0.0481190010905265,-0.2677069902420044,-0.0227620005607604,0.3349120020866394,-9.716068267822266,-1.286613941192627
1757088606237251000,3.4642509765625,0.0120999999344348,-0.0415249988436698,-0.0075624999590218,0.0639000013470649,-0.2537789940834045,-0.0148989995941519,0.3318980038166046,-9.716408729553224,-1.2848689556121826
1757088606246804200,3.47380419921875,0.0120999999344348,-0.0365750007331371,-0.0038499999791383,0.0626939982175827,-0.2543079853057861,-0.0255650002509355,0.3288469910621643,-9.71669578552246,-1.2835259437561035
1757088606256357400,3.483357421875,0.0108624994754791,-0.0328624993562698,-0.0015124999918043,0.0455249994993209,-0.2427580058574676,-0.0153019996359944,0.3258010149002075,-9.71693992614746,-1.2825130224227903
1757088606265910300,3.49291015625,0.0083875004202127,-0.0268124993890523,-0.0002749999985098,0.0338449999690055,-0.2716709971427917,0.0052899997681379,0.3228960037231445,-9.71713638305664,-1.2818130254745483
1757088606275463200,3.502463134765625,0.0048124999739229,-0.0206249989569187,0.0009624999947845,0.0454020015895366,-0.281354010105133,0.0107779996469616,0.3203189969062805,-9.717280387878418,-1.281411051750183
1757088606285016300,3.512016357421875,0.0010999999940395,-0.0120999999344348,-0.0015124999918043,0.0498390011489391,-0.2671830058097839,-0.0046190000139176,0.3181290030479431,-9.717358589172363,-1.2813880443572998
1757088606294569200,3.5215693359375,-0.0013749999925494,-0.0097624994814395,-0.0015124999918043,0.0517860017716884,-0.2625550031661987,-0.0035220000427216,0.3163610100746155,-9.717377662658691,-1.2817009687423706
1757088606304122000,3.5311220703125,-0.0013749999925494,-0.0108624994754791,-0.0038499999791383,0.0696640014648437,-0.2583360075950622,-0.0522460006177425,0.3150219917297363,-9.717321395874023,-1.282459020614624
1757088606313675300,3.54067529296875,-0.0037124999798834,-0.0170499999076128,-0.0063249999657273,0.066380001604557,-0.2710010111331939,-0.0760120004415512,0.3141120076179504,-9.717192649841309,-1.2836580276489258
1757088606323228200,3.550228271484375,-0.0049499999731779,-0.0218624994158744,-0.0087999999523162,0.0769909992814064,-0.2598940134048462,-0.0962639972567558,0.313616007566452,-9.71699047088623,-1.2853020429611206
1757088606332781300,3.55978125,-0.0026124999858438,-0.0206249989569187,-0.0087999999523162,0.0779360011219978,-0.2393469959497451,-0.1059700027108192,0.3134909868240356,-9.716715812683104,-1.2873870134353638
1757088606342334200,3.569334228515625,-0.0026124999858438,-0.015812499448657,-0.0087999999523162,0.0697920024394989,-0.2118010073900222,-0.1262259930372238,0.313645988702774,-9.716367721557615,-1.289952039718628
1757088606351887400,3.578887451171875,-0.0001374999992549,-0.0072874999605119,-0.0087999999523162,0.0645050033926963,-0.2319550067186355,-0.102292001247406,0.3139789998531341,-9.71595573425293,-1.2929320335388184
1757088606361440300,3.588440185546875,-0.0026124999858438,0.0024749999865889,-0.010037500411272,0.0733420029282569,-0.2471970021724701,-0.0913129970431327,0.3144539892673492,-9.715492248535156,-1.2962690591812134
1757088606370993200,3.5979931640625,-0.0026124999858438,0.0134749999269843,-0.0148499999195337,0.0597289986908435,-0.2788769900798797,-0.0607829988002777,0.3149589896202087,-9.714990615844728,-1.299877047538757
1757088606380546000,3.607546142578125,-0.0049499999731779,0.0208999998867511,-0.0197999998927116,0.0655599981546402,-0.3056710064411163,-0.0572369992733001,0.315420001745224,-9.714468002319336,-1.3036470413208008
1757088606390099200,3.61709912109375,-0.0111375004053115,0.0244750007987022,-0.0246124994009733,0.0557460002601146,-0.3153739869594574,-0.0318819992244243,0.315759003162384,-9.713944435119627,-1.307440996170044
1757088606399652400,3.62665234375,-0.0159499999135732,0.0219999998807907,-0.0270875003188848,0.0579879991710186,-0.3225800096988678,-0.0288019999861717,0.3159820139408111,-9.71343231201172,-1.311171054840088
1757088606409205200,3.636205322265625,-0.0208999998867511,0.0159499999135732,-0.0295624993741512,0.042102999985218,-0.2983979880809784,-0.0058100000023841,0.3160380125045776,-9.712955474853516,-1.3146979808807373
1757088606418758100,3.645758056640625,-0.0269499998539686,0.0122375003993511,-0.0356125012040138,0.0343930013477802,-0.3002119958400726,0.022121999412775,0.3158870041370392,-9.71252727508545,-1.3178999423980713
1757088606428311000,3.65531103515625,-0.0306624993681907,0.0196624994277954,-0.0417999997735023,0.0187270008027553,-0.3043699860572815,0.0164969991892576,0.3153919875621795,-9.712151527404783,-1.320786952972412
1757088606437864200,3.6648642578125,-0.0379500016570091,0.0342375002801418,-0.0503249987959861,0.0230190008878707,-0.3180240094661712,0.0104419998824596,0.3145020008087158,-9.71183967590332,-1.3233050107955933
1757088606447417000,3.6744169921875,-0.0464750006794929,0.0526624992489814,-0.0576125010848045,0.0393100008368492,-0.3341340124607086,-0.0119899995625019,0.3132570087909698,-9.711580276489258,-1.3255059719085691
1757088606456970200,3.68397021484375,-0.055137500166893,0.0672374963760376,-0.0673749968409538,0.0399830006062984,-0.3479390144348144,-0.0431110002100467,0.3116329908370971,-9.711358070373535,-1.327515959739685
1757088606466523100,3.693523193359375,-0.0636624991893768,0.079475000500679,-0.0783749967813491,0.0237000007182359,-0.3593080043792724,-0.0597999989986419,0.3094860017299652,-9.71117115020752,-1.3293739557266235
1757088606476076300,3.703076171875,-0.0734250023961067,0.0879999995231628,-0.0955625027418136,-0.0013289999915286,-0.3513149917125702,-0.0582939982414245,0.3066569864749908,-9.711034774780272,-1.3309999704360962
1757088606485629200,3.712629150390625,-0.083187498152256,0.0977625027298927,-0.1150875017046928,-0.0162770003080368,-0.3549630045890808,-0.0396730005741119,0.3029969930648803,-9.710963249206545,-1.3323049545288086
1757088606495182000,3.72218212890625,-0.0917124971747398,0.111237496137619,-0.1358499974012375,0.0055780000984668,-0.3486289978027344,-0.0001570000022184,0.2984200119972229,-9.710996627807615,-1.332993984222412
1757088606504735000,3.73173486328125,-0.1014750003814697,0.1282874941825866,-0.1541374921798706,0.0710389986634254,-0.3325789868831634,0.0137909995391964,0.293040007352829,-9.711151123046877,-1.3329349756240845
1757088606514288000,3.7412880859375,-0.111237496137619,0.1442375034093856,-0.1736624985933303,0.1303520053625106,-0.3500489890575409,0.0033299999777227,0.2869000136852264,-9.711432456970217,-1.332049012184143
1757088606523841300,3.75084130859375,-0.1199000030755996,0.1539999991655349,-0.1956624984741211,0.1568129956722259,-0.3317829966545105,-0.0298510007560253,0.2799629867076874,-9.711838722229004,-1.330348014831543
1757088606533394200,3.760394287109375,-0.1296624988317489,0.158950001001358,-0.2188999950885772,0.1703909933567047,-0.3208029866218567,-0.0575239993631839,0.2721799910068512,-9.712373733520508,-1.3277970552444458
1757088606542947000,3.769947021484375,-0.1357125043869018,0.1809500008821487,-0.2446125000715255,0.2424599975347519,-0.3558819890022278,-0.1410959959030151,0.2636409997940063,-9.71300220489502,-1.3246599435806274
1757088606552500200,3.779500244140625,-0.1406625062227249,0.2077624946832656,-0.2689499855041504,0.2910020053386688,-0.4197500050067901,-0.212688997387886,0.2544339895248413,-9.713711738586426,-1.320984959602356
1757088606562053000,3.78905322265625,-0.1394249945878982,0.2285249978303909,-0.2898499965667724,0.3617219924926758,-0.4337249994277954,-0.2600339949131012,0.2447219938039779,-9.714468002319336,-1.3170080184936523
1757088606571606300,3.798606201171875,-0.1381874978542328,0.2370499968528747,-0.3031874895095825,0.4458020031452179,-0.4502429962158203,-0.2731519937515259,0.2346879988908767,-9.715261459350586,-1.312796950340271
1757088606581159200,3.8081591796875,-0.1406625062227249,0.2432374954223632,-0.3117125034332275,0.503387987613678,-0.413985013961792,-0.2537910044193268,0.2245170027017593,-9.71607780456543,-1.3084050416946411
1757088606590712300,3.81771240234375,-0.1430000066757202,0.2602874934673309,-0.3216125071048736,0.5316579937934875,-0.3848389983177185,-0.242249995470047,0.2142409980297088,-9.716915130615234,-1.3038380146026611
1757088606600265200,3.82726513671875,-0.1467124968767166,0.2835249900817871,-0.3374249935150146,0.5146480202674866,-0.3290469944477081,-0.2017699927091598,0.2037830054759979,-9.71777629852295,-1.2990679740905762
1757088606609818000,3.836818115234375,-0.1527625024318695,0.3067624866962433,-0.3533749878406524,0.4797239899635315,-0.2657360136508941,-0.1612929999828338,0.193009003996849,-9.71866226196289,-1.294087052345276
1757088606619371300,3.846371337890625,-0.1626625061035156,0.3287625014781952,-0.3667125105857849,0.4752219915390014,-0.2354000061750412,-0.0988230034708976,0.1819159984588623,-9.719596862792969,-1.2886810302734375
1757088606628924200,3.855924072265625,-0.1747625023126602,0.3458124995231628,-0.3741374909877777,0.5124390125274658,-0.2169280052185058,-0.0973630025982856,0.1706130057573318,-9.7205810546875,-1.2828110456466677
1757088606638477300,3.865477294921875,-0.1857624948024749,0.3507624864578247,-0.3716624975204468,0.5314760208129883,-0.1961439996957779,-0.1194910034537315,0.1591739952564239,-9.721614837646484,-1.2764790058135986
1757088606648030200,3.8750302734375,-0.1919499933719635,0.3470500111579895,-0.3704249858856201,0.4700889885425567,-0.1825270056724548,-0.1250499933958053,0.147485002875328,-9.722702026367188,-1.2696280479431152
1757088606657583000,3.8845830078125,-0.1979999989271164,0.3482874929904938,-0.381424993276596,0.3792499899864197,-0.1998420059680938,-0.1084059998393058,0.1353339999914169,-9.723852157592772,-1.2621699571609497
1757088606667136300,3.89413623046875,-0.1992374956607818,0.3495250046253204,-0.3997125029563904,0.3924170136451721,-0.2408020049333572,-0.0659769997000694,0.1228300034999847,-9.725068092346191,-1.2540040016174316
1757088606676689200,3.903689208984375,-0.2041874974966049,0.3592875003814697,-0.4156624972820282,0.4832479953765869,-0.262129008769989,0.0028939999174326,0.1103039979934692,-9.726357460021973,-1.2449990510940552
1757088606686242000,3.913241943359375,-0.2089999914169311,0.3971000015735626,-0.4314749836921692,0.5322250127792358,-0.2183180004358291,0.0835720002651214,0.0978579968214035,-9.727725982666016,-1.2350599765777588
1757088606695795200,3.922795166015625,-0.2199999988079071,0.4570499956607818,-0.455949991941452,0.4972890019416809,-0.0997660011053085,0.1728630065917968,0.0851650014519691,-9.7291898727417,-1.2239789962768557
1757088606705348400,3.932348388671875,-0.233474999666214,0.5218124985694885,-0.4852375090122223,0.5417019724845886,0.0521869994699955,0.1684210002422332,0.0721400007605552,-9.730746269226074,-1.2117619514465332
1757088606714901200,3.9419013671875,-0.2407625019550323,0.5546749830245972,-0.5084750056266785,0.6597669720649719,0.2463269978761673,0.0471669994294643,0.0590829998254776,-9.732356071472168,-1.1987329721450806
1757088606724454100,3.9514541015625,-0.231000006198883,0.5425750017166138,-0.519474983215332,0.6946449875831604,0.3935700058937073,-0.1306090056896209,0.0461589992046356,-9.733957290649414,-1.185502052307129
1757088606734007000,3.961007080078125,-0.2139499932527542,0.4948624968528747,-0.5329499840736389,0.630994975566864,0.5323699712753296,-0.2682400047779083,0.0330770015716552,-9.735511779785156,-1.1724400520324707
1757088606743560200,3.970560302734375,-0.1955250054597854,0.4313375055789947,-0.558525025844574,0.4333750009536743,0.6149740219116211,-0.363750010728836,0.0190149992704391,-9.736967086791992,-1.159978985786438
1757088606753113000,3.980113037109375,-0.1735250055789947,0.3495250046253204,-0.602524995803833,0.2084899991750717,0.6674129962921143,-0.4667640030384063,0.0029730000533163,-9.738272666931152,-1.148445963859558
1757088606762666200,3.989666259765625,-0.1467124968767166,0.2615250051021576,-0.6525750160217285,0.0620560012757778,0.6751859784126282,-0.5564960241317749,-0.0159079991281032,-9.73935604095459,-1.1382290124893188
1757088606772219100,3.99921923828125,-0.1186624988913536,0.190712496638298,-0.7050999999046326,0.0053610000759363,0.6479160189628601,-0.6227189898490906,-0.0381739996373653,-9.74013614654541,-1.1297190189361572
1757088606781772300,4.008772216796875,-0.0904750004410743,0.1332374960184097,-0.7565249800682068,-0.0301329996436834,0.5929679870605469,-0.642346978187561,-0.0641949996352195,-9.740541458129885,-1.123121976852417
1757088606791325200,4.0183251953125,-0.0636624991893768,0.0599500015377998,-0.7980499863624573,-0.0539380013942718,0.4552760124206543,-0.6663939952850342,-0.0940669998526573,-9.74049186706543,-1.118685960769653
1757088606800878000,4.027878173828125,-0.029424998909235,-0.0475750006735324,-0.8248624801635742,-0.1226539984345436,0.3751609921455383,-0.7608090043067932,-0.1278750002384185,-9.739855766296388,-1.116963028907776
1757088606810431200,4.03743115234375,0.0048124999739229,-0.1588124930858612,-0.8505749702453613,-0.2543039917945862,0.2776550054550171,-0.5784500241279602,-0.1659809947013855,-9.73857307434082,-1.1177619695663452
1757088606819984400,4.046984375,0.0206249989569187,-0.2051499933004379,-0.88714998960495,-0.2002969980239868,0.1211249977350235,-0.3314760029315948,-0.2083979994058609,-9.73668098449707,-1.1204220056533811
1757088606829537300,4.056537353515625,0.0365750007331371,-0.0878624990582466,-0.9068124890327454,0.0504610016942024,0.1667670011520385,-0.1762290000915527,-0.2546199858188629,-9.734234809875488,-1.1245290040969849
1757088606839090200,4.066090087890625,0.0450999997556209,0.0917124971747398,-0.9409124851226808,-0.0618270002305507,0.1856900006532669,0.0191709995269775,-0.3051199913024902,-9.731218338012695,-1.1294660568237305
1757088606848643000,4.07564306640625,0.052387498319149,0.2455749958753585,-1.0069124698638916,-0.3602690100669861,0.2173320055007934,-0.000700999982655,-0.3609220087528229,-9.727415084838867,-1.1353299617767334
1757088606858196200,4.0851962890625,0.0818125009536743,0.2883374989032745,-1.096150040626526,-0.3837549984455108,0.0960099995136261,-0.1947399973869323,-0.422434002161026,-9.72258758544922,-1.1428979635238647
1757088606867749000,4.0947490234375,0.1331000030040741,0.1870000064373016,-1.1596750020980835,-0.232460007071495,0.0765490010380745,-0.3633069992065429,-0.4896030128002167,-9.716535568237305,-1.1532000303268433
1757088606877302300,4.10430224609375,0.1891999989748001,-0.0500499978661537,-1.2109625339508057,-0.1764100044965744,0.0621570013463497,-0.2770839929580688,-0.5623930096626282,-9.70913028717041,-1.166651964187622
1757088606886855200,4.113855224609375,0.2369125038385391,-0.2576749920845032,-1.2597750425338743,-0.1519500017166137,-0.0267370007932186,0.0189490001648664,-0.640546977519989,-9.70033073425293,-1.1830190420150757
1757088606896408300,4.123408203125,0.2662000060081482,-0.27114999294281,-1.3001999855041504,-0.1351609975099563,-0.1241670027375221,0.4275059998035431,-0.7241439819335938,-9.690195083618164,-1.2012399435043335
1757088606905961200,4.132961181640625,0.2734875082969665,-0.1526249945163726,-1.355062484741211,-0.4380820095539093,-0.2632229924201965,0.7345669865608215,-0.8145849704742432,-9.67860507965088,-1.2199280261993408
1757088606915514000,4.14251416015625,0.2809124886989593,-0.0560999996960163,-1.4455374479293823,-0.8156939744949341,-0.5394359827041626,0.7284820079803467,-0.9132519960403442,-9.665236473083496,-1.238340973854065
1757088606925067000,4.15206689453125,0.2747249901294708,-0.031624998897314,-1.5053499937057495,-0.3284069895744324,-0.7048299908638,0.8347859978675842,-1.0187560319900513,-9.65030288696289,-1.2555429935455322
1757088606934620200,4.1616201171875,0.2186249941587448,-0.0598125010728836,-1.5103000402450562,-0.0544859990477561,-0.8401529788970947,1.0261989831924438,-1.129520058631897,-9.634051322937012,-1.2703310251235962
1757088606944173300,4.17117333984375,0.1256749927997589,-0.0891000032424926,-1.5005375146865845,-0.1525789946317672,-0.7488420009613037,0.8961849808692932,-1.2448290586471558,-9.616392135620115,-1.2822129726409912
1757088606953726200,4.180726318359375,0.0475750006735324,-0.1746249943971634,-1.5030125379562378,-0.3471080064773559,-0.5231959819793701,0.6396269798278809,-1.3645559549331665,-9.597058296203612,-1.291260004043579
1757088606963279000,4.190279052734375,-0.0049499999731779,-0.2613874971866607,-1.5151125192642212,-0.3448120057582855,-0.1080569997429847,0.3015489876270294,-1.4885499477386477,-9.57577896118164,-1.2980870008468628
1757088606972832300,4.199832275390625,-0.0441375002264976,-0.3504875004291534,-1.5456374883651731,-0.5134879946708679,0.0927700027823448,0.1543730050325393,-1.6171369552612305,-9.552206993103027,-1.3029669523239136
1757088606982385200,4.20938525390625,-0.083187498152256,-0.4250124990940094,-1.5908750295639038,-0.919305980205536,0.4322800040245056,0.1177640035748481,-1.7516449689865112,-9.525677680969238,-1.305901050567627
1757088606991938000,4.21893798828125,-0.1209999993443489,-0.4972000122070312,-1.633637547492981,-0.8882719874382019,0.564860999584198,0.1853840053081512,-1.8919769525527956,-9.496015548706056,-1.3062829971313477
1757088607001491200,4.2284912109375,-0.1504250019788742,-0.6925874948501587,-1.6543999910354614,-0.6549019813537598,0.4541339874267578,0.5628659725189209,-2.036914110183716,-9.463418960571287,-1.3036110401153564
1757088607011044400,4.23804443359375,-0.1784749925136566,-0.7928249835968018,-1.682587504386902,-0.7846710085868835,0.185369998216629,0.9182119965553284,-2.186548948287964,-9.427721977233888,-1.2976189851760864
1757088607020597200,4.24759716796875,-0.2029500007629394,-0.7097749710083008,-1.6801124811172483,-0.5068609714508057,-0.0290159992873668,1.2770479917526243,-2.340528964996338,-9.389203071594238,-1.2874399423599243
1757088607030150100,4.257150146484375,-0.2395250052213668,-0.5447750091552734,-1.655637502670288,-0.4337570071220398,-0.1794739961624145,1.4565860033035278,-2.497792959213257,-9.3479585647583,-1.2727580070495603
1757088607039703000,4.266703125,-0.2457125037908554,-0.3309625089168548,-1.6288249492645264,-0.2729960083961487,-0.0971420034766197,1.0750230550765991,-2.656588077545166,-9.304102897644045,-1.2542370557785034
1757088607049256200,4.276256103515625,-0.2567124962806701,-0.2906749844551086,-1.5433000326156616,0.4838970005512237,-0.221342995762825,1.151020050048828,-2.8140580654144287,-9.258905410766602,-1.2309010028839111
1757088607058809000,4.28580908203125,-0.2517625093460083,-0.2441999912261963,-1.467537522315979,0.4638620018959045,-0.2183450013399124,1.0431100130081177,-2.9701449871063232,-9.212554931640623,-1.2022180557250977
1757088607068362000,4.295362060546875,-0.2957625091075897,-0.1685750037431717,-1.4370124340057373,0.4130260050296783,-0.2229920029640197,1.3006609678268433,-3.124958038330078,-9.165136337280272,-1.1668980121612549
1757088607077915100,4.3049150390625,-0.3385249972343445,-0.1269125044345855,-1.452824950218201,0.4908480048179626,-0.2102299928665161,1.003121018409729,-3.2783689498901367,-9.116575241088867,-1.1260809898376465
1757088607087468000,4.314468017578125,-0.3653374910354614,-0.1220999956130981,-1.5078250169754028,0.7060279846191406,-0.3147419989109039,0.9213460087776184,-3.429847002029419,-9.066943168640137,-1.0809799432754517
1757088607097021200,4.324021240234375,-0.4288625121116638,-0.1575749963521957,-1.5688749551773071,0.9920259714126588,-0.3998270034790039,1.1997829675674438,-3.5777299404144287,-9.016656875610352,-1.031574010848999
1757088607106574000,4.333573974609375,-0.4998124837875366,-0.2466749995946884,-1.604349970817566,1.279237985610962,-0.3352270126342773,0.9681419730186462,-3.720186948776245,-8.966291427612305,-0.978551983833313
1757088607116127000,4.343126953125,-0.5438125133514404,-0.3944875001907348,-1.616587519645691,0.9059789776802064,-0.2703140079975128,0.5802279710769653,-3.859361886978149,-8.91499137878418,-0.9236850142478944
1757088607125680000,4.35268017578125,-0.5693874955177307,-0.511775016784668,-1.647112488746643,0.3104879856109619,-0.1813780069351196,0.3297300040721893,-3.997683048248291,-8.86149787902832,-0.8687490224838257
1757088607135233300,4.3622333984375,-0.5571500062942505,-0.5937250256538391,-1.6543999910354614,0.3261939883232116,-0.0068120001815259,-0.1641139984130859,-4.135110855102539,-8.805700302124023,-0.8156149983406067
1757088607144786200,4.3717861328125,-0.5022875070571899,-0.7133499979972839,-1.6018749475479126,0.3807910084724426,0.0676750019192695,-0.6985120177268982,-4.270750045776367,-8.747971534729004,-0.7660660147666931
1757088607154339000,4.381339111328125,-0.4081000089645386,-0.6107749938964844,-1.5945874452590942,0.2046020030975341,0.0778120011091232,-0.6804010272026062,-4.404646873474121,-8.688310623168945,-0.7192429900169373
1757088607163892000,4.39089208984375,-0.3715249896049499,-0.555774986743927,-1.572587490081787,0.2987399995326996,0.0526139996945858,-0.3509489893913269,-4.535761833190918,-8.627283096313477,-0.6737449765205383
1757088607173445000,4.400445068359375,-0.3715249896049499,-0.5325375199317932,-1.5896375179290771,-0.0293249990791082,0.2127680033445358,-0.3591130077838897,-4.663462162017822,-8.564830780029297,-0.6294299960136414
1757088607182998000,4.409998046875,-0.3653374910354614,-0.5081999897956848,-1.5982999801635742,0.049125999212265,0.3426640033721924,-0.6049240231513977,-4.787548065185547,-8.501046180725098,-0.5872809886932373
1757088607192551200,4.41955126953125,-0.3262875080108642,-0.4787749946117401,-1.584825038909912,0.1067769974470138,0.4597949981689453,-0.7542979717254639,-4.908713817596436,-8.435606002807617,-0.5488370060920715
1757088607202104000,4.42910400390625,-0.2750000059604645,-0.428725004196167,-1.564062476158142,-0.0077399997971951,0.7460790276527405,-0.9278200268745422,-5.027409076690674,-8.367988586425781,-0.5157939791679382
1757088607211657200,4.4386572265625,-0.2102375030517578,-0.3969624936580658,-1.516350030899048,0.0597129985690116,0.860427975654602,-1.031978964805603,-5.144327163696289,-8.297774314880371,-0.4900090098381042
1757088607221210000,4.448210205078125,-0.1259499937295913,-0.3969624936580658,-1.4565374851226809,0.099540002644062,0.7912120223045349,-1.103140950202942,-5.259340763092041,-8.225037574768066,-0.4729979932308197
1757088607230763000,4.457762939453125,-0.0464750006794929,-0.3529624938964844,-1.4027750492095947,-0.0508340001106262,0.6202759742736816,-0.9142889976501464,-5.372566223144531,-8.149934768676758,-0.4635570049285888
1757088607240316000,4.46731591796875,0.0108624994754791,-0.2479124963283538,-1.3575375080108645,0.1876010000705719,0.2509799897670746,-0.5455390214920044,-5.4852471351623535,-8.072392463684082,-0.4607340097427368
1757088607249869000,4.476869140625,0.052387498319149,-0.1111000031232833,-1.314774990081787,0.4602409899234772,-0.1327009946107864,-0.3082540035247803,-5.596519947052002,-7.993473052978516,-0.4631980061531067
1757088607259422000,4.486421875,0.0756250023841857,-0.0475750006735324,-1.3135374784469604,0.4710060060024261,-0.5147809982299805,0.0040040002204477,-5.705844879150391,-7.913759231567383,-0.4709129929542541
1757088607268975000,4.49597509765625,0.0609125010669231,-0.1135749965906143,-1.3490124940872192,0.4081850051879883,-0.8299319744110107,0.2943139970302582,-5.81316614151001,-7.833570957183838,-0.4825200140476227
1757088607278528000,4.505528076171875,0.0206249989569187,-0.2296250015497207,-1.3820124864578247,0.1728920042514801,-1.0667489767074585,0.3986450135707855,-5.919033050537109,-7.752634048461914,-0.4978060126304626
1757088607288081200,4.5150810546875,-0.0221375003457069,-0.2881999909877777,-1.3965874910354614,-0.2696230113506317,-1.0457149744033811,0.2847850024700165,-6.024628162384033,-7.669939994812012,-0.5181390047073364
1757088607297634000,4.524634033203125,-0.0464750006794929,-0.2540999948978424,-1.3660625219345093,-0.2352100014686584,-0.9414790272712708,0.0782580003142356,-6.130392074584961,-7.585277080535889,-0.543317973613739
1757088607307187000,4.53418701171875,-0.0428999997675418,-0.1746249943971634,-1.306249976158142,-0.2087520062923431,-0.7591670155525208,-0.0196419991552829,-6.235311985015869,-7.499300956726074,-0.5719850063323975
1757088607316739800,4.54373974609375,-0.0318999998271465,-0.1453374922275543,-1.258537530899048,0.1743279993534088,-0.6995530128479004,0.3134889900684356,-6.337204933166504,-7.413774013519287,-0.6021779775619507
1757088607326293200,4.553293212890625,-0.0331375002861022,-0.1440999954938888,-1.2390124797821045,0.3054240047931671,-0.6764810085296631,0.2394700050354004,-6.435648918151856,-7.329172134399414,-0.6322939991950989
1757088607335846100,4.56284619140625,-0.0246124994009733,-0.2149125039577484,-1.2439625263214111,0.1328919976949691,-0.5485780239105225,0.2541300058364868,-6.5313568115234375,-7.244966983795166,-0.6602929830551147
1757088607345399000,4.57239892578125,-0.055137500166893,-0.2479124963283538,-1.2487750053405762,0.0460829995572567,-0.1849469989538192,0.1109689995646476,-6.624588966369629,-7.16071891784668,-0.6865730285644531
1757088607354952000,4.581951904296875,-0.0636624991893768,-0.2198625057935714,-1.2427250146865845,0.1698780059814453,0.1459310054779052,-0.0721660032868385,-6.715951919555664,-7.075838088989258,-0.7126039862632751
1757088607364505000,4.591505126953125,-0.0563750006258487,-0.1978625059127807,-1.214674949645996,0.2275370061397552,0.3218660056591034,-0.1408379971981048,-6.804574012756348,-6.990908145904541,-0.73860102891922
1757088607374057700,4.6010576171875,-0.0416624993085861,-0.1636250019073486,-1.192674994468689,-0.0207349993288517,0.4543389976024627,-0.1940290033817291,-6.890867233276367,-6.905509948730469,-0.7638149857521057
1757088607383611000,4.61061083984375,-0.0404249988496303,-0.1403875052928924,-1.1754875183105469,-0.2216559946537017,0.594747006893158,-0.1626009941101074,-6.975244998931885,-6.819239139556885,-0.787414014339447
1757088607393164000,4.6201640625,-0.0428999997675418,-0.1160499975085258,-1.1486749649047852,-0.235626995563507,0.684033989906311,-0.0803939998149871,-7.057228088378906,-6.732576847076416,-0.8083570003509521
1757088607402717000,4.629717041015625,-0.0477125011384487,-0.0963874980807304,-1.1131999492645264,-0.0736029967665672,0.6950910091400146,0.0705590024590492,-7.136757850646973,-6.64589786529541,-0.8255339860916138
1757088607412270000,4.63927001953125,-0.0636624991893768,-0.1000999957323074,-1.0704375505447388,-0.0827419981360435,0.6203799843788147,0.123990997672081,-7.214077949523926,-6.559301853179932,-0.8381670117378235
1757088607421823000,4.648822998046875,-0.0709500014781951,-0.0963874980807304,-1.0203875303268433,0.0338510014116764,0.5523369908332825,0.1672129929065704,-7.289062023162842,-6.473182201385498,-0.8466309905052185
1757088607431376000,4.6583759765625,-0.0709500014781951,-0.0646250024437904,-0.9788625240325928,0.2089139968156814,0.4090780019760132,0.1404920071363449,-7.36231517791748,-6.38723087310791,-0.852200984954834
1757088607440929300,4.66792919921875,-0.0648999959230423,-0.0340999998152256,-0.951912522315979,0.3474369943141937,0.2399259954690933,0.0346589982509613,-7.434490203857422,-6.300992012023926,-0.8561779856681824
1757088607450482200,4.677482177734375,-0.062424998730421,-0.0133375003933906,-0.9690999984741212,0.1452690064907074,0.1086030006408691,-0.2302139997482299,-7.506073951721191,-6.213764190673828,-0.860388994216919
1757088607460035000,4.68703515625,-0.0574750006198883,-0.0255750007927417,-0.9824374914169312,0.1204390004277229,-0.0655020028352737,-0.2582510113716125,-7.577042102813721,-6.125566959381104,-0.8656820058822632
1757088607469588000,4.696587890625,-0.0453750006854534,-0.0305249989032745,-0.9836750030517578,-0.1076790019869804,-0.1883829981088638,-0.2243970036506652,-7.647292137145996,-6.036482810974121,-0.8720009922981262
1757088607479140900,4.706140869140625,-0.0391874983906745,-0.0182875003665685,-0.965387523174286,-0.097520001232624,-0.3891949951648712,-0.0126820001751184,-7.715874195098877,-5.947797775268555,-0.8783169984817505
1757088607488694000,4.715694091796875,-0.0367125011980533,0.0318999998271465,-0.9336249828338624,0.0601360015571117,-0.4579069912433624,0.0799179971218109,-7.782597064971924,-5.860044002532959,-0.8837869763374329
1757088607498247000,4.725246826171875,-0.029424998909235,0.0489500015974044,-0.9006249904632568,0.1294330060482025,-0.4027050137519836,-0.0140220001339912,-7.8473920822143555,-5.773356914520264,-0.8886169791221619
1757088607507800000,4.734800048828125,-0.0391874983906745,0.0562375001609325,-0.8958125114440918,0.1137109994888305,-0.2513439953327179,-0.0107310004532337,-7.911042213439941,-5.686707973480225,-0.8937150239944458
1757088607517353000,4.74435302734375,-0.0501874983310699,0.0574750006198883,-0.9128624796867372,0.1210919991135597,-0.1656789928674698,-0.1953890025615692,-7.973893165588379,-5.599596977233887,-0.899387001991272
1757088607526906000,4.753906005859375,-0.0538999997079372,0.0428999997675418,-0.9373375177383424,0.072282999753952,-0.1583490073680877,-0.2310229986906051,-8.035629272460938,-5.512322902679443,-0.9055370092391968
1757088607536459000,4.763458984375,-0.0477125011384487,0.0697124972939491,-0.9568625092506408,0.0061389999464154,-0.1345320045948028,-0.2962340116500854,-8.09576416015625,-5.425417900085449,-0.911752998828888
1757088607546012200,4.77301220703125,-0.0501874983310699,0.1577125042676925,-0.9629124999046326,-0.1496430039405822,-0.1023909971117973,-0.2280450016260147,-8.154250144958496,-5.339017868041992,-0.9168879985809326
1757088607555565000,4.78256494140625,-0.0514249987900257,0.215049996972084,-0.9568625092506408,-0.2036390006542205,-0.2761540114879608,-0.1307689994573593,-8.21086597442627,-5.253688812255859,-0.9201449751853944
1757088607565118200,4.7921181640625,-0.034375000745058,0.2712875008583069,-0.9385749697685242,-0.1320520043373108,-0.3478470146656036,-0.130840003490448,-8.265034675598145,-5.170362949371338,-0.9212689995765686
1757088607574671000,4.801671142578125,-0.0208999998867511,0.32133749127388,-0.904337465763092,-0.0145540004596114,-0.4514339864253998,0.1574729979038238,-8.31621265411377,-5.090159893035889,-0.919435977935791
1757088607584224000,4.81122412109375,-0.034375000745058,0.3420999944210052,-0.8810999989509583,-0.0796499997377395,-0.5705580115318298,0.230330005288124,-8.364236831665039,-5.013543128967285,-0.9146199822425842
1757088607593777000,4.82077685546875,-0.062424998730421,0.3262875080108642,-0.868862509727478,-0.1521569937467575,-0.5660399794578552,0.2335470020771026,-8.409391403198242,-4.94019079208374,-0.9073269963264464
1757088607603330000,4.830330078125,-0.1039500012993812,0.2908124923706054,-0.851812481880188,-0.4210549890995025,-0.5274509787559509,0.2055989950895309,-8.452095031738281,-4.869511127471924,-0.8978790044784546
1757088607612883000,4.839883056640625,-0.1516624987125396,0.3115749955177307,-0.8370999693870544,-0.6857969760894775,-0.5382239818572998,0.2861270010471344,-8.492849349975586,-4.800856113433838,-0.8859879970550537
1757088607622435800,4.849435791015625,-0.1979999989271164,0.3531000018119812,-0.812624990940094,-0.4627909958362579,-0.4752469956874847,0.1582120060920715,-8.532050132751465,-4.7337751388549805,-0.8717899918556213
1757088607631989000,4.858989013671875,-0.2261874973773956,0.3495250046253204,-0.785812497138977,-0.2834959924221039,-0.4114120006561279,-0.0398459993302822,-8.570058822631836,-4.6678080558776855,-0.8556140065193176
1757088607641542000,4.8685419921875,-0.231000006198883,0.3287625014781952,-0.7833374738693237,-0.3958359956741333,-0.389519989490509,-0.1713960021734237,-8.606929779052734,-4.602917194366455,-0.8372460007667542
1757088607651095000,4.878094970703125,-0.2285249978303909,0.3152875006198883,-0.7845749855041504,-0.3220109939575195,-0.4768449962139129,-0.101851999759674,-8.642748832702637,-4.539133071899414,-0.8164539933204651
1757088607660648000,4.88764794921875,-0.2322375029325485,0.3018124997615814,-0.7870500087738037,-0.191554993391037,-0.5755940079689026,0.1349879950284958,-8.67734146118164,-4.476914882659912,-0.7927629947662354
1757088607670200800,4.897200927734375,-0.2407625019550323,0.2602874934673309,-0.7906249761581421,-0.1195140033960342,-0.5612490177154541,0.1337900012731552,-8.710959434509277,-4.415757179260254,-0.7670450210571289
1757088607679754000,4.90675390625,-0.2457125037908554,0.22605000436306,-0.7675250172615051,0.0138940000906586,-0.4628739953041076,0.0657320022583007,-8.743843078613281,-4.355173110961914,-0.7401180267333984
1757088607689307100,4.91630712890625,-0.2457125037908554,0.2370499968528747,-0.7430499792098999,-0.0010839999886229,-0.2765009999275207,-0.1031299978494644,-8.776224136352539,-4.29468297958374,-0.7121989727020264
1757088607698860000,4.925860107421875,-0.2407625019550323,0.3091000020503998,-0.7260000109672546,-0.0061570000834763,-0.2187560051679611,-0.1825219988822937,-8.807939529418945,-4.234539985656738,-0.6832579970359802
1757088607708413000,4.935412841796875,-0.2371875047683715,0.3348124921321869,-0.7345250248908997,-0.0929659977555275,-0.2713240087032318,-0.1874449998140335,-8.838898658752441,-4.175026893615723,-0.6526489853858948
1757088607717965800,4.9449658203125,-0.2371875047683715,0.3605250120162964,-0.7540500164031982,-0.0507320016622543,-0.2835910022258758,-0.1851049959659576,-8.869020462036133,-4.116330146789551,-0.6201080083847046
1757088607727519000,4.95451904296875,-0.2432374954223632,0.3555749952793121,-0.7601000070571899,-0.0087440004572272,-0.1471109986305236,-0.1891490072011947,-8.898324966430664,-4.058358192443848,-0.5855969786643982
1757088607737071900,4.96407177734375,-0.2492875009775161,0.2895750105381012,-0.7650499939918518,-0.2272280007600784,0.0665439963340759,-0.2554120123386383,-8.926888465881348,-4.000603199005127,-0.5502300262451172
1757088607746625000,4.973625,-0.2432374954223632,0.2700499892234802,-0.7503374814987183,-0.1693550050258636,0.1988029927015304,-0.1575129926204681,-8.954938888549805,-3.94246506690979,-0.5144150257110596
1757088607756178000,4.983177978515625,-0.2419999986886978,0.2810499966144562,-0.7235249876976013,-0.0492770001292228,0.1876700073480606,0.0741029977798461,-8.982542991638184,-3.883884906768799,-0.4776149988174438
1757088607765731000,4.99273095703125,-0.231000006198883,0.296999990940094,-0.7015249729156494,0.0163240004330873,0.1934510022401809,0.0612870007753372,-9.009825706481934,-3.824428081512451,-0.4408420026302337
1757088607775284000,5.002283935546875,-0.2089999914169311,0.2957625091075897,-0.6953374743461609,0.0522020012140274,0.2042450010776519,-0.0108270002529025,-9.036890029907228,-3.7638049125671382,-0.4047209918498993
1757088607784836900,5.0118369140625,-0.1772374957799911,0.2725250124931335,-0.7002875208854675,0.0689160004258155,0.1096429973840713,-0.0418809987604618,-9.06362533569336,-3.70229697227478,-0.3695209920406341
1757088607794390000,5.02139013671875,-0.1527625024318695,0.2798124849796295,-0.7137625217437744,0.0538269989192485,-0.056573998183012,-0.0530290007591247,-9.089763641357422,-3.640604019165039,-0.3351610004901886
1757088607803943000,5.03094287109375,-0.1344749927520752,0.2872374951839447,-0.7308124899864197,0.0824510008096695,-0.2879709899425506,-0.0185139998793602,-9.115007400512695,-3.5794920921325684,-0.3019709885120392
1757088607813496000,5.04049609375,-0.1209999993443489,0.294524997472763,-0.7369999885559082,0.2140060067176818,-0.5124030113220215,-0.0877870023250579,-9.139269828796388,-3.5194530487060547,-0.2700380086898803
1757088607823049000,5.050049072265625,-0.111237496137619,0.2835249900817871,-0.7467625141143799,0.1724729984998703,-0.5726040005683899,-0.0028689999599009,-9.162668228149414,-3.4603960514068604,-0.2386070042848587
1757088607832601900,5.059601806640625,-0.1199000030755996,0.1857624948024749,-0.7930999994277954,0.2048929929733276,-0.5016520023345947,0.0811579972505569,-9.18528175354004,-3.4021151065826416,-0.2074189931154251
1757088607842154800,5.06915478515625,-0.116187497973442,0.0709500014781951,-0.8408125042915344,0.4208700060844421,-0.2602689862251282,0.0239140000194311,-9.207462310791016,-3.3436288833618164,-0.1773139983415603
1757088607851708200,5.078708251953125,-0.0941874980926513,-0.0072874999605119,-0.8701000213623047,0.6419829726219177,-0.0627570003271102,-0.0921010002493858,-9.22950553894043,-3.284034013748169,-0.1496780067682266
1757088607861260800,5.0882607421875,-0.0709500014781951,-0.0512874983251094,-0.8945749998092651,0.4295229911804199,-0.01579499989748,-0.2775990068912506,-9.251571655273438,-3.2228379249572754,-0.1251579970121383
1757088607870814000,5.09781396484375,-0.034375000745058,-0.0976250022649765,-0.9116249680519104,0.1495780050754547,-0.115736000239849,-0.4340369999408722,-9.27367877960205,-3.159986972808838,-0.1041200011968612
1757088607880366800,5.107366943359375,-0.0098999999463558,-0.085387498140335,-0.8945749998092651,0.0123330000787973,-0.1385280042886734,-0.3317529857158661,-9.295659065246582,-3.0958940982818604,-0.0857459977269172
1757088607889920000,5.116919921875,-0.0037124999798834,0.0318999998271465,-0.8493375182151794,-0.0280969999730587,-0.1181930005550384,-0.2232560068368911,-9.317427635192873,-3.030770063400269,-0.0692239999771118
1757088607899473000,5.126472900390625,-0.0013749999925494,0.1919499933719635,-0.7918624877929688,0.0013940000208094,0.0628290027379989,-0.1850340068340301,-9.339024543762209,-2.9643959999084477,-0.0537809990346431
1757088607909025800,5.13602587890625,0.0083875004202127,0.3190000057220459,-0.7455250024795532,0.1309439986944198,0.183007001876831,-0.2482060045003891,-9.36043930053711,-2.896743059158325,-0.0391339994966983
1757088607918579000,5.145578857421875,0.0170499999076128,0.3946250081062317,-0.7039999961853027,0.2250609993934631,0.1813630014657974,-0.2692820131778717,-9.38146686553955,-2.82840895652771,-0.0249509997665882
1757088607928131800,5.1551318359375,0.0255750007927417,0.4118124842643738,-0.6795250177383423,0.3064019978046417,0.0427459999918937,-0.2905380129814148,-9.401683807373049,-2.760776996612549,-0.0107450000941753
1757088607937685000,5.16468505859375,0.0206249989569187,0.432574987411499,-0.6612374782562256,0.1497599929571151,0.0131729999557137,-0.0107089998200535,-9.420991897583008,-2.694153070449829,0.0043009999208152
1757088607947238000,5.17423779296875,-0.0026124999858438,0.3958624899387359,-0.6612374782562256,-0.30240398645401,0.1023219972848892,0.2679559886455536,-9.439579963684082,-2.6277530193328857,0.0201069992035627
1757088607956790800,5.183790771484375,-0.0318999998271465,0.3030500113964081,-0.6892874836921692,-0.6783120036125183,0.2555400133132934,0.4408510029315948,-9.4576416015625,-2.5607049465179443,0.0366839990019798
1757088607966343700,5.19334375,-0.0441375002264976,0.2162874937057495,-0.7027624845504761,-0.685280978679657,0.3224239945411682,0.2770709991455078,-9.475237846374512,-2.492750883102417,0.0534150004386901
1757088607975897000,5.20289697265625,-0.0318999998271465,0.2199999988079071,-0.6635749936103821,-0.5224599838256836,0.2297880053520202,0.0742679983377456,-9.49235725402832,-2.424175977706909,0.0699940025806427
1757088607985450000,5.212449951171875,-0.0026124999858438,0.2615250051021576,-0.585474967956543,-0.6032950282096863,0.2531970143318176,0.031029999256134,-9.509063720703123,-2.3549070358276367,0.0865020006895065
1757088607995003000,5.2220029296875,-0.0208999998867511,0.201712504029274,-0.5304750204086304,-1.0410809516906738,0.5656729936599731,0.5436130166053772,-9.525314331054688,-2.285775899887085,0.1024499982595443
1757088608004556000,5.23155615234375,-0.0246124994009733,0.1222374960780143,-0.5207124948501587,-1.2084989547729492,0.9508270025253296,0.2661809921264648,-9.541341781616213,-2.216118097305298,0.1176730021834373
1757088608014109000,5.24110888671875,-0.0136124994605779,0.107524998486042,-0.5024250149726868,-1.098649024963379,1.3304920196533203,0.2775810062885284,-9.557156562805176,-2.145947933197021,0.1319029927253723
1757088608023661800,5.250661865234375,0.0035749999806284,0.1222374960780143,-0.4620000123977661,-0.9694479703903198,1.4771549701690674,0.0443519987165927,-9.573259353637695,-2.0713019371032715,0.1454750001430511
1757088608033215000,5.260215087890625,0.0499125011265277,0.1467124968767166,-0.3936625123023987,-0.8992230296134949,1.2485439777374268,-0.2236150056123733,-9.589259147644045,-1.9938679933547971,0.1584500074386596
1757088608042768000,5.269767822265625,0.1049124971032142,0.1381874978542328,-0.3276624977588653,-1.1281019449234009,0.9838209748268129,-0.2687399983406067,-9.604427337646484,-1.9183419942855835,0.1721909940242767
1757088608052320800,5.27932080078125,0.1391499936580658,0.1234750002622604,-0.2886124849319458,-1.2162259817123413,0.7252439856529236,0.0230539999902248,-9.618629455566406,-1.8453760147094729,0.1874459981918335
1757088608061874000,5.2888740234375,0.1501500010490417,0.1307625025510788,-0.2628999948501587,-1.1203750371932983,0.4786739945411682,0.3549570143222809,-9.631868362426758,-1.7751350402832031,0.2049800008535385
1757088608071426800,5.2984267578125,0.1354375034570694,0.1539999991655349,-0.2164250016212463,-0.787168025970459,0.2292809933423996,0.5402510166168213,-9.644208908081056,-1.7068519592285156,0.2260259985923767
1757088608080979700,5.307979736328125,0.1073874980211258,0.2065249979496002,-0.1541374921798706,-0.5279340147972107,0.0909269973635673,0.4600749909877777,-9.655611038208008,-1.6411700248718262,0.2498009949922561
1757088608090532900,5.317532958984375,0.0866250023245811,0.2578125,-0.0870374962687492,-0.2534239888191223,0.0199720002710819,0.3011859953403473,-9.665974617004396,-1.5789300203323364,0.2752909958362579
1757088608100085800,5.327085693359375,0.0658624991774559,0.2700499892234802,-0.0307999998331069,-0.0967010036110878,0.0698449984192848,0.2327820062637329,-9.67530345916748,-1.520357966423035,0.3019999861717224
1757088608109638700,5.336638671875,0.0438624992966651,0.2444749921560287,-0.0015124999918043,-0.0451739989221096,0.1627379953861236,0.2514449954032898,-9.683698654174805,-1.4650770425796509,0.3295960128307342
1757088608119192000,5.346192138671875,0.0193875003606081,0.1955250054597854,0.002199999988079,-0.0098820002749562,0.2417030036449432,0.2663449943065643,-9.691349029541016,-1.4122949838638306,0.3578979969024658
1757088608128744700,5.35574462890625,0.0048124999739229,0.1637624949216842,-0.0050874999724328,0.0309529993683099,0.3471699953079223,0.2716299891471863,-9.698339462280272,-1.3615950345993042,0.3858000040054321
1757088608138297900,5.3652978515625,-0.0098999999463558,0.1491875052452087,-0.0112749999389052,0.0698190033435821,0.4528050124645233,0.3204199969768524,-9.704618453979492,-1.3131569623947144,0.4127469956874847
1757088608147850800,5.374850830078125,-0.029424998909235,0.1539999991655349,-0.010037500411272,0.1393100023269653,0.4487040042877197,0.3562810122966766,-9.710064888000488,-1.2677459716796875,0.4388830065727234
1757088608157403600,5.384403564453125,-0.0428999997675418,0.158950001001358,-0.0038499999791383,0.1055750027298927,0.4225809872150421,0.3197509944438934,-9.714651107788086,-1.2257059812545776,0.4650020003318786
1757088608166956500,5.39395654296875,-0.0538999997079372,0.1625249981880188,0.002199999988079,0.0733420029282569,0.2944729924201965,0.2986780107021332,-9.718462944030762,-1.186921000480652,0.4916110038757324
1757088608176509700,5.403509765625,-0.062424998730421,0.1454750001430511,0.0059124999679625,-0.0056650000624358,0.1035690009593963,0.3441750109195709,-9.721529006958008,-1.1516660451889038,0.5186920166015625
1757088608186062600,5.4130625,-0.0807124972343444,0.1185249984264373,0.0082499999552965,-0.104942001402378,-0.0680330023169517,0.4106119871139526,-9.724040985107422,-1.1190229654312134,0.5466510057449341
1757088608195615700,5.42261572265625,-0.0989999994635582,0.0965249985456466,0.0169124994426965,-0.1187319979071617,-0.191103994846344,0.4143939912319183,-9.725975036621094,-1.0893410444259644,0.5757529735565186
1757088608205168600,5.432168701171875,-0.1099999994039535,0.0879999995231628,0.0412499979138374,-0.1089539974927902,-0.2237209975719452,0.396016001701355,-9.727334022521973,-1.0627479553222656,0.6059849858283997
1757088608214721800,5.4417216796875,-0.1199000030755996,0.0954250022768974,0.073012501001358,-0.0801400020718574,-0.1543090045452118,0.388929009437561,-9.72750473022461,-1.0435459613800049,0.637241005897522
1757088608224274700,5.451274658203125,-0.1369500011205673,0.1209999993443489,0.0999625027179718,-0.0115700000897049,-0.1742170006036758,0.3995180130004883,-9.72663688659668,-1.030948042869568,0.6703699827194214
1757088608233827600,5.46082763671875,-0.147949993610382,0.1417624950408935,0.1182499974966049,0.0590929985046386,-0.1976979970932006,0.3120149970054626,-9.725300788879396,-1.020954966545105,0.7046610116958618
1757088608243380700,5.470380615234375,-0.1601874977350235,0.1381874978542328,0.1304875016212463,0.1054629981517791,-0.2884880006313324,0.2271119952201843,-9.723505973815918,-1.0137250423431396,0.7399500012397766
1757088608252934000,5.479933837890625,-0.1662375032901764,0.1247124969959259,0.1329624950885772,0.0896530002355575,-0.3605000078678131,0.1415639966726303,-9.721277236938477,-1.00935697555542,0.775879979133606
1757088608262486800,5.48948681640625,-0.1711875051259994,0.1197625026106834,0.1182499974966049,0.0141470003873109,-0.4011299908161163,0.1046999990940094,-9.718605041503906,-1.0086020231246948,0.8107060194015503
1757088608272039700,5.499039794921875,-0.1724250018596649,0.1174250021576881,0.0901999995112419,-0.0546099990606308,-0.6122639775276184,0.0051620001904666,-9.715575218200684,-1.011152982711792,0.8439859747886658
1757088608281592600,5.508592529296875,-0.1747625023126602,0.0954250022768974,0.0742499977350235,0.0161760002374649,-0.957264006137848,-0.0915620028972625,-9.712175369262695,-1.017359972000122,0.8754760026931763
1757088608291145500,5.5181455078125,-0.1944250017404556,0.0941874980926513,0.0681999996304512,0.0380840003490448,-0.971746027469635,-0.0159000009298324,-9.708379745483398,-1.0270529985427856,0.9055079817771912
1757088608300698600,5.52769873046875,-0.2212374955415725,0.1099999994039535,0.0389125011861324,-0.0290099997073411,-0.724465012550354,-0.0274730008095502,-9.704278945922852,-1.0394370555877686,0.9341779947280884
1757088608310251500,5.53725146484375,-0.2432374954223632,0.1282874941825866,-0.0027499999850988,0.0611269995570182,-0.4623990058898926,0.0310699995607137,-9.69993019104004,-1.053794026374817,0.9619839787483216
1757088608319805000,5.546804931640625,-0.2579500079154968,0.1357125043869018,-0.0345125012099742,0.0401230007410049,-0.1278319954872131,-0.0706119984388351,-9.695479393005373,-1.069309949874878,0.9887930154800416
1757088608329357800,5.55635791015625,-0.2652375102043152,0.1282874941825866,-0.0527999997138977,-0.0431919991970062,0.002519000088796,-0.176829993724823,-9.69102668762207,-1.0858219861984253,1.0141340494155884
1757088608338910700,5.56591064453125,-0.2602874934673309,0.1259499937295913,-0.05884999781847,-0.1711120009422302,0.1966550052165985,-0.3710989952087402,-9.686758041381836,-1.1026699542999268,1.037214994430542
1757088608348463600,5.575463623046875,-0.2371875047683715,0.111237496137619,-0.0442750006914138,-0.0627069994807243,0.3189649879932403,-0.4989950060844421,-9.68277359008789,-1.1195160150527954,1.0576809644699097
1757088608358016500,5.5850166015625,-0.2127124965190887,0.0904750004410743,-0.025849999859929,0.0639519989490509,0.2946839928627014,-0.4349299967288971,-9.679071426391602,-1.136167049407959,1.075685977935791
