time,seconds_elapsed,z,y,x
1757088602865042000,0.0920419921875,8.088807106018066,-3.1092898845672607,-4.590631008148193
1757088602874594800,0.1015947265625,8.103445053100586,-3.0973570346832275,-4.571332931518555
1757088602884148000,0.11114794921875,8.132368087768555,-3.0726470947265625,-4.530282020568848
1757088602893700900,0.120700927734375,8.174942970275879,-3.0342230796813965,-4.464777946472168
1757088602903254000,0.13025390625,8.230244636535645,-2.9811019897460938,-4.371583938598633
1757088602912807000,0.139806884765625,8.296806335449219,-2.912403106689453,-4.247196197509766
1757088602922359800,0.14935986328125,8.372359275817871,-2.827441930770874,-4.088809013366699
1757088602931913000,0.158912841796875,8.453852653503418,-2.726016044616699,-3.8963510990142822
1757088602941465900,0.1684658203125,8.53559398651123,-2.6325089931488037,-3.6521739959716797
1757088602951018800,0.178018798828125,8.616358757019043,-2.525567054748535,-3.3711800575256348
1757088602960572000,0.187572021484375,8.693154335021973,-2.4049460887908936,-3.054331064224243
1757088602970124800,0.197124755859375,8.762995719909668,-2.270514965057373,-2.7021639347076416
1757088602979677700,0.206677734375,8.817243576049805,-2.14188289642334,-2.301424980163574
1757088602989230800,0.21623095703125,8.8513765335083,-2.01971697807312,-1.8551679849624634
1757088602998783700,0.22578369140625,8.870835304260254,-1.8864879608154297,-1.3801939487457275
1757088603008336600,0.235336669921875,8.874227523803711,-1.7428499460220337,-0.8787090182304382
1757088603027442700,0.254442626953125,8.831133842468262,-1.4286459684371948,0.19230300188064575
1757088603036995800,0.263995849609375,8.784826278686523,-1.2608449459075928,0.7565190196037292
1757088603046548700,0.273548828125,8.723722457885742,-1.0872119665145874,1.3356460332870483
1757088603056101600,0.2831015625,8.649460792541504,-0.9089720249176025,1.9269620180130005
1757088603065654800,0.29265478515625,8.549951553344727,-0.739022970199585,2.5081470012664795
1757088603075208000,0.3022080078125,8.428010940551758,-0.5790560245513916,3.0742359161376953
1757088603084760600,0.311760498046875,8.286017417907715,-0.43081700801849365,3.6209049224853516
1757088603094313700,0.321313720703125,8.126789093017578,-0.29676198959350586,4.143392086029053
1757088603103867000,0.330866943359375,7.953833103179932,-0.17936499416828156,4.636681079864502
1757088603113419800,0.340419677734375,7.770505905151367,-0.08003299683332443,5.097161769866943
1757088603122972700,0.34997265625,7.57983922958374,0.0008730000117793679,5.524776935577393
1757088603132525800,0.35952587890625,7.387163162231445,0.0880969986319542,5.902101993560791
1757088603142078700,0.36907861328125,7.194243907928467,0.16078099608421326,6.243591785430908
1757088603151631600,0.378631591796875,7.005561828613281,0.21873000264167786,6.549091815948486
1757088603161184800,0.388184814453125,6.82587194442749,0.26167500019073486,6.817814826965332
1757088603170737700,0.397737548828125,6.665288925170898,0.3089280128479004,7.035377025604248
1757088603180290800,0.407290771484375,6.52983283996582,0.359811007976532,7.2036662101745605
1757088603189843700,0.41684375,6.414699077606201,0.39463499188423157,7.33892297744751
1757088603199396900,0.42639697265625,6.320061206817627,0.41331198811531067,7.444180965423584
1757088603208949800,0.43594970703125,6.23339319229126,0.4007500112056732,7.532610893249512
1757088603218502700,0.445502685546875,6.15069580078125,0.362064003944397,7.608838081359863
1757088603228055800,0.455055908203125,6.066133975982666,0.3007799983024597,7.678120136260986
1757088603237608700,0.464608642578125,5.977053165435791,0.21757499873638153,7.742711067199707
1757088603247161900,0.474161865234375,5.899172782897949,0.12745599448680878,7.795938968658447
1757088603256714800,0.48371484375,5.8170318603515625,0.020692000165581703,7.8464131355285645
1757088603266267600,0.493267578125,5.733935832977295,-0.10308399796485901,7.892302989959717
1757088603275820800,0.50282080078125,5.656134128570557,-0.23008400201797485,7.933475971221924
1757088603285374000,0.5123740234375,5.582557201385498,-0.35943201184272766,7.970873832702637
1757088603294926800,0.5219267578125,5.512138843536377,-0.4908899962902069,8.005158424377441
1757088603304479700,0.531479736328125,5.430387020111084,-0.6395440101623535,8.039941787719727
1757088603314032600,0.54103271484375,5.340839862823486,-0.8063899874687195,8.071908950805664
1757088603323585800,0.550585693359375,5.254967212677002,-0.9755449891090393,8.100187301635742
1757088603333138700,0.560138671875,5.1621809005737305,-1.165958046913147,8.123151779174805
1757088603342691800,0.56969189453125,5.067296981811523,-1.3624060153961182,8.14422607421875
1757088603352244700,0.57924462890625,4.966639041900635,-1.566741943359375,8.1646146774292
1757088603361798000,0.5887978515625,4.85712194442749,-1.7808539867401123,8.18492317199707
1757088603371350800,0.598350830078125,4.73662805557251,-2.005681037902832,8.20503044128418
1757088603380903700,0.607903564453125,4.604290962219238,-2.240370035171509,8.22429370880127
1757088603390456800,0.617456787109375,4.462187767028809,-2.4840199947357178,8.240884780883789
1757088603400009700,0.627009765625,4.315127849578857,-2.738722085952759,8.23493766784668
1757088603409563000,0.63656298828125,4.18596076965332,-2.9850010871887207,8.211018562316895
1757088603419115800,0.64611572265625,4.0799970626831055,-3.223144054412842,8.167488098144531
1757088603428668700,0.655668701171875,3.9959869384765625,-3.452341079711914,8.106668472290039
1757088603438221800,0.665221923828125,3.9132769107818604,-3.686405897140503,8.039244651794434
1757088603447774700,0.674774658203125,3.841201066970825,-3.9150729179382324,7.9607439041137695
1757088603457327900,0.684327880859375,3.771122932434082,-4.137344837188721,7.876358985900879
1757088603466881000,0.693881103515625,3.694612979888916,-4.366497039794922,7.787383079528809
1757088603476434000,0.703433837890625,3.614881992340088,-4.601694107055664,7.692436218261719
1757088603485986800,0.71298681640625,3.5381710529327393,-4.840744972229004,7.589591026306152
1757088603495539700,0.722539794921875,3.4832260608673096,-5.067043781280518,7.473744869232178
1757088603505092900,0.7320927734375,3.448889970779419,-5.278988838195801,7.346542835235596
1757088603514645800,0.741645751953125,3.424509048461914,-5.492702960968018,7.2072978019714355
1757088603524199000,0.751198974609375,3.4194509983062744,-5.689637184143066,7.057305812835693
1757088603533752000,0.760751953125,3.426114082336426,-5.884881019592285,6.894050121307373
1757088603543305000,0.770304931640625,3.444288969039917,-6.076258182525635,6.71832799911499
1757088603552857900,0.77985791015625,3.4736719131469727,-6.2608819007873535,6.532392978668213
1757088603562410800,0.78941064453125,3.510875940322876,-6.436260223388672,6.34105110168457
1757088603571964000,0.7989638671875,3.5508038997650146,-6.6031317710876465,6.146793842315674
1757088603581517000,0.80851708984375,3.588766098022461,-6.764386177062988,5.948636054992676
1757088603591070000,0.818070068359375,3.6310410499572754,-6.9023261070251465,5.756021976470947
1757088603600622800,0.827622802734375,3.658073902130127,-7.038363933563232,5.565992832183838
1757088603610176000,0.837176025390625,3.6695570945739746,-7.172311782836914,5.381853103637695
1757088603619729000,0.84672900390625,3.667694091796875,-7.303427219390869,5.20498514175415
1757088603629282000,0.856281982421875,3.6438589096069336,-7.435019016265869,5.035414218902588
1757088603638835000,0.8658349609375,3.6186370849609375,-7.560198783874512,4.872122764587402
1757088603648388000,0.87538818359375,3.598356008529663,-7.677523136138916,4.7143778800964355
1757088603657941000,0.88494091796875,3.58624005317688,-7.785915851593018,4.562375068664551
1757088603667494000,0.894493896484375,3.580120086669922,-7.885176181793213,4.417664051055908
1757088603677046800,0.904046875,3.574012041091919,-7.975945949554443,4.282468795776367
1757088603686599700,0.913599609375,3.5631279945373535,-8.05904769897461,4.158490180969238
1757088603696153000,0.923153076171875,3.5446770191192627,-8.135171890258789,4.047072887420654
1757088603705706000,0.9327060546875,3.5104589462280273,-8.213506698608398,3.93391489982605
1757088603715259100,0.942259033203125,3.467078924179077,-8.285721778869629,3.8354220390319824
1757088603724812000,0.95181201171875,3.414783000946045,-8.352307319641113,3.7519280910491943
1757088603734365000,0.961364990234375,3.354559898376465,-8.413697242736816,3.6831281185150146
1757088603743917800,0.970917724609375,3.287498950958252,-8.470712661743164,3.6277339458465576
1757088603753471000,0.980470947265625,3.2090299129486084,-8.530525207519531,3.5710999965667725
1757088603763024100,0.990024169921875,3.125361919403076,-8.590267181396484,3.5119330883026123
1757088603772577000,0.999576904296875,3.0416789054870605,-8.646272659301758,3.4524519443511963
1757088603782130000,1.0091298828125,2.9609920978546143,-8.697291374206543,3.3931970596313477
1757088603791682800,1.018682861328125,2.884376049041748,-8.744590759277344,3.3311309814453125
1757088603801236000,1.028236083984375,2.8123600482940674,-8.78984260559082,3.262239933013916
1757088603810788900,1.037788818359375,2.7451839447021484,-8.83399772644043,3.184475898742676
1757088603820342000,1.047342041015625,2.695241928100586,-8.873273849487305,3.097012996673584
1757088603829895200,1.056895263671875,2.6461660861968994,-8.913744926452637,3.000032901763916
1757088603839448000,1.066447998046875,2.5951530933380127,-8.95630168914795,2.8935210704803467
1757088603849001000,1.0760009765625,2.539942979812622,-9.001468658447266,2.777759075164795
1757088603858553900,1.085553955078125,2.478868007659912,-9.049467086791992,2.6533260345458984
1757088603868107000,1.09510693359375,2.41046404838562,-9.100324630737305,2.521298885345459
1757088603877660000,1.104659912109375,2.33376407623291,-9.15388298034668,2.3828959465026855
1757088603887212800,1.114212890625,2.248868942260742,-9.209773063659668,2.23903489112854
1757088603896766000,1.123765869140625,2.1634719371795654,-9.258784294128418,2.1058459281921387
1757088603906319000,1.133319091796875,2.0717339515686035,-9.30921459197998,1.9680089950561523
1757088603915872000,1.1428720703125,1.974943995475769,-9.36061954498291,1.82566499710083
1757088603925425000,1.1524248046875,1.8745629787445068,-9.412632942199707,1.6785850524902344
1757088603934977800,1.161977783203125,1.7718570232391357,-9.465007781982422,1.526473045349121
1757088603944531000,1.171531005859375,1.6759400367736816,-9.510661125183105,1.3807710409164429
1757088603954084000,1.181083984375,1.586398959159851,-9.550315856933594,1.2419699430465698
1757088603963637000,1.190636962890625,1.5021209716796875,-9.584844589233398,1.1103099584579468
1757088603982742800,1.20974267578125,1.346181035041809,-9.64128303527832,0.8681489825248718
1757088604001849000,1.22884912109375,1.2063950300216675,-9.683713912963867,0.6529719829559326
1757088604011402200,1.23840234375,1.1420520544052124,-9.700692176818848,0.554407000541687
1757088604020955100,1.247955078125,1.0807080268859863,-9.715351104736328,0.46132901310920715
1757088604030508000,1.257508056640625,1.0218290090560913,-9.727987289428711,0.37351900339126587
1757088604040061000,1.26706103515625,0.9651529788970947,-9.738832473754883,0.29083898663520813
1757088604049614000,1.276614013671875,0.9108880162239075,-9.748051643371582,0.21304099261760712
1757088604059167000,1.2861669921875,0.8595690131187439,-9.755785942077637,0.1396390050649643
1757088604068720000,1.29572021484375,0.8117849826812744,-9.762142181396484,0.07004799693822861
1757088604078273000,1.30527294921875,0.7679769992828369,-9.767240524291992,0.003871999913826585
1757088604087826200,1.314826171875,0.7282019853591919,-9.771218299865723,-0.059227000921964645
1757088604097379000,1.324379150390625,0.6923419833183289,-9.77419662475586,-0.11949600279331207
1757088604106932000,1.333931884765625,0.6601830124855042,-9.77630615234375,-0.1771090030670166
1757088604116485000,1.343485107421875,0.6314759850502014,-9.777658462524414,-0.23217999935150146
1757088604126038000,1.3530380859375,0.6058639883995056,-9.778362274169922,-0.28483399748802185
1757088604135591200,1.362591064453125,0.5828580260276794,-9.778528213500977,-0.3354009985923767
1757088604145144000,1.37214404296875,0.5620229840278625,-9.778238296508789,-0.3844499886035919
1757088604154697200,1.381697265625,0.5431169867515564,-9.777551651000977,-0.43238699436187744
1757088604164250400,1.39125048828125,0.5259889960289001,-9.77650260925293,-0.4795440137386322
1757088604173803300,1.40080322265625,0.5106009840965271,-9.775115966796875,-0.5261049866676331
1757088604183356200,1.410356201171875,0.49701398611068726,-9.773420333862305,-0.5721210241317749
1757088604192909000,1.419908935546875,0.48532599210739136,-9.771445274353027,-0.6174560189247131
1757088604202462200,1.429462158203125,0.47554299235343933,-9.769224166870117,-0.6619229912757874
1757088604212015000,1.43901513671875,0.4677160084247589,-9.766775131225586,-0.705377995967865
1757088604221568000,1.448568115234375,0.46172600984573364,-9.764130592346191,-0.7476540207862854
1757088604231121000,1.458120849609375,0.45726799964904785,-9.761336326599121,-0.7885100245475769
1757088604240674000,1.467674072265625,0.4538390040397644,-9.758447647094727,-0.8277909755706787
1757088604250227000,1.47722705078125,0.45100000500679016,-9.755513191223145,-0.8654000163078308
1757088604259780000,1.486780029296875,0.4484879970550537,-9.752581596374512,-0.9011800289154053
1757088604269333200,1.496333251953125,0.4461739957332611,-9.74968147277832,-0.9351980090141296
1757088604278886100,1.50588623046875,0.44404101371765137,-9.746831893920898,-0.967441976070404
1757088604288439000,1.51543896484375,0.44213101267814636,-9.744053840637207,-0.9978860020637512
1757088604297992000,1.524991943359375,0.4403870105743408,-9.741360664367676,-1.0265439748764038
1757088604307545000,1.534545166015625,0.4386740028858185,-9.738775253295898,-1.0533759593963623
1757088604317098200,1.54409814453125,0.4369080066680908,-9.736323356628418,-1.078305959701538
1757088604326651100,1.553651123046875,0.4350090026855469,-9.734021186828613,-1.1012680530548096
1757088604336204000,1.5632041015625,0.4328770041465759,-9.731904983520508,-1.1220660209655762
1757088604345757000,1.5727568359375,0.43046700954437256,-9.729991912841797,-1.1406949758529663
1757088604355310000,1.58231005859375,0.4278169870376587,-9.728288650512695,-1.1571320295333862
1757088604364863000,1.591863037109375,0.42496201395988464,-9.726799011230469,-1.171442985534668
1757088604374416000,1.601415771484375,0.4217979907989502,-9.7255220413208,-1.1837760210037231
1757088604383969000,1.610968994140625,0.418273001909256,-9.724446296691895,-1.1943219900131226
1757088604393522000,1.62052197265625,0.41438499093055725,-9.723559379577637,-1.2032419443130493
1757088604403075000,1.630074951171875,0.41015198826789856,-9.722874641418457,-1.2104990482330322
1757088604412628000,1.6396279296875,0.40563398599624634,-9.72238826751709,-1.2161140441894531
1757088604422180900,1.649180908203125,0.40095001459121704,-9.722088813781738,-1.2202069759368896
1757088604431734000,1.658734130859375,0.3962169885635376,-9.721955299377441,-1.2229030132293701
1757088604441287000,1.668286865234375,0.3914799988269806,-9.721967697143555,-1.2243880033493042
1757088604450840000,1.677840087890625,0.3867410123348236,-9.722087860107422,-1.2249829769134521
1757088604460393000,1.68739306640625,0.381972998380661,-9.722285270690918,-1.2249269485473633
1757088604469945900,1.69694580078125,0.37720799446105957,-9.722538948059082,-1.2244160175323486
1757088604479499000,1.7064990234375,0.3724839985370636,-9.722846031188965,-1.2234530448913574
1757088604489052200,1.71605224609375,0.36788100004196167,-9.723200798034668,-1.2220510244369507
1757088604498605000,1.72560498046875,0.3635280132293701,-9.723596572875977,-1.2202379703521729
1757088604508158200,1.735158203125,0.35945001244544983,-9.724024772644043,-1.2180739641189575
1757088604517711000,1.744711181640625,0.35569798946380615,-9.724472045898438,-1.2156579494476318
1757088604527264000,1.754263916015625,0.3523719906806946,-9.724909782409668,-1.2131630182266235
1757088604536817000,1.76381689453125,0.34955599904060364,-9.725321769714355,-1.210724949836731
1757088604546370000,1.7733701171875,0.3472119867801666,-9.725692749023438,-1.2084629535675049
1757088604555923200,1.782923095703125,0.3453049957752228,-9.726004600524902,-1.2065279483795166
1757088604565476000,1.79247607421875,0.3437719941139221,-9.726247787475586,-1.2050479650497437
1757088604575029000,1.802029052734375,0.34248000383377075,-9.726408958435059,-1.2041280269622803
1757088604584582100,1.81158203125,0.3413349986076355,-9.726492881774902,-1.2037849426269531
1757088604594135000,1.821135009765625,0.34021300077438354,-9.726502418518066,-1.2040259838104248
1757088604603688200,1.830688232421875,0.33910199999809265,-9.726439476013184,-1.2048360109329224
1757088604613241000,1.840240966796875,0.3380089998245239,-9.726309776306152,-1.2061660289764404
1757088604622794000,1.8497939453125,0.336993008852005,-9.72612190246582,-1.2079440355300903
1757088604632347100,1.85934716796875,0.3362079858779907,-9.725882530212402,-1.2100549936294556
1757088604641900000,1.868900146484375,0.3357999920845032,-9.725600242614746,-1.21241295337677
1757088604651453000,1.878452880859375,0.33584100008010864,-9.725275993347168,-1.214967966079712
1757088604661006000,1.888006103515625,0.3362950086593628,-9.724920272827148,-1.2176569700241089
1757088604670559000,1.89755908203125,0.33709800243377686,-9.72451114654541,-1.2206599712371826
1757088604680112000,1.907112060546875,0.33815398812294006,-9.72404670715332,-1.2240229845046997
1757088604689665000,1.9166650390625,0.33938300609588623,-9.723535537719727,-1.2276999950408936
1757088604699218200,1.92621826171875,0.340721994638443,-9.722977638244629,-1.2317110300064087
1757088604708771000,1.93577099609375,0.3421339988708496,-9.722389221191406,-1.2359369993209839
1757088604718324000,1.945323974609375,0.34354498982429504,-9.721792221069336,-1.2402399778366089
1757088604727876900,1.954876953125,0.3448930084705353,-9.721197128295898,-1.24452805519104
1757088604737430000,1.964429931640625,0.34622201323509216,-9.720623016357422,-1.248671054840088
1757088604746983200,1.973983154296875,0.34758299589157104,-9.720067977905273,-1.2526370286941528
1757088604756536000,1.9835361328125,0.3490639925003052,-9.719525337219238,-1.256466031074524
1757088604766089000,1.9930888671875,0.3507629930973053,-9.718994140625,-1.2601200342178345
1757088604775642000,2.00264208984375,0.3528060019016266,-9.718462944030762,-1.2636549472808838
1757088604785195000,2.012195068359375,0.35523998737335205,-9.717915534973145,-1.267179012298584
1757088604794748200,2.021748046875,0.3580450117588043,-9.717365264892578,-1.2706090211868286
1757088604804301000,2.031301025390625,0.3611550033092499,-9.716814994812012,-1.2739360332489014
1757088604813854200,2.040854248046875,0.3644999861717224,-9.716270446777344,-1.2771300077438354
1757088604823407000,2.050406982421875,0.36802199482917786,-9.715740203857422,-1.280150055885315
1757088604832960000,2.0599599609375,0.3715429902076721,-9.715242385864258,-1.2829129695892334
1757088604842513000,2.069512939453125,0.37492799758911133,-9.714786529541016,-1.285372018814087
1757088604852066000,2.079066162109375,0.37810298800468445,-9.714376449584961,-1.2875369787216187
1757088604861619200,2.088619140625,0.3810099959373474,-9.714032173156738,-1.2892919778823853
1757088604871172000,2.098172119140625,0.38371899724006653,-9.71374225616455,-1.290673017501831
1757088604880725200,2.107725341796875,0.38622400164604187,-9.713493347167969,-1.2918100357055664
1757088604890278100,2.117278076171875,0.38861098885536194,-9.71328353881836,-1.2926820516586304
1757088604899831000,2.1268310546875,0.3910199999809265,-9.71308708190918,-1.2934290170669556
1757088604909384200,2.13638427734375,0.393545001745224,-9.712898254394531,-1.2940930128097534
1757088604918937000,2.14593701171875,0.3961760103702545,-9.712709426879883,-1.2947269678115845
1757088604928490200,2.155490234375,0.3989090025424957,-9.712512016296387,-1.2953770160675049
1757088604938043100,2.165043212890625,0.4016920030117035,-9.712322235107422,-1.295956015586853
1757088604947596000,2.174595947265625,0.40446799993515015,-9.712162971496582,-1.2963049411773682
1757088604957149000,2.18414892578125,0.4071440100669861,-9.712043762207031,-1.2963780164718628
1757088604966702000,2.1937021484375,0.40956199169158936,-9.711980819702148,-1.2961130142211914
1757088604976255200,2.203255126953125,0.41165000200271606,-9.711965560913086,-1.295578956604004
1757088604985808100,2.21280810546875,0.41334500908851624,-9.711977005004883,-1.2949650287628174
1757088604995361000,2.222361083984375,0.4145660102367401,-9.712003707885742,-1.2943830490112305
1757088605004914200,2.2319140625,0.41527798771858215,-9.71202278137207,-1.2940189838409424
1757088605014467300,2.24146728515625,0.4155310094356537,-9.712021827697754,-1.2939540147781372
1757088605024020000,2.25102001953125,0.41545701026916504,-9.711995124816895,-1.2941739559173584
1757088605033573000,2.260572998046875,0.4152419865131378,-9.711945533752441,-1.294600009918213
1757088605043126000,2.2701259765625,0.41498398780822754,-9.711880683898926,-1.295179009437561
1757088605052679200,2.27967919921875,0.4147869944572449,-9.711799621582031,-1.2958370447158813
1757088605062232000,2.289232177734375,0.4146150052547455,-9.711718559265137,-1.2964930534362793
1757088605071785200,2.29878515625,0.414467990398407,-9.711647987365723,-1.2970689535140991
1757088605081338000,2.308338134765625,0.41436201333999634,-9.711584091186523,-1.2975709438323975
1757088605090891000,2.31789111328125,0.41416001319885254,-9.711545944213867,-1.2979340553283691
1757088605100444200,2.327444091796875,0.4138219952583313,-9.711524963378906,-1.298187017440796
1757088605109997000,2.3369970703125,0.4133929908275604,-9.711527824401855,-1.2983020544052124
1757088605119550200,2.34655029296875,0.41288700699806213,-9.711548805236816,-1.2983150482177734
1757088605129103000,2.35610302734375,0.41227298974990845,-9.711590766906738,-1.2981990575790405
1757088605138656000,2.365656005859375,0.41157498955726624,-9.711648941040039,-1.2979789972305298
1757088605148209200,2.375209228515625,0.41075798869132996,-9.711721420288086,-1.2976930141448975
1757088605157762000,2.384761962890625,0.40981701016426086,-9.711810111999512,-1.2973270416259766
1757088605167315000,2.39431494140625,0.4087589979171753,-9.711923599243164,-1.2968050241470337
1757088605176868000,2.4038681640625,0.40766701102256775,-9.712066650390625,-1.2960690259933472
1757088605186421200,2.413421142578125,0.40662699937820435,-9.712244987487793,-1.295050024986267
1757088605195974100,2.42297412109375,0.40571799874305725,-9.712464332580566,-1.29367995262146
1757088605205527000,2.432527099609375,0.40490400791168213,-9.712709426879883,-1.2920860052108765
1757088605215080000,2.442079833984375,0.40416601300239563,-9.712967872619629,-1.2903729677200317
1757088605224633000,2.451633056640625,0.4034009873867035,-9.713236808776855,-1.2885899543762207
1757088605234186000,2.46118603515625,0.40252599120140076,-9.713500022888184,-1.286882996559143
1757088605243739000,2.47073876953125,0.4014739990234375,-9.71375846862793,-1.2852699756622314
1757088605253292300,2.480292236328125,0.40026798844337463,-9.714003562927246,-1.283797025680542
1757088605262845200,2.48984521484375,0.39894700050354004,-9.714229583740234,-1.2825000286102295
1757088605272398000,2.499398193359375,0.3974820077419281,-9.714438438415527,-1.2813669443130493
1757088605281951000,2.508950927734375,0.39595499634742737,-9.714628219604492,-1.2804100513458252
1757088605291503900,2.51850390625,0.39438799023628235,-9.714799880981445,-1.2795909643173218
1757088605301057000,2.52805712890625,0.3927609920501709,-9.714953422546387,-1.2789349555969238
1757088605310610000,2.53760986328125,0.3910439908504486,-9.715085983276367,-1.2784539461135864
1757088605320163000,2.5471630859375,0.38929200172424316,-9.71519660949707,-1.2781579494476318
1757088605329716000,2.556716064453125,0.3875569999217987,-9.715283393859863,-1.278033971786499
1757088605339269000,2.56626904296875,0.3859829902648926,-9.715347290039062,-1.2780239582061768
1757088605348822000,2.575822021484375,0.38457998633384705,-9.715392112731934,-1.2781120538711548
1757088605358375000,2.585375,0.38332998752593994,-9.715415000915527,-1.2783160209655762
1757088605367928000,2.594927978515625,0.3821839988231659,-9.715415000915527,-1.2786569595336914
1757088605377481200,2.604481201171875,0.3810279965400696,-9.715396881103516,-1.2791390419006348
1757088605387034000,2.6140341796875,0.3796919882297516,-9.715377807617188,-1.2796850204467773
1757088605396587000,2.6235869140625,0.3780989944934845,-9.715383529663086,-1.2801040410995483
1757088605406140000,2.633139892578125,0.37622201442718506,-9.715421676635742,-1.2803699970245361
1757088605415693000,2.642693115234375,0.3742009997367859,-9.715478897094727,-1.280521035194397
1757088605425246200,2.65224609375,0.3721790015697479,-9.71556282043457,-1.2804689407348633
1757088605434799000,2.661799072265625,0.3702920079231262,-9.71566104888916,-1.2802670001983643
1757088605444352000,2.67135205078125,0.3686220049858093,-9.715771675109863,-1.2798999547958374
1757088605453905200,2.6809052734375,0.3671939969062805,-9.715895652770996,-1.2793630361557007
1757088605463458000,2.6904580078125,0.3659929931163788,-9.716039657592773,-1.2786140441894531
1757088605473011200,2.70001123046875,0.364888995885849,-9.716196060180664,-1.2777329683303833
1757088605482564000,2.709564208984375,0.3638150095939636,-9.71635627746582,-1.276816964149475
1757088605492117200,2.7191171875,0.36271700263023376,-9.71651554107666,-1.2759150266647339
1757088605501670100,2.728670166015625,0.36162999272346497,-9.716689109802246,-1.2749099731445312
1757088605511223000,2.73822314453125,0.36058399081230164,-9.716875076293945,-1.2737950086593628
1757088605520776200,2.747776123046875,0.3595049977302551,-9.717084884643555,-1.2724889516830444
1757088605530329000,2.7573291015625,0.3583909869194031,-9.717315673828125,-1.2710440158843994
1757088605539882200,2.76688232421875,0.3573189973831177,-9.717557907104492,-1.2694979906082153
1757088605549435100,2.77643505859375,0.35631999373435974,-9.717804908752441,-1.267886996269226
1757088605558988000,2.785988037109375,0.35544800758361816,-9.718043327331543,-1.2663079500198364
1757088605568541200,2.795541259765625,0.35480400919914246,-9.718263626098633,-1.2648019790649414
1757088605578094000,2.805093994140625,0.3544740080833435,-9.718463897705078,-1.2633609771728516
1757088605587647200,2.814647216796875,0.3544659912586212,-9.718626976013184,-1.2621190547943115
1757088605597200100,2.8242001953125,0.35474398732185364,-9.718754768371582,-1.2610670328140259
1757088605606753300,2.833753173828125,0.3551599979400635,-9.718852043151855,-1.260200023651123
1757088605616306200,2.84330615234375,0.3556259870529175,-9.71891975402832,-1.2595579624176025
1757088605625859000,2.852859130859375,0.3560880124568939,-9.718957901000977,-1.2591259479522705
1757088605635412000,2.862411865234375,0.3564330041408539,-9.718976974487305,-1.2588950395584106
1757088605644965000,2.871965087890625,0.35664400458335876,-9.718979835510254,-1.2588139772415161
1757088605654518000,2.88151806640625,0.35676300525665283,-9.718955993652344,-1.2589600086212158
1757088605664071200,2.8910712890625,0.35689300298690796,-9.718912124633789,-1.2592450380325317
1757088605673624300,2.900624267578125,0.3571549952030182,-9.71886920928955,-1.2595069408416748
1757088605683177000,2.910177001953125,0.35757800936698914,-9.718832015991211,-1.2596780061721802
1757088605692730000,2.919730224609375,0.35812100768089294,-9.718793869018555,-1.2598049640655518
1757088605702283000,2.929282958984375,0.35871100425720215,-9.718751907348633,-1.259958028793335
1757088605711836200,2.938836181640625,0.3592759966850281,-9.718694686889648,-1.2602479457855225
1757088605721389300,2.948389404296875,0.3596999943256378,-9.718626022338867,-1.2606569528579712
1757088605730942200,2.957942138671875,0.3599199950695038,-9.71854305267334,-1.2612370252609253
1757088605740495000,2.9674951171875,0.35997501015663147,-9.718448638916016,-1.2619539499282837
1757088605750048300,2.97704833984375,0.359809011220932,-9.718352317810059,-1.2627379894256592
1757088605759601200,2.98660107421875,0.35940900444984436,-9.71826457977295,-1.2635300159454346
1757088605769154300,2.996154296875,0.35888800024986267,-9.718170166015625,-1.264407992362976
1757088605778707200,3.005707275390625,0.3583270013332367,-9.718072891235352,-1.2653089761734009
1757088605788260000,3.015260009765625,0.3578589856624603,-9.717975616455078,-1.2661850452423096
1757088605797813200,3.024813232421875,0.35747799277305603,-9.717889785766602,-1.2669559717178345
1757088605807366100,3.0343662109375,0.35719698667526245,-9.71782112121582,-1.2675529718399048
1757088605816919000,3.0439189453125,0.35699498653411865,-9.717775344848633,-1.267969012260437
1757088605826472200,3.05347216796875,0.35688599944114685,-9.717748641967773,-1.2681959867477417
1757088605836025300,3.063025390625,0.3568449914455414,-9.71773910522461,-1.268286943435669
1757088605845578200,3.072578125,0.3568829894065857,-9.717741012573242,-1.2682609558105469
1757088605855131100,3.082131103515625,0.35698699951171875,-9.717756271362305,-1.2681159973144531
1757088605864684000,3.09168408203125,0.3570919930934906,-9.71777629852295,-1.2679309844970703
1757088605874237200,3.1012373046875,0.3572709858417511,-9.717793464660645,-1.2677580118179321
1757088605883790300,3.110790283203125,0.35758399963378906,-9.71778678894043,-1.2677069902420044
1757088605893343200,3.12034326171875,0.3580490052700043,-9.717755317687988,-1.2678200006484985
1757088605902896400,3.129896484375,0.3586769998073578,-9.717690467834473,-1.268136978149414
1757088605912449300,3.13944921875,0.35944101214408875,-9.717591285705566,-1.2686710357666016
1757088605922002200,3.149002197265625,0.36033299565315247,-9.717466354370117,-1.2693769931793213
1757088605931555000,3.15855517578125,0.36128100752830505,-9.717318534851074,-1.2702219486236572
1757088605941108000,3.16810791015625,0.362293004989624,-9.717155456542969,-1.271183967590332
1757088605950661000,3.1776611328125,0.36338499188423157,-9.716974258422852,-1.2722519636154175
1757088605969767400,3.196767333984375,0.36535900831222534,-9.716594696044922,-1.2745620012283325
1757088605979320300,3.2063203125,0.3661560118198395,-9.716381072998047,-1.2759519815444946
1757088605988873200,3.215873291015625,0.36684200167655945,-9.716124534606934,-1.2776830196380615
1757088605998426000,3.225426025390625,0.3674449920654297,-9.715824127197266,-1.2797720432281494
1757088606007979300,3.234979248046875,0.36802899837493896,-9.71547794342041,-1.2821999788284302
1757088606017532400,3.244532470703125,0.3686099946498871,-9.71510124206543,-1.2848479747772217
1757088606027085300,3.254085205078125,0.3692150115966797,-9.714712142944336,-1.2875930070877075
1757088606036638200,3.26363818359375,0.36981698870658875,-9.714325904846191,-1.2903189659118652
1757088606046191000,3.273191162109375,0.3704110085964203,-9.713948249816895,-1.2929879426956177
1757088606055744000,3.282743896484375,0.37093600630760193,-9.71358585357666,-1.295562982559204
1757088606065297200,3.292297119140625,0.3712620139122009,-9.71324634552002,-1.298037052154541
1757088606074850300,3.301850341796875,0.37121498584747314,-9.712955474853516,-1.3002519607543945
1757088606084403200,3.3114033203125,0.37069201469421387,-9.712729454040527,-1.302109956741333
1757088606093956400,3.320956298828125,0.36972400546073914,-9.7125825881958,-1.3035039901733398
1757088606103509200,3.33050927734375,0.3683600127696991,-9.712512969970703,-1.3044220209121704
1757088606113062100,3.340062255859375,0.3666670024394989,-9.712516784667969,-1.3048679828643799
1757088606122615000,3.349614990234375,0.364654004573822,-9.71258544921875,-1.304908037185669
1757088606132168200,3.359168212890625,0.3623490035533905,-9.712713241577148,-1.3045649528503418
1757088606141721300,3.368721435546875,0.35978201031684875,-9.712889671325684,-1.3039289712905884
1757088606151274200,3.378274169921875,0.35708001255989075,-9.713103294372559,-1.3030339479446411
1757088606160827100,3.3878271484375,0.3543179929256439,-9.713357925415039,-1.3018510341644287
1757088606170380300,3.39738037109375,0.35153499245643616,-9.71365737915039,-1.3003209829330444
1757088606179933200,3.40693310546875,0.3487739861011505,-9.714015007019043,-1.298354983329773
1757088606189486300,3.416486328125,0.34606999158859253,-9.7144136428833,-1.2960669994354248
1757088606199039200,3.426039306640625,0.34336400032043457,-9.71484375,-1.293552041053772
1757088606208592100,3.435592041015625,0.34063199162483215,-9.715276718139648,-1.2910280227661133
1757088606218145300,3.445145263671875,0.3378309905529022,-9.715688705444336,-1.2886790037155151
1757088606227698200,3.4546982421875,0.3349120020866394,-9.716068267822266,-1.286613941192627
1757088606237251000,3.4642509765625,0.3318980038166046,-9.716408729553223,-1.2848689556121826
1757088606246804200,3.47380419921875,0.3288469910621643,-9.716695785522461,-1.2835259437561035
1757088606256357400,3.483357421875,0.3258010149002075,-9.716939926147461,-1.2825130224227905
1757088606265910300,3.49291015625,0.32289600372314453,-9.71713638305664,-1.2818130254745483
1757088606275463200,3.502463134765625,0.3203189969062805,-9.717280387878418,-1.281411051750183
1757088606285016300,3.512016357421875,0.3181290030479431,-9.717358589172363,-1.2813880443572998
1757088606294569200,3.5215693359375,0.3163610100746155,-9.717377662658691,-1.2817009687423706
1757088606304122000,3.5311220703125,0.31502199172973633,-9.717321395874023,-1.282459020614624
1757088606313675300,3.54067529296875,0.31411200761795044,-9.717192649841309,-1.2836580276489258
1757088606323228200,3.550228271484375,0.313616007566452,-9.71699047088623,-1.2853020429611206
1757088606332781300,3.55978125,0.31349098682403564,-9.716715812683105,-1.2873870134353638
1757088606342334200,3.569334228515625,0.31364598870277405,-9.716367721557617,-1.289952039718628
1757088606351887400,3.578887451171875,0.31397899985313416,-9.71595573425293,-1.2929320335388184
1757088606361440300,3.588440185546875,0.31445398926734924,-9.715492248535156,-1.2962690591812134
1757088606370993200,3.5979931640625,0.31495898962020874,-9.714990615844727,-1.2998770475387573
1757088606380546000,3.607546142578125,0.315420001745224,-9.714468002319336,-1.3036470413208008
1757088606390099200,3.61709912109375,0.31575900316238403,-9.713944435119629,-1.307440996170044
1757088606399652400,3.62665234375,0.31598201394081116,-9.713432312011719,-1.311171054840088
1757088606409205200,3.636205322265625,0.31603801250457764,-9.712955474853516,-1.3146979808807373
1757088606418758100,3.645758056640625,0.3158870041370392,-9.71252727508545,-1.3178999423980713
1757088606428311000,3.65531103515625,0.31539198756217957,-9.712151527404785,-1.320786952972412
1757088606437864200,3.6648642578125,0.3145020008087158,-9.71183967590332,-1.3233050107955933
1757088606447417000,3.6744169921875,0.31325700879096985,-9.711580276489258,-1.3255059719085693
1757088606456970200,3.68397021484375,0.31163299083709717,-9.711358070373535,-1.327515959739685
1757088606466523100,3.693523193359375,0.3094860017299652,-9.71117115020752,-1.3293739557266235
1757088606476076300,3.703076171875,0.30665698647499084,-9.711034774780273,-1.3309999704360962
1757088606485629200,3.712629150390625,0.30299699306488037,-9.710963249206543,-1.3323049545288086
1757088606495182000,3.72218212890625,0.2984200119972229,-9.710996627807617,-1.332993984222412
1757088606504735000,3.73173486328125,0.293040007352829,-9.711151123046875,-1.3329349756240845
1757088606514288000,3.7412880859375,0.28690001368522644,-9.711432456970215,-1.332049012184143
1757088606523841300,3.75084130859375,0.2799629867076874,-9.711838722229004,-1.330348014831543
1757088606533394200,3.760394287109375,0.2721799910068512,-9.712373733520508,-1.3277970552444458
1757088606542947000,3.769947021484375,0.26364099979400635,-9.71300220489502,-1.3246599435806274
1757088606552500200,3.779500244140625,0.2544339895248413,-9.713711738586426,-1.320984959602356
1757088606562053000,3.78905322265625,0.24472199380397797,-9.714468002319336,-1.3170080184936523
1757088606571606300,3.798606201171875,0.23468799889087677,-9.715261459350586,-1.312796950340271
1757088606581159200,3.8081591796875,0.22451700270175934,-9.71607780456543,-1.3084050416946411
1757088606590712300,3.81771240234375,0.21424099802970886,-9.716915130615234,-1.3038380146026611
1757088606600265200,3.82726513671875,0.20378300547599792,-9.71777629852295,-1.2990679740905762
1757088606609818000,3.836818115234375,0.19300900399684906,-9.71866226196289,-1.2940870523452759
1757088606619371300,3.846371337890625,0.1819159984588623,-9.719596862792969,-1.2886810302734375
1757088606628924200,3.855924072265625,0.17061300575733185,-9.7205810546875,-1.2828110456466675
1757088606638477300,3.865477294921875,0.15917399525642395,-9.721614837646484,-1.2764790058135986
1757088606648030200,3.8750302734375,0.14748500287532806,-9.722702026367188,-1.2696280479431152
1757088606657583000,3.8845830078125,0.13533399999141693,-9.723852157592773,-1.2621699571609497
1757088606667136300,3.89413623046875,0.12283000349998474,-9.725068092346191,-1.2540040016174316
1757088606676689200,3.903689208984375,0.11030399799346924,-9.726357460021973,-1.2449990510940552
1757088606686242000,3.913241943359375,0.0978579968214035,-9.727725982666016,-1.2350599765777588
1757088606695795200,3.922795166015625,0.08516500145196915,-9.7291898727417,-1.2239789962768555
1757088606705348400,3.932348388671875,0.07214000076055527,-9.730746269226074,-1.2117619514465332
1757088606714901200,3.9419013671875,0.0590829998254776,-9.732356071472168,-1.1987329721450806
1757088606724454100,3.9514541015625,0.04615899920463562,-9.733957290649414,-1.185502052307129
1757088606734007000,3.961007080078125,0.03307700157165527,-9.735511779785156,-1.1724400520324707
1757088606743560200,3.970560302734375,0.019014999270439148,-9.736967086791992,-1.159978985786438
1757088606753113000,3.980113037109375,0.0029730000533163548,-9.738272666931152,-1.148445963859558
1757088606762666200,3.989666259765625,-0.015907999128103256,-9.73935604095459,-1.1382290124893188
1757088606772219100,3.99921923828125,-0.03817399963736534,-9.74013614654541,-1.1297190189361572
1757088606781772300,4.008772216796875,-0.06419499963521957,-9.740541458129883,-1.123121976852417
1757088606791325200,4.0183251953125,-0.09406699985265732,-9.74049186706543,-1.1186859607696533
1757088606800878000,4.027878173828125,-0.12787500023841858,-9.739855766296387,-1.1169630289077759
1757088606810431200,4.03743115234375,-0.1659809947013855,-9.73857307434082,-1.1177619695663452
1757088606819984400,4.046984375,-0.2083979994058609,-9.73668098449707,-1.1204220056533813
1757088606829537300,4.056537353515625,-0.2546199858188629,-9.734234809875488,-1.1245290040969849
1757088606839090200,4.066090087890625,-0.30511999130249023,-9.731218338012695,-1.1294660568237305
1757088606848643000,4.07564306640625,-0.3609220087528229,-9.727415084838867,-1.1353299617767334
1757088606858196200,4.0851962890625,-0.422434002161026,-9.722587585449219,-1.1428979635238647
1757088606867749000,4.0947490234375,-0.4896030128002167,-9.716535568237305,-1.1532000303268433
1757088606877302300,4.10430224609375,-0.5623930096626282,-9.70913028717041,-1.166651964187622
1757088606886855200,4.113855224609375,-0.640546977519989,-9.70033073425293,-1.1830190420150757
1757088606896408300,4.123408203125,-0.7241439819335938,-9.690195083618164,-1.2012399435043335
1757088606905961200,4.132961181640625,-0.8145849704742432,-9.678605079650879,-1.2199280261993408
1757088606915514000,4.14251416015625,-0.9132519960403442,-9.665236473083496,-1.238340973854065
1757088606925067000,4.15206689453125,-1.0187560319900513,-9.65030288696289,-1.2555429935455322
1757088606934620200,4.1616201171875,-1.129520058631897,-9.634051322937012,-1.2703310251235962
1757088606944173300,4.17117333984375,-1.2448290586471558,-9.616392135620117,-1.2822129726409912
1757088606953726200,4.180726318359375,-1.3645559549331665,-9.597058296203613,-1.291260004043579
1757088606963279000,4.190279052734375,-1.4885499477386475,-9.57577896118164,-1.2980870008468628
1757088606972832300,4.199832275390625,-1.6171369552612305,-9.552206993103027,-1.3029669523239136
1757088606982385200,4.20938525390625,-1.7516449689865112,-9.525677680969238,-1.305901050567627
1757088606991938000,4.21893798828125,-1.8919769525527954,-9.496015548706055,-1.3062829971313477
1757088607001491200,4.2284912109375,-2.036914110183716,-9.463418960571289,-1.3036110401153564
1757088607011044400,4.23804443359375,-2.186548948287964,-9.427721977233887,-1.2976189851760864
1757088607020597200,4.24759716796875,-2.340528964996338,-9.389203071594238,-1.2874399423599243
1757088607030150100,4.257150146484375,-2.497792959213257,-9.3479585647583,-1.2727580070495605
1757088607039703000,4.266703125,-2.656588077545166,-9.304102897644043,-1.2542370557785034
1757088607049256200,4.276256103515625,-2.8140580654144287,-9.258905410766602,-1.2309010028839111
1757088607058809000,4.28580908203125,-2.9701449871063232,-9.212554931640625,-1.2022180557250977
1757088607068362000,4.295362060546875,-3.124958038330078,-9.165136337280273,-1.1668980121612549
1757088607077915100,4.3049150390625,-3.2783689498901367,-9.116575241088867,-1.1260809898376465
1757088607087468000,4.314468017578125,-3.429847002029419,-9.066943168640137,-1.0809799432754517
1757088607097021200,4.324021240234375,-3.5777299404144287,-9.016656875610352,-1.031574010848999
1757088607106574000,4.333573974609375,-3.720186948776245,-8.966291427612305,-0.978551983833313
1757088607116127000,4.343126953125,-3.8593618869781494,-8.91499137878418,-0.9236850142478943
1757088607125680000,4.35268017578125,-3.997683048248291,-8.86149787902832,-0.8687490224838257
1757088607135233300,4.3622333984375,-4.135110855102539,-8.805700302124023,-0.8156149983406067
1757088607144786200,4.3717861328125,-4.270750045776367,-8.747971534729004,-0.7660660147666931
1757088607154339000,4.381339111328125,-4.404646873474121,-8.688310623168945,-0.7192429900169373
1757088607163892000,4.39089208984375,-4.535761833190918,-8.627283096313477,-0.6737449765205383
1757088607173445000,4.400445068359375,-4.663462162017822,-8.564830780029297,-0.6294299960136414
1757088607182998000,4.409998046875,-4.787548065185547,-8.501046180725098,-0.5872809886932373
1757088607192551200,4.41955126953125,-4.9087138175964355,-8.435606002807617,-0.5488370060920715
1757088607202104000,4.42910400390625,-5.027409076690674,-8.367988586425781,-0.5157939791679382
1757088607211657200,4.4386572265625,-5.144327163696289,-8.297774314880371,-0.49000900983810425
1757088607221210000,4.448210205078125,-5.259340763092041,-8.225037574768066,-0.4729979932308197
1757088607230763000,4.457762939453125,-5.372566223144531,-8.149934768676758,-0.46355700492858887
1757088607240316000,4.46731591796875,-5.4852471351623535,-8.072392463684082,-0.4607340097427368
1757088607249869000,4.476869140625,-5.596519947052002,-7.993473052978516,-0.4631980061531067
1757088607259422000,4.486421875,-5.705844879150391,-7.913759231567383,-0.47091299295425415
1757088607268975000,4.49597509765625,-5.81316614151001,-7.833570957183838,-0.4825200140476227
1757088607278528000,4.505528076171875,-5.919033050537109,-7.752634048461914,-0.49780601263046265
1757088607288081200,4.5150810546875,-6.024628162384033,-7.669939994812012,-0.5181390047073364
1757088607297634000,4.524634033203125,-6.130392074584961,-7.585277080535889,-0.543317973613739
1757088607307187000,4.53418701171875,-6.235311985015869,-7.499300956726074,-0.5719850063323975
1757088607316739800,4.54373974609375,-6.337204933166504,-7.413774013519287,-0.6021779775619507
1757088607326293200,4.553293212890625,-6.4356489181518555,-7.329172134399414,-0.6322939991950989
1757088607335846100,4.56284619140625,-6.5313568115234375,-7.244966983795166,-0.6602929830551147
1757088607345399000,4.57239892578125,-6.624588966369629,-7.16071891784668,-0.6865730285644531
1757088607354952000,4.581951904296875,-6.715951919555664,-7.075838088989258,-0.7126039862632751
1757088607364505000,4.591505126953125,-6.804574012756348,-6.990908145904541,-0.73860102891922
1757088607374057700,4.6010576171875,-6.890867233276367,-6.905509948730469,-0.7638149857521057
1757088607383611000,4.61061083984375,-6.975244998931885,-6.819239139556885,-0.787414014339447
1757088607393164000,4.6201640625,-7.057228088378906,-6.732576847076416,-0.8083570003509521
1757088607402717000,4.629717041015625,-7.136757850646973,-6.64589786529541,-0.8255339860916138
1757088607412270000,4.63927001953125,-7.214077949523926,-6.559301853179932,-0.8381670117378235
1757088607421823000,4.648822998046875,-7.289062023162842,-6.473182201385498,-0.8466309905052185
1757088607431376000,4.6583759765625,-7.3623151779174805,-6.38723087310791,-0.852200984954834
1757088607440929300,4.66792919921875,-7.434490203857422,-6.300992012023926,-0.8561779856681824
1757088607450482200,4.677482177734375,-7.506073951721191,-6.213764190673828,-0.860388994216919
1757088607460035000,4.68703515625,-7.577042102813721,-6.1255669593811035,-0.8656820058822632
1757088607469588000,4.696587890625,-7.647292137145996,-6.036482810974121,-0.8720009922981262
1757088607479140900,4.706140869140625,-7.715874195098877,-5.947797775268555,-0.8783169984817505
1757088607488694000,4.715694091796875,-7.782597064971924,-5.860044002532959,-0.8837869763374329
1757088607498247000,4.725246826171875,-7.8473920822143555,-5.773356914520264,-0.8886169791221619
1757088607507800000,4.734800048828125,-7.911042213439941,-5.686707973480225,-0.8937150239944458
1757088607517353000,4.74435302734375,-7.973893165588379,-5.599596977233887,-0.899387001991272
1757088607526906000,4.753906005859375,-8.035629272460938,-5.512322902679443,-0.9055370092391968
1757088607536459000,4.763458984375,-8.09576416015625,-5.425417900085449,-0.9117529988288879
1757088607546012200,4.77301220703125,-8.154250144958496,-5.339017868041992,-0.9168879985809326
1757088607555565000,4.78256494140625,-8.21086597442627,-5.253688812255859,-0.9201449751853943
1757088607565118200,4.7921181640625,-8.265034675598145,-5.170362949371338,-0.9212689995765686
1757088607574671000,4.801671142578125,-8.31621265411377,-5.090159893035889,-0.919435977935791
1757088607584224000,4.81122412109375,-8.364236831665039,-5.013543128967285,-0.9146199822425842
1757088607593777000,4.82077685546875,-8.409391403198242,-4.94019079208374,-0.9073269963264465
1757088607603330000,4.830330078125,-8.452095031738281,-4.869511127471924,-0.8978790044784546
1757088607612883000,4.839883056640625,-8.492849349975586,-4.800856113433838,-0.8859879970550537
1757088607622435800,4.849435791015625,-8.532050132751465,-4.7337751388549805,-0.8717899918556213
1757088607631989000,4.858989013671875,-8.570058822631836,-4.6678080558776855,-0.8556140065193176
1757088607641542000,4.8685419921875,-8.606929779052734,-4.602917194366455,-0.8372460007667542
1757088607651095000,4.878094970703125,-8.642748832702637,-4.539133071899414,-0.8164539933204651
1757088607660648000,4.88764794921875,-8.67734146118164,-4.476914882659912,-0.7927629947662354
1757088607670200800,4.897200927734375,-8.710959434509277,-4.415757179260254,-0.7670450210571289
1757088607679754000,4.90675390625,-8.743843078613281,-4.355173110961914,-0.7401180267333984
1757088607689307100,4.91630712890625,-8.776224136352539,-4.29468297958374,-0.7121989727020264
1757088607698860000,4.925860107421875,-8.807939529418945,-4.234539985656738,-0.6832579970359802
1757088607708413000,4.935412841796875,-8.838898658752441,-4.175026893615723,-0.6526489853858948
1757088607717965800,4.9449658203125,-8.869020462036133,-4.116330146789551,-0.6201080083847046
1757088607727519000,4.95451904296875,-8.898324966430664,-4.058358192443848,-0.5855969786643982
1757088607737071900,4.96407177734375,-8.926888465881348,-4.000603199005127,-0.5502300262451172
1757088607746625000,4.973625,-8.954938888549805,-3.94246506690979,-0.5144150257110596
1757088607756178000,4.983177978515625,-8.982542991638184,-3.883884906768799,-0.47761499881744385
1757088607765731000,4.99273095703125,-9.009825706481934,-3.824428081512451,-0.44084200263023376
1757088607775284000,5.002283935546875,-9.036890029907227,-3.7638049125671387,-0.4047209918498993
1757088607784836900,5.0118369140625,-9.06362533569336,-3.7022969722747803,-0.36952099204063416
1757088607794390000,5.02139013671875,-9.089763641357422,-3.640604019165039,-0.3351610004901886
1757088607803943000,5.03094287109375,-9.115007400512695,-3.5794920921325684,-0.3019709885120392
1757088607813496000,5.04049609375,-9.139269828796387,-3.5194530487060547,-0.27003800868988037
1757088607823049000,5.050049072265625,-9.162668228149414,-3.4603960514068604,-0.2386070042848587
1757088607832601900,5.059601806640625,-9.185281753540039,-3.4021151065826416,-0.2074189931154251
1757088607842154800,5.06915478515625,-9.207462310791016,-3.3436288833618164,-0.17731399834156036
1757088607851708200,5.078708251953125,-9.22950553894043,-3.284034013748169,-0.14967800676822662
1757088607861260800,5.0882607421875,-9.251571655273438,-3.2228379249572754,-0.12515799701213837
1757088607870814000,5.09781396484375,-9.27367877960205,-3.159986972808838,-0.10412000119686127
1757088607880366800,5.107366943359375,-9.295659065246582,-3.0958940982818604,-0.08574599772691727
1757088607889920000,5.116919921875,-9.317427635192871,-3.0307700634002686,-0.06922399997711182
1757088607899473000,5.126472900390625,-9.339024543762207,-2.9643959999084473,-0.05378099903464317
1757088607909025800,5.13602587890625,-9.36043930053711,-2.896743059158325,-0.03913399949669838
1757088607918579000,5.145578857421875,-9.38146686553955,-2.82840895652771,-0.02495099976658821
1757088607928131800,5.1551318359375,-9.401683807373047,-2.760776996612549,-0.010745000094175339
1757088607937685000,5.16468505859375,-9.420991897583008,-2.694153070449829,0.004300999920815229
1757088607947238000,5.17423779296875,-9.439579963684082,-2.6277530193328857,0.020106999203562737
1757088607956790800,5.183790771484375,-9.4576416015625,-2.5607049465179443,0.03668399900197983
1757088607966343700,5.19334375,-9.475237846374512,-2.492750883102417,0.053415000438690186
1757088607975897000,5.20289697265625,-9.49235725402832,-2.424175977706909,0.0699940025806427
1757088607985450000,5.212449951171875,-9.509063720703125,-2.3549070358276367,0.08650200068950653
1757088607995003000,5.2220029296875,-9.525314331054688,-2.285775899887085,0.10244999825954437
1757088608004556000,5.23155615234375,-9.541341781616211,-2.216118097305298,0.11767300218343735
1757088608014109000,5.24110888671875,-9.557156562805176,-2.1459479331970215,0.13190299272537231
1757088608023661800,5.250661865234375,-9.573259353637695,-2.0713019371032715,0.14547500014305115
1757088608033215000,5.260215087890625,-9.589259147644043,-1.9938679933547974,0.15845000743865967
1757088608042768000,5.269767822265625,-9.604427337646484,-1.9183419942855835,0.17219099402427673
1757088608052320800,5.27932080078125,-9.618629455566406,-1.8453760147094727,0.1874459981918335
1757088608061874000,5.2888740234375,-9.631868362426758,-1.7751350402832031,0.2049800008535385
1757088608071426800,5.2984267578125,-9.644208908081055,-1.7068519592285156,0.2260259985923767
1757088608080979700,5.307979736328125,-9.655611038208008,-1.6411700248718262,0.24980099499225616
1757088608090532900,5.317532958984375,-9.665974617004395,-1.5789300203323364,0.27529099583625793
1757088608100085800,5.327085693359375,-9.67530345916748,-1.5203579664230347,0.3019999861717224
1757088608109638700,5.336638671875,-9.683698654174805,-1.4650770425796509,0.32959601283073425
1757088608119192000,5.346192138671875,-9.691349029541016,-1.4122949838638306,0.3578979969024658
1757088608128744700,5.35574462890625,-9.698339462280273,-1.3615950345993042,0.38580000400543213
1757088608138297900,5.3652978515625,-9.704618453979492,-1.3131569623947144,0.41274699568748474
1757088608147850800,5.374850830078125,-9.710064888000488,-1.2677459716796875,0.4388830065727234
1757088608157403600,5.384403564453125,-9.714651107788086,-1.2257059812545776,0.46500200033187866
1757088608166956500,5.39395654296875,-9.718462944030762,-1.1869210004806519,0.4916110038757324
1757088608176509700,5.403509765625,-9.721529006958008,-1.1516660451889038,0.5186920166015625
1757088608186062600,5.4130625,-9.724040985107422,-1.1190229654312134,0.5466510057449341
1757088608195615700,5.42261572265625,-9.725975036621094,-1.0893410444259644,0.5757529735565186
1757088608205168600,5.432168701171875,-9.727334022521973,-1.0627479553222656,0.6059849858283997
1757088608214721800,5.4417216796875,-9.72750473022461,-1.0435459613800049,0.637241005897522
1757088608224274700,5.451274658203125,-9.72663688659668,-1.0309480428695679,0.6703699827194214
1757088608233827600,5.46082763671875,-9.725300788879395,-1.020954966545105,0.7046610116958618
1757088608243380700,5.470380615234375,-9.723505973815918,-1.0137250423431396,0.7399500012397766
1757088608252934000,5.479933837890625,-9.721277236938477,-1.00935697555542,0.775879979133606
1757088608262486800,5.48948681640625,-9.718605041503906,-1.0086020231246948,0.8107060194015503
1757088608272039700,5.499039794921875,-9.715575218200684,-1.011152982711792,0.8439859747886658
1757088608281592600,5.508592529296875,-9.712175369262695,-1.017359972000122,0.8754760026931763
1757088608291145500,5.5181455078125,-9.708379745483398,-1.0270529985427856,0.9055079817771912
1757088608300698600,5.52769873046875,-9.704278945922852,-1.0394370555877686,0.9341779947280884
1757088608310251500,5.53725146484375,-9.699930191040039,-1.053794026374817,0.9619839787483215
1757088608319805000,5.546804931640625,-9.695479393005371,-1.069309949874878,0.9887930154800415
1757088608329357800,5.55635791015625,-9.69102668762207,-1.0858219861984253,1.0141340494155884
1757088608338910700,5.56591064453125,-9.686758041381836,-1.1026699542999268,1.037214994430542
1757088608348463600,5.575463623046875,-9.68277359008789,-1.1195160150527954,1.0576809644699097
1757088608358016500,5.5850166015625,-9.679071426391602,-1.136167049407959,1.075685977935791
1757088608367569700,5.594569580078125,-9.675679206848145,-1.1524029970169067,1.0911120176315308
1757088608377122600,5.60412255859375,-9.672566413879395,-1.1685500144958496,1.1037429571151733
1757088608386675700,5.61367578125,-9.66976547241211,-1.1842859983444214,1.113608956336975
1757088608396228600,5.623228515625,-9.667357444763184,-1.1989270448684692,1.1207760572433472
1757088608405781500,5.632781494140625,-9.665417671203613,-1.2120490074157715,1.1250979900360107
1757088608415334700,5.642334716796875,-9.664017677307129,-1.223268985748291,1.1263240575790405
1757088608424887800,5.6518876953125,-9.663190841674805,-1.2324140071868896,1.1243369579315186
1757088608434440700,5.661440673828125,-9.662970542907715,-1.2388919591903687,1.1194549798965454
1757088608443993600,5.67099365234375,-9.663358688354492,-1.2424370050430298,1.1119500398635864
1757088608453546800,5.680546630859375,-9.664318084716797,-1.2430469989776611,1.1021690368652344
1757088608463099600,5.690099609375,-9.665847778320312,-1.2401260137557983,1.0908030271530151
1757088608472652800,5.69965283203125,-9.667993545532227,-1.2328649759292603,1.0784120559692383
1757088608482205700,5.709205810546875,-9.670734405517578,-1.2218600511550903,1.0647809505462646
1757088608491758800,5.7187587890625,-9.673887252807617,-1.2088509798049927,1.0497900247573853
1757088608501311700,5.728311767578125,-9.677324295043945,-1.1949549913406372,1.0334080457687378
1757088608510864600,5.73786474609375,-9.68083381652832,-1.1815259456634521,1.0159120559692383
1757088608520417500,5.74741748046875,-9.68428897857666,-1.1691590547561646,0.9976580142974854
1757088608529970700,5.756970703125,-9.687458992004395,-1.1587640047073364,0.9796929955482483
1757088608539523800,5.76652392578125,-9.690179824829102,-1.1509840488433838,0.96281498670578
1757088608549076700,5.77607666015625,-9.692502975463867,-1.145387053489685,0.9470959901809692
1757088608558629600,5.785629638671875,-9.694414138793945,-1.14193594455719,0.932794988155365
1757088608568182800,5.795182861328125,-9.695945739746094,-1.1398409605026245,0.9205589890480042
1757088608577735700,5.804735595703125,-9.69710922241211,-1.1389039754867554,0.9104769825935364
1757088608587288600,5.81428857421875,-9.69785213470459,-1.1394389867782593,0.902646005153656
1757088608596841700,5.823841796875,-9.698136329650879,-1.1416460275650024,0.8971620202064514
1757088608606394600,5.83339453125,-9.697989463806152,-1.1452840566635132,0.8940520286560059
1757088608615947500,5.842947509765625,-9.697466850280762,-1.1499840021133423,0.8932979702949524
1757088608625500400,5.85250048828125,-9.696503639221191,-1.1564509868621826,0.8946729898452759
1757088608635053600,5.862053466796875,-9.695061683654785,-1.16484797000885,0.8984060287475586
1757088608644606500,5.8716064453125,-9.69322681427002,-1.1748859882354736,0.9040820002555847
1757088608654159600,5.88115966796875,-9.691038131713867,-1.1868829727172852,0.9109730124473572
1757088608663712500,5.89071240234375,-9.68855094909668,-1.2006690502166748,0.9187600016593933
1757088608673265700,5.900265625,-9.685858726501465,-1.2155859470367432,0.9272729754447937
1757088608682818600,5.909818603515625,-9.683077812194824,-1.230780005455017,0.9363470077514648
1757088608692371500,5.919371337890625,-9.680257797241211,-1.2460839748382568,0.9456220269203186
1757088608701924400,5.92892431640625,-9.677434921264648,-1.2612769603729248,0.9549620151519775
1757088608711477200,5.938477294921875,-9.674680709838867,-1.2759480476379395,0.9642760157585144
1757088608721030400,5.948030517578125,-9.672088623046875,-1.2897169589996338,0.9730280041694641
1757088608730583600,5.95758349609375,-9.66978645324707,-1.3019299507141113,0.9807209968566895
1757088608740136400,5.967136474609375,-9.667750358581543,-1.31290602684021,0.9871780276298523
1757088608749689300,5.976689453125,-9.666036605834961,-1.3223539590835571,0.9922090172767639
1757088608759242500,5.986242431640625,-9.664701461791992,-1.3302040100097656,0.995307981967926
1757088608768795400,5.99579541015625,-9.663731575012207,-1.3365720510482788,0.9965400099754333
1757088608778348300,6.005348388671875,-9.663113594055176,-1.3415980339050293,0.9958930015563965
1757088608787901200,6.014901123046875,-9.662803649902344,-1.3455909490585327,0.9934599995613098
1757088608797454000,6.0244541015625,-9.662745475769043,-1.3489359617233276,0.9893329739570618
1757088608807007200,6.03400732421875,-9.662858963012695,-1.3520100116729736,0.9838209748268127
1757088608816560400,6.043560302734375,-9.663183212280273,-1.3543599843978882,0.9771639704704285
1757088608826113300,6.05311328125,-9.663755416870117,-1.3558160066604614,0.9692389965057373
1757088608835666200,6.062666259765625,-9.664525032043457,-1.3565609455108643,0.9603379964828491
1757088608845219300,6.07221923828125,-9.665468215942383,-1.3564159870147705,0.9509029984474182
1757088608854772200,6.081772216796875,-9.666560173034668,-1.3554710149765015,0.9410589933395386
1757088608864325000,6.0913251953125,-9.667734146118164,-1.3539730310440063,0.9311860203742981
1757088608873878300,6.100878173828125,-9.66893196105957,-1.3520410060882568,0.9216740131378174
1757088608883431200,6.11043115234375,-9.670137405395508,-1.3496379852294922,0.9127609729766846
1757088608892984300,6.119984375,-9.671323776245117,-1.3468159437179565,0.9046469926834106
1757088608902537200,6.129537109375,-9.67241096496582,-1.3440619707107544,0.8974630236625671
1757088608912090000,6.139090087890625,-9.67335033416748,-1.3415709733963013,0.8914160132408142
1757088608921643000,6.14864306640625,-9.674087524414062,-1.3396049737930298,0.8866580128669739
1757088608931196200,6.158196044921875,-9.674640655517578,-1.3380759954452515,0.8831750154495239
1757088608940749000,6.1677490234375,-9.675008773803711,-1.3369619846343994,0.8809790015220642
1757088608950302200,6.17730224609375,-9.67519760131836,-1.3362549543380737,0.8800560235977173
1757088608959855400,6.18685546875,-9.6752347946167,-1.3358839750289917,0.8802099823951721
1757088608969408300,6.196408203125,-9.675134658813477,-1.3358409404754639,0.8813220262527466
1757088608978961200,6.205961181640625,-9.674908638000488,-1.3361040353775024,0.8833109736442566
1757088608988514000,6.21551416015625,-9.674545288085938,-1.3367400169372559,0.8861870169639587
1757088608998067200,6.225067138671875,-9.674052238464355,-1.3377619981765747,0.8898749947547913
1757088609007620000,6.2346201171875,-9.673479080200195,-1.3390029668807983,0.89410799741745
1757088609017173200,6.24417333984375,-9.672810554504395,-1.3405439853668213,0.8989289999008179
1757088609026726100,6.25372607421875,-9.672028541564941,-1.3424910306930542,0.9043350219726562
1757088609036279000,6.263279052734375,-9.671161651611328,-1.3447649478912354,0.9101840257644653
1757088609045832000,6.27283203125,-9.670221328735352,-1.3472919464111328,0.916458010673523
1757088609055385000,6.282385009765625,-9.669244766235352,-1.3499139547348022,0.9229289889335632
1757088609064938000,6.29193798828125,-9.668275833129883,-1.352517008781433,0.9293619990348816
1757088609074491000,6.301490966796875,-9.66732406616211,-1.3551299571990967,0.9355490207672119
1757088609084044000,6.3110439453125,-9.66640853881836,-1.3577430248260498,0.9413319826126099
1757088609093597000,6.320596923828125,-9.665556907653809,-1.360200047492981,0.9466530084609985
1757088609103150000,6.330150146484375,-9.664793014526367,-1.3623570203781128,0.9514529705047607
1757088609112703000,6.339702880859375,-9.664129257202148,-1.3641060590744019,0.9557899832725525
1757088609122256100,6.349256103515625,-9.663549423217773,-1.3654999732971191,0.9597269892692566
1757088609131809000,6.35880908203125,-9.663056373596191,-1.366510033607483,0.9632999897003174
1757088609141362200,6.368362060546875,-9.662623405456543,-1.3672749996185303,0.9665970206260681
1757088609150915000,6.3779150390625,-9.662217140197754,-1.3680000305175781,0.9696589708328247
1757088609160468000,6.387468017578125,-9.661757469177246,-1.3687180280685425,0.9732409715652466
1757088609170020900,6.397020751953125,-9.66130256652832,-1.369372010231018,0.9768249988555908
1757088609179573800,6.40657373046875,-9.660907745361328,-1.3698740005493164,0.9800140261650085
1757088609189127000,6.416126953125,-9.660557746887207,-1.3702629804611206,0.9829300045967102
1757088609198680000,6.42568017578125,-9.6602201461792,-1.3706790208816528,0.985660970211029
1757088609208233000,6.43523291015625,-9.659934043884277,-1.3709570169448853,0.9880930185317993
1757088609217785900,6.444785888671875,-9.65970230102539,-1.3711169958114624,0.990136981010437
1757088609227338800,6.4543388671875,-9.659502983093262,-1.3712209463119507,0.9919419884681702
1757088609236892000,6.463891845703125,-9.659326553344727,-1.3713229894638062,0.9935230016708374
1757088609246444800,6.47344482421875,-9.659185409545898,-1.3713879585266113,0.9948210120201111
1757088609255998000,6.482998046875,-9.65908432006836,-1.3714280128479004,0.995747983455658
1757088609265550800,6.49255078125,-9.659034729003906,-1.3713910579681396,0.9962819814682007
1757088609275104000,6.50210400390625,-9.659025192260742,-1.3712409734725952,0.9965879917144775
1757088609284657000,6.511656982421875,-9.659056663513184,-1.3709440231323242,0.9966800212860107
1757088609294209800,6.521209716796875,-9.659134864807129,-1.3705250024795532,0.9965029954910278
1757088609303763000,6.530762939453125,-9.659238815307617,-1.3701189756393433,0.9960439801216125
1757088609313315800,6.54031591796875,-9.659363746643066,-1.3698110580444336,0.9952340126037598
1757088609322869000,6.549868896484375,-9.659509658813477,-1.369608998298645,0.994051992893219
1757088609332422000,6.559421875,-9.659687995910645,-1.369454026222229,0.9925199747085571
1757088609341974800,6.568974853515625,-9.659905433654785,-1.3691920042037964,0.9907130002975464
1757088609351527700,6.578527587890625,-9.660235404968262,-1.3688679933547974,0.9879099726676941
1757088609361080800,6.588080810546875,-9.660603523254395,-1.368543028831482,0.9847229719161987
1757088609370633700,6.5976337890625,-9.660961151123047,-1.3683220148086548,0.9815139770507812
1757088609380186600,6.6071865234375,-9.661319732666016,-1.3681470155715942,0.9782170057296753
1757088609389739800,6.61673974609375,-9.66166877746582,-1.3680139780044556,0.9749580025672913
1757088609399293000,6.62629296875,-9.661985397338867,-1.367995023727417,0.9718629717826843
1757088609408845800,6.635845703125,-9.662272453308105,-1.368006944656372,0.9690060019493103
1757088609418398700,6.645398681640625,-9.662546157836914,-1.3680059909820557,0.9663050174713135
1757088609427951600,6.65495166015625,-9.662813186645508,-1.3679059743881226,0.9637969732284546
1757088609437504500,6.66450439453125,-9.663061141967773,-1.3677740097045898,0.961546003818512
1757088609447058000,6.674057861328125,-9.663260459899902,-1.3676639795303345,0.95973801612854
1757088609456610800,6.68361083984375,-9.663419723510742,-1.367521047592163,0.9583619832992554
1757088609466163700,6.693163818359375,-9.663566589355469,-1.3672230243682861,0.9573249816894531
1757088609475716600,6.702716552734375,-9.663713455200195,-1.3666839599609375,0.9566220045089722
1757088609485269500,6.71226953125,-9.663871765136719,-1.3658289909362793,0.9562320113182068
1757088609494822400,6.721822509765625,-9.664052963256836,-1.364601969718933,0.9561460018157959
1757088609504375600,6.73137548828125,-9.664263725280762,-1.3629109859466553,0.9563940167427063
1757088609513928700,6.7409287109375,-9.664497375488281,-1.3607800006866455,0.9570040106773376
1757088609523481600,6.750481689453125,-9.664766311645508,-1.3581910133361816,0.9578989744186401
1757088609533034800,6.76003466796875,-9.665063858032227,-1.3551549911499023,0.959106981754303
1757088609542587600,6.769587646484375,-9.665393829345703,-1.351667046546936,0.9605929851531982
1757088609552140800,6.779140869140625,-9.665765762329102,-1.3477469682693481,0.962257981300354
1757088609561693700,6.788693603515625,-9.666184425354004,-1.3434200286865234,0.963998019695282
1757088609571246600,6.79824658203125,-9.66663646697998,-1.3387999534606934,0.9658169746398926
1757088609580799500,6.807799560546875,-9.667104721069336,-1.3340109586715698,0.9677019715309143
1757088609590352600,6.8173525390625,-9.667570114135742,-1.3292590379714966,0.9695839881896973
1757088609599905500,6.826905517578125,-9.668021202087402,-1.3246090412139893,0.9714499711990356
1757088609609458400,6.83645849609375,-9.668432235717773,-1.3202190399169922,0.9733729958534241
1757088609619011600,6.846011474609375,-9.66879653930664,-1.3161410093307495,0.9753100275993347
1757088609628564700,6.855564697265625,-9.669130325317383,-1.312345027923584,0.9771919846534729
1757088609638117600,6.86511767578125,-9.669443130493164,-1.3087509870529175,0.979000985622406
1757088609647670500,6.87467041015625,-9.669729232788086,-1.3054150342941284,0.9807310104370117
1757088609657223400,6.884223388671875,-9.669987678527832,-1.3023879528045654,0.9822970032691956
1757088609666776300,6.8937763671875,-9.670193672180176,-1.299746036529541,0.9838340282440186
1757088609676329500,6.90332958984375,-9.670343399047852,-1.2974940538406372,0.98540198802948
1757088609685882400,6.91288232421875,-9.670433044433594,-1.2956830263137817,0.9869470000267029
1757088609695435500,6.922435546875,-9.670479774475098,-1.2941930294036865,0.9884660243988037
1757088609704988400,6.931988525390625,-9.670495986938477,-1.2929929494857788,0.9898880124092102
1757088609714541600,6.94154150390625,-9.670492172241211,-1.2920440435409546,0.991195023059845
1757088609724094500,6.951094482421875,-9.670459747314453,-1.2913850545883179,0.992372989654541
1757088609733647400,6.9606474609375,-9.670411109924316,-1.2909690141677856,0.9933919906616211
1757088609743200300,6.9702001953125,-9.670343399047852,-1.2907899618148804,0.9942830204963684
1757088609752753400,6.97975341796875,-9.670259475708008,-1.2908200025558472,0.9950680136680603
1757088609762306600,6.989306640625,-9.670175552368164,-1.2909669876098633,0.9956979751586914
1757088609771859500,6.998859375,-9.6701021194458,-1.2911540269851685,0.9961659908294678
1757088609781412400,7.008412353515625,-9.670062065124512,-1.291267991065979,0.9964029788970947
1757088609790965200,7.01796533203125,-9.67005729675293,-1.2913240194320679,0.996392011642456
1757088609800518400,7.027518310546875,-9.67010498046875,-1.291242003440857,0.9960280060768127
1757088609810071300,7.0370712890625,-9.670206069946289,-1.2909879684448242,0.995369017124176
1757088609819624400,7.04662451171875,-9.670354843139648,-1.2905100584030151,0.9945369958877563
1757088609829177600,7.056177490234375,-9.67054557800293,-1.2898600101470947,0.9935340285301208
1757088609838730500,7.06573046875,-9.670764923095703,-1.2890390157699585,0.9924479722976685
1757088609848283400,7.075283447265625,-9.670998573303223,-1.2881159782409668,0.991366982460022
1757088609857836300,7.084836181640625,-9.671255111694336,-1.2871040105819702,0.9901840090751648
1757088609867389400,7.094389404296875,-9.671516418457031,-1.2861039638519287,0.9889289736747742
1757088609876942300,7.1039423828125,-9.671781539916992,-1.285099983215332,0.987625002861023
1757088609886495500,7.11349560546875,-9.67204475402832,-1.2841700315475464,0.986274003982544
1757088609896048400,7.12304833984375,-9.672287940979004,-1.2833689451217651,0.9849349856376648
1757088609905601300,7.132601318359375,-9.672506332397461,-1.2827329635620117,0.9836220145225525
1757088609915154200,7.142154296875,-9.672697067260742,-1.2822669744491577,0.9823619723320007
1757088609924707000,7.15170703125,-9.672849655151367,-1.28200101852417,0.981224000453949
1757088609934260200,7.16126025390625,-9.672964096069336,-1.2819290161132812,0.9802020192146301
1757088609943813000,7.170813232421875,-9.6730375289917,-1.282004952430725,0.9793760180473328
1757088609953366300,7.1803662109375,-9.67308521270752,-1.2821780443191528,0.9786970019340515
1757088609962919200,7.189919189453125,-9.673107147216797,-1.2824029922485352,0.978181004524231
1757088609972472000,7.19947216796875,-9.67310905456543,-1.2826499938964844,0.9778500199317932
1757088609982025200,7.209025146484375,-9.673083305358887,-1.2829400300979614,0.9777160286903381
1757088609991578400,7.218578369140625,-9.673030853271484,-1.2832289934158325,0.9778439998626709
1757088610001131300,7.22813134765625,-9.67296028137207,-1.2834919691085815,0.9781910181045532
1757088610010684200,7.23768408203125,-9.67287540435791,-1.283782958984375,0.9786540269851685
1757088610020237300,7.2472373046875,-9.672774314880371,-1.2840609550476074,0.9792760014533997
1757088610029790200,7.256790283203125,-9.67265510559082,-1.2843890190124512,0.9800249934196472
1757088610039343000,7.266343017578125,-9.672517776489258,-1.2847950458526611,0.9808449745178223
1757088610048896000,7.27589599609375,-9.672365188598633,-1.2852870225906372,0.9816989898681641
1757088610058449000,7.285448974609375,-9.672197341918945,-1.2858940362930298,0.9825649857521057
1757088610068001800,7.295001708984375,-9.672016143798828,-1.2865749597549438,0.9834470152854919
1757088610077555200,7.30455517578125,-9.671829223632812,-1.2873400449752808,0.9842939972877502
1757088610087108000,7.314108154296875,-9.671653747558594,-1.288092017173767,0.985027015209198
1757088610096661000,7.323660888671875,-9.671486854553223,-1.288822054862976,0.9857059717178345
1757088610106214000,7.3332138671875,-9.67133617401123,-1.289497971534729,0.9862989783287048
1757088610115767000,7.34276708984375,-9.671210289001465,-1.2900539636611938,0.9868069887161255
1757088610125320000,7.35231982421875,-9.671106338500977,-1.2905189990997314,0.9872140288352966
1757088610134872800,7.361872802734375,-9.671026229858398,-1.2909059524536133,0.98750901222229
1757088610144426000,7.371426025390625,-9.67095947265625,-1.2912319898605347,0.9877349734306335
1757088610153979000,7.380978759765625,-9.670918464660645,-1.2914669513702393,0.9878339767456055
1757088610163532000,7.390531982421875,-9.67090129852295,-1.2916280031204224,0.9877899885177612
1757088610173085000,7.4000849609375,-9.670918464660645,-1.2916289567947388,0.987625002861023
1757088610182638000,7.40963818359375,-9.670957565307617,-1.2915509939193726,0.9873369932174683
1757088610192191000,7.41919091796875,-9.671026229858398,-1.291401982307434,0.9868749976158142
1757088610201744100,7.428744140625,-9.671111106872559,-1.2911659479141235,0.9863349795341492
1757088610211297000,7.438297119140625,-9.671219825744629,-1.2908530235290527,0.9856719970703125
1757088610220850000,7.447849853515625,-9.671346664428711,-1.290477991104126,0.9849249720573425
1757088610230402800,7.45740283203125,-9.671487808227539,-1.2900539636611938,0.9840949773788452
1757088610239955700,7.466955810546875,-9.671636581420898,-1.2896039485931396,0.9832260012626648
1757088610249508900,7.4765087890625,-9.671792030334473,-1.2891199588775635,0.982338011264801
1757088610259061800,7.486061767578125,-9.67194652557373,-1.2886290550231934,0.981453001499176
1757088610268615000,7.495614990234375,-9.67210865020752,-1.2880460023880005,0.9806230068206787
1757088610278167800,7.505167724609375,-9.672258377075195,-1.2874250411987305,0.9799659848213196
1757088610287720700,7.514720703125,-9.672401428222656,-1.2867690324783325,0.9794080257415771
1757088610297273600,7.524273681640625,-9.672539710998535,-1.2861180305480957,0.9789080023765564
1757088610306826800,7.53382666015625,-9.672658920288086,-1.2855080366134644,0.978522002696991
1757088610316379600,7.543379638671875,-9.672754287719727,-1.2849620580673218,0.9783009886741638
1757088610325932500,7.5529326171875,-9.672830581665039,-1.2844569683074951,0.9782170057296753
1757088610335486000,7.56248583984375,-9.672872543334961,-1.2840369939804077,0.9783480167388916
1757088610345038800,7.572038818359375,-9.672884941101074,-1.2836920022964478,0.9786810278892517
1757088610354591700,7.581591796875,-9.672863006591797,-1.2834440469741821,0.9792219996452332
1757088610364144600,7.59114453125,-9.672804832458496,-1.2833620309829712,0.9798930287361145
1757088610373697500,7.600697509765625,-9.672734260559082,-1.2833449840545654,0.9806079864501953
1757088610383250700,7.610250732421875,-9.67265510559082,-1.2833609580993652,0.981361985206604
1757088610392803600,7.619803466796875,-9.672576904296875,-1.2834099531173706,0.9820799827575684
1757088610402356500,7.6293564453125,-9.6724853515625,-1.2835140228271484,0.982833981513977
1757088610411909600,7.63890966796875,-9.672390937805176,-1.2836350202560425,0.9836210012435913
1757088610421462500,7.648462646484375,-9.672292709350586,-1.2837419509887695,0.9844509959220886
1757088610431015400,7.658015380859375,-9.672178268432617,-1.283897042274475,0.9853579998016357
1757088610440568600,7.667568603515625,-9.672064781188965,-1.2840509414672852,0.9862679839134216
1757088610450121500,7.67712158203125,-9.671966552734375,-1.2841659784317017,0.9870839715003967
1757088610459674400,7.68667431640625,-9.671875953674316,-1.2843350172042847,0.9877570271492004
1757088610469227500,7.6962275390625,-9.671793937683105,-1.2845499515533447,0.9882839918136597
1757088610478780400,7.705780517578125,-9.671728134155273,-1.2847729921340942,0.9886419773101807
1757088610488333600,7.71533349609375,-9.67167854309082,-1.2849570512771606,0.9888989925384521
1757088610497886500,7.724886474609375,-9.671643257141113,-1.2851070165634155,0.9890519976615906
1757088610507439400,7.734439453125,-9.671636581420898,-1.2851779460906982,0.9890279769897461
1757088610516992300,7.7439921875,-9.671655654907227,-1.2851719856262207,0.9888389706611633
1757088610526545200,7.753545166015625,-9.671709060668945,-1.2850680351257324,0.9884420037269592
1757088610536098300,7.763098388671875,-9.671781539916992,-1.2849370241165161,0.9879159927368164
1757088610545651500,7.7726513671875,-9.671873092651367,-1.2847460508346558,0.9872549772262573
1757088610555204400,7.782204345703125,-9.671987533569336,-1.284464955329895,0.9864910244941711
1757088610564757200,7.79175732421875,-9.672103881835938,-1.2841830253601074,0.985729992389679
1757088610574310100,7.80131005859375,-9.672207832336426,-1.2839640378952026,0.9849969744682312
1757088610583863300,7.81086328125,-9.672303199768066,-1.2837380170822144,0.9843500256538391
1757088610593416200,7.820416259765625,-9.672394752502441,-1.2835099697113037,0.9837520122528076
1757088610602969300,7.82996923828125,-9.672479629516602,-1.2833119630813599,0.9831650257110596
1757088610612522200,7.839522216796875,-9.67255687713623,-1.283149003982544,0.9826300144195557
1757088610622075100,7.8490751953125,-9.672636985778809,-1.2829639911651611,0.9820809960365295
1757088610631628300,7.858628173828125,-9.672719955444336,-1.2827509641647339,0.9815469980239868
1757088610641181200,7.86818115234375,-9.672788619995117,-1.2825839519500732,0.9810929894447327
1757088610650734000,7.877734130859375,-9.672846794128418,-1.2823970317840576,0.980758011341095
1757088610660287200,7.887287353515625,-9.672895431518555,-1.2822099924087524,0.9805309772491455
1757088610669840400,7.89684033203125,-9.672920227050781,-1.282075047492981,0.9804559946060181
1757088610679393300,7.906393310546875,-9.672932624816895,-1.2819730043411255,0.9804710149765015
1757088610688946200,7.9159462890625,-9.672934532165527,-1.281896948814392,0.9805499911308289
1757088610698499000,7.9254990234375,-9.672918319702148,-1.2818650007247925,0.9807549715042114
1757088610708052200,7.93505224609375,-9.672883033752441,-1.2819099426269531,0.9810410141944885
1757088610717605000,7.944605224609375,-9.67283821105957,-1.282006025314331,0.9813529849052429
1757088610727158300,7.954158203125,-9.67279052734375,-1.282127022743225,0.9816660284996033
1757088610736711200,7.963711181640625,-9.672739028930664,-1.2822539806365967,0.982014000415802
1757088610746264000,7.97326416015625,-9.672683715820312,-1.2823760509490967,0.9823870062828064
1757088610755817000,7.98281689453125,-9.672637939453125,-1.2824440002441406,0.9827510118484497
1757088610765370000,7.9923701171875,-9.672587394714355,-1.282528042793274,0.9831389784812927
1757088610774923000,8.001923095703125,-9.672537803649902,-1.2826529741287231,0.9834740161895752
1757088610784476200,8.01147607421875,-9.672489166259766,-1.282824993133545,0.9837260246276855
1757088610794029000,8.021029052734375,-9.672442436218262,-1.28302800655365,0.9839230179786682
1757088610803582200,8.030582275390625,-9.672393798828125,-1.2832800149917603,0.984063982963562
1757088610813135000,8.040135009765624,-9.672345161437988,-1.2835890054702759,0.9841430187225342
1757088610822688000,8.04968798828125,-9.672292709350586,-1.283939003944397,0.9842100143432617
1757088610832241000,8.059240966796875,-9.672245025634766,-1.2842669486999512,0.9842349886894226
1757088610841793800,8.068793701171876,-9.672198295593262,-1.2846360206604004,0.9842020273208618
1757088610851347200,8.07834716796875,-9.672155380249023,-1.2850500345230103,0.9840760231018066
1757088610860900000,8.087900146484374,-9.672114372253418,-1.285459041595459,0.9839469790458679
1757088610870453000,8.097452880859375,-9.67207145690918,-1.2858870029449463,0.9838240146636963
1757088610880006000,8.107005859375,-9.672025680541992,-1.2863630056381226,0.9836339950561523
1757088610889559000,8.11655908203125,-9.671980857849121,-1.2868770360946655,0.9834039807319641
1757088610899112000,8.12611181640625,-9.671943664550781,-1.287330985069275,0.983178973197937
1757088610908664800,8.135664794921874,-9.671906471252441,-1.2877390384674072,0.9830250144004822
1757088610918217700,8.1452177734375,-9.671869277954102,-1.288092017173767,0.9829130172729492
1757088610927771000,8.15477099609375,-9.671826362609863,-1.2884759902954102,0.982837975025177
1757088610937323800,8.16432373046875,-9.671778678894043,-1.2888710498809814,0.9827939867973328
1757088610946877000,8.173876953125,-9.671731948852539,-1.2892769575119019,0.9827219843864441
1757088610956429800,8.183429931640624,-9.671696662902832,-1.2895989418029785,0.982653021812439
1757088610965982700,8.192982666015626,-9.671663284301758,-1.289868950843811,0.9826120138168335
1757088610975535900,8.202535888671875,-9.671629905700684,-1.2900880575180054,0.9826560020446777
1757088610985088800,8.2120888671875,-9.671602249145508,-1.2902250289916992,0.9827579855918884
1757088610994642000,8.221641845703125,-9.671582221984863,-1.2902849912643433,0.9828780293464661
1757088611004194800,8.23119482421875,-9.671575546264648,-1.2902109622955322,0.9830510020256042
1757088611013747700,8.240747802734376,-9.671577453613281,-1.290086030960083,0.9831929802894592
1757088611023300600,8.250300537109375,-9.67159366607666,-1.2898950576782227,0.9832919836044312
1757088611032853500,8.259853515625,-9.671613693237305,-1.2896510362625122,0.9834010004997253
1757088611042406700,8.26940673828125,-9.67164421081543,-1.2893520593643188,0.983506977558136
1757088611051959800,8.278959716796875,-9.671677589416504,-1.2890470027923584,0.9835780262947083
1757088611061512700,8.2885126953125,-9.671728134155273,-1.2886589765548706,0.983581006526947
1757088611071065600,8.298065673828125,-9.671792030334473,-1.288195013999939,0.9835529923439026
1757088611080618800,8.30761865234375,-9.671876907348633,-1.2876149415969849,0.9834750294685364
1757088611090171600,8.317171630859375,-9.671979904174805,-1.286985993385315,0.9832929968833923
1757088611099724800,8.326724853515625,-9.672094345092773,-1.2863359451293945,0.9830129742622375
1757088611109277700,8.336277587890624,-9.672204971313477,-1.2857149839401245,0.9827430248260498
1757088611118830800,8.345830810546875,-9.672310829162598,-1.2850780487060547,0.9825350046157837
1757088611128383500,8.355383544921875,-9.672407150268555,-1.284479022026062,0.9823570251464844
1757088611137936600,8.3649365234375,-9.672484397888184,-1.2839540243148804,0.9822739958763123
1757088611147489500,8.374489501953125,-9.672552108764648,-1.2835229635238647,0.9821839928627014
1757088611157042400,8.38404248046875,-9.67262077331543,-1.2831239700317383,0.9820169806480408
1757088611166595600,8.393595703125,-9.672710418701172,-1.2827370166778564,0.9816420078277588
1757088611176148700,8.403148681640625,-9.672815322875977,-1.282349944114685,0.9811139702796936
1757088611185701600,8.41270166015625,-9.672922134399414,-1.2819390296936035,0.9806029796600342
1757088611195254500,8.422254638671875,-9.673014640808105,-1.281559944152832,0.9801830053329468
1757088611204807400,8.431807373046874,-9.67309284210205,-1.281211018562317,0.979885995388031
1757088611214360600,8.441360595703125,-9.673145294189453,-1.2809480428695679,0.9797019958496094
1757088611223913500,8.45091357421875,-9.67318058013916,-1.2807639837265015,0.9796000123023987
1757088611233466400,8.46046630859375,-9.67320442199707,-1.28062903881073,0.979544997215271
1757088611243019500,8.47001953125,-9.673222541809082,-1.2805299758911133,0.9794909954071045
1757088611252572700,8.47957275390625,-9.673229217529297,-1.280555009841919,0.9794059991836548
1757088611262125600,8.48912548828125,-9.673213005065918,-1.280714988708496,0.9793469905853271
1757088611271678500,8.498678466796875,-9.673197746276855,-1.2809560298919678,0.9791899919509888
1757088611281231400,8.5082314453125,-9.673173904418945,-1.2812670469284058,0.9790220260620117
1757088611290784300,8.5177841796875,-9.673149108886719,-1.2815790176391602,0.9788479804992676
1757088611300337200,8.527337158203125,-9.67313289642334,-1.2818620204925537,0.9786350131034851
1757088611309890300,8.536890380859376,-9.673130989074707,-1.282112956047058,0.9783250093460083
1757088611319443200,8.546443115234375,-9.673135757446289,-1.2823100090026855,0.9780349731445312
1757088611328996400,8.555996337890624,-9.673134803771973,-1.2824440002441406,0.9778649806976318
1757088611338549200,8.56554931640625,-9.673131942749023,-1.2826110124588013,0.9776679873466492
1757088611348102100,8.57510205078125,-9.673114776611328,-1.282863974571228,0.9775050282478333
1757088611357655000,8.584655029296876,-9.673072814941406,-1.2832369804382324,0.9774360060691833
1757088611367208200,8.594208251953125,-9.673001289367676,-1.2836610078811646,0.9775919914245605
1757088611376761000,8.603760986328124,-9.672906875610352,-1.2839959859848022,0.9780809879302979
1757088611386314200,8.613314208984375,-9.672796249389648,-1.2843259572982788,0.9787350296974182
1757088611395867100,8.6228671875,-9.672657012939453,-1.284646987915039,0.9796760082244873
1757088611405420000,8.632419921875,-9.6724853515625,-1.2850600481033325,0.9808189868927002
1757088611414973200,8.64197314453125,-9.672277450561523,-1.2856930494308472,0.9820240139961243
1757088611424526000,8.651526123046875,-9.672057151794434,-1.2863659858703613,0.9832760095596313
1757088611434079000,8.661078857421876,-9.671846389770508,-1.2869800329208374,0.9845340251922607
1757088611443632000,8.670632080078125,-9.67167854309082,-1.2871910333633423,0.9858819842338562
1757088611453185300,8.680185302734374,-9.6715726852417,-1.2869160175323486,0.9872710108757019
1757088611462738200,8.68973828125,-9.671476364135742,-1.286478042602539,0.9887830018997192
1757088611472291000,8.699291015625,-9.671355247497559,-1.2860349416732788,0.9905290007591248
1757088611481844000,8.708843994140626,-9.671229362487793,-1.285356044769287,0.9926350116729736
1757088611491396900,8.71839697265625,-9.671104431152344,-1.2845200300216675,0.9949190020561218
1757088611500949800,8.72794970703125,-9.670964241027832,-1.2836560010910034,0.997389018535614
1757088611510503000,8.7375029296875,-9.670806884765625,-1.2828099727630615,0.9999799728393555
1757088611520056000,8.74705615234375,-9.670649528503418,-1.2819809913635254,1.0025399923324585
1757088611529609000,8.75660888671875,-9.670480728149414,-1.2812410593032837,1.0051100254058838
1757088611539162000,8.766162109375,-9.67030143737793,-1.2807010412216187,1.0075310468673706
1757088611548714800,8.77571484375,-9.670123100280762,-1.280379056930542,1.0096789598464966
1757088611558268000,8.785267822265626,-9.669958114624023,-1.280318021774292,1.0113589763641357
1757088611567820800,8.79482080078125,-9.669822692871094,-1.2805800437927246,1.0123330354690552
1757088611577373700,8.804373779296874,-9.66972827911377,-1.2810349464416504,1.0126609802246094
1757088611586926800,8.8139267578125,-9.669706344604492,-1.281641960144043,1.0120890140533447
1757088611596480000,8.82347998046875,-9.66976261138916,-1.282297968864441,1.010679006576538
1757088611606033000,8.833032958984376,-9.669926643371582,-1.282776951789856,1.008424997329712
1757088611615585800,8.842585693359375,-9.670167922973633,-1.2832280397415161,1.0054320096969604
1757088611625138700,8.852138671875,-9.670476913452148,-1.2836790084838867,1.001757025718689
1757088611634691600,8.861691650390625,-9.670816421508789,-1.2843760251998901,0.9973999857902527
1757088611644244700,8.87124462890625,-9.671168327331543,-1.2854490280151367,0.9924049973487854
1757088611653798000,8.8807978515625,-9.671567916870117,-1.2865079641342163,0.9869049787521362
1757088611663350800,8.890350830078125,-9.672060012817383,-1.2873320579528809,0.980774998664856
1757088611672903700,8.899903564453124,-9.672627449035645,-1.2880829572677612,0.9739580154418945
1757088611682456600,8.90945654296875,-9.673288345336914,-1.2884349822998047,0.9667239785194397
1757088611692009700,8.919009765625,-9.674006462097168,-1.2884960174560547,0.9593380093574524
1757088611701562600,8.928562744140624,-9.674779891967773,-1.2886099815368652,0.9512569904327393
1757088611711115500,8.938115478515625,-9.675657272338867,-1.2883009910583496,0.9426739811897278
1757088611720668700,8.947668701171875,-9.676691055297852,-1.287498950958252,0.9330469965934753
1757088611730221600,8.9572216796875,-9.677756309509277,-1.2862869501113892,0.9236170053482056
1757088611739774700,8.966774658203125,-9.678825378417969,-1.284862995147705,0.9144089818000793
1757088611749327600,8.97632763671875,-9.679901123046875,-1.2830970287322998,0.9055669903755188
1757088611758880500,8.985880615234375,-9.680941581726074,-1.2811980247497559,0.8972539901733398
1757088611768433400,8.995433349609375,-9.681924819946289,-1.2793940305709839,0.8894100189208984
1757088611777986600,9.004986572265626,-9.68282699584961,-1.2777589559555054,0.8821669816970825
1757088611787539700,9.014539794921875,-9.683610916137695,-1.2762720584869385,0.8759490251541138
1757088611797092600,9.024092529296874,-9.68424129486084,-1.2752419710159302,0.8706949949264526
1757088611806645500,9.0336455078125,-9.684791564941406,-1.2744150161743164,0.8659759759902954
1757088611816198400,9.043198486328125,-9.685257911682129,-1.2737849950790405,0.8618280291557312
1757088611825751300,9.052751220703126,-9.685629844665527,-1.2733479738235474,0.8583880066871643
1757088611835304200,9.06230419921875,-9.685907363891602,-1.273015022277832,0.8558250069618225
1757088611844857300,9.071857421875,-9.686058044433594,-1.2730430364608765,0.8541330099105835
1757088611854410500,9.081410400390626,-9.686080932617188,-1.2733900547027588,0.8533639907836914
1757088611863963400,9.09096337890625,-9.685981750488281,-1.2740789651870728,0.8534389734268188
1757088611873516300,9.100516357421874,-9.685758590698242,-1.2752829790115356,0.8541300296783447
1757088611883069200,9.110069091796875,-9.685465812683105,-1.2768150568008423,0.8550990223884583
1757088611892622300,9.119622314453125,-9.685093879699707,-1.2783490419387817,0.8569570183753967
1757088611902175200,9.12917529296875,-9.684572219848633,-1.2804210186004639,0.8596640229225159
1757088611911728400,9.138728271484375,-9.683847427368164,-1.2829350233078003,0.8639940023422241
1757088611921281300,9.14828125,-9.683032989501953,-1.2856980562210083,0.8688820004463196
1757088611930834400,9.15783447265625,-9.682158470153809,-1.2885260581970215,0.8743489980697632
1757088611940387300,9.16738720703125,-9.681207656860352,-1.2916589975357056,0.8801419734954834
1757088611949940200,9.176940185546876,-9.680235862731934,-1.2946430444717407,0.8863270282745361
1757088611959493000,9.1864931640625,-9.679258346557617,-1.297173023223877,0.8931540250778198
1757088611969046300,9.19604638671875,-9.678337097167969,-1.2991830110549927,0.9001010060310364
1757088611978599200,9.20559912109375,-9.677521705627441,-1.3004339933395386,0.9069479703903198
1757088611988152300,9.21515234375,-9.676836013793945,-1.3008229732513428,0.9136040210723877
1757088611997705200,9.224705322265624,-9.676267623901367,-1.3008179664611816,0.9196439981460571
1757088612007258000,9.234258056640625,-9.675901412963867,-1.3001949787139893,0.9244769811630249
1757088612016811000,9.24381103515625,-9.675668716430664,-1.2988460063934326,0.9289199709892273
1757088612026364200,9.2533642578125,-9.67555046081543,-1.296862006187439,0.9330059885978699
1757088612035917300,9.262917236328125,-9.675565719604492,-1.2942310571670532,0.9365710020065308
1757088612045470200,9.27247021484375,-9.675622940063477,-1.291471004486084,0.9398369789123535
1757088612055023000,9.282023193359375,-9.675690650939941,-1.288733959197998,0.9429380297660828
1757088612064576000,9.291575927734375,-9.675756454467773,-1.2860599756240845,0.9459369778633118
1757088612074129000,9.30112890625,-9.675848960876465,-1.2834340333938599,0.948602020740509
1757088612083682000,9.31068212890625,-9.676044464111328,-1.2805140018463135,0.9505710005760193
1757088612093235000,9.32023486328125,-9.676356315612793,-1.2774250507354736,0.9515429735183716
1757088612102788000,9.3297880859375,-9.676758766174316,-1.2743510007858276,0.9515720009803772
1757088612112341000,9.339341064453125,-9.677250862121582,-1.2710950374603271,0.9509220123291016
1757088612121894000,9.348893798828126,-9.677823066711426,-1.2675069570541382,0.9498950242996216
1757088612131447000,9.358447021484375,-9.678457260131836,-1.263368010520935,0.948980987071991
1757088612141000000,9.368,-9.679058074951172,-1.2593510150909424,0.9482550024986267
1757088612150552800,9.377552734375,-9.67957878112793,-1.2557549476623535,0.9477909803390503
1757088612160106000,9.38710595703125,-9.679922103881836,-1.252729058265686,0.9483349919319153
1757088612169659000,9.396658935546874,-9.680044174194336,-1.250764012336731,0.9496700167655945
1757088612179212000,9.4062119140625,-9.679945945739746,-1.24965500831604,0.9520130157470703
1757088612188765000,9.415764892578125,-9.679525375366211,-1.2493699789047241,0.9563630223274231
1757088612198317800,9.42531787109375,-9.678762435913086,-1.2503770589828491,0.9624090194702148
1757088612207870700,9.43487060546875,-9.677704811096191,-1.2529670000076294,0.9692270159721375
1757088612217423600,9.444423583984374,-9.676321983337402,-1.2570339441299438,0.9771980047225952
1757088612226977000,9.45397705078125,-9.674537658691406,-1.2622239589691162,0.9873520135879517
1757088612236529700,9.46352978515625,-9.672445297241211,-1.267920970916748,0.999442994594574
1757088612246082800,9.473082763671876,-9.670080184936523,-1.273866057395935,1.013388991355896
1757088612255635700,9.4826357421875,-9.667360305786133,-1.2800970077514648,1.0296920537948608
1757088612265188600,9.492188720703124,-9.664276123046875,-1.2861160039901733,1.0488959550857544
1757088612274741500,9.501741455078125,-9.660867691040039,-1.2919299602508545,1.0707210302352905
1757088612284294700,9.511294677734375,-9.657150268554688,-1.2975510358810425,1.0950369834899902
1757088612293847600,9.52084765625,-9.653108596801758,-1.3027620315551758,1.122012972831726
1757088612303400700,9.530400634765625,-9.648760795593262,-1.3076560497283936,1.1513149738311768
1757088612312953600,9.53995361328125,-9.644216537475586,-1.312487006187439,1.1818770170211792
1757088612322506800,9.5495068359375,-9.639676094055176,-1.3174409866333008,1.2121620178222656
1757088612332059600,9.5590595703125,-9.635211944580078,-1.3210610151290894,1.242805004119873
1757088612341612500,9.568612548828124,-9.630945205688477,-1.3223090171813965,1.2737799882888794
1757088612351165400,9.57816552734375,-9.626951217651367,-1.321282982826233,1.3044099807739258
1757088612360718600,9.587718505859375,-9.623189926147461,-1.3184759616851807,1.3345750570297241
1757088612370271500,9.597271484375,-9.619579315185547,-1.3146710395812988,1.3642090559005737
1757088612379824600,9.60682470703125,-9.616119384765625,-1.3097460269927979,1.3933589458465576
1757088612389377500,9.61637744140625,-9.612792015075684,-1.303609013557434,1.4225120544433594
1757088612398930400,9.625930419921875,-9.609704971313477,-1.2966099977493286,1.4508110284805298
1757088612408483600,9.635483642578125,-9.606931686401367,-1.289201021194458,1.4772850275039673
1757088612418036500,9.645036376953126,-9.604501724243164,-1.2817790508270264,1.5011589527130127
1757088612427589600,9.654589599609375,-9.602352142333984,-1.2741930484771729,1.5229370594024658
1757088612437142500,9.664142578125,-9.600525856018066,-1.2661019563674927,1.5426260232925415
1757088612446695400,9.6736953125,-9.599079132080078,-1.2574529647827148,1.5599030256271362
1757088612456248300,9.683248291015625,-9.597986221313477,-1.2494080066680908,1.5740439891815186
1757088612465801200,9.69280126953125,-9.597264289855957,-1.2428009510040283,1.584473967552185
1757088612475354400,9.702354248046875,-9.596905708312988,-1.2377660274505615,1.5911959409713745
1757088612484907300,9.7119072265625,-9.596769332885742,-1.2308549880981445,1.5978219509124756
1757088612494460400,9.72146044921875,-9.596296310424805,-1.2238880395889282,1.6062270402908325
1757088612504013300,9.731013427734375,-9.595989227294922,-1.216825008392334,1.613616943359375
1757088612513566200,9.740566162109374,-9.595529556274414,-1.209267020225525,1.6221810579299927
1757088612523119400,9.750119384765625,-9.594390869140625,-1.2022720575332642,1.6338390111923218
1757088612532672300,9.75967236328125,-9.591724395751953,-1.1877319812774658,1.6568310260772705
1757088612542225200,9.76922509765625,-9.586867332458496,-1.184507966041565,1.6836509704589844
1757088612551778300,9.7787783203125,-9.581778526306152,-1.1833679676055908,1.7101709842681885
1757088612561331200,9.788331298828124,-9.576850891113281,-1.1825230121612549,1.7356890439987183
1757088612570884000,9.797884033203125,-9.572019577026367,-1.1815379858016968,1.7606680393218994
1757088612580437200,9.807437255859375,-9.567373275756836,-1.1793709993362427,1.785364031791687
1757088612589990100,9.816990234375,-9.56313705444336,-1.1751450300216675,1.8094149827957153
1757088612599543000,9.82654296875,-9.560117721557617,-1.1658120155334473,1.830680012702942
1757088612609096200,9.83609619140625,-9.557802200317383,-1.1521830558776855,1.8508750200271606
1757088612618649000,9.845649169921876,-9.555689811706543,-1.1353659629821777,1.871569037437439
1757088612628202200,9.8552021484375,-9.554258346557617,-1.1145800352096558,1.8906049728393555
1757088612637755100,9.864755126953124,-9.553771018981934,-1.0908249616622925,1.906061053276062
1757088612647308000,9.87430810546875,-9.553512573242188,-1.06883704662323,1.9198360443115234
1757088612656861000,9.88386083984375,-9.553762435913086,-1.0455440282821655,1.931947946548462
1757088612666413800,9.893413818359376,-9.553571701049805,-1.023501992225647,1.9464199542999268
1757088612675967000,9.902967041015625,-9.553074836730957,-1.0062979459762573,1.9595019817352295
1757088612685520000,9.912519775390624,-9.552811622619629,-0.9898849725723267,1.9704420566558838
1757088612695072800,9.92207275390625,-9.55247688293457,-0.9732049703598022,1.9817670583724976
1757088612704626000,9.9316259765625,-9.55197525024414,-0.9570339918136597,1.9934279918670654
1757088612714179000,9.941178955078126,-9.552294731140137,-0.9450899958610535,1.9985510110855103
1757088612723732000,9.95073193359375,-9.555033683776855,-0.9460139870643616,1.9843120574951172
1757088612733284900,9.960284912109374,-9.560148239135742,-0.93824702501297,1.9633690118789673
1757088612742838000,9.969838134765626,-9.564705848693848,-0.9304479956626892,1.9456640481948853
1757088612752391000,9.979390869140625,-9.568428039550781,-0.9237599968910217,1.931607961654663
1757088612761943800,9.98894384765625,-9.571783065795898,-0.9184330105781555,1.918658971786499
1757088612771496700,9.99849658203125,-9.574618339538574,-0.9151809811592102,1.9071069955825806
1757088612781049900,10.0080498046875,-9.577329635620117,-0.912846028804779,1.8954659700393677
1757088612790602800,10.017602783203126,-9.579455375671387,-0.9133009910583496,1.8847860097885132
1757088612800155600,10.02715576171875,-9.581298828125,-0.9164230227470398,1.8739900588989258
1757088612809708500,10.03670849609375,-9.582944869995117,-0.922950029373169,1.8625619411468506
1757088612819261700,10.04626171875,-9.584220886230469,-0.9338380098342896,1.8508780002593994
1757088612828814800,10.05581494140625,-9.585041046142578,-0.9475849866867065,1.8400779962539673
1757088612838367700,10.06536767578125,-9.585622787475586,-0.9596880078315735,1.8310110569000244
1757088612847920600,10.074920654296875,-9.585598945617676,-0.9731339812278748,1.8243290185928345
1757088612857473500,10.0844736328125,-9.585638999938965,-0.9856510162353516,1.817512035369873
1757088612867026400,10.0940263671875,-9.58537483215332,-0.9966470003128052,1.8129949569702148
1757088612876579600,10.10357958984375,-9.585221290588379,-1.0083849430084229,1.8074829578399658
1757088612886132500,10.113132568359376,-9.585119247436523,-1.0221790075302124,1.8005239963531494
1757088612895685600,10.122685546875,-9.585522651672363,-1.0365899801254272,1.7905939817428589
1757088612905238500,10.132238525390624,-9.586016654968262,-1.047008991241455,1.782034993171692
1757088612914791400,10.14179150390625,-9.585609436035156,-1.053514003753662,1.7803399562835693
1757088612924344300,10.15134423828125,-9.585000038146973,-1.0583100318908691,1.7807960510253906
1757088612933897500,10.1608974609375,-9.585301399230957,-1.0599859952926636,1.7781859636306763
1757088612943450400,10.170450439453125,-9.586420059204102,-1.0575590133666992,1.7736339569091797
1757088612953003500,10.18000341796875,-9.58787727355957,-1.0512109994888306,1.769476056098938
1757088612962556400,10.189556396484376,-9.589712142944336,-1.0405470132827759,1.76557195186615
1757088612972109600,10.199109619140625,-9.591296195983887,-1.027176022529602,1.7639809846878052
1757088612981662500,10.208662353515624,-9.592190742492676,-1.0118130445480347,1.7664380073547363
1757088612991215400,10.21821533203125,-9.592617988586426,-0.9939900040626526,1.7720229625701904
1757088613000768300,10.227768310546875,-9.593177795410156,-0.9729269742965698,1.7780829668045044
1757088613010321200,10.237321044921876,-9.593347549438477,-0.9508169889450073,1.7865710258483887
1757088613019874300,10.246874267578125,-9.592363357543945,-0.9323530197143555,1.7997980117797852
1757088613029427500,10.256427490234374,-9.590547561645508,-0.9140809774398804,1.817054033279419
1757088613038980400,10.26598046875,-9.587573051452637,-0.8957669734954834,1.839890956878662
1757088613048533200,10.275533203125,-9.583392143249512,-0.8772649765014648,1.8681329488754272
1757088613058086100,10.285086181640626,-9.578057289123535,-0.8594499826431274,1.900212049484253
1757088613067639000,10.29463916015625,-9.571043968200684,-0.8425750136375427,1.938315987586975
1757088613077192200,10.304192138671874,-9.561653137207031,-0.8260930180549622,1.9852440357208252
1757088613086745000,10.3137451171875,-9.549110412597656,-0.8106340169906616,2.0429420471191406
1757088613096298000,10.323298095703125,-9.534323692321777,-0.8058919906616211,2.1047210693359375
1757088613105851100,10.33285107421875,-9.518533706665039,-0.8065360188484192,2.167591094970703
1757088613115404300,10.342404296875,-9.501569747924805,-0.8101850152015686,2.23288893699646
1757088613124957000,10.35195703125,-9.481751441955566,-0.8152679800987244,2.305927038192749
1757088613134510000,10.361510009765626,-9.458643913269043,-0.8215479850769043,2.3872458934783936
1757088613144063200,10.371063232421875,-9.431037902832031,-0.830344021320343,2.478698968887329
1757088613153616400,10.380616455078124,-9.396329879760742,-0.8432459831237793,2.5850460529327393
1757088613163169000,10.3901689453125,-9.35511589050293,-0.8636329770088196,2.703047037124634
1757088613172722000,10.399721923828125,-9.306917190551758,-0.8916640281677246,2.832494020462036
1757088613182275000,10.409275146484376,-9.250208854675293,-0.9298449754714966,2.9744620323181152
1757088613191828000,10.418827880859375,-9.182784080505371,-0.981423020362854,3.1309139728546143
1757088613201380900,10.428380859375,-9.105927467346191,-1.039749026298523,3.299846887588501
1757088613210933800,10.437933837890625,-9.019618034362793,-1.1016900539398193,3.4790539741516113
1757088613220487000,10.44748681640625,-8.921980857849121,-1.1813030242919922,3.6644089221954346
1757088613230040000,10.4570400390625,-8.816826820373535,-1.268468976020813,3.8526370525360107
1757088613239593000,10.466593017578125,-8.705028533935547,-1.3636620044708252,4.040968894958496
1757088613249145900,10.476145751953124,-8.581221580505371,-1.4594039916992188,4.23734188079834
1757088613258698800,10.48569873046875,-8.444260597229004,-1.5588109493255615,4.440457820892334
1757088613268251600,10.495251708984375,-8.29770278930664,-1.669090986251831,4.641809940338135
1757088613277804500,10.504804443359374,-8.138221740722656,-1.7890219688415527,4.8432488441467285
1757088613287357700,10.514357666015625,-7.964518070220947,-1.9082319736480713,5.050896167755127
1757088613296910800,10.523910888671875,-7.782057762145996,-2.031219959259033,5.26092004776001
1757088613306463700,10.533463623046876,-7.5924530029296875,-2.158812999725342,5.471339225769043
1757088613316016600,10.5430166015625,-7.398666858673096,-2.292206048965454,5.6759867668151855
1757088613325569500,10.552569580078124,-7.203070163726807,-2.4317829608917236,5.872485160827637
1757088613335122700,10.562122802734375,-7.0074639320373535,-2.566274881362915,6.06328010559082
1757088613344675600,10.571675537109375,-6.8160929679870605,-2.704129934310913,6.237485885620117
1757088613354228500,10.581228515625,-6.635056018829346,-2.849163055419922,6.390292167663574
1757088613363781600,10.59078173828125,-6.455280780792236,-2.994680881500244,6.531771183013916
1757088613373334800,10.600334716796874,-6.277489185333252,-3.1375839710235596,6.661449909210205
1757088613382887700,10.6098876953125,-6.101572036743164,-3.2745471000671387,6.7792649269104
1757088613392440600,10.619440673828125,-5.932825088500977,-3.4101340770721436,6.882835865020752
1757088613401993500,10.628993408203126,-5.772162914276123,-3.5400469303131104,6.974431037902832
1757088613411546600,10.638546630859375,-5.613591194152832,-3.655211925506592,7.059992790222168
1757088613421099500,10.648099609375,-5.453056812286377,-3.7649199962615967,7.142031192779541
1757088613430652700,10.657652587890626,-5.28970193862915,-3.867611885070801,7.222461223602295
1757088613440205600,10.66720556640625,-5.12870979309082,-3.9699978828430176,7.292466163635254
1757088613449758500,10.676758544921874,-4.970369815826416,-4.068656921386719,7.353508949279785
1757088613459311600,10.6863115234375,-4.810591220855713,-4.156930923461914,7.412594795227051
1757088613468864300,10.6958642578125,-4.652231216430664,-4.236926078796387,7.466063976287842
1757088613478417400,10.70541748046875,-4.49369478225708,-4.310658931732178,7.513995170593262
1757088613487970300,10.71497021484375,-4.326775074005127,-4.3795928955078125,7.561592102050781
1757088613497523200,10.724523193359374,-4.149598121643066,-4.44499397277832,7.6090898513793945
1757088613507076400,10.734076416015625,-3.961977958679199,-4.506707191467285,7.656949043273926
1757088613516629200,10.743629150390625,-3.7645890712738037,-4.562950134277344,7.7067341804504395
1757088613526182100,10.75318212890625,-3.5598580837249756,-4.621376991271973,7.7541279792785645
1757088613535735300,10.7627353515625,-3.3480420112609863,-4.670670032501221,7.805740833282471
1757088613545288200,10.7722880859375,-3.12412691116333,-4.702361106872559,7.870467185974121
1757088613554841000,10.781841064453126,-2.8992459774017334,-4.722567081451416,7.937992095947266
1757088613564394200,10.791394287109375,-2.6754989624023438,-4.731448173522949,8.00747013092041
1757088613573947100,10.800947021484374,-2.456752061843872,-4.727981090545654,8.077949523925781
1757088613583500300,10.810500244140625,-2.2377610206604004,-4.71242094039917,8.153324127197266
1757088613593053200,10.82005322265625,-2.026859998703003,-4.687601089477539,8.23154354095459
1757088613602606000,10.829606201171876,-1.8277549743652344,-4.650759220123291,8.309337615966797
1757088613612159200,10.8391591796875,-1.6337870359420776,-4.602129936218262,8.386686325073242
1757088613621712100,10.848712158203124,-1.4424810409545898,-4.5455241203308105,8.462005615234375
1757088613631265300,10.858265380859375,-1.252100944519043,-4.481215000152588,8.534985542297363
1757088613640818200,10.867818115234375,-1.0621180534362793,-4.408937931060791,8.605294227600098
1757088613650371000,10.87737109375,-0.8735989928245544,-4.3269548416137695,8.673273086547852
1757088613659924000,10.886924072265625,-0.688630998134613,-4.232635021209717,8.739681243896484
1757088613669477000,10.89647705078125,-0.510811984539032,-4.123417854309082,8.805030822753906
1757088613679030000,10.906030029296875,-0.3428800106048584,-3.997572898864746,8.86979866027832
1757088613688583200,10.915583251953125,-0.18509800732135773,-3.8548409938812256,8.934064865112305
1757088613698136000,10.925135986328126,-0.03554400056600571,-3.6963729858398438,8.997281074523926
1757088613707689000,10.93468896484375,0.10915999859571457,-3.5240108966827393,9.058395385742188
1757088613717241900,10.944241943359375,0.2529129981994629,-3.3394670486450195,9.116135597229004
1757088613726794800,10.953794677734376,0.39853399991989136,-3.1444571018218994,9.169034957885742
1757088613736347600,10.96334765625,0.5541930198669434,-2.9433369636535645,9.21422290802002
1757088613745900800,10.97290087890625,0.7198899984359741,-2.7382609844207764,9.251143455505371
1757088613755453700,10.98245361328125,0.8948299884796143,-2.5256218910217285,9.279962539672852
1757088613765006800,10.9920068359375,1.0811799764633179,-2.3064041137695312,9.299627304077148
1757088613774559700,11.001559814453126,1.2798340320587158,-2.081346035003662,9.309511184692383
1757088613784112600,11.011112548828125,1.499210000038147,-1.8514389991760254,9.309063911437988
1757088613793665800,11.020665771484374,1.7351429462432861,-1.617251992225647,9.297135353088379
1757088613803218700,11.03021875,1.9789210557937622,-1.379910945892334,9.27331256866455
1757088613812771600,11.039771484375,2.2263660430908203,-1.1371870040893555,9.239043235778809
1757088613822324700,11.04932470703125,2.4741969108581543,-0.8899739980697632,9.194482803344727
1757088613831877600,11.058877685546875,2.7200429439544678,-0.6393719911575317,9.139856338500977
1757088613841430800,11.0684306640625,2.9635651111602783,-0.38755500316619873,9.074931144714355
1757088613850983700,11.077983642578126,3.2056169509887695,-0.13751299679279327,8.999144554138184
1757088613860536600,11.08753662109375,3.448071002960205,0.1079069972038269,8.911611557006836
1757088613870089500,11.09708935546875,3.6925320625305176,0.34673699736595154,8.811503410339355
1757088613879642600,11.106642578125,3.9392690658569336,0.5771510004997253,8.698492050170898
1757088613889195800,11.11619580078125,4.188222885131836,0.7971320152282715,8.572267532348633
1757088613898748700,11.125748779296876,4.439723014831543,1.00422203540802,8.43220329284668
1757088613908301600,11.135301513671875,4.694521903991699,1.195613980293274,8.277116775512695
1757088613917854500,11.1448544921875,4.949920177459717,1.3615180253982544,8.112495422363281
1757088613927407400,11.154407470703125,5.20897102355957,1.5180100202560425,7.922555923461914
1757088613936960500,11.16396044921875,5.474029064178467,1.6699010133743286,7.699878215789795
1757088613946513400,11.173513427734376,5.746996879577637,1.818397045135498,7.432319164276123
1757088613956066600,11.183066650390625,6.023131847381592,1.9678449630737305,7.109121799468994
1757088613965619500,11.192619384765624,6.292658805847168,2.1185779571533203,6.736258029937744
1757088613975172400,11.20217236328125,6.54903507232666,2.2663750648498535,6.331148147583008
1757088613984725500,11.2117255859375,6.790387153625488,2.4051671028137207,5.916794776916504
1757088613994278100,11.221278076171876,7.01776123046875,2.534463882446289,5.5040669441223145
1757088614013384200,11.24038427734375,7.433372974395752,2.7717010974884033,4.701098918914795
1757088614022937300,11.249937255859376,7.62376594543457,2.8799760341644287,4.314676761627197
1757088614032490200,11.259490234375,7.804017066955566,2.9808349609375,3.936182975769043
1757088614042043100,11.269043212890624,7.974806785583496,3.0739450454711914,3.5666871070861816
1757088614051596300,11.27859619140625,8.136697769165039,3.1584250926971436,3.204619884490967
1757088614061149200,11.288149169921875,8.289793014526367,3.2336020469665527,2.8477768898010254
1757088614070702300,11.297702392578126,8.433989524841309,3.2996668815612793,2.495594024658203
1757088614080255200,11.307255126953125,8.569499015808105,3.3554089069366455,2.1513829231262207
1757088614089808400,11.316808349609374,8.694721221923828,3.403441905975342,1.8152960538864136
1757088614099361300,11.326361328125,8.806968688964844,3.448215961456299,1.4904299974441528
1757088614108914200,11.3359140625,8.907679557800293,3.500174045562744,1.17323899269104
1757088614118467000,11.345467041015626,8.987081527709961,3.5471630096435547,0.8829900026321411
1757088614128020000,11.35502001953125,9.044108390808105,3.58664608001709,0.6285240054130554
1757088614137572900,11.36457275390625,9.07951545715332,3.612088918685913,0.4230409860610962
1757088614147126000,11.3741259765625,9.097513198852539,3.6198620796203613,0.2789260149002075
1757088614156679200,11.38367919921875,9.108141899108887,3.610342025756836,0.19115400314331055
1757088614166232000,11.393232177734374,9.11809253692627,3.588412046432495,0.1428840011358261
1757088614175785000,11.402784912109375,9.128987312316895,3.5605568885803223,0.1117819994688034
1757088614185337900,11.412337890625,9.141231536865234,3.5281789302825928,0.08649300038814545
1757088614194890800,11.421890869140626,9.155610084533691,3.489940881729126,0.06129800155758858
1757088614204444000,11.43144384765625,9.172088623046875,3.446233034133911,0.03205399960279465
1757088614213997000,11.4409970703125,9.190144538879395,3.398474931716919,-0.0019859999883919954
1757088614223549700,11.4505498046875,9.208843231201172,3.3488190174102783,-0.03815700113773346
1757088614233102800,11.460102783203125,9.227441787719727,3.299283981323242,-0.07706400007009506
1757088614242656000,11.469656005859376,9.245038986206055,3.251861095428467,-0.11627200245857239
1757088614252209000,11.479208984375,9.261006355285645,3.20786190032959,-0.15202799439430237
1757088614261761800,11.48876171875,9.275147438049316,3.167937994003296,-0.18192599713802338
1757088614271314700,11.498314697265625,9.28606128692627,3.1363210678100586,-0.20787900686264038
1757088614280867800,11.507867919921875,9.294294357299805,3.1118240356445312,-0.22884899377822876
1757088614290420700,11.517420654296876,9.301186561584473,3.090886116027832,-0.2466910034418106
1757088614299974000,11.526973876953125,9.307576179504395,3.0711328983306885,-0.26261600852012634
1757088614309526800,11.53652685546875,9.31396198272705,3.051163911819458,-0.2773819863796234
