time,seconds_elapsed,z,y,x
1757088602865042000,0.0920419921875,2.3578500747680664,-5.471950054168701,1.5061750411987305
1757088602874594800,0.1015947265625,2.4946625232696533,-5.811574935913086,1.701562523841858
1757088602884148000,0.11114794921875,2.6082375049591064,-6.181725025177002,1.9178500175476074
1757088602893700900,0.120700927734375,2.726762533187866,-6.582537651062012,2.1694750785827637
1757088602903254000,0.13025390625,2.886812448501587,-7.09197473526001,2.4370501041412354
1757088602912807000,0.139806884765625,3.095674991607666,-7.645412445068359,2.7009124755859375
1757088602922359800,0.14935986328125,3.325437545776367,-8.035087585449219,2.963675022125244
1757088602931913000,0.158912841796875,3.5795373916625977,-7.845749855041504,3.1675875186920166
1757088602941465900,0.1684658203125,3.904449939727783,-8.09737491607666,3.0722999572753906
1757088602951018800,0.178018798828125,4.015687465667725,-8.391900062561035,3.1688249111175537
1757088602960572000,0.187572021484375,4.0694499015808105,-8.11813735961914,3.547637462615967
1757088602970124800,0.197124755859375,4.153737545013428,-7.981325149536133,3.9385499954223633
1757088602979677700,0.206677734375,4.284362316131592,-7.761462688446045,4.3526997566223145
1757088602989230800,0.21623095703125,4.409074783325195,-7.509837627410889,4.725325107574463
1757088602998783700,0.22578369140625,4.422412395477295,-7.2555999755859375,5.055187702178955
1757088603008336600,0.235336669921875,4.346787452697754,-6.851212501525879,5.323999881744385
1757088603017889800,0.244889892578125,4.196499824523926,-6.253912448883057,5.453525066375732
1757088603027442700,0.254442626953125,3.980212450027466,-5.689475059509277,5.381337642669678
1757088603036995800,0.263995849609375,3.729825019836426,-5.129849910736084,5.221287250518799
1757088603046548700,0.273548828125,3.3387749195098877,-4.305262565612793,4.9977126121521
1757088603056101600,0.2831015625,3.0590999126434326,-3.6027750968933105,4.663037300109863
1757088603065654800,0.29265478515625,2.765812397003174,-2.7439498901367188,4.2928876876831055
1757088603075208000,0.3022080078125,2.413949966430664,-1.9962249994277954,3.7907373905181885
1757088603084760600,0.311760498046875,2.0878000259399414,-1.5050749778747559,3.249537467956543
1757088603094313700,0.321313720703125,2.042562484741211,-1.0004500150680542,2.770624876022339
1757088603103867000,0.330866943359375,2.068274974822998,-0.4824874997138977,2.297762393951416
1757088603113419800,0.340419677734375,1.8776999711990356,-0.2320999950170517,1.8200874328613281
1757088603122972700,0.34997265625,1.601599931716919,-0.27486249804496765,1.4169374704360962
1757088603132525800,0.35952587890625,1.2753125429153442,-0.3957250118255615,1.124887466430664
1757088603142078700,0.36907861328125,0.9589250087738037,-0.2699125111103058,0.8904500007629395
1757088603151631600,0.378631591796875,0.6852999925613403,0.10395000129938126,0.5421624779701233
1757088603161184800,0.388184814453125,0.5020124912261963,0.5583875179290771,0.24529999494552612
1757088603170737700,0.397737548828125,0.4030124843120575,0.9432500004768372,0.0034374999813735485
1757088603180290800,0.407290771484375,0.3786749839782715,1.3316874504089355,-0.49994999170303345
1757088603189843700,0.41684375,0.48372501134872437,1.5003999471664429,-1.1046749353408813
1757088603199396900,0.42639697265625,0.6632999777793884,1.1948750019073486,-1.122962474822998
1757088603208949800,0.43594970703125,0.7182999849319458,0.568149983882904,-0.7027624845504761
1757088603218502700,0.445502685546875,0.6437749862670898,-0.13557499647140503,-0.2470874935388565
1757088603228055800,0.455055908203125,0.5582500100135803,-0.5680124759674072,-0.05156249925494194
1757088603237608700,0.464608642578125,0.5202999711036682,-0.6375874876976013,-0.028324998915195465
1757088603247161900,0.474161865234375,0.5875374674797058,-0.49472498893737793,0.008249999955296516
1757088603256714800,0.48371484375,0.572825014591217,-0.43367499113082886,0.14630000293254852
1757088603266267600,0.493267578125,0.5374875068664551,-0.40424999594688416,0.3345375061035156
1757088603275820800,0.50282080078125,0.5680124759674072,-0.3834874927997589,0.4883999824523926
1757088603285374000,0.5123740234375,0.6595875024795532,-0.15757499635219574,0.38458749651908875
1757088603294926800,0.5219267578125,0.822112500667572,0.1564749926328659,0.06091250106692314
1757088603304479700,0.531479736328125,0.8368250131607056,0.4203374981880188,-0.19208750128746033
1757088603314032600,0.54103271484375,0.8061624765396118,0.5326749682426453,-0.32766249775886536
1757088603323585800,0.550585693359375,0.769587516784668,0.6146249771118164,-0.4119499921798706
1757088603333138700,0.560138671875,0.9101125001907349,0.6121500134468079,-0.5451874732971191
1757088603342691800,0.56969189453125,1.4035999774932861,-0.13186250627040863,-0.8053374886512756
1757088603352244700,0.57924462890625,1.880037546157837,-0.5631999969482422,-0.8908625245094299
1757088603361798000,0.5887978515625,2.395662546157837,-0.8929250240325928,-1.026437520980835
1757088603371350800,0.598350830078125,2.916100025177002,-0.9198749661445618,-1.2464375495910645
1757088603380903700,0.607903564453125,3.221487522125244,-0.8428750038146973,-1.4405875205993652
1757088603390456800,0.617456787109375,3.300962448120117,-0.6474875211715698,-1.314774990081787
1757088603400009700,0.627009765625,3.2520124912261963,-0.03657500073313713,-0.49623748660087585
1757088603409563000,0.63656298828125,3.1152000427246094,0.7416750192642212,0.9550749659538269
1757088603419115800,0.64611572265625,2.9233875274658203,0.23828749358654022,1.5171749591827393
1757088603428668700,0.655668701171875,2.8648123741149902,-0.550962507724762,1.6258000135421753
1757088603438221800,0.665221923828125,2.8232874870300293,-1.3877874612808228,1.403462529182434
1757088603447774700,0.674774658203125,2.7328124046325684,-2.0645625591278076,0.8817874789237976
1757088603457327900,0.684327880859375,2.4824249744415283,-2.3346123695373535,0.16830000281333923
1757088603466881000,0.693881103515625,2.344374895095825,-1.9754624366760254,-0.38513749837875366
1757088603476434000,0.703433837890625,2.3468499183654785,-0.7965375185012817,-0.31171250343322754
1757088603485986800,0.71298681640625,2.4409000873565674,0.8247249722480774,0.3601124882698059
1757088603495539700,0.722539794921875,2.5984749794006348,1.880312442779541,1.041837453842163
1757088603505092900,0.7320927734375,2.8355250358581543,2.222412586212158,1.5012249946594238
1757088603514645800,0.741645751953125,3.1018624305725098,2.2357499599456787,1.6869875192642212
1757088603524199000,0.751198974609375,3.2924375534057617,2.075700044631958,1.6735124588012695
1757088603533752000,0.760751953125,3.2850124835968018,1.9988374710083008,1.4194124937057495
1757088603543305000,0.770304931640625,3.336437463760376,1.3964500427246094,1.277649998664856
1757088603552857900,0.77985791015625,3.298487424850464,0.5046250224113464,1.324125051498413
1757088603562410800,0.78941064453125,2.971100091934204,-0.6890124678611755,0.9062625169754028
1757088603571964000,0.7989638671875,3.287487506866455,-1.9387500286102295,0.11219999939203262
1757088603581517000,0.80851708984375,4.101212501525879,-2.6351873874664307,-0.5988125205039978
1757088603591070000,0.818070068359375,4.321074962615967,-3.2741498947143555,-0.8566250205039978
1757088603600622800,0.827622802734375,3.7761623859405518,-4.366312503814697,-0.6355249881744385
1757088603610176000,0.837176025390625,2.7340500354766846,-4.841512680053711,-0.602524995803833
1757088603619729000,0.84672900390625,1.6674624681472778,-4.185500144958496,-0.904337465763092
1757088603629282000,0.856281982421875,0.8171625137329102,-2.984575033187866,-0.9458624720573425
1757088603638835000,0.8658349609375,0.18809999525547028,-1.7531249523162842,-0.6355249881744385
1757088603648388000,0.87538818359375,-0.1882375031709671,-0.7170624732971191,-0.22261250019073486
1757088603657941000,0.88494091796875,-0.37400001287460327,0.059950001537799835,0.12553749978542328
1757088603667494000,0.894493896484375,-0.45210000872612,0.6109125018119812,0.3443000018596649
1757088603677046800,0.904046875,-0.45333749055862427,1.0030624866485596,0.4750624895095825
1757088603686599700,0.913599609375,-0.38733750581741333,1.1985875368118286,0.5275874733924866
1757088603696153000,0.923153076171875,-0.3007124960422516,1.1375374794006348,0.45058751106262207
1757088603705706000,0.9327060546875,-0.24695000052452087,0.9933000206947327,0.3235374987125397
1757088603715259100,0.942259033203125,-0.15399999916553497,0.7367249727249146,0.20253749191761017
1757088603724812000,0.95181201171875,-0.025712499395012856,0.2750000059604645,0.12925000488758087
1757088603734365000,0.961364990234375,0.08181250095367432,-0.29315000772476196,0.07672499865293503
1757088603743917800,0.970917724609375,0.10257499665021896,-0.6535375118255615,0.01691249944269657
1757088603753471000,0.980470947265625,0.08786249905824661,-0.7255874872207642,-0.04661250114440918
1757088603763024100,0.990024169921875,0.10009999573230743,-0.5912500023841858,-0.08813749998807907
1757088603772577000,0.999576904296875,0.1013374999165535,-0.3517250120639801,-0.08208750188350677
1757088603782130000,1.0091298828125,0.08415000140666962,-0.11604999750852585,-0.02708750031888485
1757088603791682800,1.018682861328125,0.05857500061392784,0.05623750016093254,0.03272499889135361
1757088603801236000,1.028236083984375,0.04262499883770943,0.18205000460147858,0.0644875019788742
1757088603810788900,1.037788818359375,0.02681249938905239,0.2517625093460083,0.0644875019788742
1757088603820342000,1.047342041015625,0.01209999993443489,0.24557499587535858,0.04743750020861626
1757088603829895200,1.056895263671875,0.0010999999940395355,0.17599999904632568,0.02667500078678131
1757088603839448000,1.066447998046875,-0.00013749999925494194,0.062424998730421066,0.013199999928474426
1757088603849001000,1.0760009765625,0.006049999967217445,-0.05857500061392784,0.010724999941885471
1757088603858553900,1.085553955078125,0.014574999921023846,-0.14533749222755432,0.021724998950958252
1757088603868107000,1.09510693359375,0.02186249941587448,-0.17833749949932098,0.03396249935030937
1757088603877660000,1.104659912109375,0.02914999984204769,-0.15262499451637268,0.03519999980926514
1757088603887212800,1.114212890625,0.03162499889731407,-0.10257499665021896,0.03396249935030937
1757088603896766000,1.123765869140625,0.030387500301003456,-0.04881250113248825,0.0364375002682209
1757088603906319000,1.133319091796875,0.028049999848008156,-0.0035749999806284904,0.0424874983727932
1757088603915872000,1.1428720703125,0.025575000792741776,0.025712499395012856,0.049912501126527786
1757088603925425000,1.1524248046875,0.025575000792741776,0.037950001657009125,0.05596249923110008
1757088603934977800,1.161977783203125,0.028049999848008156,0.03189999982714653,0.05596249923110008
1757088603944531000,1.171531005859375,0.030387500301003456,0.008662499487400055,0.05472499877214432
1757088603954084000,1.181083984375,0.032862499356269836,-0.01952499896287918,0.05348749831318855
1757088603963637000,1.190636962890625,0.03162499889731407,-0.03904999792575836,0.05224999785423279
1757088603982742800,1.20974267578125,0.028049999848008156,-0.06833750009536743,0.05224999785423279
1757088604001849000,1.22884912109375,0.018149999901652336,-0.08181250095367432,0.06091250106692314
1757088604011402200,1.23840234375,0.014574999921023846,-0.08662500232458115,0.06696250289678574
1757088604020955100,1.247955078125,0.01209999993443489,-0.08662500232458115,0.06696250289678574
1757088604030508000,1.257508056640625,0.010862499475479126,-0.08304999768733978,0.0644875019788742
1757088604040061000,1.26706103515625,0.013337500393390656,-0.07809999585151672,0.06091250106692314
1757088604049614000,1.276614013671875,0.015812499448657036,-0.07438749819993973,0.06201250106096268
1757088604059167000,1.2861669921875,0.0193875003606081,-0.08181250095367432,0.06572499871253967
1757088604068720000,1.29572021484375,0.023099999874830246,-0.09515000134706497,0.06943749636411667
1757088604078273000,1.30527294921875,0.025575000792741776,-0.1073874980211258,0.07067500054836273
1757088604087826200,1.314826171875,0.025575000792741776,-0.10986249893903732,0.06943749636411667
1757088604097379000,1.324379150390625,0.025575000792741776,-0.10009999573230743,0.06696250289678574
1757088604106932000,1.333931884765625,0.023099999874830246,-0.08304999768733978,0.06201250106096268
1757088604116485000,1.343485107421875,0.0193875003606081,-0.059812501072883606,0.06091250106692314
1757088604126038000,1.3530380859375,0.015812499448657036,-0.035337500274181366,0.0644875019788742
1757088604135591200,1.362591064453125,0.013337500393390656,-0.01952499896287918,0.07067500054836273
1757088604145144000,1.37214404296875,0.01209999993443489,-0.010862499475479126,0.0742499977350235
1757088604154697000,1.381697021484375,0.010862499475479126,-0.006049999967217445,0.0742499977350235
1757088604164250400,1.39125048828125,0.013337500393390656,0.00013749999925494194,0.0681999996304512
1757088604173803300,1.40080322265625,0.014574999921023846,0.011137500405311584,0.05967500060796738
1757088604183356200,1.410356201171875,0.014574999921023846,0.028187500312924385,0.05101250112056732
1757088604192909000,1.419908935546875,0.01209999993443489,0.052662499248981476,0.04743750020861626
1757088604202462200,1.429462158203125,0.009624999947845936,0.08071249723434448,0.04619999974966049
1757088604212015000,1.43901513671875,0.008387500420212746,0.10518749803304672,0.04867500066757202
1757088604221568000,1.448568115234375,0.008387500420212746,0.12223749607801437,0.04867500066757202
1757088604231121000,1.458120849609375,0.01209999993443489,0.12347500026226044,0.05101250112056732
1757088604240674000,1.467674072265625,0.015812499448657036,0.10876250267028809,0.049912501126527786
1757088604250227000,1.47722705078125,0.0193875003606081,0.08676250278949738,0.04743750020861626
1757088604259780000,1.486780029296875,0.020624998956918716,0.07342500239610672,0.04372499883174896
1757088604269333200,1.496333251953125,0.0193875003606081,0.06971249729394913,0.04124999791383743
1757088604278886100,1.50588623046875,0.0170499999076128,0.07576250284910202,0.037675000727176666
1757088604288439000,1.51543896484375,0.014574999921023846,0.08676250278949738,0.0364375002682209
1757088604297992000,1.524991943359375,0.013337500393390656,0.09652499854564667,0.03519999980926514
1757088604307545000,1.534545166015625,0.010862499475479126,0.10642500221729279,0.03396249935030937
1757088604317098200,1.54409814453125,0.01209999993443489,0.11247500032186508,0.03272499889135361
1757088604326651100,1.553651123046875,0.010862499475479126,0.11495000123977661,0.03148749843239784
1757088604336204000,1.5632041015625,0.010862499475479126,0.10999999940395355,0.030249999836087227
1757088604345757000,1.5727568359375,0.008387500420212746,0.10147500038146973,0.029012499377131462
1757088604355310000,1.58231005859375,0.008387500420212746,0.09171249717473984,0.025437500327825546
1757088604364863000,1.591863037109375,0.009624999947845936,0.07576250284910202,0.022962499409914017
1757088604374416000,1.601415771484375,0.010862499475479126,0.059950001537799835,0.020487500354647636
1757088604383969000,1.610968994140625,0.009624999947845936,0.050187498331069946,0.018149999901652336
1757088604393522000,1.62052197265625,0.010862499475479126,0.042899999767541885,0.01691249944269657
1757088604403075000,1.630074951171875,0.010862499475479126,0.035475000739097595,0.018149999901652336
1757088604412628000,1.6396279296875,0.010862499475479126,0.030662499368190765,0.021724998950958252
1757088604422180900,1.649180908203125,0.010862499475479126,0.023237500339746475,0.022962499409914017
1757088604431734000,1.658734130859375,0.009624999947845936,0.018424998968839645,0.02667500078678131
1757088604441287000,1.668286865234375,0.007287499960511923,0.011137500405311584,0.027912499383091927
1757088604450840000,1.677840087890625,0.008387500420212746,0.00013749999925494194,0.027912499383091927
1757088604460393000,1.68739306640625,0.009624999947845936,-0.014574999921023846,0.02667500078678131
1757088604469945900,1.69694580078125,0.013337500393390656,-0.025575000792741776,0.02419999986886978
1757088604479499000,1.7064990234375,0.014574999921023846,-0.028049999848008156,0.022962499409914017
1757088604489052200,1.71605224609375,0.014574999921023846,-0.03162499889731407,0.02419999986886978
1757088604498605000,1.72560498046875,0.013337500393390656,-0.0340999998152256,0.027912499383091927
1757088604508158200,1.735158203125,0.01209999993443489,-0.03657500073313713,0.030249999836087227
1757088604517711000,1.744711181640625,0.009624999947845936,-0.04028749838471413,0.030249999836087227
1757088604527264000,1.754263916015625,0.007287499960511923,-0.04152499884366989,0.030249999836087227
1757088604536817000,1.76381689453125,0.006049999967217445,-0.04386249929666519,0.03148749843239784
1757088604546370000,1.7733701171875,0.004812499973922968,-0.04633750021457672,0.03148749843239784
1757088604555923000,1.7829228515625,0.0035749999806284904,-0.05252499878406525,0.03148749843239784
1757088604565476000,1.79247607421875,0.006049999967217445,-0.057337500154972076,0.029012499377131462
1757088604575029000,1.802029052734375,0.006049999967217445,-0.06710000336170197,0.027912499383091927
1757088604584582100,1.81158203125,0.008387500420212746,-0.07438749819993973,0.02419999986886978
1757088604594135000,1.821135009765625,0.009624999947845936,-0.07438749819993973,0.02419999986886978
1757088604603688200,1.830688232421875,0.008387500420212746,-0.06833750009536743,0.022962499409914017
1757088604613241000,1.840240966796875,0.008387500420212746,-0.05609999969601631,0.022962499409914017
1757088604622794000,1.8497939453125,0.006049999967217445,-0.04633750021457672,0.022962499409914017
1757088604632347100,1.85934716796875,0.0035749999806284904,-0.037812501192092896,0.022962499409914017
1757088604641900000,1.868900146484375,-0.00013749999925494194,-0.0340999998152256,0.022962499409914017
1757088604651453000,1.878452880859375,-0.002612499985843897,-0.03657500073313713,0.02419999986886978
1757088604661006000,1.888006103515625,-0.00494999997317791,-0.04152499884366989,0.02667500078678131
1757088604670559000,1.89755908203125,-0.006187499966472387,-0.047575000673532486,0.027912499383091927
1757088604680112000,1.907112060546875,-0.006187499966472387,-0.05128749832510948,0.027912499383091927
1757088604689665000,1.9166650390625,-0.00494999997317791,-0.05609999969601631,0.02667500078678131
1757088604699218200,1.92621826171875,-0.002612499985843897,-0.059812501072883606,0.022962499409914017
1757088604708771000,1.93577099609375,-0.002612499985843897,-0.06228749826550484,0.01924999989569187
1757088604718324000,1.945323974609375,-0.002612499985843897,-0.06104999780654907,0.01691249944269657
1757088604727876900,1.954876953125,-0.002612499985843897,-0.05486249923706055,0.011962499469518661
1757088604737430000,1.964429931640625,-0.007424999959766865,-0.045099999755620956,0.008249999955296516
1757088604746983200,1.973983154296875,-0.012374999932944775,-0.035337500274181366,0.005912499967962503
1757088604756536000,1.9835361328125,-0.0147124994546175,-0.030524998903274536,0.005912499967962503
1757088604766089000,1.9930888671875,-0.0147124994546175,-0.02928750030696392,0.005912499967962503
1757088604775642000,2.00264208984375,-0.012374999932944775,-0.028049999848008156,0.007149999961256981
1757088604785195000,2.012195068359375,-0.007424999959766865,-0.025575000792741776,0.007149999961256981
1757088604794748200,2.021748046875,-0.00494999997317791,-0.02681249938905239,0.007149999961256981
1757088604804301000,2.031301025390625,-0.002612499985843897,-0.02928750030696392,0.007149999961256981
1757088604813854200,2.040854248046875,-0.0013749999925494194,-0.030524998903274536,0.008249999955296516
1757088604823407000,2.050406982421875,-0.00013749999925494194,-0.03162499889731407,0.010724999941885471
1757088604832960000,2.0599599609375,-0.00013749999925494194,-0.030524998903274536,0.010724999941885471
1757088604842513000,2.069512939453125,-0.00013749999925494194,-0.02928750030696392,0.009487500414252281
1757088604852066000,2.079066162109375,-0.0013749999925494194,-0.02928750030696392,0.009487500414252281
1757088604861619200,2.088619140625,0.0010999999940395355,-0.03162499889731407,0.007149999961256981
1757088604871172000,2.098172119140625,0.0010999999940395355,-0.03162499889731407,0.007149999961256981
1757088604880725200,2.107725341796875,0.002337499987334013,-0.030524998903274536,0.005912499967962503
1757088604890278100,2.117278076171875,-0.00013749999925494194,-0.02928750030696392,0.004674999974668026
1757088604899831000,2.1268310546875,-0.00013749999925494194,-0.028049999848008156,0.005912499967962503
1757088604909384200,2.13638427734375,-0.00013749999925494194,-0.02681249938905239,0.009487500414252281
1757088604918937000,2.14593701171875,-0.00013749999925494194,-0.02681249938905239,0.010724999941885471
1757088604928490200,2.155490234375,-0.00013749999925494194,-0.02433750033378601,0.008249999955296516
1757088604938043100,2.165043212890625,-0.0013749999925494194,-0.025575000792741776,0.008249999955296516
1757088604947596000,2.174595947265625,-0.002612499985843897,-0.028049999848008156,0.005912499967962503
1757088604957149000,2.18414892578125,-0.00494999997317791,-0.0340999998152256,0.0034374999813735485
1757088604966702000,2.1937021484375,-0.006187499966472387,-0.037812501192092896,0.0009624999947845936
1757088604976255200,2.203255126953125,-0.007424999959766865,-0.03657500073313713,0.0009624999947845936
1757088604985808100,2.21280810546875,-0.00989999994635582,-0.028049999848008156,-0.0002749999985098839
1757088604995361000,2.222361083984375,-0.011137500405311584,-0.013337500393390656,-0.0002749999985098839
1757088605004914200,2.2319140625,-0.011137500405311584,0.0012374999932944775,-0.002749999985098839
1757088605014467300,2.24146728515625,-0.008662499487400055,0.01347499992698431,-0.005087499972432852
1757088605024020000,2.25102001953125,-0.006187499966472387,0.015949999913573265,-0.005087499972432852
1757088605033573000,2.260572998046875,-0.0037124999798834324,0.0147124994546175,-0.005087499972432852
1757088605043126000,2.2701259765625,-0.0013749999925494194,0.01347499992698431,-0.006324999965727329
1757088605052679200,2.27967919921875,-0.0013749999925494194,0.0147124994546175,-0.007562499959021807
1757088605062232000,2.289232177734375,-0.0013749999925494194,0.018424998968839645,-0.007562499959021807
1757088605071785200,2.29878515625,-0.00013749999925494194,0.02447500079870224,-0.006324999965727329
1757088605081338000,2.308338134765625,-0.0013749999925494194,0.02694999985396862,-0.006324999965727329
1757088605090891000,2.31789111328125,-0.0013749999925494194,0.02199999988079071,-0.006324999965727329
1757088605100444200,2.327444091796875,0.0010999999940395355,0.018424998968839645,-0.005087499972432852
1757088605109997000,2.3369970703125,-0.00013749999925494194,0.01223750039935112,-0.005087499972432852
1757088605119550200,2.34655029296875,0.0010999999940395355,0.006187499966472387,-0.0038499999791383743
1757088605129103000,2.35610302734375,0.002337499987334013,0.002474999986588955,-0.002749999985098839
1757088605138656000,2.365656005859375,0.0035749999806284904,0.00494999997317791,-0.0015124999918043613
1757088605148209200,2.375209228515625,0.002337499987334013,0.006187499966472387,-0.0015124999918043613
1757088605157762000,2.384761962890625,0.0035749999806284904,0.00494999997317791,-0.0015124999918043613
1757088605167315000,2.39431494140625,0.0035749999806284904,0.006187499966472387,-0.0038499999791383743
1757088605176868000,2.4038681640625,0.002337499987334013,0.00989999994635582,-0.0038499999791383743
1757088605186421200,2.413421142578125,0.002337499987334013,0.0147124994546175,-0.0038499999791383743
1757088605195974100,2.42297412109375,0.002337499987334013,0.015949999913573265,-0.0038499999791383743
1757088605205527000,2.432527099609375,0.002337499987334013,0.0147124994546175,-0.0015124999918043613
1757088605215080000,2.442079833984375,0.0035749999806284904,0.01223750039935112,-0.0015124999918043613
1757088605224633000,2.451633056640625,0.004812499973922968,0.008662499487400055,-0.0015124999918043613
1757088605234186000,2.46118603515625,0.004812499973922968,0.00494999997317791,-0.002749999985098839
1757088605243739000,2.47073876953125,0.004812499973922968,0.00494999997317791,-0.0038499999791383743
1757088605253292300,2.480292236328125,0.0035749999806284904,0.011137500405311584,-0.006324999965727329
1757088605262845200,2.48984521484375,0.002337499987334013,0.020899999886751175,-0.006324999965727329
1757088605272398000,2.499398193359375,0.002337499987334013,0.030662499368190765,-0.005087499972432852
1757088605281951000,2.508950927734375,0.0010999999940395355,0.035475000739097595,-0.002749999985098839
1757088605291503900,2.51850390625,-0.00013749999925494194,0.035475000739097595,-0.002749999985098839
1757088605301057000,2.52805712890625,-0.00013749999925494194,0.030662499368190765,-0.002749999985098839
1757088605310610000,2.53760986328125,-0.0013749999925494194,0.02447500079870224,-0.005087499972432852
1757088605320163000,2.5471630859375,-0.0013749999925494194,0.01718750037252903,-0.006324999965727329
1757088605329716000,2.556716064453125,-0.0013749999925494194,0.01223750039935112,-0.0038499999791383743
1757088605339269000,2.56626904296875,-0.0037124999798834324,0.00989999994635582,-0.0002749999985098839
1757088605348822000,2.575822021484375,-0.006187499966472387,0.01223750039935112,0.0009624999947845936
1757088605358375000,2.585375,-0.00494999997317791,0.015949999913573265,0.0009624999947845936
1757088605367928000,2.594927978515625,-0.00494999997317791,0.0147124994546175,0.002199999988079071
1757088605377481200,2.604481201171875,-0.0037124999798834324,0.00989999994635582,0.002199999988079071
1757088605387034000,2.6140341796875,-0.00013749999925494194,0.00494999997317791,0.0009624999947845936
1757088605396587000,2.6235869140625,-0.00013749999925494194,0.006187499966472387,-0.002749999985098839
1757088605406140000,2.633139892578125,-0.00013749999925494194,0.00989999994635582,-0.005087499972432852
1757088605415693000,2.642693115234375,-0.00013749999925494194,0.01347499992698431,-0.0038499999791383743
1757088605425246200,2.65224609375,-0.00013749999925494194,0.01718750037252903,-0.002749999985098839
1757088605434799000,2.661799072265625,-0.0013749999925494194,0.01718750037252903,-0.002749999985098839
1757088605444352000,2.67135205078125,-0.0013749999925494194,0.015949999913573265,-0.002749999985098839
1757088605453905200,2.6809052734375,-0.0013749999925494194,0.01347499992698431,-0.002749999985098839
1757088605463458000,2.6904580078125,-0.00494999997317791,0.006187499966472387,-0.0015124999918043613
1757088605473011200,2.70001123046875,-0.006187499966472387,-0.0010999999940395355,0.0009624999947845936
1757088605482564000,2.709564208984375,-0.00494999997317791,-0.0085249999538064,0.002199999988079071
1757088605492117200,2.7191171875,-0.002612499985843897,-0.013337500393390656,0.0009624999947845936
1757088605501670100,2.728670166015625,-0.0013749999925494194,-0.013337500393390656,-0.0002749999985098839
1757088605511223000,2.73822314453125,-0.00013749999925494194,-0.01209999993443489,-0.0015124999918043613
1757088605520776200,2.747776123046875,0.002337499987334013,-0.007287499960511923,-0.002749999985098839
1757088605530329000,2.7573291015625,0.0010999999940395355,-0.0010999999940395355,-0.002749999985098839
1757088605539882200,2.76688232421875,-0.00013749999925494194,0.0037124999798834324,-0.002749999985098839
1757088605549435100,2.77643505859375,-0.002612499985843897,0.008662499487400055,-0.002749999985098839
1757088605558988000,2.785988037109375,-0.0037124999798834324,0.00989999994635582,-0.002749999985098839
1757088605568541200,2.795541259765625,-0.0037124999798834324,0.0037124999798834324,-0.0015124999918043613
1757088605578094000,2.805093994140625,-0.00494999997317791,-0.006049999967217445,-0.0002749999985098839
1757088605587647200,2.814647216796875,-0.0037124999798834324,-0.013337500393390656,-0.0002749999985098839
1757088605597200100,2.8242001953125,-0.0037124999798834324,-0.015812499448657036,-0.0015124999918043613
1757088605606753300,2.833753173828125,-0.0013749999925494194,-0.013337500393390656,-0.002749999985098839
1757088605616306200,2.84330615234375,-0.00013749999925494194,-0.007287499960511923,-0.002749999985098839
1757088605625859000,2.852859130859375,0.002337499987334013,0.00013749999925494194,-0.0015124999918043613
1757088605635412000,2.862411865234375,0.0035749999806284904,0.00989999994635582,-0.002749999985098839
1757088605644965000,2.871965087890625,0.006049999967217445,0.01718750037252903,-0.002749999985098839
1757088605654518000,2.88151806640625,0.004812499973922968,0.01966249942779541,-0.0038499999791383743
1757088605664071200,2.8910712890625,0.007287499960511923,0.01347499992698431,-0.0038499999791383743
1757088605673624300,2.900624267578125,0.006049999967217445,0.0012374999932944775,-0.002749999985098839
1757088605683177000,2.910177001953125,0.004812499973922968,-0.014574999921023846,-0.0015124999918043613
1757088605692730000,2.919730224609375,0.0035749999806284904,-0.02681249938905239,-0.0015124999918043613
1757088605702283000,2.929282958984375,0.002337499987334013,-0.032862499356269836,-0.0015124999918043613
1757088605711836200,2.938836181640625,-0.00013749999925494194,-0.035337500274181366,-0.0002749999985098839
1757088605721389300,2.948389404296875,-0.00013749999925494194,-0.032862499356269836,-0.0002749999985098839
1757088605730942200,2.957942138671875,-0.0013749999925494194,-0.02186249941587448,-0.0002749999985098839
1757088605740495000,2.9674951171875,-0.00013749999925494194,-0.013337500393390656,0.0009624999947845936
1757088605750048300,2.97704833984375,-0.00013749999925494194,-0.006049999967217445,-0.0015124999918043613
1757088605759601200,2.98660107421875,0.0010999999940395355,-0.004812499973922968,-0.0015124999918043613
1757088605769154300,2.996154296875,0.002337499987334013,-0.00976249948143959,-0.002749999985098839
1757088605778707200,3.005707275390625,0.0035749999806284904,-0.0170499999076128,-0.0038499999791383743
1757088605788260000,3.015260009765625,0.004812499973922968,-0.020624998956918716,-0.0038499999791383743
1757088605797813200,3.024813232421875,0.006049999967217445,-0.02186249941587448,-0.0038499999791383743
1757088605807366100,3.0343662109375,0.006049999967217445,-0.023099999874830246,-0.0038499999791383743
1757088605816919000,3.0439189453125,0.006049999967217445,-0.023099999874830246,-0.005087499972432852
1757088605826472200,3.05347216796875,0.004812499973922968,-0.02186249941587448,-0.005087499972432852
1757088605836025300,3.063025390625,0.004812499973922968,-0.018287500366568565,-0.006324999965727329
1757088605845578200,3.072578125,0.0035749999806284904,-0.015812499448657036,-0.007562499959021807
1757088605855131100,3.082131103515625,0.0010999999940395355,-0.014574999921023846,-0.007562499959021807
1757088605864684000,3.09168408203125,-0.00013749999925494194,-0.0170499999076128,-0.006324999965727329
1757088605874237200,3.1012373046875,-0.0037124999798834324,-0.02186249941587448,-0.006324999965727329
1757088605883790300,3.110790283203125,-0.0037124999798834324,-0.02681249938905239,-0.007562499959021807
1757088605893343200,3.12034326171875,-0.0037124999798834324,-0.030524998903274536,-0.007562499959021807
1757088605902896400,3.129896484375,-0.00494999997317791,-0.030524998903274536,-0.007562499959021807
1757088605912449300,3.13944921875,-0.00494999997317791,-0.02681249938905239,-0.010037500411272049
1757088605922002200,3.149002197265625,-0.00494999997317791,-0.020624998956918716,-0.010037500411272049
1757088605931555000,3.15855517578125,-0.0037124999798834324,-0.013337500393390656,-0.01251249946653843
1757088605941108000,3.16810791015625,-0.002612499985843897,-0.006049999967217445,-0.01251249946653843
1757088605950661000,3.1776611328125,-0.00013749999925494194,0.0012374999932944775,-0.01251249946653843
1757088605960214300,3.18721435546875,0.0010999999940395355,0.008662499487400055,-0.013612499460577965
1757088605969767400,3.196767333984375,0.004812499973922968,0.015949999913573265,-0.01732499897480011
1757088605979320300,3.2063203125,0.008387500420212746,0.02199999988079071,-0.018562499433755875
1757088605988873200,3.215873291015625,0.010862499475479126,0.02447500079870224,-0.018562499433755875
1757088605998426000,3.225426025390625,0.015812499448657036,0.02447500079870224,-0.01484999991953373
1757088606007979300,3.234979248046875,0.018149999901652336,0.02694999985396862,-0.011274999938905239
1757088606017532400,3.244532470703125,0.020624998956918716,0.032999999821186066,-0.007562499959021807
1757088606027085300,3.254085205078125,0.02186249941587448,0.037950001657009125,-0.006324999965727329
1757088606036638200,3.26363818359375,0.020624998956918716,0.03918749839067459,-0.002749999985098839
1757088606046191000,3.273191162109375,0.020624998956918716,0.035475000739097595,-0.0015124999918043613
1757088606055744000,3.282743896484375,0.018149999901652336,0.025712499395012856,-0.0015124999918043613
1757088606065297200,3.292297119140625,0.0193875003606081,0.01223750039935112,0.0009624999947845936
1757088606074850300,3.301850341796875,0.018149999901652336,-0.002337499987334013,-0.0015124999918043613
1757088606084403200,3.3114033203125,0.0170499999076128,-0.01209999993443489,-0.0038499999791383743
1757088606093956400,3.320956298828125,0.013337500393390656,-0.015812499448657036,-0.007562499959021807
1757088606103509200,3.33050927734375,0.01209999993443489,-0.00976249948143959,-0.008799999952316284
1757088606113062100,3.340062255859375,0.010862499475479126,-0.002337499987334013,-0.008799999952316284
1757088606122615000,3.349614990234375,0.009624999947845936,0.00494999997317791,-0.007562499959021807
1757088606132168200,3.359168212890625,0.007287499960511923,0.00989999994635582,-0.008799999952316284
1757088606141721300,3.368721435546875,0.007287499960511923,0.011137500405311584,-0.010037500411272049
1757088606151274200,3.378274169921875,0.007287499960511923,0.008662499487400055,-0.010037500411272049
1757088606160827100,3.3878271484375,0.008387500420212746,0.00494999997317791,-0.010037500411272049
1757088606170380300,3.39738037109375,0.008387500420212746,0.00013749999925494194,-0.011274999938905239
1757088606179933200,3.40693310546875,0.007287499960511923,-0.004812499973922968,-0.011274999938905239
1757088606189486300,3.416486328125,0.006049999967217445,-0.01209999993443489,-0.010037500411272049
1757088606199039200,3.426039306640625,0.004812499973922968,-0.023099999874830246,-0.007562499959021807
1757088606208592100,3.435592041015625,0.006049999967217445,-0.0340999998152256,-0.007562499959021807
1757088606218145300,3.445145263671875,0.008387500420212746,-0.04262499883770943,-0.007562499959021807
1757088606227698200,3.4546982421875,0.010862499475479126,-0.04262499883770943,-0.008799999952316284
1757088606237251000,3.4642509765625,0.01209999993443489,-0.04152499884366989,-0.007562499959021807
1757088606246804200,3.47380419921875,0.01209999993443489,-0.03657500073313713,-0.0038499999791383743
1757088606256357400,3.483357421875,0.010862499475479126,-0.032862499356269836,-0.0015124999918043613
1757088606265910300,3.49291015625,0.008387500420212746,-0.02681249938905239,-0.0002749999985098839
1757088606275463200,3.502463134765625,0.004812499973922968,-0.020624998956918716,0.0009624999947845936
1757088606285016300,3.512016357421875,0.0010999999940395355,-0.01209999993443489,-0.0015124999918043613
1757088606294569200,3.5215693359375,-0.0013749999925494194,-0.00976249948143959,-0.0015124999918043613
1757088606304122000,3.5311220703125,-0.0013749999925494194,-0.010862499475479126,-0.0038499999791383743
1757088606313675300,3.54067529296875,-0.0037124999798834324,-0.0170499999076128,-0.006324999965727329
1757088606323228200,3.550228271484375,-0.00494999997317791,-0.02186249941587448,-0.008799999952316284
1757088606332781300,3.55978125,-0.002612499985843897,-0.020624998956918716,-0.008799999952316284
1757088606342334200,3.569334228515625,-0.002612499985843897,-0.015812499448657036,-0.008799999952316284
1757088606351887400,3.578887451171875,-0.00013749999925494194,-0.007287499960511923,-0.008799999952316284
1757088606361440300,3.588440185546875,-0.002612499985843897,0.002474999986588955,-0.010037500411272049
1757088606370993200,3.5979931640625,-0.002612499985843897,0.01347499992698431,-0.01484999991953373
1757088606380546000,3.607546142578125,-0.00494999997317791,0.020899999886751175,-0.01979999989271164
1757088606390099200,3.61709912109375,-0.011137500405311584,0.02447500079870224,-0.02461249940097332
1757088606399652400,3.62665234375,-0.015949999913573265,0.02199999988079071,-0.02708750031888485
1757088606409205200,3.636205322265625,-0.020899999886751175,0.015949999913573265,-0.02956249937415123
1757088606418758100,3.645758056640625,-0.02694999985396862,0.01223750039935112,-0.035612501204013824
1757088606428311000,3.65531103515625,-0.030662499368190765,0.01966249942779541,-0.04179999977350235
1757088606437864200,3.6648642578125,-0.037950001657009125,0.03423750028014183,-0.050324998795986176
1757088606447417000,3.6744169921875,-0.04647500067949295,0.052662499248981476,-0.057612501084804535
1757088606456970200,3.68397021484375,-0.055137500166893005,0.0672374963760376,-0.06737499684095383
1757088606466523100,3.693523193359375,-0.06366249918937683,0.07947500050067902,-0.07837499678134918
1757088606476076300,3.703076171875,-0.07342500239610672,0.08799999952316284,-0.09556250274181366
1757088606485629200,3.712629150390625,-0.08318749815225601,0.09776250272989273,-0.11508750170469284
1757088606495182000,3.72218212890625,-0.09171249717473984,0.11123749613761902,-0.1358499974012375
1757088606504735000,3.73173486328125,-0.10147500038146973,0.12828749418258667,-0.1541374921798706
1757088606514288000,3.7412880859375,-0.11123749613761902,0.14423750340938568,-0.17366249859333038
1757088606523841300,3.75084130859375,-0.11990000307559967,0.15399999916553497,-0.1956624984741211
1757088606533394200,3.760394287109375,-0.12966249883174896,0.15895000100135803,-0.21889999508857727
1757088606542947000,3.769947021484375,-0.13571250438690186,0.18095000088214874,-0.24461250007152557
1757088606552500200,3.779500244140625,-0.14066250622272491,0.20776249468326569,-0.2689499855041504
1757088606562053000,3.78905322265625,-0.13942499458789825,0.22852499783039093,-0.28984999656677246
1757088606571606300,3.798606201171875,-0.1381874978542328,0.23704999685287476,-0.3031874895095825
1757088606581159200,3.8081591796875,-0.14066250622272491,0.24323749542236328,-0.31171250343322754
1757088606590712300,3.81771240234375,-0.14300000667572021,0.26028749346733093,-0.32161250710487366
1757088606600265200,3.82726513671875,-0.1467124968767166,0.2835249900817871,-0.33742499351501465
1757088606609818000,3.836818115234375,-0.1527625024318695,0.3067624866962433,-0.35337498784065247
1757088606619371300,3.846371337890625,-0.16266250610351562,0.3287625014781952,-0.3667125105857849
1757088606628924200,3.855924072265625,-0.17476250231266022,0.34581249952316284,-0.3741374909877777
1757088606638477300,3.865477294921875,-0.18576249480247498,0.3507624864578247,-0.3716624975204468
1757088606648030200,3.8750302734375,-0.1919499933719635,0.3470500111579895,-0.3704249858856201
1757088606657583000,3.8845830078125,-0.1979999989271164,0.3482874929904938,-0.38142499327659607
1757088606667136300,3.89413623046875,-0.19923749566078186,0.34952500462532043,-0.3997125029563904
1757088606676689200,3.903689208984375,-0.20418749749660492,0.3592875003814697,-0.4156624972820282
1757088606686242000,3.913241943359375,-0.20899999141693115,0.3971000015735626,-0.4314749836921692
1757088606695795200,3.922795166015625,-0.2199999988079071,0.45704999566078186,-0.455949991941452
1757088606705348400,3.932348388671875,-0.233474999666214,0.5218124985694885,-0.4852375090122223
1757088606714901200,3.9419013671875,-0.24076250195503235,0.5546749830245972,-0.5084750056266785
1757088606724454100,3.9514541015625,-0.23100000619888306,0.5425750017166138,-0.519474983215332
1757088606734007000,3.961007080078125,-0.2139499932527542,0.49486249685287476,-0.5329499840736389
1757088606743560200,3.970560302734375,-0.19552500545978546,0.43133750557899475,-0.558525025844574
1757088606753113000,3.980113037109375,-0.17352500557899475,0.34952500462532043,-0.602524995803833
1757088606762666200,3.989666259765625,-0.1467124968767166,0.2615250051021576,-0.6525750160217285
1757088606772219100,3.99921923828125,-0.11866249889135361,0.19071249663829803,-0.7050999999046326
1757088606781772300,4.008772216796875,-0.09047500044107437,0.13323749601840973,-0.7565249800682068
1757088606791325200,4.0183251953125,-0.06366249918937683,0.059950001537799835,-0.7980499863624573
1757088606800878000,4.027878173828125,-0.029424998909235,-0.047575000673532486,-0.8248624801635742
1757088606810431200,4.03743115234375,0.004812499973922968,-0.1588124930858612,-0.8505749702453613
1757088606819984400,4.046984375,0.020624998956918716,-0.20514999330043793,-0.88714998960495
1757088606829537300,4.056537353515625,0.03657500073313713,-0.08786249905824661,-0.9068124890327454
1757088606839090200,4.066090087890625,0.045099999755620956,0.09171249717473984,-0.9409124851226807
1757088606848643000,4.07564306640625,0.05238749831914902,0.24557499587535858,-1.0069124698638916
1757088606858196200,4.0851962890625,0.08181250095367432,0.28833749890327454,-1.0961500406265259
1757088606867749000,4.0947490234375,0.1331000030040741,0.18700000643730164,-1.1596750020980835
1757088606877302300,4.10430224609375,0.1891999989748001,-0.05004999786615372,-1.2109625339508057
1757088606886855200,4.113855224609375,0.23691250383853912,-0.2576749920845032,-1.2597750425338745
1757088606896408300,4.123408203125,0.2662000060081482,-0.27114999294281006,-1.3001999855041504
1757088606905961200,4.132961181640625,0.27348750829696655,-0.15262499451637268,-1.355062484741211
1757088606915514000,4.14251416015625,0.28091248869895935,-0.05609999969601631,-1.4455374479293823
1757088606925067000,4.15206689453125,0.2747249901294708,-0.03162499889731407,-1.5053499937057495
1757088606934620200,4.1616201171875,0.2186249941587448,-0.059812501072883606,-1.5103000402450562
1757088606944173300,4.17117333984375,0.1256749927997589,-0.08910000324249268,-1.5005375146865845
1757088606953726200,4.180726318359375,0.047575000673532486,-0.1746249943971634,-1.5030125379562378
1757088606963279000,4.190279052734375,-0.00494999997317791,-0.26138749718666077,-1.5151125192642212
1757088606972832300,4.199832275390625,-0.04413750022649765,-0.35048750042915344,-1.5456374883651733
1757088606982385200,4.20938525390625,-0.08318749815225601,-0.4250124990940094,-1.5908750295639038
1757088606991938000,4.21893798828125,-0.12099999934434891,-0.49720001220703125,-1.633637547492981
1757088607001491200,4.2284912109375,-0.1504250019788742,-0.6925874948501587,-1.6543999910354614
1757088607011044400,4.23804443359375,-0.17847499251365662,-0.7928249835968018,-1.6825875043869019
1757088607020597200,4.24759716796875,-0.20295000076293945,-0.7097749710083008,-1.6801124811172485
1757088607030150100,4.257150146484375,-0.23952500522136688,-0.5447750091552734,-1.655637502670288
1757088607039703000,4.266703125,-0.2457125037908554,-0.33096250891685486,-1.6288249492645264
1757088607049256200,4.276256103515625,-0.25671249628067017,-0.29067498445510864,-1.5433000326156616
1757088607058809000,4.28580908203125,-0.2517625093460083,-0.2441999912261963,-1.467537522315979
1757088607068362000,4.295362060546875,-0.2957625091075897,-0.1685750037431717,-1.4370124340057373
1757088607077915100,4.3049150390625,-0.3385249972343445,-0.12691250443458557,-1.4528249502182007
1757088607087468000,4.314468017578125,-0.3653374910354614,-0.12209999561309814,-1.5078250169754028
1757088607097021200,4.324021240234375,-0.4288625121116638,-0.15757499635219574,-1.5688749551773071
1757088607106574000,4.333573974609375,-0.4998124837875366,-0.24667499959468842,-1.604349970817566
1757088607116127000,4.343126953125,-0.5438125133514404,-0.39448750019073486,-1.616587519645691
1757088607125680000,4.35268017578125,-0.5693874955177307,-0.511775016784668,-1.647112488746643
1757088607135233300,4.3622333984375,-0.5571500062942505,-0.5937250256538391,-1.6543999910354614
1757088607144786200,4.3717861328125,-0.5022875070571899,-0.7133499979972839,-1.6018749475479126
1757088607154339000,4.381339111328125,-0.4081000089645386,-0.6107749938964844,-1.5945874452590942
1757088607163892000,4.39089208984375,-0.37152498960494995,-0.555774986743927,-1.572587490081787
1757088607173445000,4.400445068359375,-0.37152498960494995,-0.5325375199317932,-1.5896375179290771
1757088607182998000,4.409998046875,-0.3653374910354614,-0.5081999897956848,-1.5982999801635742
1757088607192551200,4.41955126953125,-0.32628750801086426,-0.4787749946117401,-1.584825038909912
1757088607202104000,4.42910400390625,-0.2750000059604645,-0.428725004196167,-1.564062476158142
1757088607211657200,4.4386572265625,-0.2102375030517578,-0.3969624936580658,-1.5163500308990479
1757088607221210000,4.448210205078125,-0.12594999372959137,-0.3969624936580658,-1.4565374851226807
1757088607230763000,4.457762939453125,-0.04647500067949295,-0.3529624938964844,-1.4027750492095947
1757088607240316000,4.46731591796875,0.010862499475479126,-0.24791249632835388,-1.3575375080108643
1757088607249869000,4.476869140625,0.05238749831914902,-0.11110000312328339,-1.314774990081787
1757088607259422000,4.486421875,0.07562500238418579,-0.047575000673532486,-1.3135374784469604
1757088607268975000,4.49597509765625,0.06091250106692314,-0.11357499659061432,-1.3490124940872192
1757088607278528000,4.505528076171875,0.020624998956918716,-0.22962500154972076,-1.3820124864578247
1757088607288081200,4.5150810546875,-0.02213750034570694,-0.2881999909877777,-1.3965874910354614
1757088607297634000,4.524634033203125,-0.04647500067949295,-0.2540999948978424,-1.3660625219345093
1757088607307187000,4.53418701171875,-0.042899999767541885,-0.1746249943971634,-1.306249976158142
1757088607316739800,4.54373974609375,-0.03189999982714653,-0.14533749222755432,-1.2585375308990479
1757088607326293200,4.553293212890625,-0.033137500286102295,-0.14409999549388885,-1.2390124797821045
1757088607335846100,4.56284619140625,-0.02461249940097332,-0.2149125039577484,-1.2439625263214111
1757088607345399000,4.57239892578125,-0.055137500166893005,-0.24791249632835388,-1.2487750053405762
1757088607354952000,4.581951904296875,-0.06366249918937683,-0.21986250579357147,-1.2427250146865845
1757088607364505000,4.591505126953125,-0.05637500062584877,-0.19786250591278076,-1.214674949645996
1757088607374057700,4.6010576171875,-0.04166249930858612,-0.16362500190734863,-1.192674994468689
1757088607383611000,4.61061083984375,-0.040424998849630356,-0.14038750529289246,-1.1754875183105469
1757088607393164000,4.6201640625,-0.042899999767541885,-0.11604999750852585,-1.1486749649047852
1757088607402717000,4.629717041015625,-0.047712501138448715,-0.09638749808073044,-1.1131999492645264
1757088607412270000,4.63927001953125,-0.06366249918937683,-0.10009999573230743,-1.0704375505447388
1757088607421823000,4.648822998046875,-0.07095000147819519,-0.09638749808073044,-1.0203875303268433
1757088607431376000,4.6583759765625,-0.07095000147819519,-0.06462500244379044,-0.9788625240325928
1757088607440929300,4.66792919921875,-0.0648999959230423,-0.0340999998152256,-0.951912522315979
1757088607450482200,4.677482177734375,-0.062424998730421066,-0.013337500393390656,-0.9690999984741211
1757088607460035000,4.68703515625,-0.057475000619888306,-0.025575000792741776,-0.9824374914169312
1757088607469588000,4.696587890625,-0.045375000685453415,-0.030524998903274536,-0.9836750030517578
1757088607479140900,4.706140869140625,-0.03918749839067459,-0.018287500366568565,-0.9653875231742859
1757088607488694000,4.715694091796875,-0.03671250119805336,0.03189999982714653,-0.9336249828338623
1757088607498247000,4.725246826171875,-0.029424998909235,0.04895000159740448,-0.9006249904632568
1757088607507800000,4.734800048828125,-0.03918749839067459,0.05623750016093254,-0.8958125114440918
1757088607517353000,4.74435302734375,-0.050187498331069946,0.057475000619888306,-0.9128624796867371
1757088607526906000,4.753906005859375,-0.05389999970793724,0.042899999767541885,-0.9373375177383423
1757088607536459000,4.763458984375,-0.047712501138448715,0.06971249729394913,-0.9568625092506409
1757088607546012200,4.77301220703125,-0.050187498331069946,0.15771250426769257,-0.9629124999046326
1757088607555565000,4.78256494140625,-0.05142499879002571,0.21504999697208405,-0.9568625092506409
1757088607565118200,4.7921181640625,-0.03437500074505806,0.2712875008583069,-0.9385749697685242
1757088607574671000,4.801671142578125,-0.020899999886751175,0.32133749127388,-0.904337465763092
1757088607584224000,4.81122412109375,-0.03437500074505806,0.34209999442100525,-0.8810999989509583
1757088607593777000,4.82077685546875,-0.062424998730421066,0.32628750801086426,-0.868862509727478
1757088607603330000,4.830330078125,-0.10395000129938126,0.29081249237060547,-0.851812481880188
1757088607612883000,4.839883056640625,-0.15166249871253967,0.3115749955177307,-0.8370999693870544
1757088607622435800,4.849435791015625,-0.1979999989271164,0.3531000018119812,-0.812624990940094
1757088607631989000,4.858989013671875,-0.22618749737739563,0.34952500462532043,-0.785812497138977
1757088607641542000,4.8685419921875,-0.23100000619888306,0.3287625014781952,-0.7833374738693237
1757088607651095000,4.878094970703125,-0.22852499783039093,0.3152875006198883,-0.7845749855041504
1757088607660648000,4.88764794921875,-0.23223750293254852,0.3018124997615814,-0.7870500087738037
1757088607670200800,4.897200927734375,-0.24076250195503235,0.26028749346733093,-0.7906249761581421
1757088607679754000,4.90675390625,-0.2457125037908554,0.22605000436306,-0.7675250172615051
1757088607689307100,4.91630712890625,-0.2457125037908554,0.23704999685287476,-0.7430499792098999
1757088607698860000,4.925860107421875,-0.24076250195503235,0.3091000020503998,-0.7260000109672546
1757088607708413000,4.935412841796875,-0.23718750476837158,0.3348124921321869,-0.7345250248908997
1757088607717965800,4.9449658203125,-0.23718750476837158,0.3605250120162964,-0.7540500164031982
1757088607727519000,4.95451904296875,-0.24323749542236328,0.35557499527931213,-0.7601000070571899
1757088607737071900,4.96407177734375,-0.24928750097751617,0.2895750105381012,-0.7650499939918518
1757088607746625000,4.973625,-0.24323749542236328,0.2700499892234802,-0.7503374814987183
1757088607756178000,4.983177978515625,-0.24199999868869781,0.2810499966144562,-0.7235249876976013
1757088607765731000,4.99273095703125,-0.23100000619888306,0.296999990940094,-0.7015249729156494
1757088607775284000,5.002283935546875,-0.20899999141693115,0.2957625091075897,-0.6953374743461609
1757088607784836900,5.0118369140625,-0.17723749577999115,0.27252501249313354,-0.7002875208854675
1757088607794390000,5.02139013671875,-0.1527625024318695,0.2798124849796295,-0.7137625217437744
1757088607803943000,5.03094287109375,-0.1344749927520752,0.2872374951839447,-0.7308124899864197
1757088607813496000,5.04049609375,-0.12099999934434891,0.29452499747276306,-0.7369999885559082
1757088607823049000,5.050049072265625,-0.11123749613761902,0.2835249900817871,-0.7467625141143799
1757088607832601900,5.059601806640625,-0.11990000307559967,0.18576249480247498,-0.7930999994277954
1757088607842154800,5.06915478515625,-0.11618749797344208,0.07095000147819519,-0.8408125042915344
1757088607851708200,5.078708251953125,-0.09418749809265137,-0.007287499960511923,-0.8701000213623047
1757088607861260800,5.0882607421875,-0.07095000147819519,-0.05128749832510948,-0.8945749998092651
1757088607870814000,5.09781396484375,-0.03437500074505806,-0.0976250022649765,-0.9116249680519104
1757088607880366800,5.107366943359375,-0.00989999994635582,-0.08538749814033508,-0.8945749998092651
1757088607889920000,5.116919921875,-0.0037124999798834324,0.03189999982714653,-0.8493375182151794
1757088607899473000,5.126472900390625,-0.0013749999925494194,0.1919499933719635,-0.7918624877929688
1757088607909025800,5.13602587890625,0.008387500420212746,0.3190000057220459,-0.7455250024795532
1757088607918579000,5.145578857421875,0.0170499999076128,0.3946250081062317,-0.7039999961853027
1757088607928131800,5.1551318359375,0.025575000792741776,0.4118124842643738,-0.6795250177383423
1757088607937685000,5.16468505859375,0.020624998956918716,0.432574987411499,-0.6612374782562256
1757088607947238000,5.17423779296875,-0.002612499985843897,0.39586248993873596,-0.6612374782562256
1757088607956790800,5.183790771484375,-0.03189999982714653,0.3030500113964081,-0.6892874836921692
1757088607966343700,5.19334375,-0.04413750022649765,0.2162874937057495,-0.7027624845504761
1757088607975897000,5.20289697265625,-0.03189999982714653,0.2199999988079071,-0.6635749936103821
1757088607985450000,5.212449951171875,-0.002612499985843897,0.2615250051021576,-0.585474967956543
1757088607995003000,5.2220029296875,-0.020899999886751175,0.201712504029274,-0.5304750204086304
1757088608004556000,5.23155615234375,-0.02461249940097332,0.12223749607801437,-0.5207124948501587
1757088608014109000,5.24110888671875,-0.013612499460577965,0.10752499848604202,-0.5024250149726868
1757088608023661800,5.250661865234375,0.0035749999806284904,0.12223749607801437,-0.4620000123977661
1757088608033215000,5.260215087890625,0.049912501126527786,0.1467124968767166,-0.3936625123023987
1757088608042768000,5.269767822265625,0.10491249710321426,0.1381874978542328,-0.32766249775886536
1757088608052320800,5.27932080078125,0.1391499936580658,0.12347500026226044,-0.2886124849319458
1757088608061874000,5.2888740234375,0.15015000104904175,0.1307625025510788,-0.2628999948501587
1757088608071426800,5.2984267578125,0.1354375034570694,0.15399999916553497,-0.21642500162124634
1757088608080979700,5.307979736328125,0.1073874980211258,0.20652499794960022,-0.1541374921798706
1757088608090532900,5.317532958984375,0.08662500232458115,0.2578125,-0.08703749626874924
1757088608100085800,5.327085693359375,0.0658624991774559,0.2700499892234802,-0.030799999833106995
1757088608109638700,5.336638671875,0.04386249929666519,0.24447499215602875,-0.0015124999918043613
1757088608119192000,5.346192138671875,0.0193875003606081,0.19552500545978546,0.002199999988079071
1757088608128744700,5.35574462890625,0.004812499973922968,0.16376249492168427,-0.005087499972432852
1757088608138297900,5.3652978515625,-0.00989999994635582,0.14918750524520874,-0.011274999938905239
1757088608147850800,5.374850830078125,-0.029424998909235,0.15399999916553497,-0.010037500411272049
1757088608157403600,5.384403564453125,-0.042899999767541885,0.15895000100135803,-0.0038499999791383743
1757088608166956500,5.39395654296875,-0.05389999970793724,0.1625249981880188,0.002199999988079071
1757088608176509700,5.403509765625,-0.062424998730421066,0.14547500014305115,0.005912499967962503
1757088608186062600,5.4130625,-0.08071249723434448,0.11852499842643738,0.008249999955296516
1757088608195615700,5.42261572265625,-0.0989999994635582,0.09652499854564667,0.01691249944269657
1757088608205168600,5.432168701171875,-0.10999999940395355,0.08799999952316284,0.04124999791383743
1757088608214721800,5.4417216796875,-0.11990000307559967,0.09542500227689743,0.07301250100135803
1757088608224274700,5.451274658203125,-0.13695000112056732,0.12099999934434891,0.0999625027179718
1757088608233827600,5.46082763671875,-0.14794999361038208,0.14176249504089355,0.11824999749660492
1757088608243380700,5.470380615234375,-0.1601874977350235,0.1381874978542328,0.13048750162124634
1757088608252934000,5.479933837890625,-0.1662375032901764,0.1247124969959259,0.13296249508857727
1757088608262486800,5.48948681640625,-0.17118750512599945,0.11976250261068344,0.11824999749660492
1757088608272039700,5.499039794921875,-0.17242500185966492,0.11742500215768814,0.09019999951124191
1757088608281592600,5.508592529296875,-0.17476250231266022,0.09542500227689743,0.0742499977350235
1757088608291145500,5.5181455078125,-0.19442500174045563,0.09418749809265137,0.0681999996304512
1757088608300698600,5.52769873046875,-0.22123749554157257,0.10999999940395355,0.03891250118613243
1757088608310251500,5.53725146484375,-0.24323749542236328,0.12828749418258667,-0.002749999985098839
1757088608319805000,5.546804931640625,-0.2579500079154968,0.13571250438690186,-0.03451250120997429
1757088608329357800,5.55635791015625,-0.2652375102043152,0.12828749418258667,-0.052799999713897705
1757088608338910700,5.56591064453125,-0.26028749346733093,0.12594999372959137,-0.05884999781847
1757088608348463600,5.575463623046875,-0.23718750476837158,0.11123749613761902,-0.04427500069141388
1757088608358016500,5.5850166015625,-0.21271249651908875,0.09047500044107437,-0.025849999859929085
1757088608367569700,5.594569580078125,-0.18947499990463257,0.05871250107884407,-0.011274999938905239
1757088608377122600,5.60412255859375,-0.16747500002384186,0.023237500339746475,0.002199999988079071
1757088608386675700,5.61367578125,-0.15523749589920044,-0.0010999999940395355,0.007149999961256981
1757088608396228600,5.623228515625,-0.13942499458789825,-0.0085249999538064,-0.0038499999791383743
1757088608405781500,5.632781494140625,-0.12099999934434891,-0.0035749999806284904,-0.016087500378489494
1757088608415334700,5.642334716796875,-0.0989999994635582,0.0037124999798834324,-0.021037500351667404
1757088608424887800,5.6518876953125,-0.08195000141859055,0.0012374999932944775,-0.025849999859929085
1757088608434440700,5.661440673828125,-0.06613750010728836,-0.010862499475479126,-0.030799999833106995
1757088608443993600,5.67099365234375,-0.057475000619888306,-0.035337500274181366,-0.038087498396635056
1757088608453546800,5.680546630859375,-0.045375000685453415,-0.05128749832510948,-0.04661250114440918
1757088608463099600,5.690099609375,-0.037950001657009125,-0.05486249923706055,-0.047849997878074646
1757088608472652800,5.69965283203125,-0.01966249942779541,-0.05362499877810478,-0.043037500232458115
1757088608482205700,5.709205810546875,-0.002612499985843897,-0.057337500154972076,-0.035612501204013824
1757088608491758800,5.7187587890625,0.0170499999076128,-0.00976249948143959,-0.008799999952316284
1757088608501311700,5.728311767578125,0.020624998956918716,0.025712499395012856,0.015675000846385956
1757088608510864600,5.73786474609375,0.023099999874830246,0.028187500312924385,0.03519999980926514
1757088608520417500,5.74741748046875,0.03162499889731407,0.029424998909235,0.04001250118017197
1757088608529970700,5.756970703125,0.035337500274181366,0.035475000739097595,0.03891250118613243
1757088608539523800,5.76652392578125,0.03162499889731407,0.042899999767541885,0.037675000727176666
1757088608549076700,5.77607666015625,0.028049999848008156,0.040424998849630356,0.03396249935030937
1757088608558629600,5.785629638671875,0.030387500301003456,0.040424998849630356,0.030249999836087227
1757088608568182800,5.795182861328125,0.02186249941587448,0.04166249930858612,0.021724998950958252
1757088608577735700,5.804735595703125,0.0170499999076128,0.040424998849630356,0.010724999941885471
1757088608587288600,5.81428857421875,0.008387500420212746,0.03671250119805336,0.007149999961256981
1757088608596841700,5.823841796875,0.006049999967217445,0.032999999821186066,0.002199999988079071
1757088608606394600,5.83339453125,0.0010999999940395355,0.020899999886751175,0.0034374999813735485
1757088608615947500,5.842947509765625,0.0035749999806284904,0.006187499966472387,-0.0015124999918043613
1757088608625500400,5.85250048828125,0.013337500393390656,-0.010862499475479126,-0.0015124999918043613
1757088608635053600,5.862053466796875,0.008387500420212746,-0.0035749999806284904,0.0034374999813735485
1757088608644606500,5.8716064453125,0.002337499987334013,0.006187499966472387,0.009487500414252281
1757088608654159600,5.88115966796875,0.006049999967217445,0.00989999994635582,0.014437500387430191
1757088608663712500,5.89071240234375,0.0035749999806284904,0.00989999994635582,0.01691249944269657
1757088608673265700,5.900265625,-0.0013749999925494194,0.00989999994635582,0.018149999901652336
1757088608682818600,5.909818603515625,-0.00494999997317791,0.00494999997317791,0.014437500387430191
1757088608692371500,5.919371337890625,-0.00989999994635582,-0.0010999999940395355,0.007149999961256981
1757088608701924400,5.92892431640625,-0.013612499460577965,-0.0035749999806284904,-0.0015124999918043613
1757088608711477200,5.938477294921875,-0.015949999913573265,-0.002337499987334013,-0.007562499959021807
1757088608721030400,5.948030517578125,-0.0147124994546175,-0.007287499960511923,-0.008799999952316284
1757088608730583600,5.95758349609375,-0.012374999932944775,-0.0085249999538064,-0.010037500411272049
1757088608740136400,5.967136474609375,-0.008662499487400055,-0.00976249948143959,-0.010037500411272049
1757088608749689300,5.976689453125,-0.006187499966472387,-0.00976249948143959,-0.008799999952316284
1757088608759242500,5.986242431640625,-0.002612499985843897,-0.010862499475479126,-0.008799999952316284
1757088608768795400,5.99579541015625,-0.00013749999925494194,-0.010862499475479126,-0.007562499959021807
1757088608778348300,6.005348388671875,0.007287499960511923,-0.010862499475479126,-0.006324999965727329
1757088608787901200,6.014901123046875,0.007287499960511923,-0.00976249948143959,-0.005087499972432852
1757088608797454000,6.0244541015625,0.01209999993443489,-0.006049999967217445,-0.002749999985098839
1757088608807007200,6.03400732421875,0.0170499999076128,-0.002337499987334013,-0.0002749999985098839
1757088608816560400,6.043560302734375,0.020624998956918716,0.0012374999932944775,0.0009624999947845936
1757088608826113300,6.05311328125,0.02433750033378601,0.00494999997317791,0.0009624999947845936
1757088608835666200,6.062666259765625,0.025575000792741776,0.006187499966472387,0.0009624999947845936
1757088608845219300,6.07221923828125,0.028049999848008156,0.0012374999932944775,-0.0002749999985098839
1757088608854772200,6.081772216796875,0.030387500301003456,-0.004812499973922968,-0.0002749999985098839
1757088608864325000,6.0913251953125,0.0340999998152256,-0.006049999967217445,-0.0002749999985098839
1757088608873878300,6.100878173828125,0.0340999998152256,-0.006049999967217445,0.0034374999813735485
1757088608883431200,6.11043115234375,0.037812501192092896,0.002474999986588955,0.009487500414252281
1757088608892984300,6.119984375,0.040150001645088196,0.011137500405311584,0.015675000846385956
1757088608902537200,6.129537109375,0.04633750021457672,0.01718750037252903,0.021724998950958252
1757088608912090000,6.139090087890625,0.047575000673532486,0.01966249942779541,0.022962499409914017
1757088608921643000,6.14864306640625,0.04881250113248825,0.02447500079870224,0.01924999989569187
1757088608931196200,6.158196044921875,0.045099999755620956,0.02199999988079071,0.014437500387430191
1757088608940749000,6.1677490234375,0.03904999792575836,0.01718750037252903,0.009487500414252281
1757088608950302200,6.17730224609375,0.032862499356269836,0.0147124994546175,0.005912499967962503
1757088608959855400,6.18685546875,0.02681249938905239,0.011137500405311584,0.002199999988079071
1757088608969408300,6.196408203125,0.025575000792741776,0.008662499487400055,0.0034374999813735485
1757088608978961200,6.205961181640625,0.025575000792741776,0.007424999959766865,0.0034374999813735485
1757088608988514000,6.21551416015625,0.02433750033378601,0.006187499966472387,0.007149999961256981
1757088608998067200,6.225067138671875,0.02433750033378601,0.01223750039935112,0.008249999955296516
1757088609007620000,6.2346201171875,0.02681249938905239,0.03671250119805336,0.008249999955296516
1757088609017173200,6.24417333984375,0.020624998956918716,0.029424998909235,0.010724999941885471
1757088609026726100,6.25372607421875,0.0193875003606081,0.020899999886751175,0.010724999941885471
1757088609036279000,6.263279052734375,0.018149999901652336,0.011137500405311584,0.011962499469518661
1757088609045832000,6.27283203125,0.0170499999076128,0.002474999986588955,0.010724999941885471
1757088609055385000,6.282385009765625,0.0193875003606081,0.0012374999932944775,0.010724999941885471
1757088609064938000,6.29193798828125,0.018149999901652336,0.0037124999798834324,0.009487500414252281
1757088609074491000,6.301490966796875,0.018149999901652336,0.0037124999798834324,0.007149999961256981
1757088609084044000,6.3110439453125,0.0170499999076128,0.0037124999798834324,0.0034374999813735485
1757088609093597000,6.320596923828125,0.015812499448657036,0.002474999986588955,0.0034374999813735485
1757088609103150000,6.330150146484375,0.014574999921023846,0.002474999986588955,0.0034374999813735485
1757088609112703000,6.339702880859375,0.014574999921023846,0.002474999986588955,0.004674999974668026
1757088609122256100,6.349256103515625,0.01209999993443489,-0.0010999999940395355,0.007149999961256981
1757088609131809000,6.35880908203125,0.01209999993443489,-0.006049999967217445,0.007149999961256981
1757088609141362200,6.368362060546875,0.010862499475479126,-0.006049999967217445,0.008249999955296516
1757088609150915000,6.3779150390625,0.01209999993443489,-0.006049999967217445,0.009487500414252281
1757088609160468000,6.387468017578125,-0.0013749999925494194,0.00013749999925494194,0.009487500414252281
1757088609170020900,6.397020751953125,-0.0013749999925494194,0.02694999985396862,0.015675000846385956
1757088609179573800,6.40657373046875,-0.00013749999925494194,0.008662499487400055,0.010724999941885471
1757088609189127000,6.416126953125,-0.002612499985843897,0.00013749999925494194,0.005912499967962503
1757088609198680000,6.42568017578125,-0.00494999997317791,-0.007287499960511923,0.0009624999947845936
1757088609208233000,6.43523291015625,-0.006187499966472387,-0.006049999967217445,-0.0002749999985098839
1757088609217785900,6.444785888671875,-0.006187499966472387,-0.0035749999806284904,0.002199999988079071
1757088609227338800,6.4543388671875,-0.006187499966472387,0.00013749999925494194,0.005912499967962503
1757088609236892000,6.463891845703125,-0.007424999959766865,0.0037124999798834324,0.009487500414252281
1757088609246444800,6.47344482421875,-0.006187499966472387,0.006187499966472387,0.008249999955296516
1757088609255998000,6.482998046875,-0.006187499966472387,0.002474999986588955,0.0034374999813735485
1757088609265550800,6.49255078125,-0.002612499985843897,-0.0035749999806284904,-0.0015124999918043613
1757088609275104000,6.50210400390625,-0.006187499966472387,-0.0085249999538064,-0.0038499999791383743
1757088609284657000,6.511656982421875,-0.00494999997317791,-0.00976249948143959,-0.002749999985098839
1757088609294209800,6.521209716796875,-0.0037124999798834324,-0.00976249948143959,-0.0002749999985098839
1757088609303763000,6.530762939453125,-0.00013749999925494194,-0.007287499960511923,0.0034374999813735485
1757088609313315800,6.54031591796875,0.0010999999940395355,-0.002337499987334013,0.004674999974668026
1757088609322869000,6.549868896484375,0.004812499973922968,0.0012374999932944775,0.004674999974668026
1757088609332422000,6.559421875,0.006049999967217445,0.0037124999798834324,0.0034374999813735485
1757088609341974800,6.568974853515625,0.006049999967217445,0.002474999986588955,-0.0002749999985098839
1757088609351527700,6.578527587890625,0.006049999967217445,0.00013749999925494194,-0.005087499972432852
1757088609361080800,6.588080810546875,0.007287499960511923,0.00013749999925494194,-0.008799999952316284
1757088609370633700,6.5976337890625,0.007287499960511923,0.0012374999932944775,-0.01251249946653843
1757088609380186600,6.6071865234375,0.006049999967217445,0.0037124999798834324,-0.018562499433755875
1757088609389739800,6.61673974609375,0.006049999967217445,0.00494999997317791,-0.023512499406933784
1757088609399293000,6.62629296875,0.004812499973922968,0.00494999997317791,-0.02708750031888485
1757088609408845800,6.635845703125,0.0010999999940395355,0.008662499487400055,-0.03203750029206276
1757088609418398700,6.645398681640625,0.002337499987334013,0.00989999994635582,-0.033275000751018524
1757088609427951600,6.65495166015625,0.0010999999940395355,0.011137500405311584,-0.035612501204013824
1757088609437504500,6.66450439453125,-0.00013749999925494194,0.01223750039935112,-0.038087498396635056
1757088609447057700,6.6740576171875,0.0010999999940395355,0.0147124994546175,-0.04179999977350235
1757088609456610800,6.68361083984375,0.0035749999806284904,0.015949999913573265,-0.04908749833703041
1757088609466163700,6.693163818359375,0.004812499973922968,0.0147124994546175,-0.05403750017285347
1757088609475716600,6.702716552734375,0.007287499960511923,0.0147124994546175,-0.05637500062584877
1757088609485269500,6.71226953125,0.009624999947845936,0.01223750039935112,-0.05637500062584877
1757088609494822400,6.721822509765625,0.009624999947845936,0.011137500405311584,-0.052799999713897705
1757088609504375600,6.73137548828125,0.009624999947845936,0.008662499487400055,-0.047849997878074646
1757088609513928700,6.7409287109375,0.010862499475479126,0.008662499487400055,-0.03932499885559082
1757088609523481600,6.750481689453125,0.010862499475479126,0.007424999959766865,-0.030799999833106995
1757088609533034800,6.76003466796875,0.010862499475479126,0.007424999959766865,-0.023512499406933784
1757088609542587600,6.769587646484375,0.009624999947845936,0.0037124999798834324,-0.01484999991953373
1757088609552140800,6.779140869140625,0.009624999947845936,0.0012374999932944775,-0.007562499959021807
1757088609561693700,6.788693603515625,0.008387500420212746,-0.002337499987334013,-0.0002749999985098839
1757088609571246600,6.79824658203125,0.007287499960511923,-0.004812499973922968,0.0034374999813735485
1757088609580799500,6.807799560546875,0.007287499960511923,-0.0085249999538064,0.007149999961256981
1757088609590352600,6.8173525390625,0.004812499973922968,-0.0085249999538064,0.009487500414252281
1757088609599905500,6.826905517578125,0.004812499973922968,-0.007287499960511923,0.009487500414252281
1757088609609458400,6.83645849609375,0.0035749999806284904,-0.0035749999806284904,0.009487500414252281
1757088609619011600,6.846011474609375,0.0010999999940395355,0.00013749999925494194,0.008249999955296516
1757088609628564700,6.855564697265625,-0.0013749999925494194,0.0037124999798834324,0.0034374999813735485
1757088609638117600,6.86511767578125,-0.0037124999798834324,0.006187499966472387,-0.0015124999918043613
1757088609647670500,6.87467041015625,-0.006187499966472387,0.008662499487400055,-0.008799999952316284
1757088609657223400,6.884223388671875,-0.008662499487400055,0.007424999959766865,-0.016087500378489494
1757088609666776300,6.8937763671875,-0.007424999959766865,0.00494999997317791,-0.018562499433755875
1757088609676329500,6.90332958984375,-0.007424999959766865,0.0037124999798834324,-0.01979999989271164
1757088609685882400,6.91288232421875,-0.006187499966472387,0.002474999986588955,-0.021037500351667404
1757088609695435500,6.922435546875,-0.00494999997317791,0.002474999986588955,-0.018562499433755875
1757088609704988400,6.931988525390625,-0.0037124999798834324,0.0012374999932944775,-0.01484999991953373
1757088609714541600,6.94154150390625,-0.002612499985843897,-0.0010999999940395355,-0.013612499460577965
1757088609724094500,6.951094482421875,-0.0013749999925494194,-0.0010999999940395355,-0.010037500411272049
1757088609733647400,6.9606474609375,-0.0013749999925494194,-0.0010999999940395355,-0.006324999965727329
1757088609743200500,6.970200439453125,-0.00013749999925494194,-0.002337499987334013,-0.002749999985098839
1757088609752753400,6.97975341796875,-0.00013749999925494194,-0.0035749999806284904,0.0009624999947845936
1757088609762306600,6.989306640625,0.0010999999940395355,-0.0035749999806284904,0.002199999988079071
1757088609771859500,6.998859375,-0.00013749999925494194,-0.002337499987334013,0.0034374999813735485
1757088609781412400,7.008412353515625,-0.00013749999925494194,-0.006049999967217445,0.0034374999813735485
1757088609790965200,7.01796533203125,-0.00013749999925494194,-0.007287499960511923,0.0034374999813735485
1757088609800518400,7.027518310546875,0.0010999999940395355,-0.007287499960511923,0.002199999988079071
1757088609810071300,7.0370712890625,0.0010999999940395355,-0.004812499973922968,0.0009624999947845936
1757088609819624400,7.04662451171875,0.0010999999940395355,-0.0035749999806284904,-0.0002749999985098839
1757088609829177600,7.056177490234375,0.0010999999940395355,-0.0010999999940395355,-0.002749999985098839
1757088609838730500,7.06573046875,0.0010999999940395355,0.00013749999925494194,-0.0038499999791383743
1757088609848283400,7.075283447265625,0.002337499987334013,0.00013749999925494194,-0.0038499999791383743
1757088609857836300,7.084836181640625,0.002337499987334013,0.0012374999932944775,-0.0038499999791383743
1757088609867389400,7.094389404296875,0.0010999999940395355,0.0012374999932944775,-0.0038499999791383743
1757088609876942300,7.1039423828125,0.002337499987334013,0.00013749999925494194,-0.002749999985098839
1757088609886495500,7.11349560546875,0.002337499987334013,0.00013749999925494194,-0.0015124999918043613
1757088609896048400,7.12304833984375,0.0010999999940395355,0.00013749999925494194,0.0009624999947845936
1757088609905601300,7.132601318359375,0.002337499987334013,0.0012374999932944775,0.002199999988079071
1757088609915154200,7.142154296875,0.002337499987334013,0.00013749999925494194,0.0034374999813735485
1757088609924707000,7.15170703125,0.0035749999806284904,0.00013749999925494194,0.004674999974668026
1757088609934260200,7.16126025390625,0.0035749999806284904,0.00013749999925494194,0.0034374999813735485
1757088609943813000,7.170813232421875,0.0035749999806284904,-0.002337499987334013,0.002199999988079071
1757088609953366300,7.1803662109375,0.002337499987334013,-0.002337499987334013,-0.0002749999985098839
1757088609962919200,7.189919189453125,0.0010999999940395355,-0.002337499987334013,0.0009624999947845936
1757088609972472000,7.19947216796875,0.002337499987334013,-0.002337499987334013,-0.0015124999918043613
1757088609982025200,7.209025146484375,0.002337499987334013,-0.002337499987334013,0.0009624999947845936
1757088609991578400,7.218578369140625,0.0010999999940395355,0.00013749999925494194,0.0009624999947845936
1757088610001131300,7.22813134765625,0.0010999999940395355,-0.002337499987334013,0.0009624999947845936
1757088610010684200,7.23768408203125,-0.00013749999925494194,0.00013749999925494194,-0.0002749999985098839
1757088610020237300,7.2472373046875,-0.0013749999925494194,0.00013749999925494194,-0.0002749999985098839
1757088610029790200,7.256790283203125,-0.002612499985843897,0.00013749999925494194,-0.0002749999985098839
1757088610039343000,7.266343017578125,-0.0013749999925494194,-0.0010999999940395355,-0.0002749999985098839
1757088610048896000,7.27589599609375,-0.0037124999798834324,-0.0010999999940395355,-0.0015124999918043613
1757088610058449000,7.285448974609375,-0.002612499985843897,-0.002337499987334013,-0.0015124999918043613
1757088610068001800,7.295001708984375,-0.0037124999798834324,-0.0010999999940395355,-0.0002749999985098839
1757088610077555200,7.30455517578125,-0.0037124999798834324,-0.0010999999940395355,-0.0002749999985098839
1757088610087108000,7.314108154296875,-0.0037124999798834324,-0.0010999999940395355,-0.0002749999985098839
1757088610096661000,7.323660888671875,-0.0037124999798834324,-0.0010999999940395355,-0.0002749999985098839
1757088610106214000,7.3332138671875,-0.0037124999798834324,-0.0010999999940395355,-0.0002749999985098839
1757088610115767000,7.34276708984375,-0.0037124999798834324,-0.0010999999940395355,-0.0002749999985098839
1757088610125320000,7.35231982421875,-0.0037124999798834324,0.00013749999925494194,0.0009624999947845936
1757088610134872800,7.361872802734375,-0.0037124999798834324,-0.0010999999940395355,0.0009624999947845936
1757088610144426000,7.371426025390625,-0.002612499985843897,0.00013749999925494194,0.0009624999947845936
1757088610153979000,7.380978759765625,-0.0037124999798834324,0.00013749999925494194,-0.0015124999918043613
1757088610163532000,7.390531982421875,-0.0013749999925494194,-0.0010999999940395355,-0.0015124999918043613
1757088610173085000,7.4000849609375,-0.0013749999925494194,-0.0010999999940395355,-0.0015124999918043613
1757088610182638000,7.40963818359375,0.0010999999940395355,-0.0010999999940395355,-0.002749999985098839
1757088610192191000,7.41919091796875,-0.00013749999925494194,-0.0010999999940395355,-0.002749999985098839
1757088610201744100,7.428744140625,0.0010999999940395355,0.00013749999925494194,-0.002749999985098839
1757088610211297000,7.438297119140625,0.0010999999940395355,0.0012374999932944775,-0.002749999985098839
1757088610220850000,7.447849853515625,0.0010999999940395355,0.0012374999932944775,-0.002749999985098839
1757088610230402800,7.45740283203125,0.0010999999940395355,0.0012374999932944775,-0.0015124999918043613
1757088610239955700,7.466955810546875,0.0010999999940395355,0.00013749999925494194,-0.002749999985098839
1757088610249508900,7.4765087890625,0.0010999999940395355,0.0012374999932944775,-0.0015124999918043613
1757088610259061800,7.486061767578125,0.002337499987334013,0.00013749999925494194,-0.0002749999985098839
1757088610268615000,7.495614990234375,0.0010999999940395355,0.002474999986588955,-0.0015124999918043613
1757088610278167800,7.505167724609375,-0.00013749999925494194,0.0037124999798834324,-0.0002749999985098839
1757088610287720700,7.514720703125,0.0010999999940395355,0.002474999986588955,-0.0015124999918043613
1757088610297273600,7.524273681640625,-0.00013749999925494194,0.002474999986588955,-0.0015124999918043613
1757088610306826800,7.53382666015625,0.0010999999940395355,0.00013749999925494194,-0.0015124999918043613
1757088610316379600,7.543379638671875,0.0010999999940395355,-0.002337499987334013,-0.0015124999918043613
1757088610325932500,7.5529326171875,0.002337499987334013,-0.002337499987334013,0.0009624999947845936
1757088610335486000,7.56248583984375,0.002337499987334013,-0.0010999999940395355,0.0034374999813735485
1757088610345038800,7.572038818359375,0.0010999999940395355,0.0037124999798834324,0.004674999974668026
1757088610354591700,7.581591796875,-0.00013749999925494194,0.00494999997317791,0.005912499967962503
1757088610364144600,7.59114453125,-0.00013749999925494194,0.0037124999798834324,0.004674999974668026
1757088610373697500,7.600697509765625,-0.0037124999798834324,0.002474999986588955,0.0009624999947845936
1757088610383250700,7.610250732421875,-0.0037124999798834324,-0.0010999999940395355,-0.0002749999985098839
1757088610392803600,7.619803466796875,-0.002612499985843897,-0.0035749999806284904,-0.0015124999918043613
1757088610402356500,7.6293564453125,-0.00013749999925494194,-0.004812499973922968,-0.0015124999918043613
1757088610411909600,7.63890966796875,-0.00013749999925494194,-0.002337499987334013,0.0009624999947845936
1757088610421462500,7.648462646484375,-0.00013749999925494194,-0.0010999999940395355,0.002199999988079071
1757088610431015400,7.658015380859375,-0.00013749999925494194,0.00013749999925494194,0.002199999988079071
1757088610440568600,7.667568603515625,-0.00013749999925494194,0.0012374999932944775,0.002199999988079071
1757088610450121500,7.67712158203125,-0.00013749999925494194,0.0012374999932944775,0.0009624999947845936
1757088610459674400,7.68667431640625,-0.0013749999925494194,-0.0010999999940395355,-0.0002749999985098839
1757088610469227500,7.6962275390625,-0.00013749999925494194,-0.002337499987334013,-0.002749999985098839
1757088610478780400,7.705780517578125,-0.00013749999925494194,-0.002337499987334013,-0.002749999985098839
1757088610488333600,7.71533349609375,0.0010999999940395355,-0.002337499987334013,-0.0038499999791383743
1757088610497886500,7.724886474609375,0.0010999999940395355,-0.002337499987334013,-0.002749999985098839
1757088610507439400,7.734439453125,0.0010999999940395355,-0.0010999999940395355,-0.0015124999918043613
1757088610516992300,7.7439921875,0.0010999999940395355,-0.0010999999940395355,-0.0002749999985098839
1757088610526545200,7.753545166015625,0.0010999999940395355,0.00013749999925494194,0.002199999988079071
1757088610536098300,7.763098388671875,0.0010999999940395355,0.0012374999932944775,0.0009624999947845936
1757088610545651500,7.7726513671875,0.0010999999940395355,0.0012374999932944775,0.0009624999947845936
1757088610555204400,7.782204345703125,0.0010999999940395355,0.0012374999932944775,0.0009624999947845936
1757088610564757200,7.79175732421875,0.0010999999940395355,0.0012374999932944775,-0.0002749999985098839
1757088610574310100,7.80131005859375,0.0010999999940395355,0.0012374999932944775,0.0009624999947845936
1757088610583863300,7.81086328125,0.0010999999940395355,0.0012374999932944775,0.0009624999947845936
1757088610593416200,7.820416259765625,0.0010999999940395355,0.0037124999798834324,0.002199999988079071
1757088610602969300,7.82996923828125,-0.00013749999925494194,0.00494999997317791,0.0034374999813735485
1757088610612522200,7.839522216796875,-0.0013749999925494194,0.0037124999798834324,0.0034374999813735485
1757088610622075100,7.8490751953125,-0.00013749999925494194,0.0037124999798834324,0.002199999988079071
1757088610631628300,7.858628173828125,-0.00013749999925494194,0.002474999986588955,0.0009624999947845936
1757088610641181200,7.86818115234375,-0.00013749999925494194,0.00013749999925494194,0.0009624999947845936
1757088610650734000,7.877734130859375,0.0010999999940395355,-0.0010999999940395355,0.0009624999947845936
1757088610660287000,7.887286865234375,0.0010999999940395355,-0.0010999999940395355,0.0009624999947845936
1757088610669840400,7.89684033203125,0.002337499987334013,-0.002337499987334013,-0.0002749999985098839
1757088610679393300,7.906393310546875,0.0010999999940395355,-0.004812499973922968,-0.0015124999918043613
1757088610688946200,7.9159462890625,0.002337499987334013,-0.004812499973922968,-0.0015124999918043613
1757088610698499000,7.9254990234375,0.0010999999940395355,-0.004812499973922968,0.0009624999947845936
1757088610708052200,7.93505224609375,0.0010999999940395355,-0.0035749999806284904,0.0009624999947845936
1757088610717605000,7.944605224609375,0.0010999999940395355,-0.002337499987334013,0.0009624999947845936
1757088610727158300,7.954158203125,0.0010999999940395355,0.00013749999925494194,0.0009624999947845936
1757088610736711200,7.963711181640625,0.0010999999940395355,-0.0010999999940395355,-0.0002749999985098839
1757088610746264000,7.97326416015625,-0.00013749999925494194,0.00013749999925494194,-0.0015124999918043613
1757088610755817000,7.98281689453125,-0.00013749999925494194,0.00013749999925494194,-0.0002749999985098839
1757088610765370000,7.9923701171875,-0.00013749999925494194,0.00013749999925494194,0.0009624999947845936
1757088610774923000,8.001923095703125,-0.0013749999925494194,0.0012374999932944775,0.002199999988079071
1757088610784476200,8.01147607421875,-0.0013749999925494194,0.0012374999932944775,0.002199999988079071
1757088610794029000,8.021029052734375,-0.0013749999925494194,0.0012374999932944775,0.0009624999947845936
1757088610803582200,8.030582275390625,-0.00013749999925494194,0.002474999986588955,0.0009624999947845936
1757088610813135000,8.040135009765624,-0.0013749999925494194,0.002474999986588955,0.002199999988079071
1757088610822688000,8.04968798828125,-0.0013749999925494194,0.002474999986588955,0.0009624999947845936
1757088610832241000,8.059240966796875,-0.0013749999925494194,0.0037124999798834324,0.0009624999947845936
1757088610841793800,8.068793701171876,-0.0013749999925494194,0.0012374999932944775,-0.0002749999985098839
1757088610851347200,8.07834716796875,-0.00013749999925494194,0.0012374999932944775,-0.0015124999918043613
1757088610860900000,8.087900146484374,-0.0013749999925494194,0.0012374999932944775,-0.0015124999918043613
1757088610870453000,8.097452880859375,-0.0013749999925494194,0.00013749999925494194,-0.0015124999918043613
1757088610880006000,8.107005859375,-0.00013749999925494194,-0.0010999999940395355,-0.0015124999918043613
1757088610889559000,8.11655908203125,-0.00013749999925494194,0.00013749999925494194,-0.0002749999985098839
1757088610899112000,8.12611181640625,-0.0013749999925494194,-0.0010999999940395355,-0.0002749999985098839
1757088610908664800,8.135664794921874,-0.0013749999925494194,-0.002337499987334013,-0.0002749999985098839
1757088610918217700,8.1452177734375,-0.00013749999925494194,-0.002337499987334013,0.0009624999947845936
1757088610927771000,8.15477099609375,-0.0013749999925494194,-0.002337499987334013,0.0009624999947845936
1757088610937323800,8.16432373046875,-0.00013749999925494194,-0.002337499987334013,-0.0002749999985098839
1757088610946877000,8.173876953125,-0.0013749999925494194,-0.0035749999806284904,0.0009624999947845936
1757088610956429800,8.183429931640624,-0.0013749999925494194,-0.0035749999806284904,-0.0002749999985098839
1757088610965982700,8.192982666015626,-0.002612499985843897,-0.002337499987334013,0.0009624999947845936
1757088610975535900,8.202535888671875,-0.0013749999925494194,-0.0010999999940395355,-0.0002749999985098839
1757088610985088800,8.2120888671875,-0.0013749999925494194,0.00013749999925494194,-0.0002749999985098839
1757088610994642000,8.221641845703125,-0.002612499985843897,-0.0010999999940395355,-0.0015124999918043613
1757088611004194800,8.23119482421875,-0.0013749999925494194,-0.0010999999940395355,-0.0015124999918043613
1757088611013747700,8.240747802734376,-0.0013749999925494194,-0.002337499987334013,-0.002749999985098839
1757088611023300600,8.250300537109375,-0.0013749999925494194,-0.0035749999806284904,-0.0015124999918043613
1757088611032853500,8.259853515625,-0.00013749999925494194,-0.002337499987334013,0.0009624999947845936
1757088611042406700,8.26940673828125,-0.00013749999925494194,-0.002337499987334013,0.0009624999947845936
1757088611051959800,8.278959716796875,-0.00013749999925494194,0.00013749999925494194,0.0009624999947845936
1757088611061512700,8.2885126953125,-0.0013749999925494194,0.00013749999925494194,0.002199999988079071
1757088611071065600,8.298065673828125,-0.00013749999925494194,-0.0010999999940395355,0.0009624999947845936
1757088611080618800,8.30761865234375,0.0010999999940395355,-0.0035749999806284904,-0.0002749999985098839
1757088611090171600,8.317171630859375,0.002337499987334013,-0.006049999967217445,-0.0002749999985098839
1757088611099724800,8.326724853515625,0.0035749999806284904,-0.0085249999538064,-0.0002749999985098839
1757088611109277700,8.336277587890624,0.004812499973922968,-0.007287499960511923,0.002199999988079071
1757088611118830800,8.345830810546875,0.0035749999806284904,-0.004812499973922968,0.004674999974668026
1757088611128383500,8.355383544921875,0.004812499973922968,-0.002337499987334013,0.007149999961256981
1757088611137936600,8.3649365234375,0.0035749999806284904,0.00013749999925494194,0.005912499967962503
1757088611147489500,8.374489501953125,0.002337499987334013,0.0012374999932944775,0.004674999974668026
1757088611157042400,8.38404248046875,-0.00013749999925494194,0.00013749999925494194,0.0034374999813735485
1757088611166595600,8.393595703125,-0.00013749999925494194,-0.002337499987334013,0.002199999988079071
1757088611176148700,8.403148681640625,-0.00013749999925494194,-0.004812499973922968,-0.0002749999985098839
1757088611185701600,8.41270166015625,-0.00013749999925494194,-0.004812499973922968,-0.0002749999985098839
1757088611195254500,8.422254638671875,-0.00013749999925494194,-0.0010999999940395355,0.0034374999813735485
1757088611204807400,8.431807373046874,-0.00013749999925494194,0.0012374999932944775,0.004674999974668026
1757088611214360600,8.441360595703125,-0.00013749999925494194,0.002474999986588955,0.005912499967962503
1757088611223913500,8.45091357421875,-0.00013749999925494194,0.0037124999798834324,0.005912499967962503
1757088611233466400,8.46046630859375,-0.00013749999925494194,0.00494999997317791,0.0034374999813735485
1757088611243019500,8.47001953125,-0.0013749999925494194,0.00494999997317791,0.002199999988079071
1757088611252572700,8.47957275390625,-0.0013749999925494194,0.002474999986588955,0.002199999988079071
1757088611262125600,8.48912548828125,-0.0013749999925494194,0.002474999986588955,0.002199999988079071
1757088611271678500,8.498678466796875,-0.0013749999925494194,0.00013749999925494194,-0.0002749999985098839
1757088611281231400,8.5082314453125,-0.0013749999925494194,-0.006049999967217445,-0.0002749999985098839
1757088611290784300,8.5177841796875,-0.0013749999925494194,-0.01209999993443489,-0.0038499999791383743
1757088611300337200,8.527337158203125,-0.00013749999925494194,-0.010862499475479126,-0.002749999985098839
1757088611309890300,8.536890380859376,-0.00013749999925494194,-0.004812499973922968,-0.0002749999985098839
1757088611319443200,8.546443115234375,0.0035749999806284904,-0.0010999999940395355,0.002199999988079071
1757088611328996400,8.555996337890624,0.006049999967217445,-0.0085249999538064,-0.002749999985098839
1757088611338549200,8.56554931640625,0.002337499987334013,-0.0010999999940395355,-0.0038499999791383743
1757088611348102100,8.57510205078125,0.002337499987334013,-0.007287499960511923,-0.0038499999791383743
1757088611357655000,8.584655029296876,0.002337499987334013,-0.014574999921023846,-0.005087499972432852
1757088611367208200,8.594208251953125,0.004812499973922968,-0.02433750033378601,-0.0002749999985098839
1757088611376761000,8.603760986328124,0.002337499987334013,-0.015812499448657036,0.0009624999947845936
1757088611386314200,8.613314208984375,0.0010999999940395355,-0.007287499960511923,-0.002749999985098839
1757088611395867100,8.6228671875,-0.0013749999925494194,-0.0035749999806284904,-0.0015124999918043613
1757088611405420000,8.632419921875,-0.00494999997317791,0.0012374999932944775,-0.008799999952316284
1757088611414973200,8.64197314453125,-0.00989999994635582,-0.004812499973922968,-0.010037500411272049
1757088611424526000,8.651526123046875,-0.013612499460577965,-0.004812499973922968,-0.01251249946653843
1757088611434079000,8.661078857421876,-0.0147124994546175,-0.004812499973922968,-0.011274999938905239
1757088611443632000,8.670632080078125,-0.015949999913573265,-0.01209999993443489,-0.010037500411272049
1757088611453185300,8.680185302734374,-0.01718750037252903,-0.01209999993443489,-0.005087499972432852
1757088611462738200,8.68973828125,-0.015949999913573265,-0.0170499999076128,-0.0002749999985098839
1757088611472291000,8.699291015625,-0.01718750037252903,-0.01209999993443489,0.0034374999813735485
1757088611481844000,8.708843994140626,-0.02213750034570694,-0.007287499960511923,0.005912499967962503
1757088611491396900,8.71839697265625,-0.02213750034570694,-0.01209999993443489,0.0034374999813735485
1757088611500949800,8.72794970703125,-0.025712499395012856,-0.014574999921023846,0.0009624999947845936
1757088611510503000,8.7375029296875,-0.03189999982714653,-0.015812499448657036,-0.0002749999985098839
1757088611520056000,8.74705615234375,-0.03671250119805336,-0.013337500393390656,-0.002749999985098839
1757088611529609000,8.75660888671875,-0.042899999767541885,-0.01209999993443489,-0.0015124999918043613
1757088611539162000,8.766162109375,-0.04895000159740448,-0.010862499475479126,-0.002749999985098839
1757088611548714800,8.77571484375,-0.055137500166893005,-0.01209999993443489,-0.002749999985098839
1757088611558268000,8.785267822265626,-0.05871250107884407,-0.0085249999538064,-0.002749999985098839
1757088611567820800,8.79482080078125,-0.06366249918937683,-0.006049999967217445,-0.002749999985098839
1757088611577373700,8.804373779296874,-0.06613750010728836,-0.0010999999940395355,-0.0015124999918043613
1757088611586926800,8.8139267578125,-0.06847500056028366,0.00013749999925494194,-0.002749999985098839
1757088611596480000,8.82347998046875,-0.06847500056028366,-0.0010999999940395355,-0.0038499999791383743
1757088611606033000,8.833032958984376,-0.06847500056028366,-0.002337499987334013,-0.006324999965727329
1757088611615585800,8.842585693359375,-0.06613750010728836,0.0012374999932944775,-0.008799999952316284
1757088611625138700,8.852138671875,-0.0611874982714653,0.008662499487400055,-0.008799999952316284
1757088611634691600,8.861691650390625,-0.055137500166893005,0.011137500405311584,-0.007562499959021807
1757088611644244700,8.87124462890625,-0.045375000685453415,0.01347499992698431,-0.005087499972432852
1757088611653798000,8.8807978515625,-0.035475000739097595,0.0147124994546175,-0.006324999965727329
1757088611663350800,8.890350830078125,-0.025712499395012856,0.01718750037252903,-0.005087499972432852
1757088611672903700,8.899903564453124,-0.0147124994546175,0.0147124994546175,-0.005087499972432852
1757088611682456600,8.90945654296875,-0.002612499985843897,0.023237500339746475,-0.006324999965727329
1757088611692009700,8.919009765625,0.0193875003606081,0.025712499395012856,-0.008799999952316284
1757088611701562600,8.928562744140624,0.0193875003606081,-0.002337499987334013,0.01691249944269657
1757088611711115500,8.938115478515625,0.015812499448657036,0.052662499248981476,0.0034374999813735485
1757088611720668700,8.947668701171875,0.023099999874830246,0.020899999886751175,-0.013612499460577965
1757088611730221600,8.9572216796875,0.02914999984204769,0.029424998909235,-0.010037500411272049
1757088611739774700,8.966774658203125,0.03162499889731407,0.040424998849630356,0.0009624999947845936
1757088611749327600,8.97632763671875,0.04386249929666519,0.035475000739097595,-0.0002749999985098839
1757088611758880500,8.985880615234375,0.05238749831914902,0.03189999982714653,-0.002749999985098839
1757088611768433400,8.995433349609375,0.062150001525878906,0.03189999982714653,-0.002749999985098839
1757088611777986600,9.004986572265626,0.07562500238418579,0.02199999988079071,-0.011274999938905239
1757088611787539700,9.014539794921875,0.10009999573230743,-0.0085249999538064,-0.018562499433755875
1757088611797092600,9.024092529296874,0.09886249899864197,0.018424998968839645,-0.0002749999985098839
1757088611806645500,9.0336455078125,0.1036750003695488,0.029424998909235,0.005912499967962503
1757088611816198400,9.043198486328125,0.10257499665021896,0.035475000739097595,0.0034374999813735485
1757088611825751300,9.052751220703126,0.10491249710321426,0.054999999701976776,-0.002749999985098839
1757088611835304200,9.06230419921875,0.11467500030994415,0.03918749839067459,-0.016087500378489494
1757088611844857300,9.071857421875,0.11962500214576721,0.035475000739097595,-0.01732499897480011
1757088611854410500,9.081410400390626,0.1293874979019165,0.03189999982714653,-0.013612499460577965
1757088611863963400,9.09096337890625,0.14038750529289246,0.023237500339746475,-0.010037500411272049
1757088611873516300,9.100516357421874,0.14643749594688416,0.02199999988079071,-0.011274999938905239
1757088611883069200,9.110069091796875,0.1551000028848648,0.015949999913573265,-0.01484999991953373
1757088611892622300,9.119622314453125,0.16362500190734863,0.007424999959766865,-0.01732499897480011
1757088611902175200,9.12917529296875,0.170912504196167,0.008662499487400055,-0.018562499433755875
1757088611911728400,9.138728271484375,0.17820000648498535,0.01347499992698431,-0.021037500351667404
1757088611921281300,9.14828125,0.18562500178813934,0.01223750039935112,-0.02227500081062317
1757088611930834400,9.15783447265625,0.19043749570846558,0.006187499966472387,-0.025849999859929085
1757088611940387300,9.16738720703125,0.19415000081062317,-0.0035749999806284904,-0.02956249937415123
1757088611949940200,9.176940185546876,0.21615000069141388,-0.04386249929666519,-0.04179999977350235
1757088611959493000,9.1864931640625,0.234437495470047,-0.07562500238418579,-0.06984999775886536
1757088611969046300,9.19604638671875,0.23196250200271606,-0.05857500061392784,-0.08084999769926071
1757088611978599200,9.20559912109375,0.27348750829696655,-0.006049999967217445,-0.08703749626874924
1757088611988152300,9.21515234375,0.27719998359680176,-0.018287500366568565,-0.08937499672174454
1757088611997705200,9.224705322265624,0.22591249644756317,-0.02928750030696392,-0.06737499684095383
1757088612007258000,9.234258056640625,0.19167499244213104,-0.03162499889731407,-0.02956249937415123
1757088612016811000,9.24381103515625,0.1868624985218048,-0.030524998903274536,-0.008799999952316284
1757088612026364200,9.2533642578125,0.16967499256134033,-0.007287499960511923,0.01691249944269657
1757088612035917300,9.262917236328125,0.15867500007152557,-0.00976249948143959,0.02419999986886978
1757088612045470200,9.27247021484375,0.15867500007152557,-0.013337500393390656,0.0364375002682209
1757088612055023000,9.282023193359375,0.15867500007152557,0.002474999986588955,0.049912501126527786
1757088612064576000,9.291575927734375,0.15619999170303345,0.011137500405311584,0.05348749831318855
1757088612074129000,9.30112890625,0.14891250431537628,0.015949999913573265,0.04867500066757202
1757088612083682000,9.31068212890625,0.1293874979019165,0.015949999913573265,0.037675000727176666
1757088612093235000,9.32023486328125,0.11233749985694885,0.01223750039935112,0.02667500078678131
1757088612102788000,9.3297880859375,0.09391249716281891,0.006187499966472387,0.020487500354647636
1757088612112341000,9.339341064453125,0.0695749968290329,0.00989999994635582,0.021724998950958252
1757088612121894000,9.348893798828126,0.045099999755620956,0.0012374999932944775,0.027912499383091927
1757088612131447000,9.358447021484375,0.023099999874830246,0.00013749999925494194,0.03891250118613243
1757088612141000000,9.368,-0.002612499985843897,0.032999999821186066,0.06943749636411667
1757088612150552800,9.377552734375,-0.015949999913573265,0.032999999821186066,0.0999625027179718
1757088612160106000,9.38710595703125,-0.0037124999798834324,-0.0010999999940395355,0.10353749990463257
1757088612169659000,9.396658935546874,-0.01966249942779541,0.045237500220537186,0.09377499669790268
1757088612179212000,9.4062119140625,-0.10518749803304672,0.16128750145435333,0.07919999957084656
1757088612188765000,9.415764892578125,-0.25052499771118164,0.2675749957561493,0.07796250283718109
1757088612198317800,9.42531787109375,-0.41552498936653137,0.29081249237060547,0.11948750168085098
1757088612207870700,9.43487060546875,-0.5438125133514404,0.24199999868869781,0.10724999755620956
1757088612217423600,9.444423583984374,-0.6268625259399414,0.1882375031709671,0.10477499663829803
1757088612226977000,9.45397705078125,-0.6879125237464905,0.15152500569820404,0.09748750180006027
1757088612236529700,9.46352978515625,-0.7526749968528748,0.1601874977350235,0.08524999767541885
1757088612246082800,9.473082763671876,-0.764912486076355,0.21147499978542328,0.04619999974966049
1757088612255635700,9.4826357421875,-0.7343875169754028,0.3091000020503998,0.025437500327825546
1757088612265188600,9.492188720703124,-0.7246249914169312,0.39586248993873596,0.04372499883174896
1757088612274741500,9.501741455078125,-0.6916249990463257,0.3543374836444855,0.03272499889135361
1757088612284294700,9.511294677734375,-0.6415749788284302,0.31776249408721924,0.0424874983727932
1757088612293847600,9.52084765625,-0.607337474822998,0.29452499747276306,0.05719999969005585
1757088612303400700,9.530400634765625,-0.6048625111579895,0.2932874858379364,0.06091250106692314
1757088612312953600,9.53995361328125,-0.5878124833106995,0.23223750293254852,0.04619999974966049
1757088612322506800,9.5495068359375,-0.5425750017166138,0.10752499848604202,-0.013612499460577965
1757088612332059600,9.5590595703125,-0.4655750095844269,0.07095000147819519,-0.04908749833703041
1757088612341612500,9.568612548828124,-0.4142875075340271,0.10518749803304672,-0.06503749638795853
1757088612351165400,9.57816552734375,-0.34952500462532043,0.10271249711513519,-0.06737499684095383
1757088612360718600,9.587718505859375,-0.3067624866962433,0.07823749631643295,-0.040562499314546585
1757088612370271500,9.597271484375,-0.27623748779296875,0.08195000141859055,0.0009624999947845936
1757088612379824600,9.60682470703125,-0.24076250195503235,0.1307625025510788,0.030249999836087227
1757088612389377500,9.61637744140625,-0.19676250219345093,0.13928750157356262,0.037675000727176666
1757088612398930400,9.625930419921875,-0.16376249492168427,0.0672374963760376,0.04001250118017197
1757088612408483600,9.635483642578125,-0.1467124968767166,-0.002337499987334013,0.030249999836087227
1757088612418036500,9.645036376953126,-0.13089999556541443,-0.025575000792741776,-0.006324999965727329
1757088612427589600,9.654589599609375,-0.12099999934434891,0.002474999986588955,-0.03451250120997429
1757088612437142500,9.664142578125,-0.12718750536441803,0.047712501138448715,-0.043037500232458115
1757088612446695400,9.6736953125,-0.1882375031709671,0.13199999928474426,-0.008799999952316284
1757088612456248300,9.683248291015625,-0.32999998331069946,0.25657498836517334,0.05348749831318855
1757088612465801200,9.69280126953125,-0.46076250076293945,0.24928750097751617,0.09019999951124191
1757088612475354400,9.702354248046875,-0.515625,0.12718750536441803,0.0681999996304512
1757088612484907300,9.7119072265625,-0.5853375196456909,0.4263874888420105,-0.1297999918460846
1757088612494460400,9.72146044921875,-0.5988125205039978,0.6133875250816345,-0.23608750104904175
1757088612504013300,9.731013427734375,-0.510812520980835,0.08923749625682831,-0.11137499660253525
1757088612513566200,9.740566162109374,-0.41909998655319214,0.2297624945640564,-0.055275000631809235
1757088612523119400,9.750119384765625,-0.3922874927520752,0.8699625134468079,-0.08813749998807907
1757088612532672300,9.75967236328125,-0.3287625014781952,1.9743624925613403,-0.20184999704360962
1757088612542225200,9.76922509765625,-0.2750000059604645,1.4966875314712524,0.029012499377131462
1757088612551778300,9.7787783203125,-0.3642374873161316,0.035475000739097595,0.28325000405311584
1757088612561331200,9.788331298828124,-0.45086249709129333,-0.16238750517368317,0.0681999996304512
1757088612570884000,9.797884033203125,-0.443574994802475,-0.14409999549388885,-0.08084999769926071
1757088612580437200,9.807437255859375,-0.3348124921321869,-0.3909125030040741,-0.028324998915195465
1757088612589990100,9.816990234375,-0.4618625044822693,-0.29315000772476196,-0.33742499351501465
1757088612599543000,9.82654296875,-0.2835249900817871,-0.8185374736785889,-0.9531499743461609
1757088612609096200,9.83609619140625,-0.17599999904632568,-0.691349983215332,-0.8553875088691711
1757088612618649000,9.845649169921876,-0.0611874982714653,-0.5607249736785889,-0.668524980545044
1757088612628202200,9.8552021484375,0.09033749997615814,-0.6670125126838684,-0.4791874885559082
1757088612637755100,9.864755126953124,0.2246749997138977,-0.8111125230789185,-0.3008500039577484
1757088612647308000,9.87430810546875,0.18191249668598175,-0.7158250212669373,-0.20542499423027039
1757088612656861000,9.88386083984375,0.14533749222755432,-0.6560124754905701,-0.0943249985575676
1757088612666413800,9.893413818359376,0.08662500232458115,-0.20762500166893005,-0.05156249925494194
1757088612675967000,9.902967041015625,0.10491249710321426,-0.24791249632835388,0.002199999988079071
1757088612685520000,9.912519775390624,-0.14423750340938568,0.25657498836517334,0.06201250106096268
1757088612695072800,9.92207275390625,-0.1381874978542328,0.5388625264167786,0.09624999761581421
1757088612704626000,9.9316259765625,0.03904999792575836,0.42281249165534973,0.26358750462532043
1757088612714179000,9.941178955078126,-0.06847500056028366,-0.550962507724762,0.6424000263214111
1757088612723732000,9.95073193359375,-0.305525004863739,-0.7745375037193298,0.7804499864578247
1757088612733284900,9.960284912109374,-0.20652499794960022,-0.05609999969601631,0.652162492275238
1757088612742838000,9.969838134765626,-0.12223749607801437,0.40562498569488525,0.45182499289512634
1757088612752391000,9.979390869140625,-0.0147124994546175,0.4496249854564667,0.2367749959230423
1757088612761943800,9.98894384765625,0.1073874980211258,0.2480500042438507,0.010724999941885471
1757088612771496700,9.99849658203125,0.09638749808073044,0.27623748779296875,-0.10408750176429749
1757088612781049900,10.0080498046875,0.0658624991774559,0.27252501249313354,-0.13089999556541443
1757088612790602800,10.017602783203126,0.12815000116825104,0.10642500221729279,-0.08084999769926071
1757088612800155600,10.02715576171875,0.15619999170303345,-0.04386249929666519,-0.02708750031888485
1757088612809708500,10.03670849609375,0.12443749606609344,-0.04386249929666519,-0.02227500081062317
1757088612819261700,10.04626171875,0.014574999921023846,-0.06833750009536743,-0.07727500051259995
1757088612828814800,10.05581494140625,0.08662500232458115,-0.37619999051094055,-0.23608750104904175
1757088612838367700,10.06536767578125,0.04386249929666519,-0.420199990272522,-0.29218751192092896
1757088612847920600,10.074920654296875,-0.059950001537799835,-0.2516250014305115,-0.3081375062465668
1757088612857473500,10.0844736328125,-0.14794999361038208,0.025712499395012856,-0.2763749957084656
1757088612867026400,10.0940263671875,-0.3763374984264374,0.3287625014781952,-0.21408750116825104
1757088612876579600,10.10357958984375,-0.5376250147819519,0.38005000352859497,-0.15289999544620514
1757088612886132500,10.113132568359376,-0.5523374676704407,0.18095000088214874,-0.060087498277425766
1757088612895685600,10.122685546875,-0.5120499730110168,0.007424999959766865,0.013199999928474426
1757088612905238500,10.132238525390624,-0.4595249891281128,-0.08304999768733978,0.04372499883174896
1757088612914791400,10.14179150390625,-0.4265249967575073,-0.02681249938905239,0.04619999974966049
1757088612924344300,10.15134423828125,-0.41304999589920044,0.006187499966472387,0.02419999986886978
1757088612933897500,10.1608974609375,-0.4203374981880188,0.12099999934434891,-0.0015124999918043613
1757088612943450400,10.170450439453125,-0.45210000872612,0.28228750824928284,-0.033275000751018524
1757088612953003500,10.18000341796875,-0.491287499666214,0.432574987411499,-0.03932499885559082
1757088612962556400,10.189556396484376,-0.5046250224113464,0.5486249923706055,-0.02227500081062317
1757088612972109600,10.199109619140625,-0.5608624815940857,0.47905001044273376,0.020487500354647636
1757088612981662500,10.208662353515624,-0.7038624882698059,0.3372874855995178,0.07301250100135803
1757088612991215400,10.21821533203125,-1.005537509918213,0.15895000100135803,0.12677499651908875
1757088613000768300,10.227768310546875,-1.2573000192642212,0.2639999985694885,0.2367749959230423
1757088613010321200,10.237321044921876,-1.3293499946594238,0.5315750241279602,0.3638249933719635
1757088613019874300,10.246874267578125,-1.2780624628067017,0.7684875130653381,0.4310624897480011
1757088613029427500,10.256427490234374,-1.043487548828125,0.7684875130653381,0.3833499848842621
1757088613038980400,10.26598046875,-0.8711999654769897,1.0153000354766846,0.41029998660087585
1757088613048533200,10.275533203125,-0.8614374995231628,1.240112543106079,0.5238749980926514
1757088613058086100,10.285086181640626,-0.9066749811172485,1.4587374925613403,0.6362124681472778
1757088613067639000,10.29463916015625,-0.7453874945640564,1.4612125158309937,0.6509249806404114
1757088613077192200,10.304192138671874,-0.6744375228881836,1.743499994277954,0.6069250106811523
1757088613086745000,10.3137451171875,-0.7551500201225281,2.053837537765503,0.5568749904632568
1757088613096298000,10.323298095703125,-0.7282000184059143,2.0488874912261963,0.5581125020980835
1757088613105851100,10.33285107421875,-0.4961000084877014,2.1099374294281006,0.39063748717308044
1757088613115404300,10.342404296875,-0.20776249468326569,2.1392250061035156,0.26001250743865967
1757088613124957000,10.35195703125,-0.0648999959230423,2.591325044631958,0.22082500159740448
1757088613134510000,10.361510009765626,0.15015000104904175,2.950474977493286,0.29782500863075256
1757088613144063200,10.371063232421875,0.4665375053882599,2.908950090408325,0.47011250257492065
1757088613153616400,10.380616455078124,0.5533000230789185,2.852712392807007,0.643637478351593
1757088613163169000,10.3901689453125,0.3334375023841858,3.0739500522613525,0.7204999923706055
1757088613172722000,10.399721923828125,0.0976250022649765,3.110524892807007,0.870787501335144
1757088613182275000,10.409275146484376,0.08786249905824661,3.1447625160217285,0.9868375062942505
1757088613191828000,10.418827880859375,0.2209624946117401,3.177762508392334,1.1665500402450562
1757088613201380900,10.428380859375,0.28943750262260437,3.4123375415802,1.3191750049591064
1757088613210933800,10.437933837890625,0.48606249690055847,3.4086248874664307,1.473175048828125
1757088613220487000,10.44748681640625,0.6242499947547913,2.932187557220459,1.465749979019165
1757088613230040000,10.4570400390625,0.761062502861023,2.3970375061035156,1.7870874404907227
1757088613239593000,10.466593017578125,0.7426375150680542,1.967074990272522,2.099900007247925
1757088613249145900,10.476145751953124,0.5252500176429749,1.6237374544143677,2.476099967956543
1757088613258698800,10.48569873046875,0.4422000050544739,2.1759374141693115,2.9282000064849854
1757088613268251600,10.495251708984375,0.9869750142097473,2.4472250938415527,3.057724952697754
1757088613277804500,10.504804443359374,0.8916875123977661,3.6212000846862793,2.7314374446868896
1757088613287357700,10.514357666015625,0.866112470626831,3.745774984359741,2.308762550354004
1757088613296910800,10.523910888671875,1.081162452697754,1.9901750087738037,1.73208749294281
1757088613306463700,10.533463623046876,0.559487521648407,1.489400029182434,1.7712750434875488
1757088613316016600,10.5430166015625,-0.0966624990105629,0.9053000211715698,2.0706124305725098
1757088613325569500,10.552569580078124,-0.5950999855995178,0.10147500038146973,2.5078625679016113
1757088613335122700,10.562122802734375,-1.085012435913086,-0.7293000221252441,2.859724998474121
1757088613344675600,10.571675537109375,-1.0495375394821167,-0.7623000144958496,3.0369625091552734
1757088613354228500,10.581228515625,-0.768625020980835,-0.5802500247955322,2.997775077819824
1757088613363781600,10.59078173828125,-0.6830999851226807,0.08195000141859055,2.747387409210205
1757088613373334800,10.600334716796874,-0.38005000352859497,0.5559124946594238,2.292949914932251
1757088613382887700,10.6098876953125,0.2539624869823456,1.5076874494552612,1.6649874448776245
1757088613392440600,10.619440673828125,0.555774986743927,2.239462375640869,1.3046000003814697
1757088613401993500,10.628993408203126,0.5570124983787537,2.2554125785827637,1.0223125219345093
1757088613411546600,10.638546630859375,0.5264874696731567,2.3396999835968018,0.8317375183105469
1757088613421099500,10.648099609375,0.5398250222206116,2.62185001373291,0.5568749904632568
1757088613430652700,10.657652587890626,0.620537519454956,2.9419500827789307,0.11824999749660492
1757088613440205600,10.66720556640625,0.7060624957084656,3.2840499877929688,-0.256850004196167
1757088613449758500,10.676758544921874,0.6705874800682068,3.524674892425537,-0.28366249799728394
1757088613459311600,10.6863115234375,0.6375874876976013,3.5869624614715576,-0.01732499897480011
1757088613468864300,10.6958642578125,0.5715875029563904,3.5332000255584717,0.4553999900817871
1757088613478417400,10.70541748046875,0.47753748297691345,3.643199920654297,1.0443124771118164
1757088613487970300,10.71497021484375,0.4727250039577484,3.7421998977661133,1.5256999731063843
1757088613497523200,10.724523193359374,0.3517250120639801,3.6944875717163086,1.7052749395370483
1757088613507076400,10.734076416015625,-0.0013749999925494194,3.441624879837036,1.5769875049591064
1757088613516629200,10.743629150390625,-0.48028749227523804,3.13004994392395,0.9832624793052673
1757088613526182100,10.75318212890625,-0.9237250089645386,2.8051373958587646,0.2745875120162964
1757088613535735300,10.7627353515625,-1.3208249807357788,2.651137590408325,-0.31913748383522034
1757088613545288200,10.7722880859375,-1.5822124481201172,2.454512596130371,-0.7992874979972839
1757088613554841000,10.781841064453126,-1.6629250049591064,2.249224901199341,-1.1621500253677368
1757088613564394200,10.791394287109375,-1.6542625427246094,2.059887409210205,-1.4540624618530273
1757088613573947100,10.800947021484374,-1.7374500036239624,1.775262475013733,-1.7814500331878662
1757088613583500300,10.810500244140625,-1.721500039100647,1.6102625131607056,-2.1113123893737793
1757088613593053200,10.82005322265625,-1.6029750108718872,1.8387874364852905,-2.3643124103546143
1757088613602606000,10.829606201171876,-1.4136375188827515,2.287174940109253,-2.542649984359741
1757088613612159200,10.8391591796875,-1.2388750314712524,2.7366623878479004,-2.6586999893188477
1757088613621712100,10.848712158203124,-1.184012532234192,2.8979499340057373,-2.552412509918213
1757088613631265300,10.858265380859375,-1.2548249959945679,3.277862548828125,-2.2983124256134033
1757088613640818200,10.867818115234375,-1.389162540435791,3.494149923324585,-2.073499917984009
1757088613650371000,10.87737109375,-1.734974980354309,3.3378124237060547,-1.8059250116348267
1757088613659924000,10.886924072265625,-2.2371249198913574,2.9639499187469482,-1.5433000326156616
1757088613669477000,10.89647705078125,-2.725800037384033,2.470324993133545,-1.3122999668121338
1757088613679030000,10.906030029296875,-3.016474962234497,2.1441750526428223,-1.1621500253677368
1757088613688583200,10.915583251953125,-3.1814749240875244,2.0964624881744385,-1.0240999460220337
1757088613698136000,10.925135986328126,-3.299999952316284,2.1869375705718994,-0.8541499972343445
1757088613707689000,10.93468896484375,-3.4123375415802,2.278512477874756,-0.5537124872207642
1757088613717241900,10.944241943359375,-3.48933744430542,2.425225019454956,-0.22990000247955322
1757088613726794800,10.953794677734376,-3.502812385559082,2.5938000679016113,-0.03684999793767929
1757088613736347600,10.96334765625,-3.4808125495910645,2.8209500312805176,0.008249999955296516
1757088613745900800,10.97290087890625,-3.4183874130249023,3.0799999237060547,-0.057612501084804535
1757088613755453700,10.98245361328125,-3.363524913787842,3.29010009765625,-0.18108749389648438
1757088613765006800,10.9920068359375,-3.310999870300293,3.424575090408325,-0.29218751192092896
1757088613774559700,11.001559814453126,-3.2254750728607178,3.394049882888794,-0.38142499327659607
1757088613784112600,11.011112548828125,-3.1839499473571777,3.3793375492095947,-0.4351874887943268
1757088613793665800,11.020665771484374,-3.1740500926971436,3.470912456512451,-0.4179999828338623
1757088613803218700,11.03021875,-3.012899875640869,3.1679999828338623,-0.3251875042915344
1757088613812771600,11.039771484375,-2.790562391281128,2.8931374549865723,-0.23485000431537628
1757088613822324700,11.04932470703125,-2.5767500400543213,2.71589994430542,-0.10532499849796295
1757088613831877600,11.058877685546875,-2.3555123805999756,2.5753750801086426,0.04372499883174896
1757088613841430800,11.0684306640625,-2.1148874759674072,2.5460875034332275,0.16224999725818634
1757088613850983700,11.077983642578126,-1.8730249404907227,2.5693249702453613,0.24777500331401825
1757088613860536600,11.08753662109375,-1.6750249862670898,2.7086124420166016,0.3198249936103821
1757088613870089500,11.09708935546875,-1.5052125453948975,2.944424867630005,0.35653749108314514
1757088613879642600,11.106642578125,-1.2792999744415283,3.134999990463257,0.31501248478889465
1757088613889195800,11.11619580078125,-0.983537495136261,3.4073874950408936,0.21848750114440918
1757088613898748700,11.125748779296876,-0.6439124941825867,3.8130123615264893,0.04001250118017197
1757088613908301600,11.135301513671875,-0.24199999868869781,4.420212268829346,-0.22866250574588776
1757088613917854500,11.1448544921875,0.04386249929666519,5.264462471008301,-0.4254249930381775
1757088613927407400,11.154407470703125,-1.0788249969482422,7.718837261199951,0.10119999945163727
1757088613936960500,11.16396044921875,-1.9230749607086182,9.169050216674805,0.44206249713897705
1757088613946513400,11.173513427734376,-3.110524892807007,11.342374801635742,1.2018874883651733
1757088613956066600,11.183066650390625,-3.9059624671936035,13.306975364685059,2.1377124786376953
1757088613965619500,11.192619384765624,-4.040299892425537,11.54284954071045,2.453000068664551
1757088613975172400,11.20217236328125,-3.7581498622894287,7.020062446594238,2.01066255569458
1757088613984725500,11.2117255859375,-2.921187400817871,2.798949956893921,0.6179249882698059
1757088613994278100,11.221278076171876,-2.142937421798706,0.6206749677658081,0.4395875036716461
1757088614013384200,11.24038427734375,-0.34347498416900635,-0.5179625153541565,0.7523999810218811
1757088614022937300,11.249937255859376,-0.06847500056028366,-0.5227749943733215,0.5556374788284302
1757088614032490200,11.259490234375,-0.11247500032186508,-0.3909125030040741,0.28325000405311584
1757088614042043100,11.269043212890624,-0.1247124969959259,-0.1746249943971634,-0.01484999991953373
1757088614051596300,11.27859619140625,-0.1381874978542328,0.3115749955177307,-0.3764750063419342
1757088614061149200,11.288149169921875,-0.24447499215602875,0.9737749695777893,-0.6807624697685242
1757088614070702300,11.297702392578126,-0.3128125071525574,1.2303500175476074,-0.8701000213623047
1757088614080255200,11.307255126953125,-0.3018124997615814,1.1473000049591064,-0.9446250200271606
1757088614089808400,11.316808349609374,-0.24695000052452087,0.9420124888420105,-0.8908625245094299
1757088614099361300,11.326361328125,-0.15895000100135803,0.7196750044822693,-0.7393375039100647
1757088614108914200,11.3359140625,-0.059950001537799835,0.5291000008583069,-0.5402374863624573
1757088614118467000,11.345467041015626,0.03162499889731407,0.37152498960494995,-0.35089999437332153
1757088614128020000,11.35502001953125,0.08291249722242355,0.2297624945640564,-0.22261250019073486
1757088614137572900,11.36457275390625,0.08538749814033508,0.13199999928474426,-0.1518000066280365
1757088614147126000,11.3741259765625,0.06462500244379044,0.09776250272989273,-0.14079999923706055
1757088614156679200,11.38367919921875,0.04881250113248825,0.08195000141859055,-0.16266250610351562
1757088614166232000,11.393232177734374,0.0340999998152256,0.14300000667572021,-0.1835625022649765
1757088614175785000,11.402784912109375,0.02681249938905239,0.21752500534057617,-0.19442500174045563
1757088614185337900,11.412337890625,0.018149999901652336,0.30428749322891235,-0.20308749377727509
1757088614194890800,11.421890869140626,0.0340999998152256,0.4045250117778778,-0.20184999704360962
1757088614204444000,11.43144384765625,0.07562500238418579,0.49857500195503235,-0.16637499630451202
1757088614213997000,11.4409970703125,0.11962500214576721,0.5656750202178955,-0.10903749614953995
1757088614223549700,11.4505498046875,0.14162500202655792,0.5486249923706055,-0.050324998795986176
1757088614233102800,11.460102783203125,0.1611499935388565,0.45333749055862427,0.004674999974668026
1757088614242656000,11.469656005859376,0.18809999525547028,0.3482874929904938,0.0644875019788742
1757088614252209000,11.479208984375,0.19415000081062317,0.22481249272823334,0.12443749606609344
1757088614261761800,11.48876171875,0.14767499268054962,0.11742500215768814,0.30277499556541443
1757088614271314700,11.498314697265625,0.06338749825954437,-0.2381500005722046,0.3345375061035156
1757088614280867800,11.507867919921875,-0.012374999932944775,-0.345674991607666,0.22577500343322754
1757088614290420700,11.517420654296876,-0.040424998849630356,-0.21986250579357147,0.020487500354647636
1757088614299974000,11.526973876953125,-0.052662499248981476,0.04895000159740448,-0.1835625022649765
1757088614309526800,11.53652685546875,-0.10766249895095825,0.24928750097751617,-0.31913748383522034
