time,seconds_elapsed,z,y,x
1757087994643402200,0.10240234375,1.3385200500488281,0.8149279952049255,-1.0865130424499512
1757087994652955100,0.111955078125,0.2481749951839447,-2.9474620819091797,-1.3356150388717651
1757087994662508000,0.121508056640625,-0.5575760006904602,-6.29009485244751,-0.41737300157546997
1757087994672061000,0.13106103515625,-0.36339399218559265,-7.714363098144531,-1.4894909858703613
1757087994681613600,0.140613525390625,-0.35235801339149475,-7.732936859130859,-4.460925102233887
1757087994691166700,0.150166748046875,-0.9037100076675415,-7.41209077835083,-6.6177802085876465
1757087994700719400,0.15971923828125,-1.8087090253829956,-7.731560230255127,-8.105772018432617
1757087994710272300,0.169272216796875,-3.332412004470825,-8.991838455200195,-8.966334342956543
1757087994719825200,0.1788251953125,-4.932506084442139,-10.391190528869629,-8.474987983703613
1757087994729378000,0.1883779296875,-6.302567958831787,-11.751995086669922,-7.479813098907471
1757087994738931000,0.197930908203125,-6.566397190093994,-13.024785995483398,-6.734355926513672
1757087994748483800,0.20748388671875,-6.142763137817383,-13.766975402832031,-6.973100185394287
1757087994758037000,0.217037109375,-6.009492874145508,-14.720417976379395,-8.079419136047363
1757087994767590000,0.22658984375,-5.371957778930664,-15.683773040771484,-8.309403419494629
1757087994777142800,0.236142822265625,-4.870861053466797,-16.090009689331055,-8.582737922668457
1757087994786695400,0.2456953125,-5.041264057159424,-16.648540496826172,-8.639365196228027
1757087994796248300,0.255248291015625,-4.797794818878174,-16.810474395751953,-6.453641891479492
1757087994805801500,0.264801513671875,-4.996716022491455,-15.983719825744629,-3.708717107772827
1757087994815354400,0.274354248046875,-5.749406814575195,-14.544269561767578,0.20421400666236877
1757087994824907300,0.2839072265625,-6.04208517074585,-12.844534873962402,4.166662216186523
1757087994834460200,0.293460205078125,-3.5548360347747803,-10.972420692443848,7.509472846984863
1757087994844013000,0.303012939453125,-1.525406002998352,-8.825239181518555,9.228873252868652
1757087994853565700,0.312565673828125,0.11775799840688705,-7.619758129119873,10.062973022460938
1757087994863118800,0.322118896484375,2.033160924911499,-6.397068023681641,10.084975242614746
1757087994872671700,0.331671630859375,4.084921836853027,-5.034396171569824,9.949603080749512
1757087994882224600,0.341224609375,5.907468795776367,-4.283395767211914,10.402673721313477
1757087994891777300,0.35077734375,6.098844051361084,-4.102377891540527,11.433902740478516
1757087994901330400,0.360330322265625,4.124673843383789,-3.6259889602661133,11.973329544067383
1757087994910883000,0.369883056640625,0.6004260182380676,-2.902838945388794,12.487754821777344
1757087994920436200,0.379436279296875,-3.174004077911377,-1.976274013519287,14.087203979492188
1757087994939542000,0.3985419921875,-8.790645599365234,1.37247896194458,18.837791442871094
1757087994949095000,0.408094970703125,-10.247443199157715,2.9653170108795166,20.487340927124023
1757087994958647800,0.417647705078125,-11.059181213378906,4.456111907958984,20.981098175048828
1757087994968200700,0.42720068359375,-11.44537353515625,5.6547980308532715,20.03615379333496
1757087994977753600,0.436753662109375,-11.238912582397461,6.2462158203125,17.298553466796875
1757087994987306500,0.446306396484375,-9.652256965637207,6.537813186645508,13.404435157775879
1757087994996859400,0.455859375,-7.732477188110352,6.699798107147217,9.945893287658691
1757087995006412300,0.465412353515625,-6.313599109649658,6.7519659996032715,7.771166801452637
1757087995015965200,0.474965087890625,-5.667961120605469,6.385554790496826,7.142566204071045
1757087995025518000,0.48451806640625,-4.8132147789001465,6.428477764129639,6.668331146240234
1757087995035071200,0.4940712890625,-4.03367280960083,6.52381706237793,6.155217170715332
1757087995044623600,0.50362353515625,-3.8589930534362793,6.413259029388428,4.992931842803955
1757087995054176800,0.5131767578125,-3.743151903152466,6.122467041015625,3.590989112854004
1757087995063730000,0.52272998046875,-3.660792112350464,5.928627967834473,2.1648800373077393
1757087995073282800,0.53228271484375,-3.0625979900360107,5.302239894866943,0.8820769786834717
1757087995082835700,0.541835693359375,-2.2188100814819336,4.603250026702881,-0.5151399970054626
1757087995092388400,0.551388427734375,-2.032219886779785,3.982664108276367,-2.2146079540252686
1757087995101941200,0.560941162109375,-1.9720619916915894,3.0643060207366943,-3.7061750888824463
1757087995111494100,0.570494140625,-1.5436880588531494,2.271064043045044,-4.3012518882751465
1757087995121047000,0.580047119140625,-2.3872759342193604,1.2776000499725342,-4.265729904174805
1757087995130600000,0.589599853515625,-4.890416145324707,0.7774919867515564,-5.054358005523682
1757087995140153000,0.599153076171875,-3.357806921005249,0.9233419895172119,-5.336000919342041
1757087995149706000,0.6087060546875,0.5331479907035828,0.1189500018954277,-4.431332111358643
1757087995159259000,0.6182587890625,4.36118221282959,-0.9504200220108032,-3.3421390056610107
1757087995168811800,0.627811767578125,5.1143951416015625,-1.4982630014419556,-3.97721791267395
1757087995178364700,0.63736474609375,2.497438907623291,-2.026947021484375,-4.757475852966309
1757087995187917600,0.64691748046875,0.060858000069856644,-1.7790030241012573,-4.151753902435303
1757087995197470500,0.656470458984375,-1.3624839782714844,-1.6128050088882446,-2.7202439308166504
1757087995207023400,0.6660234375,-0.4946790039539337,-1.5703680515289307,-1.3135730028152466
1757087995216576300,0.675576171875,1.7969989776611328,-1.6614580154418945,-0.3906500041484833
1757087995226129200,0.685129150390625,1.9626250267028809,-1.3340970277786255,0.15895000100135803
1757087995235682000,0.69468212890625,1.657228946685791,-0.7450900077819824,0.2505730092525482
1757087995245235200,0.704235107421875,0.15444600582122803,-1.4296159744262695,-0.7462360262870789
1757087995254788000,0.7137880859375,-0.5442349910736084,-1.8899379968643188,-1.7919260263442993
1757087995264341000,0.723341064453125,1.4610249996185303,-2.1385691165924072,-0.02659199945628643
1757087995273893600,0.7328935546875,0.40070998668670654,-2.6247689723968506,1.343366026878357
1757087995283446800,0.74244677734375,0.12114399671554565,-2.2905030250549316,2.1080920696258545
1757087995292999700,0.751999755859375,0.2833609879016876,-3.0289199352264404,3.85567307472229
1757087995302552600,0.761552490234375,0.7771599888801575,-3.565316915512085,4.966287136077881
1757087995312105200,0.771105224609375,-0.10501900315284729,-2.8031089305877686,4.358495235443115
1757087995321658400,0.780658447265625,-1.7082719802856445,-2.013334035873413,2.9916439056396484
1757087995331211300,0.790211181640625,-1.6395210027694702,0.21864700317382812,-0.013508999720215797
1757087995340764200,0.79976416015625,-5.570644855499268,1.9765470027923584,-5.118419170379639
1757087995350317000,0.809317138671875,-3.0164270401000977,2.5428409576416016,-6.365414142608643
1757087995359870000,0.818869873046875,-0.570019006729126,3.4115419387817383,-7.1472930908203125
1757087995369422800,0.8284228515625,1.451321005821228,3.3007559776306152,-7.354568004608154
1757087995378975700,0.837975830078125,2.971242904663086,2.178462028503418,-7.684793949127197
1757087995388528600,0.847528564453125,3.347109079360962,0.8662030100822449,-7.942907810211182
1757087995398081500,0.85708154296875,2.9969520568847656,1.1065349578857422,-6.3757500648498535
1757087995407634400,0.866634521484375,1.885787010192871,4.300754070281982,-2.08841609954834
1757087995417187300,0.876187255859375,1.2032190561294556,4.5489420890808105,-1.408100962638855
1757087995426740200,0.885740234375,0.8943399786949158,4.990160942077637,-1.0792969465255737
1757087995436293000,0.895293212890625,0.9313309788703918,5.3281779289245605,-0.7861499786376953
1757087995445846000,0.904845947265625,1.0618460178375244,5.551520824432373,-0.07691100239753723
1757087995455399000,0.91439892578125,0.6009629964828491,5.477500915527344,0.9188330173492432
1757087995464952000,0.9239521484375,1.1768640279769897,5.38010311126709,0.7323070168495178
1757087995474505000,0.9335048828125,0.0040790000930428505,4.616052150726318,1.215567946434021
1757087995484057900,0.943057861328125,0.12058699876070023,4.6864519119262695,1.1594189405441284
1757087995493610500,0.952610595703125,1.8484920263290405,5.048505783081055,1.2624109983444214
1757087995503163400,0.962163330078125,3.266693115234375,5.658945083618164,0.6103000044822693
1757087995512716300,0.97171630859375,4.238953113555908,5.780656814575195,0.6849769949913025
1757087995522269200,0.981269287109375,4.680300235748291,5.561309814453125,1.8120959997177124
1757087995531822000,0.990822021484375,4.6452860832214355,3.5584700107574463,1.9616869688034058
1757087995541375200,1.000375244140625,0.9818620085716248,-2.317456007003784,2.40596604347229
1757087995550928000,1.009927978515625,-2.1251420974731445,-16.090856552124023,-7.793182849884033
1757087995560481000,1.01948095703125,-3.781270980834961,-33.64007568359375,-18.031944274902344
1757087995579586800,1.0385869140625,-2.910844087600708,-33.72053527832031,11.175097465515137
1757087995589139700,1.0481396484375,2.9667210578918457,-26.71010971069336,-1.3843510150909424
1757087995598692600,1.057692626953125,4.938541889190674,-15.929328918457031,-7.711298942565918
1757087995608245500,1.06724560546875,7.429502010345459,-5.690652847290039,-4.079811096191406
1757087995617798400,1.07679833984375,9.031291007995605,0.6639270186424255,-0.7461280226707458
1757087995627351000,1.08635107421875,6.6106109619140625,3.2642788887023926,1.438770055770874
1757087995636904000,1.095904052734375,3.200556993484497,4.786133766174316,2.566992998123169
1757087995646456800,1.105456787109375,-0.6896539926528931,6.027403831481934,2.997227907180786
1757087995656010000,1.115010009765625,-5.173233985900879,6.984507083892822,2.7764580249786377
1757087995665563100,1.124563232421875,-8.250327110290527,6.623277187347412,1.118641972541809
1757087995675115800,1.13411572265625,-6.74928617477417,4.327638149261475,-1.2301230430603027
1757087995684669000,1.1436689453125,-3.6610829830169678,1.5987080335617065,-1.705214023590088
1757087995694221600,1.1532216796875,-1.825793981552124,-0.30181801319122314,-0.30480000376701355
1757087995703774500,1.1627744140625,-0.6488810181617737,-1.5714789628982544,0.8852760195732117
1757087995713327400,1.172327392578125,0.3668380081653595,-2.4682509899139404,1.2681920528411865
1757087995722880300,1.18188037109375,1.0160759687423706,-2.8871569633483887,1.0535449981689453
1757087995732433200,1.19143310546875,1.5156129598617554,-2.45243501663208,0.18199600279331207
1757087995741986300,1.200986328125,2.771634101867676,-1.3887439966201782,-0.20235100388526917
1757087995751539000,1.2105390625,2.864351987838745,-0.3764500021934509,0.07248400151729584
1757087995761091800,1.220091796875,2.273013114929199,0.16974200308322906,0.5275779962539673
1757087995770645000,1.22964501953125,1.417119026184082,0.21286000311374664,0.6555960178375244
1757087995780198000,1.239197998046875,0.7559170126914978,0.016220999881625175,0.6465439796447754
1757087995789750800,1.248750732421875,0.32857900857925415,-0.09654500335454941,0.6617069840431213
1757087995799303700,1.2583037109375,-0.021800000220537186,-0.2246360033750534,0.7364240288734436
1757087995808856300,1.267856201171875,-0.31541600823402405,-0.38576599955558777,0.8405010104179382
1757087995818409500,1.277409423828125,-0.5940960049629211,-0.5500029921531677,0.8265789747238159
1757087995827962000,1.286962158203125,-0.8718529939651489,-0.6350629925727844,0.741379976272583
1757087995837515000,1.296514892578125,-0.9634519815444946,-0.5746229887008667,0.6878719925880432
1757087995847068000,1.30606787109375,-0.7847170233726501,-0.47381800413131714,0.5191649794578552
1757087995856621000,1.31562109375,-0.5350769758224487,-0.31389299035072327,0.33030998706817627
1757087995866174000,1.325174072265625,-0.29817599058151245,-0.1506579965353012,0.08004800230264664
1757087995875726800,1.334726806640625,-0.1236179992556572,-0.05254499986767769,-0.10357800126075745
1757087995885279700,1.34427978515625,-0.07081899791955948,-0.060857001692056656,-0.18243299424648285
1757087995894832600,1.35383251953125,-0.20515699684619904,-0.17372199892997742,-0.15206100046634674
1757087995904385800,1.3633857421875,-0.3496690094470978,-0.2517530024051666,-0.07193499803543091
1757087995913938400,1.3729384765625,-0.41640999913215637,-0.29521599411964417,-0.0009210000280290842
1757087995923491300,1.3824912109375,-0.38729798793792725,-0.3761489987373352,0.05430300161242485
1757087995933044200,1.392044189453125,-0.17706100642681122,-0.39229100942611694,0.07959800213575363
1757087995942597000,1.40159716796875,0.16754800081253052,-0.3669539988040924,0.16519199311733246
1757087995952150300,1.411150390625,0.5305420160293579,-0.3027780055999756,0.24008500576019287
1757087995961703000,1.420702880859375,0.8226169943809509,-0.2271759957075119,0.24390900135040283
1757087995971255800,1.430255859375,0.8713909983634949,-0.16905300319194794,0.23944100737571716
1757087995980808700,1.43980859375,0.696457028388977,-0.15685999393463135,0.22869500517845154
1757087995990361900,1.44936181640625,0.4309859871864319,-0.1541289985179901,0.23688699305057526
1757087995999914800,1.458914794921875,0.14025600254535675,-0.19869400560855865,0.25125300884246826
1757087996009467400,1.46846728515625,-0.0636100023984909,-0.25506699085235596,0.23089799284934998
1757087996019020300,1.478020263671875,-0.15963199734687805,-0.2779560089111328,0.21204900741577148
1757087996028573200,1.4875732421875,-0.1883769929409027,-0.33700600266456604,0.17350099980831146
1757087996038126000,1.4971259765625,-0.15281899273395538,-0.36284101009368896,0.14348499476909637
1757087996047679000,1.506678955078125,-0.08298599720001221,-0.33625999093055725,0.1308020055294037
1757087996057232000,1.51623193359375,-0.004631999880075455,-0.2712950110435486,0.15271200239658356
1757087996066784800,1.52578466796875,0.03631899878382683,-0.2327760010957718,0.14814899861812592
1757087996076338000,1.535337890625,0.04459000006318092,-0.23065300285816193,0.10024099797010422
1757087996085890800,1.544890869140625,0.03155500069260597,-0.19819000363349915,0.027677999809384346
1757087996095443700,1.554443603515625,0.03493800014257431,-0.1401890069246292,-0.0288270004093647
1757087996104996600,1.56399658203125,0.05420500040054321,-0.14021000266075134,-0.07058200240135193
1757087996114549500,1.573549560546875,0.08627899736166,-0.14795899391174316,-0.1049640029668808
1757087996124102400,1.583102294921875,0.15079699456691742,-0.16525700688362122,-0.08032199740409851
1757087996133655300,1.5926552734375,0.20107600092887878,-0.27349600195884705,-0.07791700214147568
1757087996143208000,1.6022080078125,0.22639200091362,-0.2950209975242615,-0.02111399918794632
1757087996152761000,1.611760986328125,0.2077219933271408,-0.28265801072120667,0.014775999821722507
1757087996162314200,1.621314208984375,0.17663000524044037,-0.2580380141735077,0.04704599827528
1757087996171867000,1.630866943359375,0.1404159963130951,-0.23068900406360626,0.0730850026011467
1757087996181420000,1.640419921875,0.08583299815654755,-0.22462299466133118,0.08638100326061249
1757087996190972700,1.64997265625,0.03649299964308739,-0.22316600382328033,0.08728399872779846
1757087996200525600,1.659525634765625,-0.001617999980226159,-0.17881900072097778,0.06810499727725983
1757087996210078500,1.669078369140625,-0.02651900053024292,-0.1656070053577423,0.06116899847984314
1757087996219631400,1.67863134765625,-0.029326999559998512,-0.2602109909057617,0.0355990007519722
1757087996229184300,1.688184326171875,0.002409999957308173,-0.2976120114326477,0.003918000031262636
1757087996238737200,1.697737060546875,0.030403999611735344,-0.3019070029258728,-0.03303299844264984
1757087996248290000,1.7072900390625,0.04135100170969963,-0.25382599234580994,-0.049258001148700714
1757087996257843000,1.716843017578125,0.05864600092172623,-0.19856299459934235,-0.03216199949383736
1757087996267395800,1.726395751953125,0.05710500106215477,-0.18651199340820312,-0.03833499923348427
1757087996276948700,1.73594873046875,0.076323002576828,-0.18413999676704407,-0.039342001080513
1757087996286502000,1.745501953125,0.08817999809980392,-0.20315100252628326,-0.026957999914884567
1757087996296054800,1.7550546875,0.09079799801111221,-0.2388869971036911,-0.036251001060009
1757087996305607400,1.764607421875,0.08874300122261047,-0.2534349858760834,-0.07466500252485275
1757087996315160600,1.77416064453125,0.05942400172352791,-0.241908997297287,-0.10648299753665924
1757087996324713500,1.78371337890625,0.02033899910748005,-0.22068800032138824,-0.10249699652194977
1757087996334266000,1.79326611328125,-0.01196799986064434,-0.22109800577163696,-0.11670300364494324
1757087996343819000,1.802819091796875,-0.04207099974155426,-0.23570500314235687,-0.10974299907684326
1757087996353372200,1.8123720703125,-0.006916999816894531,-0.2334509938955307,-0.08940800279378891
1757087996362925000,1.821925048828125,0.02648100070655346,-0.24322600662708282,-0.08835899829864502
1757087996372478000,1.83147802734375,0.026545999571681023,-0.2646709978580475,-0.06736300140619278
1757087996382030800,1.84103076171875,0.05126100033521652,-0.23316699266433716,-0.03152000159025192
1757087996391583700,1.850583740234375,0.0450580008327961,-0.19930799305438995,-0.028943000361323357
1757087996401136600,1.86013671875,0.048569999635219574,-0.20353999733924866,-0.013163000345230103
1757087996410689500,1.869689453125,0.04741699993610382,-0.1769849956035614,-0.04098900035023689
1757087996420242400,1.879242431640625,0.057475000619888306,-0.14605000615119934,-0.0691550001502037
1757087996429795300,1.88879541015625,0.057829998433589935,-0.1513189971446991,-0.09337600320577621
1757087996439348200,1.89834814453125,0.05336900055408478,-0.1400970071554184,-0.10894899815320969
1757087996448901000,1.907901123046875,0.0220320001244545,-0.14794600009918213,-0.10057400166988373
1757087996458454000,1.9174541015625,-0.000783999974373728,-0.18654200434684753,-0.06998000293970108
1757087996468007000,1.9270068359375,-0.015304000116884708,-0.20331600308418274,-0.04778800159692764
1757087996477559800,1.936559814453125,-0.0043020001612603664,-0.23192299902439117,-0.03374100103974342
1757087996487112700,1.94611279296875,-0.018838999792933464,-0.24590100347995758,-0.01375999953597784
1757087996496665600,1.95566552734375,-0.010312000289559364,-0.22411499917507172,-0.021902000531554222
1757087996506218500,1.965218505859375,-0.004939999897032976,-0.19752000272274017,-0.01358100026845932
1757087996515771400,1.974771484375,-0.007046999875456095,-0.16901899874210358,-0.05056300014257431
1757087996525324300,1.98432421875,0.0020099999383091927,-0.16007000207901,-0.0831810012459755
1757087996534877200,1.993877197265625,0.010231000371277332,-0.16114099323749542,-0.11599099636077881
1757087996544430000,2.00343017578125,-0.0028639999218285084,-0.15510700643062592,-0.1148419976234436
1757087996553983000,2.01298291015625,-0.026965999975800514,-0.1799750030040741,-0.09310899674892426
1757087996563536000,2.022535888671875,-0.05450800061225891,-0.19960199296474457,-0.054347001016139984
1757087996573088800,2.0320888671875,-0.0831419974565506,-0.21616600453853607,0.007459999993443489
1757087996582641700,2.0416416015625,-0.1123410016298294,-0.23198699951171875,0.0680989995598793
1757087996592194800,2.05119482421875,-0.13748499751091003,-0.26175400614738464,0.09808800369501114
1757087996601747700,2.060747802734375,-0.16311000287532806,-0.2647959887981415,0.12403000146150589
1757087996611300600,2.070300537109375,-0.17559599876403809,-0.28657999634742737,0.15028199553489685
1757087996620853500,2.079853515625,-0.17795200645923615,-0.31068098545074463,0.14501799643039703
1757087996630406100,2.08940625,-0.20007899403572083,-0.33251500129699707,0.11440499871969223
1757087996639959000,2.098958984375,-0.2048649936914444,-0.33061400055885315,0.0825439989566803
1757087996649512000,2.108511962890625,-0.21619799733161926,-0.2978860139846802,0.04999599978327751
1757087996659065000,2.118065185546875,-0.2155269980430603,-0.26774701476097107,0.02560500055551529
1757087996668618000,2.127617919921875,-0.21254399418830872,-0.2688319981098175,0.015998000279068947
1757087996678171000,2.1371708984375,-0.20044200122356415,-0.2679330110549927,-0.025001000612974167
1757087996687723800,2.146723876953125,-0.17063400149345398,-0.2793079912662506,-0.052675001323223114
1757087996697276700,2.156276611328125,-0.13995400071144104,-0.2787240147590637,-0.04951599985361099
1757087996706829600,2.16582958984375,-0.09506800025701523,-0.2710320055484772,-0.05120199918746948
1757087996716382500,2.175382568359375,-0.05969199910759926,-0.25169000029563904,-0.07784199714660645
1757087996725935400,2.184935302734375,-0.026776999235153198,-0.21096199750900269,-0.0824659988284111
1757087996735488300,2.19448828125,-0.0006600000197067857,-0.19194799661636353,-0.08889099955558777
1757087996745041200,2.204041259765625,0.012470999732613564,-0.18010400235652924,-0.08599700033664703
1757087996754594000,2.213593994140625,0.05393899977207184,-0.1732349991798401,-0.09211499989032745
1757087996764147000,2.22314697265625,0.10217799991369247,-0.17095600068569183,-0.059167999774217606
1757087996773699800,2.232699951171875,0.12745800614356995,-0.16611400246620178,-0.03465700149536133
1757087996783252700,2.242252685546875,0.16513000428676605,-0.16373400390148163,-0.0364920012652874
1757087996792805600,2.2518056640625,0.17841599881649017,-0.18302799761295319,-0.04976699873805046
1757087996802358500,2.261358642578125,0.18456099927425385,-0.2097889930009842,-0.08062899857759476
1757087996811911400,2.270911376953125,0.1590539962053299,-0.22739200294017792,-0.12795299291610718
1757087996821464300,2.28046435546875,0.13049300014972687,-0.22833099961280823,-0.13849300146102905
1757087996831017200,2.290017333984375,0.0875919982790947,-0.20984700322151184,-0.11175400018692017
1757087996840570000,2.299570068359375,0.028922999277710915,-0.19342200458049774,-0.08380299806594849
1757087996850123000,2.309123046875,0.020887000486254692,-0.2005079984664917,-0.041437000036239624
1757087996859676000,2.318676025390625,-0.00941499974578619,-0.2145089954137802,-0.02653999999165535
1757087996869228800,2.328228759765625,-0.006643000058829784,-0.21619099378585815,0.0006370000191964209
1757087996878781700,2.33778173828125,0.009158000349998474,-0.21324299275875092,-0.014662000350654125
1757087996888334600,2.34733447265625,0.032687000930309296,-0.19863399863243103,-0.04298900067806244
1757087996897887500,2.356887451171875,0.03175099939107895,-0.1699810028076172,-0.06723099946975708
1757087996907440400,2.3664404296875,0.01704300008714199,-0.15832799673080444,-0.08518800139427185
1757087996916993300,2.3759931640625,0.02616100013256073,-0.17768999934196472,-0.06788499653339386
1757087996926546200,2.385546142578125,0.023858999833464622,-0.1921209990978241,-0.04888400062918663
1757087996936099000,2.39509912109375,0.01783199980854988,-0.23015999794006348,-0.01955600082874298
1757087996945652000,2.40465185546875,0.017139999195933342,-0.24624399840831757,0.017142999917268753
1757087996955204900,2.414204833984375,0.01192499976605177,-0.25967898964881897,0.038100000470876694
1757087996964757800,2.4237578125,-0.00009200000204145908,-0.26580798625946045,0.044036999344825745
1757087996974310700,2.433310546875,-0.03889299929141998,-0.2502230107784271,0.05185399949550629
1757087996983863800,2.44286376953125,-0.0464479997754097,-0.22989000380039215,0.04792900010943413
1757087996993416400,2.45241650390625,-0.03791999816894531,-0.21458999812602997,0.02369300089776516
1757087997002969600,2.461969482421875,-0.007267000153660774,-0.218640998005867,0.007350000087171793
1757087997012522500,2.4715224609375,0.00824199989438057,-0.22298599779605865,-0.01705699972808361
1757087997022075400,2.481075439453125,0.030070999637246132,-0.2373490035533905,-0.05826700106263161
1757087997031628000,2.4906279296875,0.07803899794816971,-0.23990300297737122,-0.06322900205850601
1757087997041181200,2.50018115234375,0.09874899685382843,-0.2211029976606369,-0.0744829997420311
1757087997050734000,2.509734130859375,0.0843769982457161,-0.19294099509716034,-0.09148100018501282
1757087997060287000,2.519286865234375,0.052907999604940414,-0.18387700617313385,-0.09155400097370148
1757087997069840000,2.52883984375,0.032405998557806015,-0.19867199659347534,-0.08940699696540833
1757087997079392800,2.538392822265625,0.01546700019389391,-0.23738999664783478,-0.09905099868774414
1757087997088945700,2.547945556640625,0.0038920000661164522,-0.266418993473053,-0.09244299679994583
1757087997098498600,2.55749853515625,-0.0005530000198632479,-0.2497600018978119,-0.07262399792671204
1757087997108051500,2.567051513671875,-0.005071000196039677,-0.22344300150871277,-0.06048699840903282
1757087997117604400,2.576604248046875,-0.023188000544905663,-0.20891200006008148,-0.04202700033783913
1757087997127157200,2.5861572265625,-0.031227000057697296,-0.2159530073404312,-0.04486899822950363
1757087997136710100,2.595710205078125,-0.0070039997808635235,-0.25163599848747253,-0.03655700013041496
1757087997146263000,2.605262939453125,0.031975001096725464,-0.260998010635376,-0.033431001007556915
1757087997155816000,2.61481591796875,0.06880400329828262,-0.2560569941997528,-0.030460000038146973
1757087997165368800,2.624368896484375,0.09684500098228455,-0.24870100617408752,-0.020836999639868736
1757087997174921500,2.63392138671875,0.09420400112867355,-0.2149910032749176,-0.013623000122606754
1757087997184474600,2.643474609375,0.07643499970436096,-0.2027900069952011,-0.013414000160992146
1757087997194027500,2.653027587890625,0.07365400344133377,-0.18578800559043884,-0.00835500005632639
1757087997203580400,2.662580322265625,0.07591100037097931,-0.2045309990644455,0.0077599999494850636
1757087997213133300,2.67213330078125,0.06922700256109238,-0.23278899490833282,0.0044999998062849045
1757087997222686200,2.681686279296875,0.040323998779058456,-0.2633120119571686,0.0009389999904669821
1757087997232239000,2.691239013671875,-0.00023600000713486224,-0.29858699440956116,-0.016512999311089516
1757087997241792000,2.7007919921875,-0.0181450005620718,-0.3148129880428314,-0.04025899991393089
1757087997251345000,2.710344970703125,-0.012253999710083008,-0.2881399989128113,-0.06288900226354599
1757087997260897800,2.719897705078125,0.006742999888956547,-0.2760840058326721,-0.08675800263881683
1757087997270450700,2.72945068359375,0.024466000497341156,-0.2451220005750656,-0.10709699988365173
1757087997280003600,2.739003662109375,0.014270000159740448,-0.23825900256633759,-0.12872399389743805
1757087997289556500,2.748556396484375,0.03476300090551376,-0.25286200642585754,-0.1269879937171936
1757087997299109400,2.758109375,0.06390699744224548,-0.27455899119377136,-0.12122900038957596
1757087997308662000,2.767662109375,0.0920879989862442,-0.27435100078582764,-0.0890669971704483
1757087997318215200,2.777215087890625,0.10347499698400497,-0.28349700570106506,-0.08216500282287598
1757087997327768300,2.786768310546875,0.08136399835348129,-0.3282279968261719,-0.07659299671649933
1757087997337321000,2.796321044921875,0.08463600277900696,-0.35344699025154114,-0.0679979994893074
1757087997346873900,2.805873779296875,0.09412200003862381,-0.41923999786376953,-0.09336499869823456
1757087997356426800,2.8154267578125,0.1548919975757599,-0.4490810036659241,-0.11215300112962723
1757087997365979600,2.824979736328125,0.23859700560569763,-0.45491600036621094,-0.11305999755859375
1757087997375532500,2.834532470703125,0.2982710003852844,-0.38634899258613586,-0.0917230024933815
1757087997385085400,2.84408544921875,0.3672809898853302,-0.3326230049133301,-0.1353210061788559
1757087997394638300,2.853638427734375,0.4295490086078644,-0.2627280056476593,-0.1926250010728836
1757087997404191200,2.863191162109375,0.48792698979377747,-0.21547900140285492,-0.2892189919948578
1757087997413744000,2.872744140625,0.5716819763183594,-0.1385979950428009,-0.4016740024089813
1757087997423297000,2.882297119140625,0.6632310152053833,-0.06559400260448456,-0.49941399693489075
1757087997432850000,2.891849853515625,0.6967359781265259,-0.010501000098884106,-0.5693439841270447
1757087997442402800,2.90140283203125,0.7202489972114563,0.05321500077843666,-0.6032739877700806
1757087997451955700,2.910955810546875,0.7364590167999268,0.1354759931564331,-0.5865669846534729
1757087997461508600,2.920508544921875,0.6846129894256592,0.21514299511909485,-0.5468119978904724
1757087997471061500,2.9300615234375,0.6146000027656555,0.24211899936199188,-0.515550971031189
1757087997480614400,2.939614501953125,0.5891849994659424,0.2519969940185547,-0.503591001033783
1757087997490167300,2.949167236328125,0.5893599987030029,0.26131200790405273,-0.5033079981803894
1757087997499720200,2.95872021484375,0.6134520173072815,0.2677049934864044,-0.4867880046367645
1757087997509273000,2.968273193359375,0.6013360023498535,0.315667986869812,-0.5491759777069092
1757087997518826000,2.977825927734375,0.5816199779510498,0.40783900022506714,-0.5629330277442932
1757087997528379100,2.987379150390625,0.6104040145874023,0.4603790044784546,-0.567592978477478
1757087997537932000,2.99693212890625,0.6277390122413635,0.5066310167312622,-0.5675650238990784
1757087997547484700,3.006484619140625,0.6538540124893188,0.5255100131034851,-0.5225520133972168
1757087997557037600,3.01603759765625,0.7025390267372131,0.5535249710083008,-0.4264320135116577
1757087997566590500,3.025590576171875,0.7059879899024963,0.6160500049591064,-0.39450201392173767
1757087997576143400,3.035143310546875,0.651187002658844,0.6967639923095703,-0.33219200372695923
1757087997585696300,3.0446962890625,0.5721759796142578,0.6663740277290344,-0.3107700049877167
1757087997595249200,3.054249267578125,0.38678500056266785,0.5941830277442932,-0.3469479978084564
1757087997604802300,3.06380224609375,-0.03612599894404411,0.535306990146637,-0.2976840138435364
1757087997614355200,3.073355224609375,-3.09661602973938,0.16723400354385376,0.39890700578689575
1757087997623908000,3.082908203125,-6.446928977966309,-0.4423240125179291,0.9251300096511841
1757087997633461000,3.0924609375,-5.760422229766846,-0.5841050148010254,0.4898410141468048
1757087997643014000,3.102013916015625,-3.6486639976501465,-0.5749220252037048,0.6662830114364624
1757087997652566800,3.11156689453125,-1.8677270412445068,-0.7186300158500671,1.320647954940796
1757087997662119700,3.12111962890625,-1.3357700109481812,-0.8432890176773071,1.1217950582504272
1757087997671672300,3.13067236328125,-0.6980140209197998,-1.0136950016021729,0.5217530131340027
1757087997681225200,3.14022509765625,-0.04238000139594078,-1.2311960458755493,0.48149898648262024
1757087997690778000,3.149778076171875,-0.20257499814033508,-0.6691920161247253,0.23816099762916565
1757087997700331000,3.1593310546875,-1.06597900390625,0.002130999928340316,-0.2784790098667145
1757087997709884200,3.16888427734375,-1.909201979637146,0.27041101455688477,-0.776432991027832
1757087997719437000,3.17843701171875,-1.734637975692749,0.40876299142837524,-0.4677579998970032
1757087997728990000,3.187989990234375,-0.8973209857940674,0.3128890097141266,-0.11660400032997131
1757087997738542800,3.19754296875,-0.14905300736427307,-0.047908999025821686,0.08709999918937683
1757087997748095700,3.207095703125,0.23167000710964203,-0.16028699278831482,0.40841400623321533
1757087997757648600,3.216648681640625,0.39746201038360596,-0.3885039985179901,0.6382740139961243
1757087997767201500,3.226201416015625,0.39454901218414307,-0.7011809945106506,1.0687249898910522
1757087997776754200,3.235754150390625,0.25334298610687256,-0.9189519882202148,1.9811609983444214
1757087997786307300,3.245307373046875,0.20777000486850739,-0.6165220141410828,1.7500189542770386
1757087997795860000,3.25485986328125,1.1360089778900146,-0.640811026096344,2.3019800186157227
1757087997805412900,3.264412841796875,0.2961690127849579,-0.8512730002403259,2.8672099113464355
1757087997814966000,3.273966064453125,-0.24583700299263,-0.8803139925003052,2.86188006401062
1757087997824519200,3.283519287109375,-0.311924010515213,-0.9289680123329163,2.2996110916137695
1757087997834071600,3.293071533203125,0.1184689998626709,-0.8210740089416504,1.5446120500564575
1757087997843624700,3.302624755859375,0.5207489728927612,-0.637565016746521,0.8323469758033752
1757087997853177600,3.312177490234375,0.3543730080127716,-0.24932199716567993,0.12924200296401978
1757087997862730500,3.32173046875,-0.044877998530864716,0.17773300409317017,-0.5556740164756775
1757087997872283400,3.331283447265625,0.2826310098171234,0.43594399094581604,-0.8295819759368896
1757087997881836300,3.340836181640625,0.944163978099823,0.5770270228385925,-0.8130149841308594
1757087997891389200,3.35038916015625,0.9232119917869568,0.5628479719161987,-0.7199190258979797
1757087997900942000,3.359942138671875,0.4978179931640625,0.5538510084152222,-0.6775720119476318
1757087997910494700,3.36949462890625,0.8401200175285339,0.2832840085029602,-0.20184999704360962
1757087997920047600,3.379047607421875,1.300995945930481,-0.12147700041532516,-0.005135000217705965
1757087997929600800,3.388600830078125,1.0682330131530762,-0.4992850124835968,-0.04854099825024605
1757087997939153700,3.398153564453125,0.9558290243148804,-0.5354480147361755,0.1308699995279312
1757087997948706600,3.40770654296875,1.045346975326538,-0.21658700704574585,0.26551100611686707
1757087997958259500,3.417259521484375,0.8729529976844788,-0.08109299838542938,0.27629798650741577
1757087997967812400,3.426812255859375,0.3163110017776489,0.1941629946231842,-0.3443470001220703
1757087997977365200,3.436365234375,0.050085000693798065,0.17143599689006805,-0.3833490014076233
1757087997986918100,3.445918212890625,0.35085099935531616,0.13139300048351288,-0.18486900627613068
1757087997996471000,3.455470947265625,0.8016319870948792,0.018017999827861786,-0.04879000037908554
1757087998006024000,3.46502392578125,0.8037350177764893,-0.09962700307369232,-0.09477800130844116
1757087998015576600,3.47457666015625,0.3725169897079468,-0.2586129903793335,-0.22652100026607513
1757087998025129700,3.484129638671875,0.4585840106010437,-0.3625609874725342,-0.0892689973115921
1757087998034682600,3.4936826171875,0.5689229965209961,-0.2046000063419342,-0.07484699785709381
1757087998044235500,3.503235595703125,0.41991299390792847,0.15967099368572235,-0.31979700922966003
1757087998053788400,3.512788330078125,0.3164899945259094,0.5795249938964844,-0.6075119972229004
1757087998063341000,3.522341064453125,0.049229998141527176,0.9502739906311035,-0.7089769840240479
1757087998072894200,3.531894287109375,-0.03438200056552887,1.1844300031661987,-0.6379430294036865
1757087998082447000,3.541447021484375,0.22854700684547424,1.2865819931030273,-0.38584598898887634
1757087998092000000,3.551,0.45260199904441833,1.030519962310791,0.05833199992775917
1757087998101553000,3.560552978515625,0.39680400490760803,0.9001650214195251,0.20991000533103943
1757087998111105800,3.570105712890625,0.4223099946975708,0.6227369904518127,0.3515540063381195
1757087998120658700,3.57965869140625,0.2781740128993988,0.543595016002655,0.19616200029850006
1757087998130211600,3.589211669921875,0.07826799899339676,0.5651469826698303,0.043598998337984085
1757087998139764200,3.59876416015625,0.07304300367832184,0.4160900115966797,0.11501500010490417
1757087998149317000,3.608317138671875,-0.06731200218200684,0.43865400552749634,0.05926800146698952
1757087998158870300,3.617870361328125,-0.14754599332809448,0.3613550066947937,0.12489199638366699
1757087998168423200,3.627423095703125,-0.1371150016784668,0.6046299934387207,0.14923399686813354
1757087998177975800,3.636975830078125,-0.05480099841952324,0.984046995639801,0.17053399980068207
1757087998187529000,3.646529052734375,0.3343389928340912,0.9758009910583496,0.14773200452327728
1757087998197081900,3.656081787109375,0.4850659966468811,0.7676219940185547,0.04287000000476837
1757087998206634800,3.665634765625,0.4939979910850525,0.4254710078239441,-0.03714599832892418
1757087998216187600,3.675187744140625,0.4303700029850006,0.09024400264024734,-0.1192609965801239
1757087998225740500,3.684740478515625,0.23260100185871124,-0.2970010042190552,0.037675999104976654
1757087998235293400,3.69429345703125,-0.11387299746274948,-0.6302080154418945,-0.00015100000018719584
1757087998244846000,3.70384619140625,-0.39983299374580383,-0.6965799927711487,-0.23914800584316254
1757087998254399200,3.713399169921875,-0.41588398814201355,-0.611985981464386,-0.34315401315689087
1757087998263952000,3.722951904296875,-0.1567849963903427,-0.3733980059623718,-0.15854999423027039
1757087998273505000,3.732505126953125,-0.044606998562812805,-0.30167898535728455,0.1979369968175888
1757087998283058000,3.742057861328125,-0.3017370104789734,-0.4216879904270172,0.4951770007610321
1757087998292610800,3.75161083984375,-0.49046799540519714,-0.7016819715499878,0.7087739706039429
1757087998302163700,3.761163818359375,-0.2442999929189682,-0.6661509871482849,0.15497300028800964
1757087998311716600,3.770716552734375,0.1898140013217926,-0.6506479978561401,-0.18890400230884552
1757087998321269500,3.78026953125,0.16896900534629822,-0.437391996383667,-0.24236899614334106
1757087998330822100,3.789822265625,0.05880599841475487,-0.2642599940299988,-0.029044000431895256
1757087998340375000,3.799375,0.12757200002670288,-0.0952330008149147,0.12096299976110458
1757087998349928000,3.808927978515625,0.13259099423885345,-0.002368000103160739,0.09356100112199783
1757087998359480800,3.818480712890625,-0.26928800344467163,0.13673299551010132,0.41564399003982544
1757087998369034000,3.828033935546875,-0.8586620092391968,0.25544100999832153,0.5153980255126953
1757087998378587000,3.8375869140625,-1.344069004058838,0.10877799987792969,0.5914260149002075
1757087998388139500,3.847139404296875,-1.1370129585266113,0.002230999991297722,0.6610530018806458
1757087998397692700,3.856692626953125,-0.6275960206985474,-0.08403299748897552,0.55628502368927
1757087998407245600,3.86624560546875,-0.6566870212554932,-0.026877999305725098,0.6036880016326904
1757087998416798500,3.875798583984375,-0.9531769752502441,-0.2525149881839752,0.44607600569725037
1757087998426351400,3.885351318359375,-0.8793500065803528,-0.13830499351024628,0.4404909908771515
1757087998435904000,3.894904052734375,-0.7826560139656067,0.04845200106501579,0.7116510272026062
1757087998445457000,3.904456787109375,-0.603430986404419,0.1871359944343567,0.20348499715328217
1757087998455010000,3.914010009765625,-0.1153390035033226,0.316074013710022,-0.11361999809741974
1757087998464563000,3.92356298828125,0.1516059935092926,0.08099299669265747,0.2496349960565567
1757087998474115800,3.93311572265625,0.03096899949014187,0.006175000220537186,0.4678739905357361
1757087998483668700,3.942668701171875,-0.7263209819793701,0.1075270026922226,0.9723330140113831
1757087998493221400,3.952221435546875,-0.9484059810638428,-0.010507999919354916,0.5685459971427917
1757087998502774500,3.9617744140625,-0.9557170271873474,-0.04503500089049339,0.39508599042892456
1757087998512327400,3.971327392578125,-0.5034499764442444,0.05584900081157684,-0.1879040002822876
1757087998521880300,3.98088037109375,-0.3066459894180298,0.49226099252700806,-0.8130419850349426
1757087998531433200,3.99043310546875,-0.7052149772644043,0.9259160161018372,-1.1334220170974731
1757087998540985900,3.99998583984375,-1.1671780347824097,1.046910047531128,-1.0388180017471313
1757087998550538800,4.009538818359375,-0.9142019748687744,0.9595779776573181,-0.5922189950942993
1757087998560091600,4.019091552734375,-0.38779500126838684,0.7395009994506836,-0.1188260018825531
1757087998569644500,4.02864453125,-0.16411200165748596,0.47419100999832153,0.1878640055656433
1757087998579197400,4.038197509765625,-0.2453410029411316,0.129611998796463,0.1359180063009262
1757087998588750600,4.04775048828125,-0.44981300830841064,-0.11249899864196777,-0.16076800227165222
1757087998598303200,4.05730322265625,-0.6553210020065308,-0.10613299906253815,-0.3092469871044159
1757087998607856400,4.0668564453125,-0.7868769764900208,-0.06917399913072586,-0.21670599281787872
1757087998617409300,4.0764091796875,-0.6174619793891907,-0.060419000685214996,-0.13389399647712708
1757087998626962200,4.085962158203125,-0.4266490042209625,0.05436300113797188,-0.18853899836540222
1757087998636515000,4.09551513671875,-0.1071150004863739,0.127469003200531,-0.2660849988460541
1757087998646067700,4.105067626953125,0.14427000284194946,0.1719769984483719,-0.46266698837280273
1757087998655620600,4.11462060546875,0.4688499867916107,0.08758100122213364,-0.47755399346351624
1757087998665173500,4.124173583984375,0.4932360053062439,-0.009344000369310379,-0.5310879945755005
1757087998674726700,4.1337265625,0.4868139922618866,-0.013563999906182289,-0.40874800086021423
1757087998684279300,4.143279296875,0.3565270006656647,0.03362499922513962,-0.2745150029659271
1757087998693832200,4.152832275390625,0.219542995095253,0.0918859988451004,-0.1553190052509308
1757087998703385000,4.162385009765625,0.13982099294662476,0.12847900390625,-0.13314299285411835
1757087998712938200,4.171938232421875,-0.0046350001357495785,0.22981199622154236,-0.17345300316810608
1757087998722491100,4.1814912109375,-0.08947599679231644,0.273593008518219,-0.1528259962797165
1757087998732044000,4.1910439453125,-0.22899000346660614,0.32647401094436646,0.03129199892282486
1757087998741597000,4.200596923828125,-0.4230389893054962,0.3319090008735657,0.2957099974155426
1757087998751149600,4.210149658203125,-0.5193920135498047,0.18147799372673035,0.39781200885772705
1757087998760702500,4.219702392578125,-0.4822149872779846,0.003920999821275473,0.4762600064277649
1757087998770255400,4.22925537109375,-0.3430590033531189,-0.25512000918388367,0.5587319731712341
1757087998779808300,4.238808349609375,-0.19575199484825134,-0.5229870080947876,0.6076509952545166
1757087998789361200,4.248361083984375,-0.0740320011973381,-0.7315539717674255,0.5769500136375427
1757087998798914000,4.2579140625,0.08428899943828583,-0.8881049752235413,0.5773450136184692
1757087998808467000,4.267467041015625,0.16253900527954102,-0.8779410123825073,0.48263201117515564
1757087998818019800,4.277019775390625,0.17731299996376038,-0.9238510131835938,0.5283830165863037
1757087998827573000,4.286572998046875,0.05543899908661842,-0.8678150177001953,0.36363300681114197
1757087998837125600,4.296125732421875,-0.06637000292539597,-0.8531720042228699,0.24998100101947784
1757087998846678500,4.305678466796875,-0.16865700483322144,-0.8302789926528931,0.1591069996356964
1757087998856231400,4.3152314453125,-0.22006399929523468,-0.7677310109138489,-0.023485999554395676
1757087998865784300,4.324784423828125,-0.22526399791240692,-0.6323680281639099,-0.10509300231933594
1757087998875337200,4.334337158203125,-0.272817999124527,-0.4622879922389984,-0.1530040055513382
1757087998884890000,4.34389013671875,-0.4157460033893585,-0.36734700202941895,-0.2816289961338043
1757087998894443300,4.353443359375,-0.48875701427459717,-0.26687899231910706,-0.3997870087623596
1757087998903996000,4.362995849609375,-0.4531309902667999,-0.11593899875879288,-0.44503000378608704
1757087998913548800,4.372548828125,-0.3877210021018982,0.003544999985024333,-0.5542070269584656
1757087998923101700,4.382101806640625,-0.31905800104141235,0.06926000118255615,-0.6314210295677185
1757087998932654600,4.391654541015625,-0.3331829905509949,0.10876200348138809,-0.5668650269508362
1757087998942207500,4.40120751953125,-0.2888149917125702,0.12649300694465637,-0.45072999596595764
1757087998951760600,4.4107607421875,-0.07144399732351303,0.14204899966716766,-0.3048590123653412
1757087998961313300,4.420313232421875,0.0452749989926815,0.10536599904298782,-0.24886399507522583
1757087998970866200,4.4298662109375,0.19085800647735596,0.158160001039505,-0.10825899988412857
1757087998980419000,4.439419189453125,0.2190379947423935,0.20340800285339355,0.05761000141501427
1757087998989972000,4.448971923828125,0.14188100397586823,0.25952601432800293,0.1348239928483963
1757087998999524900,4.45852490234375,0.012632999569177628,0.35374701023101807,0.11720500141382217
1757087999009077800,4.468077880859375,-0.17554399371147156,0.44528400897979736,0.06669099628925323
1757087999018630700,4.477630615234375,-0.28860899806022644,0.50593101978302,-0.05381200090050697
1757087999028183600,4.48718359375,-0.2764979898929596,0.5676329731941223,-0.10861200094223022
1757087999037736400,4.496736328125,-0.14525200426578522,0.4797309935092926,-0.40877699851989746
1757087999047289300,4.506289306640625,-0.04853000119328499,0.3535600006580353,-0.6675810217857361
1757087999056842200,4.51584228515625,0.1453939974308014,0.28396400809288025,-0.5921120047569275
1757087999066395100,4.52539501953125,0.5202839970588684,0.23910599946975708,-0.4083940088748932
1757087999075948000,4.534947998046875,0.8548579812049866,0.04625700041651726,-0.44595998525619507
1757087999085501000,4.5445009765625,1.0236979722976685,-0.22205199301242828,-0.5705310106277466
1757087999095053800,4.5540537109375,1.0342990159988403,-0.2785769999027252,-0.5254639983177185
1757087999104607000,4.56360693359375,1.0498930215835571,-0.16380999982357025,-0.5336499810218811
1757087999114159600,4.57315966796875,1.0349379777908325,-0.008533000014722347,-0.52395099401474
1757087999123712500,4.58271240234375,1.0087389945983887,0.12536999583244324,-0.5023589730262756
1757087999133265400,4.592265380859375,0.9247090220451355,0.19224999845027924,-0.3172900080680847
1757087999142818300,4.601818359375,0.6958349943161011,0.3027549982070923,-0.08331199735403061
1757087999152371200,4.61137109375,0.3692309856414795,0.28698399662971497,0.043912000954151154
1757087999161924000,4.620924072265625,0.011013000272214413,0.1526550054550171,0.08077500015497208
1757087999171477000,4.63047705078125,-0.3406530022621155,0.07303600013256073,0.27229899168014526
1757087999181030000,4.64002978515625,-0.5736280083656311,-0.033263999968767166,0.36292099952697754
1757087999190582800,4.649582763671875,-0.6686990261077881,-0.12453299760818481,0.21594999730587006
1757087999200135400,4.659135498046875,-0.5994529724121094,-0.19634300470352173,0.015213999897241592
1757087999209688300,4.668688232421875,-0.3938780128955841,-0.13606199622154236,-0.041297998279333115
1757087999219241200,4.6782412109375,-0.206713005900383,0.03272100165486336,-0.16508500277996063
1757087999228794000,4.687794189453125,-0.13405799865722656,0.09830199927091599,-0.2992149889469147
1757087999238347000,4.697346923828125,-0.09007100015878677,0.10583300143480301,-0.3168410062789917
1757087999247900000,4.70689990234375,-0.006027999799698591,0.011278999969363213,-0.26624900102615356
1757087999257453000,4.716453125,0.11031600087881088,-0.16306400299072266,-0.15431199967861176
1757087999267006000,4.726005859375,0.15796299278736115,-0.4012199938297272,-0.04312700033187866
1757087999276558800,4.735558837890625,0.1614850014448166,-0.5423409938812256,0.09536100178956985
1757087999286111700,4.74511181640625,0.1481190025806427,-0.545149028301239,0.23246799409389496
1757087999295664400,4.754664306640625,0.08519800007343292,-0.4193879961967468,0.3373419940471649
1757087999305217300,4.76421728515625,-0.03138799965381622,-0.21819600462913513,0.3998290002346039
1757087999314770200,4.773770263671875,-0.10552600026130676,0.010613000020384789,0.4291149973869324
1757087999324323000,4.783322998046875,-0.06129299849271774,0.15336500108242035,0.43807101249694824
1757087999333876000,4.7928759765625,0.0021780000533908606,0.17509299516677856,0.4425710141658783
1757087999343428900,4.802428955078125,-0.008936000056564808,0.14842499792575836,0.5005990266799927
1757087999352981800,4.811981689453125,-0.04705899953842163,0.07390200346708298,0.5109930038452148
1757087999362534700,4.82153466796875,-0.06681399792432785,-0.02739899978041649,0.4322809875011444
1757087999372087600,4.831087646484375,-0.10387899726629257,-0.12044700235128403,0.28486499190330505
1757087999381640400,4.840640380859375,-0.060322001576423645,-0.23951800167560577,0.1841990053653717
1757087999391193300,4.850193359375,-0.007501000072807074,-0.30665498971939087,0.07993700355291367
1757087999400746200,4.859746337890625,0.059932999312877655,-0.28597700595855713,0.008003000169992447
1757087999410299100,4.869299072265625,0.05159800127148628,-0.18296599388122559,-0.023781999945640564
1757087999419852000,4.87885205078125,0.058006998151540756,-0.13579100370407104,-0.0027230000123381615
1757087999429405000,4.888405029296875,0.03234900161623955,0.07242999970912933,0.09740199893712997
1757087999438957800,4.897957763671875,0.07717099785804749,0.18662899732589722,0.03642300143837929
1757087999448510700,4.9075107421875,0.11253900080919266,0.17627400159835815,-0.029937999323010445
1757087999458063600,4.917063720703125,0.12365899980068207,0.1500989943742752,0.04704599827528
1757087999467616500,4.926616455078125,0.129611998796463,0.09092999994754791,0.06324499845504761
1757087999477169200,4.936169189453125,0.10253100097179413,0.13791100680828094,0.049876999109983444
1757087999486722000,4.94572216796875,0.14233100414276123,0.10726699978113174,0.06819800287485123
1757087999496275200,4.955275146484375,0.14615300297737122,0.09702199697494507,0.03179299831390381
1757087999505827800,4.964827880859375,0.10195799916982651,0.07662200182676315,-0.011876000091433525
1757087999515380700,4.974380615234375,0.029006000608205795,0.073232002556324,-0.036079999059438705
1757087999524934000,4.983933837890625,0.015762999653816223,0.061368998140096664,-0.024810999631881714
1757087999534486800,4.99348681640625,-0.009549000300467014,0.039420999586582184,-0.04869300127029419
1757087999544039400,5.003039306640625,-0.04650900140404701,0.075204998254776,-0.09487500041723251
1757087999553592300,5.01259228515625,-0.030378999188542366,0.12439099699258804,-0.1377819925546646
1757087999563145200,5.022145263671875,0.04569600149989128,0.12338899821043015,-0.21157899498939514
1757087999572698000,5.031697998046875,0.0883760005235672,0.15457700192928314,-0.2355390042066574
1757087999582251000,5.0412509765625,0.08551199734210968,0.15528999269008636,-0.2725229859352112
1757087999591804000,5.050803955078125,0.049178000539541245,0.17869600653648376,-0.2994759976863861
1757087999601356800,5.060356689453125,0.04141499847173691,0.1666339933872223,-0.30622801184654236
1757087999610909700,5.06990966796875,0.0401419997215271,0.06010900065302849,-0.29934200644493103
1757087999620462300,5.07946240234375,0.09829899668693542,0.006926999893039465,-0.21583600342273712
1757087999630015500,5.089015380859375,0.1489810049533844,-0.03862199932336807,-0.21420300006866455
1757087999639568600,5.098568603515625,0.19023999571800232,0.0021609999239444733,-0.14091399312019348
1757087999649121500,5.10812158203125,0.2611030042171478,0.18354900181293488,-0.03852299973368645
1757087999658674200,5.117674072265625,0.16615399718284607,0.0951870009303093,0.1419139951467514
1757087999668227000,5.12722705078125,0.11093900352716446,-0.10546500235795975,-0.005535999778658152
1757087999677780000,5.136780029296875,0.0575530007481575,-0.22013500332832336,-0.17392699420452118
1757087999687332900,5.146332763671875,-0.007828000001609325,-0.21543900668621063,-0.16878999769687653
1757087999696885800,5.1558857421875,-0.055994000285863876,-0.12083400040864944,-0.025884000584483147
1757087999706438700,5.165438720703125,-0.012907000258564949,-0.06047999858856201,-0.04967699944972992
1757087999715991600,5.174991455078125,0.032207001000642776,-0.1063779965043068,-0.15126700699329376
1757087999725544400,5.18454443359375,0.07675399631261826,-0.18933600187301636,-0.24239100515842438
1757087999735097600,5.19409765625,0.1160539984703064,-0.26298800110816956,-0.275178998708725
1757087999744650200,5.203650146484375,0.14572100341320038,-0.2644689977169037,-0.16641199588775635
1757087999754203100,5.213203125,0.11559300124645233,-0.25014200806617737,-0.10537000000476837
1757087999763756000,5.222756103515625,0.07804200053215027,-0.29344600439071655,-0.10415499657392502
1757087999773309000,5.232308837890625,0.030755000188946724,-0.3259409964084625,-0.10136699676513672
1757087999782861800,5.24186181640625,0.0005760000203736126,-0.27594199776649475,-0.09262300282716751
1757087999792414700,5.251414794921875,-0.014945999719202518,-0.23858599364757538,-0.06411399692296982
1757087999801967400,5.26096728515625,-0.008477999828755856,-0.17199599742889404,0.0009420000133104622
1757087999811520500,5.2705205078125,0.003089000005275011,-0.12263800203800201,0.012609000317752361
1757087999821073200,5.2800732421875,0.014650000259280205,-0.11144699901342392,0.019037999212741852
1757087999830626300,5.289626220703125,0.019226999953389168,-0.0734110027551651,0.02408899925649166
1757087999840179000,5.299178955078125,0.10305099934339523,-0.011381999589502811,-0.013886000029742718
1757087999849732000,5.308732177734375,0.12002100050449371,0.04901000112295151,0.06330999732017517
1757087999859285000,5.318284912109375,0.06985899806022644,0.050356000661849976,0.04910999909043312
1757087999868838000,5.327837890625,0.0460049994289875,0.05193899944424629,0.043834999203681946
1757087999878390500,5.337390625,0.022014999762177467,0.014107000082731247,0.08219099789857864
1757087999887943400,5.346943359375,0.058132000267505646,0.03609300032258034,0.07408899813890457
1757087999897496300,5.356496337890625,0.0992249995470047,0.04914499819278717,-0.02385300025343895
1757087999907049200,5.36604931640625,0.11651100218296051,0.058487001806497574,-0.02335299924015999
1757087999916602000,5.37560205078125,0.12385000288486481,-0.00048099999548867345,-0.05417700111865997
1757087999926155000,5.385155029296875,0.09511899948120117,-0.024418000131845474,-0.03362099826335907
1757087999935708000,5.3947080078125,0.04519600048661232,0.03680900111794472,0.0030960000585764647
1757087999945260800,5.4042607421875,0.040950000286102295,0.07702299952507019,0.046858999878168106
1757087999954813400,5.4138134765625,0.05818000063300133,0.07484699785709381,0.03186599910259247
1757087999964366600,5.42336669921875,0.06798399984836578,0.04632699862122536,-0.04214100167155266
1757087999973919500,5.43291943359375,0.04692000150680542,0.09663800150156021,0.0059710000641644
1757087999983472000,5.44247216796875,0.0759200006723404,0.06770099699497223,-0.03981500118970871
1757087999993025300,5.452025390625,-0.027063999325037003,0.00810999982059002,0.1199209988117218
1757088000002578200,5.461578125,0.0042929998598992825,0.03449900075793266,0.23733900487422943
1757088000012131000,5.471131103515625,0.016448000445961952,0.006151000037789345,0.21604600548744202
1757088000021684000,5.48068408203125,0.05963699892163277,-0.021347999572753906,0.20812499523162842
1757088000031236900,5.49023681640625,0.09793999791145325,-0.04072299972176552,0.19985300302505493
1757088000040789500,5.49978955078125,0.1310330033302307,-0.08709199726581573,0.15736399590969086
1757088000050342400,5.50934228515625,0.05157199874520302,-0.0324070006608963,0.008390000090003014
1757088000059895600,5.5188955078125,-0.09410300105810165,0.12476900219917297,-0.18401600420475006
1757088000069448400,5.528448486328125,-0.07924599945545197,0.158269003033638,0.05577300116419792
1757088000079001000,5.5380009765625,-0.07690100371837616,0.05783199891448021,0.2754429876804352
1757088000088554200,5.54755419921875,-0.01714799925684929,0.010364999994635582,0.3562299907207489
1757088000098107100,5.557107177734375,0.11254599690437317,0.07467400282621384,0.3946399986743927
1757088000107660000,5.566659912109375,0.20631299912929535,0.06493400037288666,0.2422260046005249
1757088000117212700,5.576212646484375,0.2714729905128479,0.10864099860191345,0.10029199719429016
1757088000126765600,5.585765625,0.06367199867963791,0.09006299823522568,0.05536400154232979
1757088000136318500,5.595318359375,0.09022200107574463,0.024095000699162483,-0.04547400027513504
1757088000145871400,5.604871337890625,0.24539600312709808,-0.0596110001206398,-0.3477630019187927
1757088000155424300,5.61442431640625,0.24444200098514557,-0.0918779969215393,-0.466823011636734
1757088000164977400,5.623977294921875,-0.02061700075864792,-0.17197099328041077,-0.49248799681663513
1757088000174530300,5.6335302734375,-0.14172400534152985,-0.1413249969482422,-0.321833997964859
1757088000184083200,5.643083251953125,0.017847999930381775,-0.04372800141572952,-0.4464170038700104
1757088000193635800,5.6526357421875,0.11591599881649017,0.1186780035495758,-0.08708199858665466
1757088000203188700,5.662188720703125,0.2335669994354248,0.2498050034046173,-0.1422799974679947
1757088000212741600,5.67174169921875,0.16189700365066528,0.2791610062122345,-0.21711499989032745
1757088000222294500,5.68129443359375,0.04660100117325783,0.2128939926624298,-0.25250399112701416
1757088000231847400,5.690847412109375,-0.040605999529361725,0.10864000022411346,-0.15751099586486816
1757088000241400300,5.700400390625,-0.05647199973464012,-0.014665000140666962,-0.15736299753189087
1757088000250953200,5.709953125,0.04370500147342682,-0.22935600578784943,-0.1373409926891327
1757088000260506000,5.719506103515625,0.06424199789762497,-0.2876740097999573,-0.029489999637007713
1757088000270059000,5.72905908203125,0.05040000006556511,-0.33076098561286926,0.11407499760389328
1757088000279612000,5.73861181640625,-0.052094001322984695,-0.2869659960269928,0.13362599909305573
1757088000289164800,5.748164794921875,0.037264999002218246,-0.2214220017194748,-0.058104999363422394
1757088000298717700,5.7577177734375,0.136353999376297,-0.11577100306749344,0.013007000088691711
1757088000308270600,5.7672705078125,0.12498600035905838,-0.12672899663448334,-0.14833499491214752
1757088000317823500,5.776823486328125,-0.38408398628234863,-0.12117499858140945,0.1335899978876114
1757088000327376400,5.78637646484375,-0.056689999997615814,-0.09452600032091141,0.1794780045747757
1757088000336929300,5.79592919921875,0.2599770128726959,-0.12020599842071533,-0.016088999807834625
1757088000346482000,5.80548193359375,0.17762500047683716,-0.19325600564479828,-0.37971898913383484
1757088000356034800,5.815034912109375,0.051959000527858734,0.10906600207090378,-0.16720600426197052
1757088000365587700,5.824587646484375,-0.05630800127983093,0.062463998794555664,-0.14501400291919708
1757088000375140900,5.834140869140625,-0.10065300017595291,-0.166376993060112,-0.13734500110149384
1757088000384693800,5.84369384765625,0.1910730004310608,-0.30231600999832153,-0.31050199270248413
1757088000394246700,5.85324658203125,0.2638700008392334,-0.29135799407958984,-0.31070101261138916
1757088000403799600,5.862799560546875,0.049150001257658005,-0.31396400928497314,-0.05638299882411957
1757088000413352200,5.872352294921875,-0.1321440041065216,-0.3669709861278534,-0.16414900124073029
1757088000422905300,5.8819052734375,-0.1834239959716797,-0.31946098804473877,0.0334709994494915
1757088000432458000,5.8914580078125,-0.34287500381469727,-0.023895999416708946,0.363413006067276
1757088000442011000,5.901010986328125,-0.3197900056838989,0.15943700075149536,0.2939760088920593
1757088000451563800,5.910563720703125,-0.013278000056743622,0.4186530113220215,-0.1574220061302185
1757088000461116700,5.92011669921875,0.09751000255346298,0.7099480032920837,-0.38116100430488586
1757088000470669600,5.929669677734375,0.13653799891471863,1.0078790187835693,0.16152900457382202
1757088000480222500,5.939222412109375,0.17304399609565735,0.869359016418457,0.9830229878425598
1757088000489775400,5.948775390625,0.10237699747085571,-0.0019320000428706408,1.0617680549621582
1757088000499328300,5.958328369140625,-0.0034050000831484795,-0.22695499658584595,0.6297119855880737
1757088000508881200,5.967881103515625,0.1095850020647049,-0.11891099810600281,0.36408498883247375
1757088000518434000,5.97743408203125,0.2221589982509613,-0.09072399884462357,0.1489650011062622
1757088000527987000,5.986987060546875,0.2136940062046051,-0.031328000128269196,-0.47218701243400574
1757088000537539800,5.996539794921875,0.15060099959373474,0.03771800175309181,-1.0732890367507935
1757088000547092700,6.0060927734375,0.13980400562286377,0.1812790036201477,-1.0379400253295898
1757088000556645600,6.015645751953125,0.16503000259399414,0.20478199422359467,-0.7032020092010498
1757088000566198500,6.025198486328125,0.08057499676942825,0.1491910070180893,-0.31822600960731506
1757088000575751200,6.034751220703125,0.00443999981507659,0.12055400013923645,-0.012028999626636505
1757088000585304300,6.04430419921875,0.022059999406337738,-0.03717200085520744,0.17779099941253662
1757088000594857200,6.053857177734375,-0.05323600023984909,-0.12547600269317627,0.5382279753684998
1757088000604410000,6.06341015625,-0.1423339992761612,0.10032700002193451,0.7353320121765137
1757088000613963000,6.072962890625,-0.10639899969100952,0.20512400567531586,0.5143439769744873
1757088000623516000,6.082515869140625,0.07046899944543839,-0.06854099780321121,0.05531400069594383
1757088000633068800,6.09206884765625,0.17661400139331818,-0.1946360021829605,-0.44964900612831116
1757088000642621700,6.10162158203125,0.20112399756908417,-0.03447100147604942,-0.5356749892234802
1757088000652174600,6.111174560546875,0.10607700049877167,-0.024747999384999275,-0.2702440023422241
1757088000661727200,6.120727294921875,-0.04008699953556061,-0.15790200233459473,-0.05525000020861626
1757088000671280000,6.130280029296875,0.022918999195098877,-0.20310300588607788,0.09211300313472748
1757088000680833000,6.1398330078125,0.06320299953222275,-0.19386699795722961,0.17325900495052338
1757088000690386000,6.149385986328125,0.0027920000720769167,-0.15982399880886078,0.1077210009098053
1757088000699938800,6.158938720703125,-0.08098600059747696,-0.1715800017118454,-0.0062500000931322575
1757088000709491500,6.168491455078125,-0.05761900171637535,-0.11777699738740921,-0.14569100737571716
1757088000719044600,6.178044677734375,0.028421999886631966,0.025707999244332314,-0.04941700026392937
1757088000728597500,6.187597412109375,0.0064849997870624065,0.1417970061302185,0.07428599894046783
1757088000738150400,6.197150390625,0.014515000395476818,0.20710499584674835,0.0036669999826699495
1757088000747703300,6.206703369140625,0.14434300363063812,0.05579899996519089,-0.0932610034942627
1757088000757256200,6.216256103515625,0.24338699877262115,-0.009868999943137169,0.09268700331449509
1757088000766809000,6.22580908203125,0.17461499571800232,-0.028769999742507935,0.3161880075931549
1757088000776362000,6.235362060546875,0.04596700146794319,0.03675900027155876,0.1989540010690689
1757088000785914600,6.24491455078125,0.03126300126314163,0.20451800525188446,0.033222999423742294
1757088000795467500,6.254467529296875,0.17890800535678864,0.3621259927749634,-0.18551099300384521
1757088000805020700,6.264020751953125,0.3558630049228668,0.34690600633621216,-0.46960699558258057
1757088000814573300,6.2735732421875,0.4517750144004822,0.4095970094203949,-0.41126200556755066
1757088000824126500,6.28312646484375,0.31920599937438965,0.1967419981956482,-0.17299099266529083
1757088000833679400,6.292679443359375,0.04772600159049034,-0.2986510097980499,-0.03095499984920025
1757088000843232000,6.30223193359375,-0.3693839907646179,-0.6134139895439148,-0.10343900322914124
1757088000852785200,6.31178515625,-0.7143120169639587,-0.5036380290985107,0.2135470062494278
1757088000862337800,6.321337890625,-0.8158090114593506,-0.38918599486351013,0.07350599765777588
1757088000871890700,6.330890625,-1.9773060083389282,1.2967180013656616,-1.4057799577713013
1757088000881443600,6.340443603515625,1.344344973564148,1.6112489700317383,-0.16759200394153595
1757088000890996500,6.34999658203125,1.7421660423278809,1.6039340496063232,0.7350670099258423
1757088000900549400,6.35954931640625,1.38788902759552,0.8400620222091675,0.5988489985466003
1757088000910102300,6.369102294921875,0.5885779857635498,0.5356230139732361,-0.5433449745178223
1757088000919655200,6.3786552734375,-0.08639100193977356,0.28314000368118286,-0.7449520230293274
1757088000929208000,6.3882080078125,-0.5551570057868958,0.017362000420689583,0.16993199288845062
1757088000938761000,6.397760986328125,-0.779000997543335,-0.8500289916992188,1.3351589441299438
1757088000948313600,6.407313720703125,-0.8028410077095032,-1.7513190507888794,1.928307056427002
1757088000957866800,6.41686669921875,-0.29888999462127686,-1.7916280031204224,2.0543839931488037
1757088000967419400,6.42641943359375,0.0514179989695549,-1.0127350091934204,1.6527329683303833
1757088000976972500,6.43597265625,0.36324501037597656,-0.44036000967025757,1.138476014137268
1757088000986525400,6.445525390625,0.2599630057811737,-0.6495159864425659,0.7828710079193115
1757088000996078300,6.455078369140625,-0.1742510050535202,-1.536571979522705,0.6395300030708313
1757088001005631000,6.464630859375,-0.8750209808349609,-2.1856579780578613,-0.1487009972333908
1757088001015184000,6.474183837890625,-0.6493170261383057,-2.175834894180298,-0.6604740023612976
1757088001024736800,6.48373681640625,0.10317900031805038,-1.463299036026001,-0.8183320164680481
1757088001034289700,6.49328955078125,0.16865499317646027,-1.0576659440994263,-0.5828260183334351
1757088001043842600,6.502842529296875,0.28123700618743896,-0.6707959771156311,-0.08096899837255478
1757088001053395700,6.512395751953125,0.15515300631523132,-0.1763409972190857,0.04817900061607361
1757088001062948400,6.5219482421875,0.1120079979300499,-0.021139999851584435,0.3142800033092499
1757088001072501200,6.531501220703125,0.11834599822759628,0.10673999786376953,0.2471269965171814
1757088001082054100,6.54105419921875,0.023111000657081604,-0.06977599859237671,0.13500399887561798
1757088001091607000,6.55060693359375,0.0002300000051036477,-0.7109410166740417,-0.1426600068807602
1757088001101160000,6.560159912109375,-0.07074400037527084,-0.7649809718132019,-0.19262999296188354
1757088001110712800,6.569712890625,-0.23191000521183014,-0.5835109949111938,-0.2534559965133667
1757088001120265700,6.579265625,-0.29822200536727905,-0.5206999778747559,-0.6185960173606873
1757088001129818600,6.588818603515625,0.061601001769304276,-0.2794420123100281,-0.7999039888381958
1757088001139371500,6.59837158203125,0.22703799605369568,-0.20624899864196777,-0.43655601143836975
1757088001148924200,6.607924072265625,0.005816999822854996,-0.07353299856185913,0.06917800009250641
1757088001158477000,6.61747705078125,0.08378899842500687,0.5500730276107788,-0.8120669722557068
1757088001168030000,6.627030029296875,-0.15738800168037415,1.4346740245819092,-1.5105030536651611
1757088001177582800,6.636582763671875,0.12118799984455109,1.0846949815750122,-1.2259999513626099
1757088001187135700,6.6461357421875,-0.08546800166368484,0.9831719994544983,-1.0879440307617188
1757088001196688600,6.655688720703125,-0.42342299222946167,1.2863370180130005,-1.0554449558258057
1757088001206241800,6.66524169921875,-0.39761999249458313,0.8666520118713379,0.0772939994931221
1757088001215794700,6.674794677734375,-0.11343099921941757,-0.584784984588623,1.3727400302886963
1757088001225347600,6.68434765625,0.008666999638080597,-2.161468982696533,2.1040730476379395
1757088001234900500,6.693900390625,-0.12731100618839264,-2.931180000305176,1.8735029697418213
1757088001244453400,6.703453369140625,-0.18181400001049042,-3.193419933319092,1.4530199766159058
1757088001254006000,6.713006103515625,-0.20179499685764313,-3.18447208404541,0.8136569857597351
1757088001263559000,6.722558837890625,0.11373399943113327,-2.848068952560425,-0.3354470133781433
1757088001273111800,6.73211181640625,0.12919899821281433,-2.2134649753570557,-1.4553660154342651
1757088001282664700,6.741664794921875,0.1744849979877472,-2.050183057785034,-1.7940469980239868
1757088001292217600,6.751217529296875,0.23493599891662598,-0.6210470199584961,-2.381653070449829
1757088001301770200,6.760770263671875,0.20558400452136993,0.6636790037155151,-2.094599962234497
1757088001311323100,6.7703232421875,-0.47251299023628235,1.4362759590148926,-0.754235029220581
1757088001320876300,6.779876220703125,-0.8426390290260315,1.1806730031967163,0.11778099834918976
1757088001330429000,6.789428955078125,-0.8367400169372559,1.3165509700775146,1.0666450262069702
1757088001339981800,6.79898193359375,-0.816631019115448,0.9886459708213806,1.8792589902877808
1757088001349535000,6.808534912109375,-0.8949379920959473,0.7247769832611084,0.7839580178260803
1757088001359087900,6.818087890625,-0.7226619720458984,0.5522090196609497,-1.252892017364502
1757088001368640800,6.827640869140625,-0.04722899943590164,0.7681220173835754,-2.0021960735321045
1757088001378193400,6.837193359375,0.1034419983625412,0.3860749900341034,-1.79836905002594
1757088001387746300,6.846746337890625,0.19009500741958618,1.0127249956130981,0.05761199817061424
1757088001397299200,6.85629931640625,0.41142401099205017,0.7168920040130615,1.5480220317840576
1757088001406852000,6.86585205078125,1.4937429428100586,0.6813650131225586,1.303555965423584
1757088001416405000,6.875405029296875,1.2782219648361206,0.5484349727630615,1.1299350261688232
1757088001425958000,6.8849580078125,0.8719059824943542,-0.9954749941825867,2.6356449127197266
1757088001435510800,6.8945107421875,0.4987240135669708,-0.1358329951763153,1.7632639408111572
1757088001445064000,6.90406396484375,-0.05535399913787842,0.11293900012969971,1.481632947921753
1757088001454616600,6.913616455078125,-0.10690200328826904,-1.853158950805664,-0.8665469884872437
1757088001464169500,6.92316943359375,0.18003399670124054,0.3395960032939911,-0.5607069730758667
1757088001473722400,6.932722412109375,-1.5154379606246948,-0.709434986114502,-1.3701529502868652
1757088001483275300,6.942275146484375,-2.3138890266418457,0.8607980012893677,-3.1917378902435303
1757088001492828200,6.951828125,-0.567795991897583,4.618947982788086,-0.9656209945678711
1757088001502381000,6.961381103515625,-1.3915619850158691,6.81472110748291,-0.9656100273132324
1757088001511933700,6.97093359375,-1.9314279556274414,6.544308185577393,-1.3352710008621216
1757088001521486800,6.98048681640625,-3.0067150592803955,3.956700086593628,-1.3979909420013428
1757088001531039500,6.99003955078125,-3.1882619857788086,0.9302970170974731,-1.843337059020996
1757088001540592600,6.999592529296875,-2.495253086090088,-0.8454139828681946,-1.2382919788360596
1757088001550145500,7.0091455078125,-0.379815012216568,-0.4350830018520355,0.9039329886436462
1757088001559698200,7.0186982421875,2.083767890930176,0.4614579975605011,1.9789650440216064
1757088001569251300,7.028251220703125,1.7741279602050781,0.5463089942932129,2.141263961791992
1757088001578804200,7.03780419921875,0.7779549956321716,0.34540700912475586,1.9250750541687012
1757088001588356900,7.04735693359375,0.6192100048065186,0.2951590120792389,1.3014709949493408
1757088001597909800,7.05690966796875,1.5633289813995361,0.1759839951992035,0.16967299580574036
1757088001607462700,7.066462646484375,-2.2814888954162598,1.298848032951355,-1.8343499898910522
1757088001617015600,7.076015625,0.5107489824295044,-3.4030020236968994,0.15749900043010712
1757088001626568400,7.085568359375,-1.5480200052261353,-12.295759201049805,0.32365500926971436
1757088001636121300,7.095121337890625,-2.74916410446167,-8.068889617919922,-1.2104389667510986
1757088001645674200,7.10467431640625,1.613914966583252,-1.5839420557022095,-0.7242149710655212
1757088001655227000,7.114226806640625,3.737807035446167,1.4660789966583252,0.6350719928741455
1757088001664779800,7.12377978515625,2.1344780921936035,0.7908809781074524,-0.4009929895401001
1757088001674333000,7.1333330078125,-2.4684929847717285,-0.4301849901676178,-2.23370099067688
1757088001683885800,7.1428857421875,-8.151667594909668,2.149040937423706,-2.5693418979644775
1757088001693438500,7.1524384765625,-7.175586223602295,0.8135520219802856,4.8118062019348145
1757088001702991600,7.16199169921875,-4.318832874298096,-3.9735970497131348,5.759089946746826
1757088001712544500,7.17154443359375,-2.1106719970703125,-3.052186965942383,3.139493942260742
1757088001722097400,7.181097412109375,0.5805789828300476,-1.5392990112304688,-0.5851460099220276
1757088001731650300,7.190650390625,2.415182113647461,-1.7757339477539062,-2.1431539058685303
1757088001741203000,7.200202880859375,2.9697680473327637,-1.7655550241470337,-3.649827003479004
1757088001750755800,7.209755859375,0.7870529890060425,-1.3060810565948486,-4.063559055328369
1757088001760308700,7.219308837890625,-1.715222954750061,-0.5770769715309143,-1.2433830499649048
1757088001769861600,7.228861572265625,-4.141796112060547,-0.4576129913330078,1.3989839553833008
1757088001779414500,7.23841455078125,-4.938726902008057,-0.31561601161956787,2.8823800086975098
1757088001788967400,7.247967529296875,-3.902297019958496,0.3934060037136078,3.544980049133301
1757088001798520000,7.25752001953125,-3.1731131076812744,0.4362669885158539,1.4669320583343506
1757088001808073200,7.2670732421875,-2.3636209964752197,0.18302899599075317,-0.1947699934244156
1757088001817626000,7.276626220703125,-2.385293960571289,-0.47259798645973206,0.12750700116157532
1757088001827178800,7.2861787109375,-3.092521905899048,-0.5760570168495178,0.8242650032043457
1757088001836732000,7.29573193359375,-3.1116490364074707,-0.2575959861278534,1.3038270473480225
1757088001846284800,7.305284912109375,0.25843000411987305,0.19077199697494507,0.7075150012969971
1757088001855837700,7.314837646484375,6.365052223205566,1.2843079566955566,-1.454103946685791
1757088001865390300,7.324390380859375,5.2675018310546875,0.5088940262794495,0.07594200223684311
1757088001874943500,7.333943603515625,2.047640085220337,0.32555800676345825,1.4033679962158203
1757088001884496400,7.343496337890625,-0.3239719867706299,0.7298359870910645,1.9294389486312866
1757088001894049000,7.353049072265625,-1.5436700582504272,0.9171270132064819,-0.06328099966049194
1757088001903602000,7.362601806640625,-2.9419898986816406,0.7421140074729919,-0.2389650046825409
1757088001913154800,7.37215478515625,-8.121444702148438,-0.5194740295410156,7.112250804901123
1757088001922707700,7.381707763671875,-12.230616569519043,0.5151230096817017,14.213101387023926
1757088001932260600,7.391260498046875,-10.536897659301758,2.7417409420013428,14.364781379699707
1757088001941813500,7.4008134765625,-6.991330146789551,1.735353946685791,10.050802230834961
1757088001951366400,7.410366455078125,-5.168957233428955,-0.27507099509239197,5.465635776519775
1757088001960919000,7.4199189453125,-4.651436805725098,-1.9052879810333252,0.6975489854812622
1757088001970472200,7.42947216796875,-4.086184978485107,-2.66599702835083,-3.0017900466918945
1757088001980025000,7.439025146484375,-3.1713058948516846,-2.873929977416992,-5.027857780456543
1757088001989578000,7.448577880859375,-1.6132090091705322,-1.8289610147476196,-4.865077972412109
1757088001999131000,7.458130859375,-1.0484739542007446,-0.9521390199661255,-3.8338980674743652
1757088002008683500,7.46768359375,-0.9025959968566895,0.17640699446201324,-1.1793030500411987
1757088002018236700,7.477236572265625,-1.1641349792480469,0.970005989074707,1.8401130437850952
1757088002027789300,7.486789306640625,-1.5022649765014648,1.341336965560913,3.7508630752563477
1757088002037342200,7.49634228515625,-1.4723119735717773,1.9568300247192383,4.320436000823975
1757088002046895000,7.50589501953125,-1.389847993850708,2.834628105163574,4.013772964477539
1757088002056448300,7.5154482421875,-1.0820180177688599,2.815814971923828,3.5992469787597656
1757088002066001000,7.5250009765625,-0.9412670135498047,1.5601719617843628,3.4229490756988525
1757088002075554000,7.534553955078125,-1.5928970575332642,0.9992750287055969,2.863408088684082
1757088002085106700,7.544106689453125,-2.534074068069458,1.0083509683609009,2.7748019695281982
1757088002094659600,7.55365966796875,-3.1111791133880615,0.945701003074646,2.981003999710083
1757088002104212500,7.56321240234375,-3.5223770141601562,0.48349300026893616,2.895854949951172
1757088002113765400,7.572765380859375,-3.792501926422119,-0.029419999569654465,1.8254070281982422
1757088002123318300,7.582318359375,-3.7016448974609375,-0.6142020225524902,0.37724199891090393
1757088002132871200,7.59187109375,-3.093496084213257,-0.9392390251159668,-1.1962709426879883
1757088002142424000,7.601424072265625,-2.3143229484558105,-0.7615429759025574,-2.6943039894104004
1757088002151976700,7.610976806640625,-1.6213040351867676,-0.08607400208711624,-3.4175620079040527
1757088002161529600,7.620529541015625,-0.6441869735717773,0.56809401512146,-3.52253794670105
1757088002171082800,7.630082763671875,0.5433480143547058,0.5934820175170898,-3.1150200366973877
1757088002180635600,7.6396357421875,1.5704610347747803,-0.27571800351142883,-2.3478140830993652
1757088002190188300,7.649188232421875,1.4267120361328125,-1.1204440593719482,-2.279926061630249
1757088002199741400,7.658741455078125,0.47731301188468933,-1.8854440450668335,-2.155919075012207
1757088002209294300,7.66829443359375,-0.3597950041294098,-2.5511929988861084,-2.3785040378570557
1757088002218847200,7.67784716796875,-0.5496439933776855,-2.669693946838379,-2.818619966506958
1757088002228399900,7.68739990234375,-0.12879300117492676,-2.3518259525299072,-3.492914915084839
1757088002237952800,7.696952880859375,-0.06502699851989746,-1.8779100179672241,-4.117901802062988
1757088002247505700,7.706505615234375,-0.33016499876976013,-1.0751140117645264,-3.6539359092712402
1757088002257058800,7.716058837890625,-0.877206027507782,-0.4611569941043854,-2.9581079483032227
1757088002266611500,7.725611572265625,-1.3708380460739136,-0.3770500123500824,-2.349606990814209
1757088002276164400,7.735164306640625,-1.5381640195846558,-0.5387070178985596,-2.1403090953826904
1757088002285717200,7.74471728515625,-1.4250110387802124,-0.7275400161743164,-2.303781032562256
1757088002295270100,7.754270263671875,-1.1222779750823975,-0.9396610260009766,-2.421160936355591
1757088002304823000,7.763822998046875,-0.8695619702339172,-0.8840410113334656,-2.4304370880126953
1757088002314376200,7.773376220703125,-0.6324599981307983,-0.9296849966049194,-2.6492419242858887
1757088002323928800,7.7829287109375,-0.27116501331329346,-0.7914080023765564,-2.646522045135498
1757088002333481700,7.792481689453125,1.2926599979400635,-0.5822269916534424,0.535090982913971
1757088002343034600,7.80203466796875,0.4781230092048645,-0.7968469858169556,0.20114299654960632
1757088002352587500,7.81158740234375,1.0058850049972534,-0.7664269804954529,1.4832240343093872
1757088002362140400,7.821140380859375,0.7871289849281311,-0.22666700184345245,1.9018349647521973
1757088002371693300,7.830693359375,0.35256099700927734,0.15606699883937836,1.9493730068206787
1757088002381246200,7.84024609375,-0.3225640058517456,0.3591740131378174,1.9056769609451294
1757088002390798800,7.849798828125,-1.1681900024414062,0.22422200441360474,1.0779470205307007
1757088002400351700,7.859351806640625,-1.4724570512771606,0.1310500055551529,0.5087069869041443
1757088002409905000,7.86890478515625,-1.1081780195236206,0.12095800042152405,0.47991299629211426
1757088002419457500,7.87845751953125,-0.34446999430656433,-0.006049000192433596,0.35505300760269165
1757088002429010400,7.888010498046875,0.2162880003452301,-0.15531499683856964,0.2291090041399002
1757088002438563300,7.897563232421875,0.45611000061035156,-0.2488889992237091,0.16144800186157227
1757088002448116500,7.907116455078125,0.39996299147605896,-0.31840500235557556,0.2562069892883301
1757088002457669400,7.91666943359375,0.1052670031785965,-0.2558479905128479,0.25018998980522156
1757088002467222000,7.926221923828125,-0.2500549852848053,-0.1625639945268631,0.06057099997997284
1757088002476775000,7.93577490234375,-0.5078700184822083,-0.17174899578094482,-0.21434399485588074
1757088002486327800,7.945327880859375,-0.6042709946632385,-0.15754899382591248,-0.3318159878253937
1757088002495880700,7.954880615234375,-0.6026650071144104,-0.12129499763250351,-0.2976430058479309
1757088002505433600,7.96443359375,-0.6938639879226685,-0.14126600325107574,0.03279399871826172
1757088002514986500,7.973986572265625,-0.7392439842224121,-0.18903599679470062,0.4046199917793274
1757088002524539400,7.983539306640625,-0.6993119716644287,-0.19351400434970856,0.6893519759178162
1757088002534092000,7.993092041015625,-0.6460180282592773,-0.028255000710487366,0.6443619728088379
1757088002543645000,8.00264501953125,-0.6664180159568787,0.14860199391841888,0.6647469997406006
1757088002553198300,8.0121982421875,-0.7225450277328491,0.17746999859809875,0.6620590090751648
1757088002562751000,8.0217509765625,-0.7804750204086304,0.1914059966802597,0.5445389747619629
1757088002572304000,8.031303955078124,-0.8374770283699036,0.17966599762439728,0.41507700085639954
1757088002581856800,8.040856689453125,-0.7423120141029358,0.030519999563694,0.0440169982612133
1757088002591409700,8.05040966796875,-0.6075090169906616,-0.0488939993083477,-0.5700510144233704
1757088002600962300,8.05996240234375,-0.6022700071334839,0.07417599856853485,-0.8940889835357666
1757088002610515500,8.069515380859375,-0.6256530284881592,0.09874700009822845,-0.9604200124740601
1757088002620068000,8.079068115234374,-0.6057130098342896,0.07158499956130981,-0.7280259728431702
1757088002629621200,8.088621337890626,-0.057913001626729965,0.9305530190467834,0.029875999316573143
1757088002639174000,8.098173828125,-2.234405994415283,0.5473350286483765,0.9179210066795349
1757088002648727000,8.10772705078125,-2.60976505279541,-0.22035400569438934,1.7184959650039673
1757088002658280000,8.117280029296875,-2.2701148986816406,-0.3373729884624481,1.5091869831085205
1757088002667832800,8.126832763671874,-1.3287899494171143,-0.20580099523067474,0.8745999932289124
1757088002677385700,8.1363857421875,-0.20227600634098053,-0.01413699984550476,0.11718600243330002
1757088002686938400,8.1459384765625,0.7654939889907837,0.18216100335121155,-0.41249799728393555
1757088002696491300,8.1554912109375,1.1749889850616455,0.30231499671936035,-0.6209089756011963
1757088002706044200,8.165044189453125,1.1002620458602905,0.1406649947166443,-0.6363160014152527
