time,seconds_elapsed,z,y,x
1757087994633849000,0.09284912109375,9.331950187683105,6.408000469207764,0.9100500345230103
1757087994643402200,0.10240234375,9.70305061340332,5.9070000648498535,-0.583050012588501
1757087994652955100,0.111955078125,8.683050155639648,2.007000207901001,-0.6600000262260437
1757087994662508000,0.121508056640625,7.8259501457214355,-1.3030500411987305,0.5869500041007996
1757087994672061000,0.13106103515625,7.929000377655029,-2.6700000762939453,-0.09000000357627869
1757087994681613600,0.140613525390625,7.797000408172607,-2.6080501079559326,-2.593950033187866
1757087994691166700,0.150166748046875,7.306950569152832,-2.473950147628784,-4.5259504318237305
1757087994700719400,0.15971923828125,6.421050071716309,-2.9410500526428223,-5.761950492858887
1757087994710272300,0.169272216796875,4.587000370025635,-4.084949970245361,-5.902950286865234
1757087994719825200,0.1788251953125,2.5759501457214355,-5.397000312805176,-4.62000036239624
1757087994729378000,0.1883779296875,0.6910500526428223,-6.709050178527832,-2.806950092315674
1757087994738931000,0.197930908203125,-0.20295001566410065,-7.9860005378723145,-1.228950023651123
1757087994748483800,0.20748388671875,-0.534000039100647,-8.779950141906738,-0.6600000262260437
1757087994758037000,0.217037109375,-1.1440500020980835,-10.234050750732422,-0.8419500589370728
1757087994767590000,0.22658984375,-1.4749500751495361,-11.38800048828125,-0.40095001459121704
1757087994777142800,0.236142822265625,-1.9890000820159912,-12.070050239562988,-0.11400000751018524
1757087994786695400,0.2456953125,-3.166950225830078,-13.006051063537598,0.27105000615119934
1757087994796248300,0.255248291015625,-3.8550002574920654,-13.645950317382812,2.7799501419067383
1757087994805801500,0.264801513671875,-4.82895040512085,-13.380001068115234,5.743950366973877
1757087994815354400,0.274354248046875,-6.169950485229492,-12.556050300598145,9.79800033569336
1757087994824907300,0.2839072265625,-6.832950115203857,-11.48805046081543,13.846050262451172
1757087994834460200,0.293460205078125,-4.551000118255615,-10.231050491333008,17.236949920654297
1757087994844013000,0.303012939453125,-2.5980000495910645,-8.668050765991211,18.975000381469727
1757087994853565700,0.312565673828125,-0.9450000524520874,-8.011950492858887,19.803001403808594
1757087994863118800,0.322118896484375,1.01895010471344,-7.3060503005981445,19.79595184326172
1757087994872671700,0.331671630859375,3.114000082015991,-6.432000160217285,19.606950759887695
1757087994882224600,0.341224609375,4.932000160217285,-6.147000312805176,19.981050491333008
1757087994891777300,0.35077734375,5.070000171661377,-6.408000469207764,20.910001754760742
1757087994901330400,0.360330322265625,3.0330002307891846,-6.355050086975098,21.328950881958008
1757087994910883000,0.369883056640625,-0.534000039100647,-6.039000511169434,21.70905113220215
1757087994920436200,0.379436279296875,-4.3090500831604,-5.500050067901611,23.167051315307617
1757087994939542000,0.3985419921875,-9.772950172424316,-2.8159501552581787,27.649051666259766
1757087994949095000,0.408094970703125,-11.107050895690918,-1.4730000495910645,29.18895149230957
1757087994958647800,0.417647705078125,-11.791950225830078,-0.1660500019788742,29.59800148010254
1757087994968200700,0.42720068359375,-12.064950942993164,0.9130500555038452,28.597951889038086
1757087994977753600,0.436753662109375,-11.770051002502441,1.440000057220459,25.830001831054688
1757087994987306500,0.446306396484375,-10.116000175476074,1.7010000944137573,21.92205047607422
1757087994996859400,0.455859375,-8.136000633239746,1.8469500541687012,18.457950592041016
1757087995006412300,0.465412353515625,-6.661050319671631,1.8870000839233398,16.279050827026367
1757087995015965200,0.474965087890625,-5.9730000495910645,1.516050100326538,15.64905071258545
1757087995025518000,0.48451806640625,-5.0970001220703125,1.5670500993728638,15.180000305175781
1757087995035071200,0.4940712890625,-4.3120503425598145,1.6840500831604004,14.68005084991455
1757087995044623600,0.50362353515625,-4.147050380706787,1.609950065612793,13.53795051574707
1757087995054176800,0.5131767578125,-4.052999973297119,1.366050124168396,12.160950660705566
1757087995063730000,0.52272998046875,-4.000950336456299,1.224000096321106,10.762950897216797
1757087995073282800,0.53228271484375,-3.61995005607605,0.9199500679969788,9.63705062866211
1757087995082835700,0.541835693359375,-2.977950096130371,0.5250000357627869,8.371050834655762
1757087995092388400,0.551388427734375,-2.839050054550171,-0.039000000804662704,6.69195032119751
1757087995101941200,0.560941162109375,-2.839050054550171,-0.9130500555038452,5.215050220489502
1757087995111494100,0.570494140625,-2.479950189590454,-1.6770000457763672,4.62600040435791
1757087995121047000,0.580047119140625,-3.388050079345703,-2.6539502143859863,4.6620001792907715
1757087995130600000,0.589599853515625,-5.932950496673584,-3.1519501209259033,3.868950128555298
1757087995140153000,0.599153076171875,-4.426949977874756,-3.022050142288208,3.57705020904541
1757087995149706000,0.6087060546875,-0.5670000314712524,-3.859950065612793,4.462950229644775
1757087995159259000,0.6182587890625,3.2100000381469727,-4.974000453948975,5.526000499725342
1757087995168811800,0.627811767578125,3.907050132751465,-5.577000141143799,4.858050346374512
1757087995178364700,0.63736474609375,1.2370500564575195,-6.183000087738037,4.035000324249268
1757087995187917600,0.64691748046875,-1.2400500774383545,-6.0319504737854,4.588050365447998
1757087995197470500,0.656470458984375,-2.7990000247955322,-6.135000228881836,5.860950469970703
1757087995207023400,0.6660234375,-1.9800001382827759,-6.31695032119751,7.138050556182861
1757087995216576500,0.675576416015625,0.41100001335144043,-6.613950252532959,7.959000587463379
1757087995226129200,0.685129150390625,0.6859500408172607,-6.456000328063965,8.422950744628906
1757087995235682000,0.69468212890625,0.47805002331733704,-6.0010504722595215,8.445000648498535
1757087995245235200,0.704235107421875,-1.01295006275177,-6.865050315856934,7.332000255584717
1757087995254788000,0.7137880859375,-1.738050103187561,-7.561950206756592,6.1180500984191895
1757087995264341000,0.723341064453125,0.286950021982193,-7.921050548553467,7.806000232696533
1757087995273893600,0.7328935546875,-0.7489500641822815,-8.515049934387207,9.097949981689453
1757087995283446800,0.74244677734375,-0.984000027179718,-8.290050506591797,9.78600025177002
1757087995292999700,0.751999755859375,-0.7489500641822815,-9.136950492858887,11.457000732421875
1757087995302552600,0.761552490234375,-0.1770000010728836,-9.77400016784668,12.496050834655762
1757087995312105200,0.771105224609375,-0.9450000524520874,-9.106050491333008,11.82300090789795
1757087995321658400,0.780658447265625,-2.4079501628875732,-8.409000396728516,10.390950202941895
1757087995331211300,0.790211181640625,-2.3080501556396484,-6.276000499725342,7.303050518035889
1757087995340764200,0.79976416015625,-6.1459503173828125,-4.641000270843506,2.095050096511841
1757087995350317000,0.809317138671875,-3.5190000534057617,-4.228950023651123,0.7090500593185425
1757087995359870000,0.818869873046875,-1.0339500904083252,-3.561000108718872,-0.2670000195503235
1757087995369422800,0.8284228515625,0.9709500670433044,-3.9180002212524414,-0.7339500188827515
1757087995378975700,0.837975830078125,2.4340500831604004,-5.328000068664551,-1.396950125694275
1757087995388528600,0.847528564453125,2.7340500354766846,-6.963000297546387,-2.070000171661377
1757087995398081500,0.85708154296875,2.31000018119812,-7.0660505294799805,-1.0000500679016113
1757087995407634400,0.866634521484375,1.1440500020980835,-4.1860504150390625,2.7679500579833984
1757087995417187300,0.876187255859375,0.41805002093315125,-4.212000370025635,2.9260501861572266
1757087995426740200,0.885740234375,0.07095000147819519,-4.006050109863281,2.7340500354766846
1757087995436293000,0.895293212890625,0.07395000010728836,-3.8650500774383545,2.517000198364258
1757087995445846000,0.904845947265625,0.17595000565052032,-3.799950122833252,2.7370500564575195
1757087995455399000,0.91439892578125,-0.31095001101493835,-3.9970502853393555,3.2779500484466553
1757087995464952000,0.9239521484375,0.24300001561641693,-4.188000202178955,2.6650500297546387
1757087995474505000,0.9335048828125,-0.9289500713348389,-5.026050090789795,2.7370500564575195
1757087995484057900,0.943057861328125,-0.7990500330924988,-5.0119500160217285,2.2800002098083496
1757087995493610500,0.952610595703125,0.9709500670433044,-4.690950393676758,1.9920001029968262
1757087995503163400,0.962163330078125,2.476950168609619,-4.108950138092041,0.9580500721931458
1757087995512716300,0.97171630859375,3.5880000591278076,-4.003950119018555,0.6559500098228455
1757087995522269200,0.981269287109375,4.222949981689453,-4.2270002365112305,1.4250000715255737
1757087995531822000,0.990822021484375,4.429050445556641,-6.219000339508057,1.237950086593628
1757087995541375200,1.000375244140625,1.0360500812530518,-12.067950248718262,1.363050103187561
1757087995550928000,1.009927978515625,-1.815000057220459,-25.789051055908203,-9.207000732421875
1757087995560481000,1.01948095703125,-3.318000078201294,-43.23195266723633,-20.017051696777344
1757087995579586800,1.0385869140625,-2.7870001792907715,-43.13100051879883,8.421000480651855
1757087995589139700,1.0481396484375,2.7529501914978027,-36.147003173828125,-4.039950370788574
1757087995598692600,1.057692626953125,4.39995002746582,-25.3780517578125,-10.279950141906738
1757087995608245500,1.06724560546875,6.6820502281188965,-15.130050659179688,-6.628950119018555
1757087995617798400,1.07679833984375,8.290950775146484,-8.766000747680664,-3.3319501876831055
1757087995627351000,1.08635107421875,6.442050457000732,-6.192000389099121,-1.1500500440597534
1757087995636904000,1.095904052734375,3.2410502433776855,-4.674000263214111,-0.013050000183284283
1757087995646456800,1.105456787109375,-0.4240500330924988,-3.44100022315979,0.4600500166416168
1757087995656010000,1.115010009765625,-4.707000255584717,-2.49495005607605,0.31095001101493835
1757087995665563100,1.124563232421875,-7.648950576782227,-2.8690500259399414,-1.2679500579833984
1757087995675115800,1.13411572265625,-6.093000411987305,-5.172000408172607,-3.5710501670837402
1757087995684669000,1.1436689453125,-3.241950035095215,-7.879950523376465,-4.182000160217285
1757087995694221600,1.1532216796875,-1.5799500942230225,-9.772050857543945,-2.8380000591278076
1757087995703774500,1.1627744140625,-0.5029500126838684,-11.031000137329102,-1.6939500570297241
1757087995713327400,1.172327392578125,0.39705002307891846,-11.922000885009766,-1.3369500637054443
1757087995722880300,1.18188037109375,0.9310500621795654,-12.340950965881348,-1.549950122833252
1757087995732433200,1.19143310546875,1.3260000944137573,-11.910000801086426,-2.4030001163482666
1757087995741986300,1.200986328125,2.5039501190185547,-10.849050521850586,-2.7690000534057617
1757087995751539000,1.2105390625,2.719050168991089,-9.844050407409668,-2.4790501594543457
1757087995761091800,1.220091796875,2.269050121307373,-9.304950714111328,-1.9999500513076782
1757087995770645000,1.22964501953125,1.5360000133514404,-9.268950462341309,-1.842000126838684
1757087995780198000,1.239197998046875,0.9739500284194946,-9.472050666809082,-1.818000078201294
1757087995789750800,1.248750732421875,0.6240000128746033,-9.592050552368164,-1.7680500745773315
1757087995799303700,1.2583037109375,0.3270000219345093,-9.729000091552734,-1.6530001163482666
1757087995808856300,1.267856201171875,0.05895000323653221,-9.901050567626953,-1.5000001192092896
1757087995818409500,1.277409423828125,-0.22500000894069672,-10.07805061340332,-1.4620500802993774
1757087995827962000,1.286962158203125,-0.5410500168800354,-10.176000595092773,-1.4980500936508179
1757087995837515000,1.296514892578125,-0.6889500617980957,-10.128000259399414,-1.5049500465393066
1757087995847068000,1.30606787109375,-0.5650500059127808,-10.03695011138916,-1.6360501050949097
1757087995856621000,1.31562109375,-0.3559500277042389,-9.883950233459473,-1.7989500761032104
1757087995866174000,1.325174072265625,-0.14295001327991486,-9.724050521850586,-2.038950204849243
1757087995875726800,1.334726806640625,0.022950001060962677,-9.625950813293457,-2.2230000495910645
1757087995885279700,1.34427978515625,0.07800000160932541,-9.633000373840332,-2.307000160217285
1757087995894832600,1.35383251953125,-0.05700000375509262,-9.745050430297852,-2.278050184249878
1757087995904385800,1.3633857421875,-0.21300001442432404,-9.82395076751709,-2.1940500736236572
1757087995913938400,1.3729384765625,-0.2989500164985657,-9.870000839233398,-2.115000009536743
1757087995923491300,1.3824912109375,-0.2939999997615814,-9.954000473022461,-2.047950029373169
1757087995933044200,1.392044189453125,-0.10305000841617584,-9.973050117492676,-2.009999990463257
1757087995942597000,1.40159716796875,0.23895001411437988,-9.951000213623047,-1.9069501161575317
1757087995952150300,1.411150390625,0.6220500469207764,-9.891000747680664,-1.8109500408172607
1757087995961703000,1.420702880859375,0.9570000171661377,-9.820050239562988,-1.7869501113891602
1757087995971255800,1.430255859375,1.0600500106811523,-9.765000343322754,-1.7730001211166382
1757087995980808700,1.43980859375,0.934950053691864,-9.754950523376465,-1.765950083732605
1757087995990361900,1.44936181640625,0.7080000042915344,-9.754950523376465,-1.7389501333236694
1757087995999914800,1.458914794921875,0.43695002794265747,-9.802950859069824,-1.7059500217437744
1757087996009467400,1.46846728515625,0.23895001411437988,-9.862950325012207,-1.7080501317977905
1757087996019020300,1.478020263671875,0.1380000114440918,-9.889050483703613,-1.711050033569336
1757087996028573200,1.4875732421875,0.10005000233650208,-9.951000213623047,-1.735050082206726
1757087996038126000,1.4971259765625,0.12600000202655792,-9.979950904846191,-1.7509500980377197
1757087996047679000,1.506678955078125,0.19095000624656677,-9.955950736999512,-1.7509500980377197
1757087996057232000,1.51623193359375,0.27000001072883606,-9.894000053405762,-1.7160000801086426
1757087996066784800,1.52578466796875,0.3150000274181366,-9.858000755310059,-1.7059500217437744
1757087996076338000,1.535337890625,0.33000001311302185,-9.858000755310059,-1.7419500350952148
1757087996085890800,1.544890869140625,0.32295000553131104,-9.826950073242188,-1.8060001134872437
1757087996095443700,1.554443603515625,0.33195000886917114,-9.769050598144531,-1.858950138092041
1757087996104996600,1.56399658203125,0.35805001854896545,-9.769050598144531,-1.9000500440597534
1757087996114549500,1.573549560546875,0.39900001883506775,-9.777000427246094,-1.9360500574111938
1757087996124102400,1.583102294921875,0.4759500324726105,-9.793050765991211,-1.9120501279830933
1757087996133655300,1.5926552734375,0.5400000214576721,-9.901050567626953,-1.9090501070022583
1757087996143208000,1.6022080078125,0.5809500217437744,-9.922950744628906,-1.8499500751495361
1757087996152761000,1.611760986328125,0.5760000348091125,-9.910950660705566,-1.8090001344680786
1757087996162314200,1.621314208984375,0.556950032711029,-9.886950492858887,-1.7710500955581665
1757087996171867000,1.630866943359375,0.531000018119812,-9.859950065612793,-1.7370001077651978
1757087996181420000,1.640419921875,0.4830000102519989,-9.856050491333008,-1.7160000801086426
1757087996190972700,1.64997265625,0.43695002794265747,-9.856050491333008,-1.7059500217437744
1757087996200525600,1.659525634765625,0.4020000100135803,-9.81195068359375,-1.7179501056671143
1757087996210078500,1.669078369140625,0.37800002098083496,-9.79995059967041,-1.7179501056671143
1757087996219631400,1.67863134765625,0.3750000298023224,-9.895950317382812,-1.7370001077651978
1757087996229184300,1.688184326171875,0.40905001759529114,-9.934950828552246,-1.76295006275177
1757087996238737200,1.697737060546875,0.43995001912117004,-9.939000129699707,-1.7970000505447388
1757087996248290000,1.7072900390625,0.4540500342845917,-9.891000747680664,-1.8109500408172607
1757087996257843000,1.716843017578125,0.4759500324726105,-9.83595085144043,-1.7920501232147217
1757087996267395800,1.726395751953125,0.47805002331733704,-9.82395076751709,-1.7970000505447388
1757087996276948700,1.73594873046875,0.5020500421524048,-9.822000503540039,-1.7970000505447388
1757087996286502000,1.745501953125,0.5190000534057617,-9.841050148010254,-1.7830500602722168
1757087996296054800,1.7550546875,0.5260500311851501,-9.877050399780273,-1.7899501323699951
1757087996305607400,1.764607421875,0.527999997138977,-9.891000747680664,-1.828050136566162
1757087996315160600,1.77416064453125,0.5020500421524048,-9.879000663757324,-1.8619500398635864
1757087996324713500,1.78371337890625,0.4639500081539154,-9.858000755310059,-1.858950138092041
1757087996334266000,1.79326611328125,0.4300500154495239,-9.858000755310059,-1.8760501146316528
1757087996343819000,1.802819091796875,0.39705002307891846,-9.871950149536133,-1.8709501028060913
1757087996353372200,1.8123720703125,0.4300500154495239,-9.870000839233398,-1.8520500659942627
1757087996362925000,1.821925048828125,0.4639500081539154,-9.879000663757324,-1.8520500659942627
1757087996372478000,1.83147802734375,0.4639500081539154,-9.901050567626953,-1.8300000429153442
1757087996382030800,1.84103076171875,0.4900500178337097,-9.870000839233398,-1.7920501232147217
1757087996391583700,1.850583740234375,0.4849500358104706,-9.83595085144043,-1.7869501113891602
1757087996401136600,1.86013671875,0.4900500178337097,-9.841050148010254,-1.7680500745773315
1757087996410689500,1.869689453125,0.4900500178337097,-9.814950942993164,-1.7950501441955566
1757087996420242400,1.879242431640625,0.5020500421524048,-9.784050941467285,-1.8229501247406006
1757087996429795300,1.88879541015625,0.5040000081062317,-9.78795051574707,-1.8499500751495361
1757087996439348200,1.89834814453125,0.5020500421524048,-9.777000427246094,-1.8690000772476196
1757087996448901000,1.907901123046875,0.4710000157356262,-9.784050941467285,-1.864050030708313
1757087996458454000,1.9174541015625,0.44700002670288086,-9.822000503540039,-1.8349500894546509
1757087996468007000,1.9270068359375,0.4300500154495239,-9.838950157165527,-1.8139500617980957
1757087996477559800,1.936559814453125,0.43995001912117004,-9.867000579833984,-1.7989500761032104
1757087996487112700,1.94611279296875,0.4230000078678131,-9.882000923156738,-1.7779500484466553
1757087996496665600,1.95566552734375,0.4300500154495239,-9.859950065612793,-1.7850000858306885
1757087996506218500,1.965218505859375,0.4350000321865082,-9.834000587463379,-1.7749500274658203
1757087996515771400,1.974771484375,0.4330500066280365,-9.80505084991455,-1.8139500617980957
1757087996525324300,1.98432421875,0.4420500099658966,-9.796050071716309,-1.8499500751495361
1757087996534877200,1.993877197265625,0.4519500136375427,-9.796050071716309,-1.8880500793457031
1757087996544430000,2.00343017578125,0.43995001912117004,-9.78795051574707,-1.8930001258850098
1757087996553983000,2.01298291015625,0.4159500300884247,-9.81195068359375,-1.8760501146316528
1757087996563536000,2.022535888671875,0.38700002431869507,-9.832050323486328,-1.8400501012802124
1757087996573088800,2.0320888671875,0.3559500277042389,-9.84795093536377,-1.7779500484466553
1757087996582641700,2.0416416015625,0.32295000553131104,-9.865050315856934,-1.7130000591278076
1757087996592194800,2.05119482421875,0.29100000858306885,-9.895950317382812,-1.6770000457763672
1757087996601747700,2.060747802734375,0.2580000162124634,-9.901050567626953,-1.6440000534057617
1757087996611300600,2.070300537109375,0.23595000803470612,-9.925050735473633,-1.6080000400543213
1757087996620853500,2.079853515625,0.22395001351833344,-9.951000213623047,-1.6030501127243042
1757087996630406100,2.08940625,0.19095000624656677,-9.975000381469727,-1.6249500513076782
1757087996639959000,2.098958984375,0.17400000989437103,-9.975000381469727,-1.64805006980896
1757087996649512000,2.108511962890625,0.15000000596046448,-9.943950653076172,-1.6750500202178955
1757087996659064800,2.11806494140625,0.1380000114440918,-9.915000915527344,-1.6939500570297241
1757087996668618000,2.127617919921875,0.1290000081062317,-9.918000221252441,-1.6990500688552856
1757087996678171000,2.1371708984375,0.1290000081062317,-9.918000221252441,-1.7370001077651978
1757087996687723800,2.146723876953125,0.14805001020431519,-9.930000305175781,-1.76295006275177
1757087996697276700,2.156276611328125,0.16905000805854797,-9.930000305175781,-1.7590501308441162
1757087996706829600,2.16582958984375,0.20805001258850098,-9.922950744628906,-1.7590501308441162
1757087996716382500,2.175382568359375,0.23895001411437988,-9.903000831604004,-1.7850000858306885
1757087996725935400,2.184935302734375,0.27000001072883606,-9.862950325012207,-1.7899501323699951
1757087996735488300,2.19448828125,0.2959500253200531,-9.844050407409668,-1.7970000505447388
1757087996745041200,2.204041259765625,0.31095001101493835,-9.832050323486328,-1.7950501441955566
1757087996754594000,2.213593994140625,0.3559500277042389,-9.82395076751709,-1.8019500970840454
1757087996764147000,2.22314697265625,0.41100001335144043,-9.822000503540039,-1.7680500745773315
1757087996773699800,2.232699951171875,0.44505003094673157,-9.81705093383789,-1.7419500350952148
1757087996783252700,2.242252685546875,0.4930500090122223,-9.814950942993164,-1.7419500350952148
1757087996792805600,2.2518056640625,0.5160000324249268,-9.834000587463379,-1.7539501190185547
1757087996802358500,2.261358642578125,0.5329500436782837,-9.859950065612793,-1.7850000858306885
1757087996811911400,2.270911376953125,0.5160000324249268,-9.877050399780273,-1.8349500894546509
1757087996821464300,2.28046435546875,0.49500003457069397,-9.877050399780273,-1.8499500751495361
1757087996831017200,2.290017333984375,0.45705002546310425,-9.858000755310059,-1.8259501457214355
1757087996840570000,2.299570068359375,0.39900001883506775,-9.841050148010254,-1.7989500761032104
1757087996850123000,2.309123046875,0.39195001125335693,-9.84795093536377,-1.7560501098632812
1757087996859676000,2.318676025390625,0.361050009727478,-9.862950325012207,-1.7389501333236694
1757087996869228800,2.328228759765625,0.3630000054836273,-9.865050315856934,-1.7080501317977905
1757087996878781700,2.33778173828125,0.37995001673698425,-9.862950325012207,-1.7200500965118408
1757087996888334600,2.34733447265625,0.40605002641677856,-9.84795093536377,-1.7470500469207764
1757087996897887500,2.356887451171875,0.40905001759529114,-9.820050239562988,-1.7710500955581665
1757087996907440400,2.3664404296875,0.39705002307891846,-9.808050155639648,-1.7899501323699951
1757087996916993300,2.3759931640625,0.40905001759529114,-9.826950073242188,-1.7730001211166382
1757087996926546200,2.385546142578125,0.40905001759529114,-9.841050148010254,-1.7539501190185547
1757087996936099000,2.39509912109375,0.4039500057697296,-9.879000663757324,-1.7230501174926758
1757087996945652000,2.40465185546875,0.4039500057697296,-9.895950317382812,-1.6819500923156738
1757087996955204900,2.414204833984375,0.39900001883506775,-9.910950660705566,-1.6560001373291016
1757087996964757800,2.4237578125,0.38700002431869507,-9.918000221252441,-1.6440000534057617
1757087996974310700,2.433310546875,0.3460500240325928,-9.903000831604004,-1.6290000677108765
1757087996983863800,2.44286376953125,0.33705002069473267,-9.883950233459473,-1.6270500421524048
1757087996993416400,2.45241650390625,0.3439500033855438,-9.870000839233398,-1.6459500789642334
1757087997002969600,2.461969482421875,0.3750000298023224,-9.874950408935547,-1.6579500436782837
1757087997012522500,2.4715224609375,0.39195001125335693,-9.879000663757324,-1.6800000667572021
1757087997022075400,2.481075439453125,0.4159500300884247,-9.894000053405762,-1.7200500965118408
1757087997031628000,2.4906279296875,0.46905001997947693,-9.895950317382812,-1.725000023841858
1757087997041181200,2.50018115234375,0.49500003457069397,-9.877050399780273,-1.7370001077651978
1757087997050734000,2.509734130859375,0.4849500358104706,-9.84795093536377,-1.7560501098632812
1757087997060287000,2.519286865234375,0.45705002546310425,-9.838950157165527,-1.7590501308441162
1757087997069840000,2.52883984375,0.43695002794265747,-9.853050231933594,-1.7590501308441162
1757087997079392800,2.538392822265625,0.4210500121116638,-9.891000747680664,-1.7710500955581665
1757087997088945700,2.547945556640625,0.40905001759529114,-9.919950485229492,-1.765950083732605
1757087997098498600,2.55749853515625,0.4039500057697296,-9.903000831604004,-1.7470500469207764
1757087997108051500,2.567051513671875,0.39900001883506775,-9.877050399780273,-1.735050082206726
1757087997117604400,2.576604248046875,0.37995001673698425,-9.862950325012207,-1.7160000801086426
1757087997127157200,2.5861572265625,0.37005001306533813,-9.870000839233398,-1.7179501056671143
1757087997136710100,2.595710205078125,0.3940500319004059,-9.906000137329102,-1.7080501317977905
1757087997146263000,2.605262939453125,0.4350000321865082,-9.915000915527344,-1.7040001153945923
1757087997155816000,2.61481591796875,0.4759500324726105,-9.910950660705566,-1.6990500688552856
1757087997165368800,2.624368896484375,0.5089499950408936,-9.903000831604004,-1.6870501041412354
1757087997174921500,2.63392138671875,0.5119500160217285,-9.870000839233398,-1.6770000457763672
1757087997184474600,2.643474609375,0.49695003032684326,-9.858000755310059,-1.6750500202178955
1757087997194027500,2.653027587890625,0.49695003032684326,-9.841050148010254,-1.6680001020431519
1757087997203580400,2.662580322265625,0.5020500421524048,-9.859950065612793,-1.64805006980896
1757087997213133300,2.67213330078125,0.49695003032684326,-9.889050483703613,-1.64805006980896
1757087997222686200,2.681686279296875,0.46905001997947693,-9.919950485229492,-1.64805006980896
1757087997232239000,2.691239013671875,0.4249500334262848,-9.955950736999512,-1.6630500555038452
1757087997241792000,2.7007919921875,0.4039500057697296,-9.973050117492676,-1.6840500831604004
1757087997251345000,2.710344970703125,0.40605002641677856,-9.946950912475586,-1.7059500217437744
1757087997260897800,2.719897705078125,0.4230000078678131,-9.934950828552246,-1.7299500703811646
1757087997270450700,2.72945068359375,0.43995001912117004,-9.903000831604004,-1.7509500980377197
1757087997280003600,2.739003662109375,0.42795002460479736,-9.895950317382812,-1.7749500274658203
1757087997289556500,2.748556396484375,0.44700002670288086,-9.910950660705566,-1.7749500274658203
1757087997299109400,2.758109375,0.4759500324726105,-9.931950569152832,-1.7710500955581665
1757087997308662000,2.767662109375,0.5040000081062317,-9.931950569152832,-1.7370001077651978
1757087997318215200,2.777215087890625,0.5160000324249268,-9.942000389099121,-1.7269500494003296
1757087997327768300,2.786768310546875,0.4930500090122223,-9.987000465393066,-1.7179501056671143
1757087997337321000,2.796321044921875,0.4930500090122223,-10.01400089263916,-1.7040001153945923
1757087997346873900,2.805873779296875,0.49695003032684326,-10.081050872802734,-1.7230501174926758
1757087997356426800,2.8154267578125,0.5550000071525574,-10.111950874328613,-1.735050082206726
1757087997365979600,2.824979736328125,0.6390000581741333,-10.119000434875488,-1.7269500494003296
1757087997375532500,2.834532470703125,0.700950026512146,-10.051950454711914,-1.6960500478744507
1757087997385085400,2.84408544921875,0.7750500440597534,-9.999000549316406,-1.7320500612258911
1757087997394638300,2.853638427734375,0.8440500497817993,-9.930000305175781,-1.7850000858306885
1757087997404191200,2.863191162109375,0.9120000600814819,-9.882000923156738,-1.8829500675201416
1757087997413744000,2.872744140625,1.0069500207901,-9.802950859069824,-2.0050501823425293
1757087997423297000,2.882297119140625,1.1149500608444214,-9.726000785827637,-2.11995005607605
1757087997432850000,2.891849853515625,1.1650500297546387,-9.666000366210938,-2.2139999866485596
1757087997442402800,2.90140283203125,1.2060000896453857,-9.597000122070312,-2.2759501934051514
1757087997451955700,2.910955810546875,1.2400500774383545,-9.508050918579102,-2.2900500297546387
1757087997461508600,2.920508544921875,1.201050043106079,-9.421950340270996,-2.2829999923706055
1757087997471061500,2.9300615234375,1.1389501094818115,-9.38895034790039,-2.284950017929077
1757087997480614400,2.939614501953125,1.117050051689148,-9.372000694274902,-2.308950185775757
1757087997490167300,2.949167236328125,1.120050072669983,-9.355050086975098,-2.3479502201080322
1757087997499720200,2.95872021484375,1.1460000276565552,-9.340950012207031,-2.371950149536133
1757087997509273000,2.968273193359375,1.1340000629425049,-9.283050537109375,-2.4820501804351807
1757087997518826000,2.977825927734375,1.1130000352859497,-9.180000305175781,-2.5489501953125
1757087997528379100,2.987379150390625,1.141050100326538,-9.115950584411621,-2.6110501289367676
1757087997537932000,2.99693212890625,1.1610000133514404,-9.055950164794922,-2.6730000972747803
1757087997547484700,3.006484619140625,1.1920500993728638,-9.022050857543945,-2.6920502185821533
1757087997557037600,3.01603759765625,1.2510000467300415,-8.979000091552734,-2.659050226211548
1757087997566590500,3.025590576171875,1.2709500789642334,-8.89995002746582,-2.6920502185821533
1757087997576143400,3.035143310546875,1.231950044631958,-8.802000045776367,-2.697000026702881
1757087997585696300,3.0446962890625,1.1680500507354736,-8.814000129699707,-2.745000123977661
1757087997595249200,3.054249267578125,0.9859500527381897,-8.866950035095215,-2.854950189590454
1757087997604802300,3.06380224609375,0.5380499958992004,-8.907000541687012,-2.8789501190185547
1757087997614355200,3.073355224609375,-2.743950128555298,-9.277950286865234,-2.2110002040863037
1757087997623908000,3.082908203125,-6.172050476074219,-9.879000663757324,-1.725000023841858
1757087997633461000,3.0924609375,-5.619000434875488,-10.011000633239746,-2.206050157546997
1757087997643014000,3.102013916015625,-3.6919500827789307,-9.987000465393066,-2.0839500427246094
1757087997652566800,3.11156689453125,-2.245950222015381,-10.131000518798828,-1.4040000438690186
1757087997662119700,3.12111962890625,-2.0299501419067383,-10.246050834655762,-1.5739500522613525
1757087997671672300,3.13067236328125,-1.6609500646591187,-10.393950462341309,-2.16795015335083
1757087997681225200,3.14022509765625,-1.1970000267028809,-10.581000328063965,-2.239950180053711
1757087997690778000,3.149778076171875,-1.53000009059906,-9.994050025939941,-2.48895001411438
1757087997700331000,3.1593310546875,-2.5980000495910645,-9.280950546264648,-3.0420000553131104
1757087997709884200,3.16888427734375,-3.687000274658203,-8.950050354003906,-3.6000001430511475
1757087997719437000,3.17843701171875,-3.759000062942505,-8.74905014038086,-3.3289501667022705
1757087997728990000,3.187989990234375,-3.129000186920166,-8.794950485229492,-2.983950138092041
1757087997738542800,3.19754296875,-2.5420501232147217,-9.120000839233398,-2.7619500160217285
1757087997748095700,3.207095703125,-2.2980000972747803,-9.20895004272461,-2.39805006980896
1757087997757648600,3.216648681640625,-2.2549500465393066,-9.420000076293945,-2.110949993133545
1757087997767201500,3.226201416015625,-2.3800501823425293,-9.718950271606445,-1.6030501127243042
1757087997776754200,3.235754150390625,-2.6569502353668213,-9.930000305175781,-0.5659500360488892
1757087997786307300,3.245307373046875,-2.8590002059936523,-9.607050895690918,-0.6859500408172607
1757087997795860000,3.25485986328125,-2.0370001792907715,-9.628050804138184,-0.004050000105053186
1757087997805412900,3.264412841796875,-3.031050205230713,-9.822000503540039,0.7180500626564026
1757087997814966000,3.273966064453125,-3.759000062942505,-9.81705093383789,0.8740500211715698
1757087997824519200,3.283519287109375,-4.017000198364258,-9.81705093383789,0.44805002212524414
1757087997834071600,3.293071533203125,-3.7609500885009766,-9.654000282287598,-0.208950012922287
1757087997843624700,3.302624755859375,-3.5119502544403076,-9.41295051574707,-0.8680500388145447
1757087997853177600,3.312177490234375,-3.8449501991271973,-8.94795036315918,-1.5600000619888306
1757087997862730500,3.32173046875,-4.441050052642822,-8.416950225830078,-2.278050184249878
1757087997872283400,3.331283447265625,-4.300050258636475,-8.047950744628906,-2.6130001544952393
1757087997881836300,3.340836181640625,-3.787050247192383,-7.807950496673584,-2.6710500717163086
1757087997891389200,3.35038916015625,-3.9499502182006836,-7.725000381469727,-2.6490001678466797
1757087997900942000,3.359942138671875,-4.534950256347656,-7.621950149536133,-2.6760001182556152
1757087997910494700,3.36949462890625,-4.326000213623047,-7.7989501953125,-2.236950159072876
1757087997920047600,3.379047607421875,-3.9619503021240234,-8.136000633239746,-2.058000087738037
1757087997929600800,3.388600830078125,-4.288050174713135,-8.449950218200684,-2.110949993133545
1757087997939153700,3.398153564453125,-4.494000434875488,-8.42400074005127,-1.9260001182556152
1757087997948706600,3.40770654296875,-4.495950222015381,-8.044950485229492,-1.7730001211166382
1757087997958259500,3.417259521484375,-4.767000198364258,-7.846950531005859,-1.735050082206726
1757087997967812400,3.426812255859375,-5.446950435638428,-7.477950572967529,-2.364000082015991
1757087997977365200,3.436365234375,-5.8470001220703125,-7.393950462341309,-2.4190502166748047
1757087997986918100,3.445918212890625,-5.6670002937316895,-7.333950519561768,-2.2350001335144043
1757087997996471000,3.455470947265625,-5.314950466156006,-7.36305046081543,-2.1130499839782715
1757087998006024000,3.46502392578125,-5.406000137329102,-7.3969502449035645,-2.179949998855591
1757087998015576600,3.47457666015625,-5.94195032119751,-7.456050395965576,-2.3400001525878906
1757087998025129700,3.484129638671875,-5.9569501876831055,-7.464000225067139,-2.227950096130371
1757087998034682600,3.4936826171875,-5.944950103759766,-7.207050323486328,-2.239950180053711
1757087998044235500,3.503235595703125,-6.202950477600098,-6.7260003089904785,-2.527050018310547
1757087998053788400,3.512788330078125,-6.426000118255615,-6.168000221252441,-2.8789501190185547
1757087998063341000,3.522341064453125,-6.826050281524658,-5.63700008392334,-3.05400013923645
1757087998072894200,3.531894287109375,-7.045950412750244,-5.230050086975098,-3.055950164794922
1757087998082447000,3.541447021484375,-6.9120001792907715,-4.959000110626221,-2.866950035095215
1757087998092000000,3.551,-6.8020501136779785,-5.068950176239014,-2.455050230026245
1757087998101553000,3.560552978515625,-6.967050552368164,-5.059950351715088,-2.3209500312805176
1757087998111105800,3.570105712890625,-7.0410003662109375,-5.211000442504883,-2.1820499897003174
1757087998120658700,3.57965869140625,-7.282950401306152,-5.160000324249268,-2.3430001735687256
1757087998130211600,3.589211669921875,-7.582050323486328,-4.999950408935547,-2.5060501098632812
1757087998139764200,3.59876416015625,-7.6810503005981445,-5.017050266265869,-2.439000129699707
1757087998149317000,3.608317138671875,-7.91295051574707,-4.855950355529785,-2.5030500888824463
1757087998158870300,3.617870361328125,-8.083050727844238,-4.795950412750244,-2.4409501552581787
1757087998168423200,3.627423095703125,-8.1670503616333,-4.404000282287598,-2.4190502166748047
1757087998177975800,3.636975830078125,-8.18595027923584,-3.8550002574920654,-2.4030001163482666
1757087998187529000,3.646529052734375,-7.887000560760498,-3.702000141143799,-2.439000129699707
1757087998197081900,3.656081787109375,-7.812000274658203,-3.76200008392334,-2.5630500316619873
1757087998206634800,3.665634765625,-7.8670501708984375,-3.973050117492676,-2.6640000343322754
1757087998216187600,3.675187744140625,-7.984950542449951,-4.192950248718262,-2.764050245285034
1757087998225740500,3.684740478515625,-8.230950355529785,-4.485000133514404,-2.6040000915527344
1757087998235293400,3.69429345703125,-8.623950004577637,-4.734000205993652,-2.625000238418579
1757087998244846000,3.70384619140625,-8.956950187683105,-4.713000297546387,-2.848050117492676
1757087998254399200,3.713399169921875,-9.021000862121582,-4.5329999923706055,-2.937000036239624
1757087998263952100,3.7229521484375,-8.812950134277344,-4.195050239562988,-2.7310500144958496
1757087998273505000,3.732505126953125,-8.752950668334961,-4.027950286865234,-2.338050127029419
1757087998283058000,3.742057861328125,-9.067049980163574,-4.054049968719482,-1.9810501337051392
1757087998292610800,3.75161083984375,-9.313050270080566,-4.249950408935547,-1.6819500923156738
1757087998302163700,3.761163818359375,-9.117000579833984,-4.128000259399414,-2.1780002117156982
1757087998311716600,3.770716552734375,-8.722050666809082,-4.030050277709961,-2.4940500259399414
1757087998321269500,3.78026953125,-8.784000396728516,-3.721050262451172,-2.5249500274658203
1757087998330822100,3.789822265625,-8.941950798034668,-3.444000244140625,-2.2710001468658447
1757087998340375000,3.799375,-8.923050880432129,-3.1660501956939697,-2.0719501972198486
1757087998349928000,3.808927978515625,-8.965950012207031,-2.9599502086639404,-2.055000066757202
1757087998359480800,3.818480712890625,-9.424050331115723,-2.694000244140625,-1.6680001020431519
1757087998369034000,3.828033935546875,-10.072050094604492,-2.433000087738037,-1.4929500818252563
1757087998378587000,3.8375869140625,-10.597050666809082,-2.4690001010894775,-1.3830000162124634
1757087998388139500,3.847139404296875,-10.426950454711914,-2.4690001010894775,-1.2750000953674316
1757087998397692700,3.856692626953125,-9.961950302124023,-2.448000192642212,-1.29705011844635
1757087998407245600,3.86624560546875,-10.033950805664062,-2.2870500087738037,-1.1599500179290771
1757087998416798500,3.875798583984375,-10.366950035095215,-2.4240000247955322,-1.2340500354766846
1757087998426351400,3.885351318359375,-10.329000473022461,-2.2230000495910645,-1.1479500532150269
1757087998435904000,3.894904052734375,-10.269000053405762,-1.9470001459121704,-0.7669500112533569
1757087998445457000,3.904456787109375,-10.120050430297852,-1.7170500755310059,-1.1959500312805176
1757087998455010000,3.914010009765625,-9.658050537109375,-1.5019500255584717,-1.4500501155853271
1757087998464563000,3.92356298828125,-9.414000511169434,-1.6770000457763672,-1.002000093460083
1757087998474115800,3.93311572265625,-9.555000305175781,-1.7010000944137573,-0.6930000185966492
1757087998483668700,3.942668701171875,-10.336050033569336,-1.537950038909912,-0.0799500048160553
1757087998493221400,3.952221435546875,-10.575000762939453,-1.593000054359436,-0.42000001668930054
1757087998502774500,3.9617744140625,-10.597050666809082,-1.5660001039505005,-0.5490000247955322
1757087998512327400,3.971327392578125,-10.153950691223145,-1.4059500694274902,-1.13100004196167
1757087998521880300,3.98088037109375,-9.964950561523438,-0.8940000534057617,-1.7920501232147217
1757087998531433200,3.99043310546875,-10.372050285339355,-0.364950031042099,-2.158050060272217
1757087998540985900,3.99998583984375,-10.840950965881348,-0.20400001108646393,-2.0440499782562256
1757087998550538800,4.009538818359375,-10.60200023651123,-0.18495000898838043,-1.593000054359436
1757087998560091600,4.019091552734375,-10.089000701904297,-0.31200000643730164,-1.0860000848770142
1757087998569644500,4.02864453125,-9.879000663757324,-0.5080500245094299,-0.7189500331878662
1757087998579197400,4.038197509765625,-9.970050811767578,-0.8149500489234924,-0.7050000429153442
1757087998588750600,4.04775048828125,-10.18005084991455,-1.0399500131607056,-0.9469500184059143
1757087998598303200,4.05730322265625,-10.390950202941895,-1.0180500745773315,-1.0470000505447388
1757087998607856400,4.0668564453125,-10.527000427246094,-0.9630000591278076,-0.9109500646591187
1757087998617409300,4.0764091796875,-10.362000465393066,-0.9340500235557556,-0.7939500212669373
1757087998626962200,4.085962158203125,-10.17495059967041,-0.7930500507354736,-0.8220000267028809
1757087998636515000,4.09551513671875,-9.859050750732422,-0.6930000185966492,-0.8820000290870667
1757087998646067700,4.105067626953125,-9.610050201416016,-0.62295001745224,-1.0740000009536743
1757087998655620600,4.11462060546875,-9.28695011138916,-0.6949500441551208,-1.0830000638961792
1757087998665173500,4.124173583984375,-9.262950897216797,-0.7909500598907471,-1.13100004196167
1757087998674726700,4.1337265625,-9.270000457763672,-0.7980000376701355,-0.9919500350952148
1757087998684279300,4.143279296875,-9.402000427246094,-0.7519500255584717,-0.8320500254631042
1757087998693832200,4.152832275390625,-9.541050910949707,-0.6930000185966492,-0.6810000538825989
1757087998703385000,4.162385009765625,-9.622050285339355,-0.6520500183105469,-0.6330000162124634
1757087998712938200,4.171938232421875,-9.768000602722168,-0.5389500260353088,-0.6600000262260437
1757087998722491100,4.1814912109375,-9.855000495910645,-0.4819500148296356,-0.6330000162124634
1757087998732044000,4.1910439453125,-9.996000289916992,-0.4120500087738037,-0.43905001878738403
1757087998741597000,4.200596923828125,-10.19205093383789,-0.3910500109195709,-0.15195000171661377
1757087998751149600,4.210149658203125,-10.290000915527344,-0.5350500345230103,-0.019950000569224358
1757087998760702500,4.219702392578125,-10.254000663757324,-0.7170000076293945,0.09600000083446503
1757087998770255400,4.22925537109375,-10.116000175476074,-0.9970500469207764,0.22995001077651978
1757087998779808300,4.238808349609375,-9.967050552368164,-1.3030500411987305,0.34005001187324524
1757087998789361200,4.248361083984375,-9.843000411987305,-1.5640500783920288,0.3739500045776367
1757087998798914000,4.2579140625,-9.679950714111328,-1.7839500904083252,0.4410000145435333
1757087998808467000,4.267467041015625,-9.59595012664795,-1.8390001058578491,0.4069500267505646
1757087998818019800,4.277019775390625,-9.574050903320312,-1.954050064086914,0.5149500370025635
1757087998827573000,4.286572998046875,-9.688950538635254,-1.9620001316070557,0.40005001425743103
1757087998837125600,4.296125732421875,-9.804000854492188,-2.0050501823425293,0.325950026512146
1757087998846678500,4.305678466796875,-9.90000057220459,-2.0329501628875732,0.2639999985694885
1757087998856231400,4.3152314453125,-9.946050643920898,-2.01705002784729,0.09405000507831573
1757087998865784300,4.324784423828125,-9.946050643920898,-1.9210500717163086,0.015000000596046448
1757087998875337200,4.334337158203125,-9.988950729370117,-1.7839500904083252,-0.037050001323223114
1757087998884890000,4.34389013671875,-10.128000259399414,-1.7200500965118408,-0.17595000565052032
1757087998894443300,4.353443359375,-10.197000503540039,-1.6459500789642334,-0.3049500286579132
1757087998903996000,4.362995849609375,-10.159050941467285,-1.5139501094818115,-0.35805001854896545
1757087998913548800,4.372548828125,-10.092000007629395,-1.4059500694274902,-0.47505003213882446
1757087998923101700,4.382101806640625,-10.021950721740723,-1.3459500074386597,-0.5640000104904175
1757087998932654600,4.391654541015625,-10.03695011138916,-1.3060500621795654,-0.5089499950408936
1757087998942207500,4.40120751953125,-9.993000030517578,-1.2790501117706299,-0.3960000276565552
1757087998951760600,4.4107607421875,-9.778050422668457,-1.2499500513076782,-0.24795001745224
1757087998961313300,4.420313232421875,-9.663000106811523,-1.2739500999450684,-0.1879500150680542
1757087998970866200,4.4298662109375,-9.519000053405762,-1.207050085067749,-0.034950003027915955
1757087998980419000,4.439419189453125,-9.493050575256348,-1.1470500230789185,0.15300001204013824
1757087998989972000,4.448971923828125,-9.571950912475586,-1.075950026512146,0.25905001163482666
1757087998999524900,4.45852490234375,-9.703950881958008,-0.9610500335693359,0.26805001497268677
1757087999009077800,4.468077880859375,-9.895050048828125,-0.8410500288009644,0.24195000529289246
1757087999018630700,4.477630615234375,-10.012950897216797,-0.7450500130653381,0.13905000686645508
1757087999028183600,4.48718359375,-10.005000114440918,-0.6420000195503235,0.09795000404119492
1757087999037736400,4.496736328125,-9.879000663757324,-0.6949500441551208,-0.20205001533031464
1757087999047289300,4.506289306640625,-9.784950256347656,-0.7960500121116638,-0.47505003213882446
1757087999056842200,4.51584228515625,-9.594000816345215,-0.8460000157356262,-0.40605002641677856
1757087999066395100,4.52539501953125,-9.220050811767578,-0.8770500421524048,-0.21195000410079956
1757087999075948000,4.534947998046875,-8.884950637817383,-1.072950005531311,-0.23805001378059387
1757087999085501000,4.5445009765625,-8.71500015258789,-1.3440001010894775,-0.3240000009536743
1757087999095053800,4.5540537109375,-8.70300006866455,-1.4040000438690186,-0.24300001561641693
1757087999104607000,4.56360693359375,-8.686050415039062,-1.2910500764846802,-0.22095000743865967
1757087999114159600,4.57315966796875,-8.701050758361816,-1.1359500885009766,-0.19305001199245453
1757087999123712500,4.58271240234375,-8.72700023651123,-0.999000072479248,-0.1660500019788742
1757087999133265400,4.592265380859375,-8.812950134277344,-0.9220500588417053,-0.013050000183284283
1757087999142818300,4.601818359375,-9.045000076293945,-0.7909500598907471,0.1870500147342682
1757087999152371200,4.61137109375,-9.376049995422363,-0.7810500264167786,0.2760000228881836
1757087999161924000,4.620924072265625,-9.736950874328613,-0.8940000534057617,0.26805001497268677
1757087999171477000,4.63047705078125,-10.092000007629395,-0.9540000557899475,0.42600002884864807
1757087999181030000,4.64002978515625,-10.326000213623047,-1.0470000505447388,0.49605002999305725
1757087999190582800,4.649582763671875,-10.422000885009766,-1.1329500675201416,0.3349500298500061
1757087999200135400,4.659135498046875,-10.35300064086914,-1.207050085067749,0.1290000081062317
1757087999209688300,4.668688232421875,-10.147050857543945,-1.1500500440597534,0.07695000618696213
1757087999219241200,4.6782412109375,-9.960000038146973,-0.9780000448226929,-0.04905000329017639
1757087999228794000,4.687794189453125,-9.88800048828125,-0.906000018119812,-0.19995000958442688
1757087999238347000,4.697346923828125,-9.844950675964355,-0.8910000324249268,-0.23805001378059387
1757087999247900000,4.70689990234375,-9.760950088500977,-0.9850500226020813,-0.2050500065088272
1757087999257453000,4.716453125,-9.643950462341309,-1.168950080871582,-0.10200000554323196
1757087999267006000,4.726005859375,-9.594000816345215,-1.432050108909607,0.0070500001311302185
1757087999276558800,4.735558837890625,-9.586050033569336,-1.606950044631958,0.15300001204013824
1757087999286111700,4.74511181640625,-9.59595012664795,-1.6429500579833984,0.30705001950263977
1757087999295664400,4.754664306640625,-9.655950546264648,-1.5430500507354736,0.4339500069618225
1757087999305217300,4.76421728515625,-9.771000862121582,-1.3530000448226929,0.520050048828125
1757087999314770200,4.773770263671875,-9.844950675964355,-1.1209501028060913,0.5719500184059143
1757087999324323000,4.783322998046875,-9.802050590515137,-0.9660000205039978,0.6040500402450562
1757087999333876000,4.7928759765625,-9.739950180053711,-0.9300000667572021,0.6300000548362732
1757087999343428900,4.802428955078125,-9.75195026397705,-0.9439500570297241,0.7140000462532043
1757087999352981800,4.811981689453125,-9.790050506591797,-1.0110000371932983,0.7519500255584717
1757087999362534700,4.82153466796875,-9.808950424194336,-1.1119500398635864,0.6990000605583191
1757087999372087600,4.831087646484375,-9.844950675964355,-1.210050106048584,0.5719500184059143
1757087999381640400,4.840640380859375,-9.79995059967041,-1.3410000801086426,0.48900002241134644
1757087999391193300,4.850193359375,-9.744000434875488,-1.4250000715255737,0.3949500322341919
1757087999400746200,4.859746337890625,-9.675000190734863,-1.420050024986267,0.32805001735687256
1757087999410299100,4.869299072265625,-9.682050704956055,-1.3270500898361206,0.2970000207424164
1757087999419852000,4.87885205078125,-9.675000190734863,-1.2859500646591187,0.31905001401901245
1757087999429405000,4.888405029296875,-9.700950622558594,-1.071000099182129,0.4240500330924988
1757087999438957800,4.897957763671875,-9.658050537109375,-0.9420000314712524,0.364050030708313
1757087999448510700,4.9075107421875,-9.62505054473877,-0.9370500445365906,0.2950500249862671
1757087999458063600,4.917063720703125,-9.61500072479248,-0.9490500688552856,0.3739500045776367
1757087999467616500,4.926616455078125,-9.610050201416016,-0.9970500469207764,0.3930000066757202
1757087999477169200,4.936169189453125,-9.63900089263916,-0.9340500235557556,0.38100001215934753
1757087999486722000,4.94572216796875,-9.60105037689209,-0.9510000348091125,0.40005001425743103
1757087999496275200,4.955275146484375,-9.598050117492676,-0.9490500688552856,0.36195001006126404
1757087999505827800,4.964827880859375,-9.643950462341309,-0.9580500721931458,0.3139500021934509
1757087999515380700,4.974380615234375,-9.718050003051758,-0.9510000348091125,0.2850000262260437
1757087999524934000,4.983933837890625,-9.733050346374512,-0.9540000557899475,0.29205000400543213
1757087999534486800,4.99348681640625,-9.759000778198242,-0.9679500460624695,0.26100000739097595
1757087999544039400,5.003039306640625,-9.796950340270996,-0.9220500588417053,0.20400001108646393
1757087999553592300,5.01259228515625,-9.782999992370605,-0.859950065612793,0.14595000445842743
1757087999563145200,5.022145263671875,-9.709050178527832,-0.8479500412940979,0.05295000225305557
1757087999572698000,5.031697998046875,-9.667950630187988,-0.8029500246047974,0.0070500001311302185
1757087999582251000,5.0412509765625,-9.673050880432129,-0.7879500389099121,-0.05400000140070915
1757087999591804000,5.050803955078125,-9.711000442504883,-0.7500000596046448,-0.10695000737905502
1757087999601356800,5.060356689453125,-9.721050262451172,-0.7480500340461731,-0.1380000114440918
1757087999610909700,5.06990966796875,-9.723000526428223,-0.8460000157356262,-0.15195000171661377
1757087999620462300,5.07946240234375,-9.664950370788574,-0.8940000534057617,-0.08295000344514847
1757087999630015500,5.089015380859375,-9.61500072479248,-0.9370500445365906,-0.09495000541210175
1757087999639568600,5.098568603515625,-9.574050903320312,-0.8910000324249268,-0.031950000673532486
1757087999649121500,5.10812158203125,-9.505050659179688,-0.6949500441551208,0.06195000186562538
1757087999658674200,5.117674072265625,-9.60105037689209,-0.7740000486373901,0.2440500110387802
1757087999668227000,5.12722705078125,-9.655950546264648,-0.9780000448226929,0.08595000207424164
1757087999677780000,5.136780029296875,-9.709050178527832,-1.1020500659942627,-0.10200000554323196
1757087999687332900,5.146332763671875,-9.772950172424316,-1.1069999933242798,-0.11595000326633453
1757087999696885800,5.1558857421875,-9.820950508117676,-1.015950083732605,0.015000000596046448
1757087999706438700,5.165438720703125,-9.778050422668457,-0.9559500217437744,-0.018000001087784767
1757087999715991600,5.174991455078125,-9.733050346374512,-1.0060499906539917,-0.13005000352859497
1757087999725544400,5.18454443359375,-9.687000274658203,-1.0999500751495361,-0.23295001685619354
1757087999735097600,5.19409765625,-9.646050453186035,-1.1880000829696655,-0.2770500183105469
1757087999744650200,5.203650146484375,-9.61500072479248,-1.2049500942230225,-0.17100000381469727
1757087999754203100,5.213203125,-9.643950462341309,-1.2049500942230225,-0.11100000888109207
1757087999763756000,5.222756103515625,-9.679950714111328,-1.2649500370025635,-0.11400000751018524
1757087999773309000,5.232308837890625,-9.724950790405273,-1.3150500059127808,-0.11595000326633453
1757087999782861800,5.24186181640625,-9.754050254821777,-1.2790501117706299,-0.11400000751018524
1757087999792414700,5.251414794921875,-9.768000602722168,-1.2529500722885132,-0.09195000678300858
1757087999801967400,5.26096728515625,-9.760950088500977,-1.1929500102996826,-0.030000001192092896
1757087999811520500,5.2705205078125,-9.748950004577637,-1.1470500230789185,-0.018000001087784767
1757087999821073400,5.280073486328125,-9.736950874328613,-1.1400001049041748,-0.00795000046491623
1757087999830626300,5.289626220703125,-9.733050346374512,-1.1040000915527344,0
1757087999840179000,5.299178955078125,-9.64905071258545,-1.0420500040054321,-0.034950003027915955
1757087999849732000,5.308732177734375,-9.631950378417969,-0.9799500703811646,0.04800000041723251
1757087999859285000,5.318284912109375,-9.682050704956055,-0.9780000448226929,0.039000000804662704
1757087999868838000,5.327837890625,-9.706050872802734,-0.9750000238418579,0.036000002175569534
1757087999878390500,5.337390625,-9.730050086975098,-1.01295006275177,0.07905000448226929
1757087999887943400,5.346943359375,-9.694050788879395,-0.9889500737190247,0.07695000618696213
1757087999897496300,5.356496337890625,-9.652950286865234,-0.973050057888031,-0.019950000569224358
1757087999907049200,5.36604931640625,-9.63705062866211,-0.9580500721931458,-0.019950000569224358
1757087999916602000,5.37560205078125,-9.630000114440918,-1.015950083732605,-0.05400000140070915
1757087999926155000,5.385155029296875,-9.658050537109375,-1.0399500131607056,-0.034950003027915955
1757087999935708000,5.3947080078125,-9.709050178527832,-0.9750000238418579,0.003000000026077032
1757087999945260800,5.4042607421875,-9.712950706481934,-0.9300000667572021,0.0499500036239624
1757087999954813400,5.4138134765625,-9.697050094604492,-0.9270000457763672,0.039000000804662704
1757087999964366600,5.42336669921875,-9.687000274658203,-0.9540000557899475,-0.037050001323223114
1757087999973919500,5.43291943359375,-9.709050178527832,-0.89805006980896,0.0070500001311302185
1757087999983472000,5.44247216796875,-9.679950714111328,-0.9250500202178955,-0.043950002640485764
1757087999993025300,5.452025390625,-9.782999992370605,-0.9850500226020813,0.11805000901222229
1757088000002578200,5.461578125,-9.75195026397705,-0.9559500217437744,0.24705001711845398
1757088000012131000,5.471131103515625,-9.739950180053711,-0.9820500612258911,0.2370000183582306
1757088000021684000,5.48068408203125,-9.697050094604492,-1.0090500116348267,0.24000000953674316
1757088000031236900,5.49023681640625,-9.658050537109375,-1.0279500484466553,0.24000000953674316
1757088000040789500,5.49978955078125,-9.62505054473877,-1.0780500173568726,0.20400001108646393
1757088000050342400,5.50934228515625,-9.703950881958008,-1.0279500484466553,0.05505000427365303
1757088000059895300,5.518895263671875,-9.850050926208496,-0.8670000433921814,-0.1469999998807907
1757088000069448400,5.528448486328125,-9.835050582885742,-0.8290500640869141,0.09105000644922256
1757088000079001000,5.5380009765625,-9.832950592041016,-0.9300000667572021,0.31905001401901245
1757088000088554200,5.54755419921875,-9.772950172424316,-0.9780000448226929,0.4120500087738037
1757088000098107100,5.557107177734375,-9.643950462341309,-0.9079500436782837,0.46695002913475037
1757088000107660000,5.566659912109375,-9.550950050354004,-0.9130500555038452,0.32805001735687256
1757088000117212700,5.576212646484375,-9.486000061035156,-0.8629500269889832,0.20100000500679016
1757088000126765600,5.585765625,-9.694050788879395,-0.8749500513076782,0.16995000839233398
1757088000136318500,5.595318359375,-9.667950630187988,-0.9370500445365906,0.08205000311136246
1757088000145871400,5.604871337890625,-9.511950492858887,-1.0249500274658203,-0.22095000743865967
1757088000155424300,5.61442431640625,-9.511950492858887,-1.068000078201294,-0.35100001096725464
1757088000164977400,5.623977294921875,-9.77595043182373,-1.1670000553131104,-0.38895002007484436
1757088000174530300,5.6335302734375,-9.895050048828125,-1.1500500440597534,-0.22095000743865967
1757088000184083200,5.643083251953125,-9.735000610351562,-1.0609500408172607,-0.3559500277042389
1757088000193635800,5.6526357421875,-9.63705062866211,-0.89805006980896,0.016950000077486038
1757088000203188700,5.662188720703125,-9.519000053405762,-0.7620000243186951,-0.018000001087784767
1757088000212741600,5.67174169921875,-9.5910005569458,-0.7279500365257263,-0.07304999977350235
1757088000222294500,5.68129443359375,-9.706050872802734,-0.7960500121116638,-0.09000000357627869
1757088000231847400,5.690847412109375,-9.792000770568848,-0.906000018119812,0.027000000700354576
1757088000241400300,5.700400390625,-9.807000160217285,-1.0399500131607056,0.04605000093579292
1757088000250953200,5.709953125,-9.703950881958008,-1.2769500017166138,0.08400000631809235
1757088000260506000,5.719506103515625,-9.679950714111328,-1.3609501123428345,0.2179500162601471
1757088000270059000,5.72905908203125,-9.688950538635254,-1.432050108909607,0.40005001425743103
1757088000279612000,5.73861181640625,-9.78795051574707,-1.4130001068115234,0.46695002913475037
1757088000289164800,5.748164794921875,-9.694050788879395,-1.3680000305175781,0.32100000977516174
1757088000298717700,5.7577177734375,-9.5910005569458,-1.2769500017166138,0.4429500102996826
1757088000308270600,5.7672705078125,-9.598050117492676,-1.3060500621795654,0.325950026512146
1757088000317823500,5.776823486328125,-10.104000091552734,-1.3099501132965088,0.6589500308036804
1757088000327376400,5.78637646484375,-9.772950172424316,-1.2859500646591187,0.7519500255584717
1757088000336929300,5.79592919921875,-9.451950073242188,-1.3200000524520874,0.6079500317573547
1757088000346482000,5.80548193359375,-9.531000137329102,-1.4059500694274902,0.27105000615119934
1757088000356034800,5.815034912109375,-9.655950546264648,-1.0999500751495361,0.5080500245094299
1757088000365587700,5.824587646484375,-9.76395034790039,-1.1430000066757202,0.5440500378608704
1757088000375140900,5.834140869140625,-9.807000160217285,-1.3750500679016113,0.5629500150680542
1757088000384693800,5.84369384765625,-9.5149507522583,-1.516050100326538,0.3859500288963318
1757088000394246700,5.85324658203125,-9.442950248718262,-1.5040500164031982,0.3739500045776367
1757088000403799600,5.862799560546875,-9.658050537109375,-1.5210000276565552,0.6280500292778015
1757088000413352200,5.872352294921875,-9.84000015258789,-1.5709500312805176,0.5149500370025635
1757088000422905300,5.8819052734375,-9.891000747680664,-1.5259500741958618,0.7230000495910645
1757088000432458000,5.8914580078125,-10.0489501953125,-1.2220500707626343,1.0870500802993774
1757088000442011000,5.901010986328125,-10.02495002746582,-1.0230000019073486,1.054050087928772
1757088000451563800,5.910563720703125,-9.721050262451172,-0.7380000352859497,0.6109500527381897
1757088000461116700,5.92011669921875,-9.61500072479248,-0.40800002217292786,0.37605002522468567
1757088000470669600,5.929669677734375,-9.582000732421875,-0.05295000225305557,0.9289500713348389
1757088000480222500,5.939222412109375,-9.546000480651855,-0.14400000870227814,1.8049501180648804
1757088000489775400,5.948775390625,-9.610050201416016,-1.0210500955581665,1.9470001459121704
1757088000499328300,5.958328369140625,-9.711000442504883,-1.2619500160217285,1.5520501136779785
1757088000508881200,5.967881103515625,-9.59595012664795,-1.1620500087738037,1.297950029373169
1757088000518434000,5.97743408203125,-9.483000755310059,-1.1380500793457031,1.0780500173568726
1757088000527987000,5.986987060546875,-9.495000839233398,-1.0800000429153442,0.41700002551078796
1757088000537539800,5.996539794921875,-9.56505012512207,-1.0110000371932983,-0.2550000250339508
1757088000547092700,6.0060927734375,-9.582000732421875,-0.859950065612793,-0.28395000100135803
1757088000556645600,6.015645751953125,-9.559950828552246,-0.8290500640869141,0.012000000104308128
1757088000566198500,6.025198486328125,-9.646050453186035,-0.8790000677108765,0.38100001215934753
1757088000575751200,6.034751220703125,-9.723000526428223,-0.9030000567436218,0.687000036239624
1757088000585304300,6.04430419921875,-9.703950881958008,-1.0660500526428223,0.8910000324249268
1757088000594857200,6.053857177734375,-9.77595043182373,-1.1640000343322754,1.284000039100647
1757088000604410000,6.06341015625,-9.86205005645752,-0.9340500235557556,1.5229500532150269
1757088000613963000,6.072962890625,-9.823050498962402,-0.8190000653266907,1.3429501056671143
1757088000623516000,6.082515869140625,-9.643950462341309,-1.0999500751495361,0.9079500436782837
1757088000633068800,6.09206884765625,-9.535950660705566,-1.240950107574463,0.4020000100135803
1757088000642621700,6.10162158203125,-9.511950492858887,-1.0849500894546509,0.3040500283241272
1757088000652174600,6.111174560546875,-9.607950210571289,-1.0780500173568726,0.5580000281333923
1757088000661727200,6.120727294921875,-9.754050254821777,-1.2190500497817993,0.7639500498771667
1757088000671280000,6.130280029296875,-9.688950538635254,-1.2769500017166138,0.9150000214576721
1757088000680833000,6.1398330078125,-9.646050453186035,-1.2820500135421753,1.0110000371932983
1757088000690386000,6.149385986328125,-9.703950881958008,-1.2600001096725464,0.9630000591278076
1757088000699938800,6.158938720703125,-9.784950256347656,-1.284000039100647,0.859950065612793
1757088000709491500,6.168491455078125,-9.760950088500977,-1.237950086593628,0.7159500122070312
1757088000719044600,6.178044677734375,-9.675000190734863,-1.0950000286102295,0.814050018787384
1757088000728597500,6.187597412109375,-9.697050094604492,-0.970050036907196,0.9529500603675842
1757088000738150400,6.197150390625,-9.688950538635254,-0.8890500664710999,0.8929500579833984
1757088000747703300,6.206703369140625,-9.559950828552246,-1.0330500602722168,0.7999500632286072
1757088000757256200,6.216256103515625,-9.460050582885742,-1.0969500541687012,1.0030500888824463
1757088000766809000,6.22580908203125,-9.523950576782227,-1.1190000772476196,1.26705002784729
1757088000776362000,6.235362060546875,-9.64905071258545,-1.0519500970840454,1.1929500102996826
1757088000785914600,6.24491455078125,-9.661050796508789,-0.8700000643730164,1.068000078201294
1757088000795467500,6.254467529296875,-9.511950492858887,-0.6850500106811523,0.8839500546455383
1757088000805020700,6.264020751953125,-9.33495044708252,-0.673050045967102,0.6280500292778015
1757088000814573300,6.2735732421875,-9.237000465393066,-0.5800500512123108,0.7330500483512878
1757088000824126500,6.28312646484375,-9.361050605773926,-0.778950035572052,1.0489500761032104
1757088000833679400,6.292679443359375,-9.619950294494629,-1.2910500764846802,1.276050090789795
1757088000843232000,6.30223193359375,-10.027050018310547,-1.6380001306533813,1.2520500421524048
1757088000852785200,6.31178515625,-10.36500072479248,-1.546950101852417,1.606950044631958
1757088000862337800,6.321337890625,-10.462950706481934,-1.440000057220459,1.4850000143051147
1757088000871890700,6.330890625,-11.638050079345703,0.28995001316070557,-0.05895000323653221
1757088000881443600,6.340443603515625,-8.337000846862793,0.6589500308036804,1.0699501037597656
1757088000890996500,6.34999658203125,-7.951050281524658,0.6780000329017639,1.894050121307373
1757088000900549400,6.35954931640625,-8.3100004196167,-0.08700000494718552,1.7149500846862793
1757088000910102300,6.369102294921875,-9.120000839233398,-0.38100001215934753,0.4909500181674957
1757088000919655200,6.3786552734375,-9.804000854492188,-0.6490500569343567,0.1770000010728836
1757088000929208000,6.3882080078125,-10.276050567626953,-0.9460500478744507,1.0270500183105469
1757088000938761000,6.397760986328125,-10.50105094909668,-1.842000126838684,2.1450002193450928
1757088000948313600,6.407313720703125,-10.525050163269043,-2.7589502334594727,2.7180001735687256
1757088000957866800,6.41686669921875,-10.020000457763672,-2.806950092315674,2.848950147628784
1757088000967419400,6.42641943359375,-9.651000022888184,-2.0910000801086426,2.5789501667022705
1757088000976972500,6.43597265625,-9.32295036315918,-1.5520501136779785,2.1859500408172607
1757088000986525400,6.445525390625,-9.409049987792969,-1.8109500408172607,1.9300501346588135
1757088000996078300,6.455078369140625,-9.823050498962402,-2.794950246810913,1.8510000705718994
1757088001005631000,6.464630859375,-10.519950866699219,-3.4560000896453857,1.081950068473816
1757088001015184000,6.474183837890625,-10.294950485229492,-3.4480502605438232,0.5629500150680542
1757088001024736800,6.48373681640625,-9.543000221252441,-2.8189501762390137,0.30705001950263977
1757088001034289700,6.49328955078125,-9.483000755310059,-2.467050075531006,0.42195001244544983
1757088001043842600,6.502842529296875,-9.378000259399414,-2.104950189590454,0.8119500279426575
1757088001053395700,6.512395751953125,-9.5149507522583,-1.602000117301941,0.8359500169754028
1757088001062948400,6.5219482421875,-9.567000389099121,-1.4280000925064087,1.0150500535964966
1757088001072501200,6.531501220703125,-9.570000648498535,-1.2739500999450684,0.8740500211715698
1757088001082054100,6.54105419921875,-9.670050621032715,-1.440000057220459,0.7020000219345093
1757088001091607000,6.55060693359375,-9.691950798034668,-2.111999988555908,0.36705002188682556
1757088001101160000,6.560159912109375,-9.759000778198242,-2.206050157546997,0.28005000948905945
1757088001110712800,6.569712890625,-9.916950225830078,-2.0530500411987305,0.1969500035047531
1757088001120265700,6.579265625,-9.982050895690918,-2.0089499950408936,-0.1980000138282776
1757088001129818600,6.588818603515625,-9.622050285339355,-1.771950125694275,-0.41100001335144043
1757088001139371500,6.59837158203125,-9.457050323486328,-1.6980000734329224,-0.04905000329017639
1757088001148924200,6.607924072265625,-9.679950714111328,-1.549950122833252,0.47895002365112305
1757088001158477000,6.61747705078125,-9.610050201416016,-0.8770500421524048,-0.4300500154495239
1757088001168030000,6.627030029296875,-9.867000579833984,0.0990000069141388,-1.1790000200271606
1757088001177582800,6.636582763671875,-9.598050117492676,-0.18000000715255737,-0.9280500411987305
1757088001187135700,6.6461357421875,-9.81195068359375,-0.22800001502037048,-0.7770000100135803
1757088001196688600,6.655688720703125,-10.156050682067871,0.14400000870227814,-0.6960000395774841
1757088001206241800,6.66524169921875,-10.129950523376465,-0.22605000436306,0.5749500393867493
1757088001215794700,6.674794677734375,-9.826050758361816,-1.7149500846862793,2.11395001411438
1757088001225347600,6.68434765625,-9.661050796508789,-3.4150502681732178,3.1489500999450684
1757088001234900500,6.693900390625,-9.77595043182373,-4.188000202178955,3.094050168991089
1757088001244453400,6.703453369140625,-9.808950424194336,-4.452000141143799,2.8279502391815186
1757088001254006000,6.713006103515625,-9.808950424194336,-4.444050312042236,2.320050001144409
1757088001263559000,6.722558837890625,-9.454950332641602,-4.273950099945068,1.26705002784729
1757088001273111800,6.73211181640625,-9.415950775146484,-3.784050226211548,0.1489500105381012
1757088001282664700,6.741664794921875,-9.35205078125,-3.7600502967834473,-0.21705001592636108
1757088001292217600,6.751217529296875,-9.28695011138916,-2.3970000743865967,-0.853950023651123
1757088001301770200,6.760770263671875,-9.31605052947998,-1.1119500398635864,-0.5610000491142273
1757088001311323100,6.7703232421875,-9.982050895690918,-0.30000001192092896,0.8959500193595886
1757088001320876300,6.779876220703125,-10.326000213623047,-0.5320500135421753,1.9300501346588135
1757088001330429000,6.789428955078125,-10.282950401306152,-0.36900001764297485,3.0859501361846924
1757088001339981800,6.79898193359375,-10.221000671386719,-0.7549500465393066,4.042050361633301
1757088001349535000,6.808534912109375,-10.252050399780273,-1.0330500602722168,3.132000207901001
1757088001359087900,6.818087890625,-10.056000709533691,-1.227000117301941,1.1730000972747803
1757088001368640800,6.827640869140625,-9.366000175476074,-1.0249500274658203,0.46695002913475037
1757088001378193400,6.837193359375,-9.189000129699707,-1.4610000848770142,0.7300500273704529
1757088001387746300,6.846746337890625,-9.04800033569336,-0.8580000400543213,2.763000249862671
1757088001397299200,6.85629931640625,-8.740950584411621,-1.1929500102996826,4.504050254821777
1757088001406852000,6.86585205078125,-7.567950248718262,-1.2790501117706299,4.497000217437744
1757088001416405000,6.875405029296875,-7.708950519561768,-1.4830501079559326,4.485000133514404
1757088001425958000,6.8849580078125,-8.00100040435791,-3.180000066757202,6.192000389099121
1757088001435510800,6.8945107421875,-8.293950080871582,-2.425950050354004,5.45205020904541
1757088001445064000,6.90406396484375,-8.772000312805176,-2.2609500885009766,5.293950080871582
1757088001454616600,6.913616455078125,-8.743950843811035,-4.435050010681152,2.992950201034546
1757088001464169500,6.92316943359375,-8.362950325012207,-2.3400001525878906,3.438000202178955
1757088001473722400,6.932722412109375,-9.931050300598145,-3.5029501914978027,2.8159501552581787
1757088001483275300,6.942275146484375,-10.635000228881836,-2.0050501823425293,1.1329500675201416
1757088001492828200,6.951828125,-8.890050888061523,1.9450501203536987,3.478950262069702
1757088001502381000,6.961381103515625,-9.618000030517578,4.071000099182129,3.6130502223968506
1757088001511933700,6.97093359375,-10.051050186157227,3.7330501079559326,3.391050100326538
1757088001521486800,6.98048681640625,-11.0110502243042,1.0830000638961792,3.4840502738952637
1757088001531039500,6.99003955078125,-11.064000129699707,-1.9999500513076782,3.211050033569336
1757088001540592600,6.999592529296875,-10.258950233459473,-3.8239502906799316,3.95805025100708
1757088001550145500,7.0091455078125,-8.023050308227539,-3.4579501152038574,6.252000331878662
1757088001559698200,7.0186982421875,-5.3580002784729,-2.5819501876831055,7.591950416564941
1757088001569251300,7.028251220703125,-5.473050117492676,-2.515050172805786,7.99500036239624
1757088001578804200,7.03780419921875,-6.313050270080566,-2.7400500774383545,7.954050540924072
1757088001588356900,7.04735693359375,-6.333000183105469,-2.8309500217437744,7.470000267028809
1757088001597909800,7.05690966796875,-5.188050270080566,-3.0580501556396484,6.502950191497803
1757088001607462700,7.066462646484375,-8.997000694274902,-1.9810501337051392,4.513050079345703
1757088001617015600,7.076015625,-5.988000392913818,-6.817050457000732,6.658950328826904
1757088001626568400,7.085568359375,-7.717050552368164,-15.874950408935547,7.054050445556641
1757088001636121300,7.095121337890625,-8.610000610351562,-11.781000137329102,5.719950199127197
1757088001645674200,7.10467431640625,-3.8929502964019775,-5.553000450134277,6.352050304412842
1757088001655227000,7.114226806640625,-1.5490500926971436,-2.644050121307373,7.798050403594971
1757088001664779800,7.12377978515625,-2.9640002250671387,-3.4680001735687256,6.811950206756592
1757088001674333000,7.1333330078125,-7.551000595092773,-4.870950222015381,4.879950046539307
1757088001683885800,7.1428857421875,-13.096050262451172,-2.448000192642212,4.5420002937316895
1757088001693438500,7.1524384765625,-11.907000541687012,-3.942000150680542,11.964000701904297
1757088001702991600,7.16199169921875,-8.755949974060059,-8.836050033569336,13.027950286865234
1757088001712544500,7.17154443359375,-6.357000350952148,-7.962000370025635,10.489950180053711
1757088001722097400,7.181097412109375,-3.555000066757202,-6.547050476074219,6.76200008392334
1757088001731650300,7.190650390625,-1.6780500411987305,-6.790950298309326,5.221950054168701
1757088001741203000,7.200202880859375,-1.0320000648498535,-6.822000503540039,3.7380001544952393
1757088001750755800,7.209755859375,-3.0640501976013184,-6.451050281524658,3.343050241470337
1757088001760308700,7.219308837890625,-5.463000297546387,-5.881050109863281,6.103050231933594
1757088001769861600,7.228861572265625,-7.675950527191162,-5.875950336456299,8.767950057983398
1757088001779414500,7.23841455078125,-8.28600025177002,-5.8309502601623535,10.267050743103027
1757088001788967400,7.247967529296875,-7.096050262451172,-5.188950061798096,10.947000503540039
1757088001798520000,7.25752001953125,-6.2220001220703125,-5.188950061798096,8.896950721740723
1757088001808073200,7.2670732421875,-5.394000053405762,-5.45205020904541,7.2360005378723145
1757088001817626000,7.276626220703125,-5.2669501304626465,-6.136950492858887,7.594950199127197
1757088001827178800,7.2861787109375,-5.8030500411987305,-6.262050151824951,8.34000015258789
1757088001836732000,7.29573193359375,-5.638050079345703,-5.953050136566162,8.875950813293457
1757088001846284800,7.305284912109375,-2.0370001792907715,-5.484000205993652,8.368050575256348
1757088001855837700,7.314837646484375,4.663050174713135,-4.447050094604492,6.319050312042236
1757088001865390300,7.324390380859375,4.114950180053711,-5.2510504722595215,7.927950382232666
1757088001874943500,7.333943603515625,1.1440500020980835,-5.448000431060791,9.277950286865234
1757088001884496400,7.343496337890625,-0.9859500527381897,-5.035950183868408,9.834000587463379
1757088001894049000,7.353049072265625,-2.061000108718872,-4.780050277709961,7.9009504318237305
1757088001903602000,7.362601806640625,-3.430950164794922,-4.885050296783447,7.777050495147705
1757088001913154800,7.37215478515625,-8.44694995880127,-6.063000202178955,15.193950653076172
1757088001922707700,7.381707763671875,-12.460050582885742,-4.861050128936768,22.41105079650879
1757088001932260600,7.391260498046875,-10.719000816345215,-2.3929500579833984,22.717050552368164
1757088001941813500,7.4008134765625,-7.0819501876831055,-3.1110000610351562,18.574951171875
1757088001951366400,7.410366455078125,-5.049000263214111,-4.807950019836426,14.160000801086426
1757088001960919000,7.4199189453125,-4.204050064086914,-6.127950191497803,9.53700065612793
1757088001970472200,7.42947216796875,-3.4710001945495605,-6.796050548553467,5.871000289916992
1757088001980025000,7.439025146484375,-2.152050018310547,-6.754950523376465,3.919950246810913
1757088001989578000,7.448577880859375,-0.18900001049041748,-5.505000114440918,4.114050388336182
1757088001999131000,7.458130859375,0.7440000176429749,-4.461000442504883,5.146050453186035
1757088002008683500,7.46768359375,1.2079501152038574,-3.1870501041412354,7.786050319671631
1757088002018236700,7.477236572265625,1.2079501152038574,-2.2489500045776367,10.794000625610352
1757088002027789300,7.486789306640625,1.0770000219345093,-1.7149500846862793,12.703950881958008
1757088002037342200,7.49634228515625,1.2709500789642334,-0.9150000214576721,13.285950660705566
1757088002046895000,7.50589501953125,1.4959501028060913,0.16095000505447388,12.996000289916992
1757088002056448300,7.5154482421875,1.9579501152038574,0.3550500273704529,12.592050552368164
1757088002066001000,7.5250009765625,2.307000160217285,-0.6589500308036804,12.405000686645508
1757088002075554000,7.534553955078125,1.9099501371383667,-0.9559500217437744,11.81100082397461
1757088002085106700,7.544106689453125,1.234950065612793,-0.673050045967102,11.670001029968262
1757088002094659600,7.55365966796875,0.9259500503540039,-0.45795002579689026,11.806050300598145
1757088002104212500,7.56321240234375,0.7939500212669373,-0.6349500417709351,11.629050254821777
1757088002113765400,7.572765380859375,0.6190500259399414,-0.8460000157356262,10.545000076293945
1757088002123318300,7.582318359375,0.8209500312805176,-1.1740500926971436,9.0600004196167
1757088002132871200,7.59187109375,1.7299500703811646,-1.227000117301941,7.336050510406494
1757088002142424000,7.601424072265625,2.808000087738037,-0.7999500632286072,5.6670002937316895
1757088002151976700,7.610976806640625,3.7800002098083496,0.09405000507831573,4.765050411224365
1757088002161529600,7.620529541015625,5.011050224304199,0.9439500570297241,4.480050086975098
1757088002171082800,7.630082763671875,6.430050373077393,1.1500500440597534,4.707000255584717
1757088002180635600,7.6396357421875,7.837950229644775,0.4600500166416168,5.1570000648498535
1757088002190188300,7.649188232421875,8.062950134277344,-0.25394999980926514,4.88700008392334
1757088002199741400,7.658741455078125,7.3399505615234375,-0.8389500379562378,4.770000457763672
1757088002209294300,7.66829443359375,6.724950313568115,-1.3320000171661377,4.291050434112549
1757088002218847200,7.67784716796875,6.744000434875488,-1.2910500764846802,3.589050054550171
1757088002228399900,7.68739990234375,7.354950428009033,-0.8269500136375427,2.6580002307891846
1757088002237952800,7.696952880859375,7.575000286102295,-0.2160000056028366,1.801050066947937
1757088002247505700,7.706505615234375,7.43595027923584,0.7140000462532043,2.0590500831604004
1757088002257058800,7.716058837890625,6.98805046081543,1.4520000219345093,2.5759501457214355
1757088002266611500,7.725611572265625,6.568950176239014,1.6549500226974487,3.034050226211548
1757088002276164400,7.735164306640625,6.454050540924072,1.606950044631958,3.120000123977661
1757088002285717200,7.74471728515625,6.604950428009033,1.5240000486373901,2.8540501594543457
1757088002295270100,7.754270263671875,6.936000347137451,1.4059500694274902,2.6509501934051514
1757088002304823000,7.763822998046875,7.2109503746032715,1.546950101852417,2.5639500617980957
1757088002314376200,7.773376220703125,7.468950271606445,1.579050064086914,2.272050142288208
1757088002323928800,7.7829287109375,7.849950313568115,1.7850000858306885,2.2080001831054688
1757088002333481700,7.792481689453125,9.445050239562988,2.0650501251220703,5.299050331115723
1757088002343034600,7.80203466796875,8.674050331115723,1.8750001192092896,4.875
1757088002352587500,7.81158740234375,9.223950386047363,1.9860000610351562,6.070050239562988
1757088002362140400,7.821140380859375,9.022950172424316,2.6130001544952393,6.403050422668457
1757088002371693300,7.830693359375,8.60205078125,3.0870001316070557,6.3670501708984375
1757088002381246200,7.84024609375,7.885950565338135,3.391050100326538,6.331050395965576
1757088002390798800,7.849798828125,6.993000507354736,3.361950159072876,5.517000198364258
1757088002400351700,7.859351806640625,6.646050453186035,3.3700501918792725,4.954050064086914
1757088002409905000,7.86890478515625,6.97605037689209,3.436950206756592,4.930050373077393
1757088002419457500,7.87845751953125,7.729950428009033,3.3580501079559326,4.786050319671631
1757088002429010400,7.888010498046875,8.29995059967041,3.2380502223968506,4.6210503578186035
1757088002438563300,7.897563232421875,8.556000709533691,3.1660501956939697,4.50600004196167
1757088002448116500,7.907116455078125,8.51294994354248,3.115950107574463,4.5610504150390625
1757088002457669400,7.91666943359375,8.224050521850586,3.207000255584717,4.522950172424316
1757088002467222000,7.926221923828125,7.8670501708984375,3.3409502506256104,4.3030500411987305
1757088002476775000,7.93577490234375,7.606050491333008,3.376950263977051,3.996000289916992
1757088002486327800,7.945327880859375,7.503000259399414,3.436950206756592,3.8530502319335938
1757088002495880700,7.954880615234375,7.492950439453125,3.5179500579833984,3.868950128555298
1757088002505433600,7.96443359375,7.378050327301025,3.5400002002716064,4.209000110626221
1757088002514986500,7.973986572265625,7.297050476074219,3.5280001163482666,4.618950366973877
1757088002524539400,7.983539306640625,7.291950225830078,3.5560500621795654,4.959000110626221
1757088002534092000,7.993092041015625,7.297050476074219,3.765000104904175,4.966050148010254
1757088002543645000,8.00264501953125,7.222950458526611,3.9940502643585205,5.038050174713135
1757088002553198300,8.0121982421875,7.113000392913818,4.078050136566162,5.08305025100708
1757088002562751000,8.0217509765625,7.005000114440918,4.147950172424316,5.004000186920166
1757088002572304000,8.031303955078124,6.904050350189209,4.188000202178955,4.903950214385986
1757088002581856800,8.040856689453125,6.973950386047363,4.081050395965576,4.540050029754639
1757088002591409700,8.05040966796875,7.105950355529785,4.038000106811523,3.89805006980896
1757088002600962300,8.05996240234375,7.113000392913818,4.203000068664551,3.532050132751465
1757088002610515500,8.069515380859375,7.089000225067139,4.270050048828125,3.4260001182556152
1757088002620068000,8.079068115234374,7.098000526428223,4.279050350189209,3.642000198364258
1757088002629621200,8.088621337890626,7.599000453948975,5.215950012207031,4.408050060272217
1757088002639174000,8.098173828125,5.307000160217285,4.927950382232666,5.398950099945068
1757088002648727000,8.10772705078125,4.8070502281188965,4.204950332641602,6.361950397491455
1757088002658280000,8.117280029296875,5.053950309753418,4.107000350952148,6.280050277709961
1757088002667832800,8.126832763671874,5.95395040512085,4.23900032043457,5.707950115203857
1757088002677385700,8.1363857421875,7.093950271606445,4.41795015335083,4.942050457000732
1757088002686938400,8.1459384765625,8.109000205993652,4.597949981689453,4.354950428009033
1757088002696491300,8.1554912109375,8.57295036315918,4.7059502601623535,4.07295036315918
1757088002706044200,8.165044189453125,8.5489501953125,4.5329999923706055,3.9870002269744873
1757088002715597000,8.17459716796875,8.212050437927246,4.3969502449035645,3.9240002632141113
