time,seconds_elapsed,gyro_x,gyro_y,gyro_z,acc_x,acc_y,acc_z,grav_x,grav_y,grav_z,label
1757686518473000700,0.0,-0.0413191653788089,-0.0825550556182861,0.0372879952192306,-0.0696458562213927,0.3778197519242763,-1.0893350134946405,0.6084906846972182,9.669595983481406,1.516250804760307,walking
1757686518482954800,0.009954101562501,-0.031616736203432,-0.0767253935337066,0.0594452321529388,-0.0382347458481788,0.7662468225806951,-0.8825142177887261,0.6028171325728297,9.670377489247915,1.5135358467131852,walking
1757686518492908800,0.0199079589843762,-0.086079441010952,-0.0181688759475946,0.1057019457221031,-0.0321066183567047,0.9866419701308012,-0.5924123506754636,0.5945943343570456,9.671744685947894,1.5080449942119418,walking
1757686518502862600,0.0298618164062514,-0.1212924271821975,-0.0014925298746675,0.15491783618927,0.0613233604907989,0.771800949576497,-0.3126907155402004,0.5819681500831618,9.67410089368522,1.4978205373175442,walking
1757686518512816600,0.0398159179687489,-0.1121980026364326,0.0100493440404534,0.1536602973937988,0.3210416336476803,0.4210615122795105,0.0556052751049399,0.5672074745312333,9.676783264636994,1.4861109564319253,walking
1757686518522771700,0.0497709960937502,-0.0774727761745452,-0.0086607569828629,0.118926778435707,0.6708896750628948,-0.1302121877998113,0.2828201856724918,0.5541935695813969,9.679036011999845,1.4763196302577852,walking
1757686518532725800,0.0597250976562513,-0.0206116214394569,0.0366990007460117,0.0874567404389381,0.7248527359187602,-0.4404366593569517,0.2875428302802145,0.5446722194550558,9.68040905391872,1.4708485053703189,walking
1757686518542679800,0.0696789550781264,0.0071881739422678,0.1187826320528984,0.10109593719244,0.5534123195432126,-0.4179115238159894,0.1622816890165209,0.5371458425382152,9.68107599339485,1.4692168125152587,walking
1757686518552633900,0.0796330566406258,-0.0037773919757455,0.2030431926250457,0.1672177016735077,0.2889466691961512,-0.164030870771408,-0.128645230744034,0.5265787096859887,9.68188029551506,1.467752000659704,walking
1757686518562587600,0.0895869140625009,-0.0081811128184199,0.3402632474899292,0.207133874297142,0.104839919199422,0.1185387011408805,-0.3150067373976111,0.5122651568470522,9.683024204853176,1.465271143629402,walking
1757686518572542700,0.0995419921875022,-0.0272589325904846,0.4032635390758514,0.2352169156074524,0.3125098790805786,0.1093318968564271,-0.3326768341228365,0.4965807175137102,9.684448684698342,1.4612434955485163,walking
1757686518582496800,0.1094960937500015,-0.0402605235576629,0.452338695526123,0.2923029959201813,0.2108966303100809,-0.0120294604897499,-0.4288657562896609,0.4774365661805495,9.686249596640469,1.4556788471587,walking
1757686518592450800,0.1194501953125009,-0.0444906912744045,0.482860654592514,0.33557990193367,0.1938870798528194,-0.0935369463533163,-0.5368202273130417,0.4541929801719263,9.688300099429489,1.4494599726438522,walking
1757686518602404900,0.129404052734376,-0.0485137142241001,0.5172226428985596,0.3667613565921783,0.352722683536075,-0.0486994412392377,-0.6857106659673154,0.428086004088819,9.690447632852196,1.4430262863345444,walking
1757686518612359000,0.1393581542968753,-0.044521901756525,0.524284839630127,0.3734863698482513,0.4185234817018732,0.0194172326534986,-0.8871239035412669,0.3996946068629622,9.69266063272655,1.4362936170786618,walking
1757686518622313700,0.1493129882812489,-0.0486302971839904,0.4784283638000488,0.3607604503631592,0.5110977205028757,0.0972638579219579,-1.0900164198875426,0.3713150096727535,9.694721072387695,1.4299927633687852,walking
1757686518632267800,0.15926708984375,-0.0514878705143928,0.397829920053482,0.3390799164772033,0.6364508143663405,0.1424374631226062,-1.2430858977921306,0.343824799070321,9.696682727849485,1.4235487017959356,walking
1757686518642221600,0.1692209472656252,-0.0459354668855667,0.3319398760795593,0.3265652656555176,0.7383937700152396,0.0460930581331253,-1.224350071531534,0.3170008338242769,9.69845675178468,1.4176817094586789,walking
1757686518652175600,0.1791748046875021,-0.0439396910369396,0.2728688418865204,0.3305307328701019,0.7714882303655147,-0.1753407848149538,-1.181140167619288,0.2895919996286742,9.700073539331555,1.4124799030318855,walking
1757686518662130000,0.1891291503906256,-0.0366651676595211,0.2469750493764877,0.3383688032627105,0.8266869704961777,-0.3709165484070778,-1.190344049294293,0.261028570304159,9.701569330847263,1.4077674875572324,walking
1757686518672084700,0.1990839843750009,-0.0258487369865179,0.2373629063367843,0.3549839854240417,0.9014473201870916,-0.4814291794806719,-1.0684211125425993,0.2310094805449247,9.702846511176228,1.4042078953795134,walking
1757686518682038800,0.209038085937502,-0.0069775274023413,0.2198946475982666,0.3778591156005859,0.9906231487214564,-0.4585235201895237,-0.9130988872751592,0.1988457434398122,9.703883453008531,1.401965084888786,walking
1757686518691992800,0.2189921875000013,0.0177299492061138,0.2020522654056549,0.3854358196258545,1.0982511642694472,-0.4012245929092168,-0.7395660286650061,0.164690722919628,9.704494278383256,1.402161484243721,walking
1757686518701946600,0.2289458007812506,0.0406385511159896,0.2245721220970153,0.3775544762611389,1.188113221502304,-0.4431371504873037,-0.5703564400814474,0.1309424565694295,9.704656775468589,1.404585788781196,walking
1757686518711900700,0.2388999023437499,0.0767004191875457,0.2130358517169952,0.3679220974445343,1.3014753967881203,-0.4384095374435186,-0.4102103017888963,0.0980854034379124,9.704269237455724,1.4099391325078905,walking
1757686518721856000,0.2488552246093753,0.1174006983637809,0.18720243871212,0.3630444705486297,1.3533014456152914,-0.3353980757802725,-0.2669144682712853,0.065561861143657,9.70316098395288,1.419423292429,walking
1757686518731809800,0.2588090820312505,0.1288783848285675,0.2247612625360489,0.3609301745891571,1.3633762649059296,-0.296754164609313,-0.2603539407119155,0.033789781104098,9.70162719851434,1.4309690610550343,walking
1757686518741763800,0.2687631835937516,0.1510179191827774,0.2316483110189438,0.3688045442104339,1.3503694838166236,-0.3326981691718101,-0.1668302922315895,0.0019051462087394,9.699712889325616,1.4442865155287086,walking
1757686518751718000,0.278717041015625,0.1722856611013412,0.2226598709821701,0.3686663210391998,1.4735978040784596,-0.2923269958168268,-0.1061282785095274,-0.0303429742516251,9.697349667325616,1.4597500421203673,walking
1757686518761671700,0.2886708984375001,0.2033726274967193,0.2221494168043136,0.3688885867595672,1.52322488155663,-0.2507663204163313,-0.1621634694643318,-0.0627617683966178,9.69439432465136,1.4782257561400531,walking
1757686518771625700,0.2986250000000012,0.2150508612394333,0.2613303959369659,0.3635652065277099,1.3712041820526122,-0.4029050933420658,-0.3912567411243915,-0.0943465639694593,9.691060211792587,1.4982754414781927,walking
1757686518781580800,0.3085800781250025,0.2332550287246704,0.2666131854057312,0.3691337406635284,1.205012333855033,-0.4995207164883613,-0.6488531998217105,-0.1255266603320837,9.68726958733797,1.520342750249058,walking
1757686518791534600,0.3185339355468759,0.2448605597019195,0.2532137632369995,0.3701566755771637,1.0809130759775638,-0.3873246623724699,-0.9352781319878994,-0.1572001479685306,9.683111883136627,1.543704775005579,walking
1757686518801489000,0.3284882812500012,0.2501621842384338,0.2218536138534546,0.3761220872402191,1.0031395159453154,-0.3210468943446874,-1.1133771294698118,-0.1894104276291094,9.67863386093974,1.5679760235615074,walking
1757686518811443000,0.3384421386718763,0.2445269525051117,0.199201300740242,0.3821043372154236,0.9958353304117916,-0.2723930458128452,-1.2522016627922654,-0.2226575212578289,9.67397405243516,1.592178006273508,walking
1757686518821396700,0.3483959960937515,0.2430935204029083,0.1953305006027221,0.3866473734378814,1.0438555572152135,-0.2238894194066524,-1.317150374173373,-0.2564625775628723,9.669164021804928,1.6161261603549122,walking
1757686518831351800,0.3583510742187492,0.2289345562458038,0.201336458325386,0.3911164104938507,1.0372685800403356,-0.1366933665126562,-1.3184949206501244,-0.2905766632844694,9.664269235500694,1.6394675807148218,walking
1757686518841305900,0.3683051757812503,0.2190922200679779,0.2355190366506576,0.3968425393104553,1.0279624070346354,-0.0727349813431501,-1.336023416947573,-0.3248152339022606,9.659417703816294,1.6614852051250637,walking
1757686518851260000,0.3782592773437514,0.2121381759643554,0.2919985651969909,0.4050067365169525,0.9363327556073664,-0.0484539420455694,-1.265295391512662,-0.3590308803021907,9.654439915403724,1.6832332188136874,walking
1757686518861214000,0.3882131347656266,0.1881140768527984,0.3061412572860718,0.3946512043476105,0.8637707927435636,0.0281020588904619,-1.359474435161799,-0.3924125600960105,9.64956032666862,1.70364092380926,walking
1757686518871168000,0.3981672363281259,0.1508857458829879,0.2849608659744262,0.3724851906299591,0.792027160525322,0.1386363172739744,-1.485096810953319,-0.4242180766142904,9.64511971387267,1.721075312082469,walking
1757686518881122800,0.4081220703125012,0.1193866729736328,0.2878320515155792,0.3537837564945221,0.8174211295008659,0.2475684011578559,-1.5699669051177798,-0.4541008449090644,9.641232058784365,1.7351665274076162,walking
1757686518891076900,0.4180761718750023,0.1061334460973739,0.3519782721996307,0.3539004027843475,0.7989818750340492,0.2167296107798814,-1.626582526309043,-0.4824982334842905,9.637653615775704,1.747339780282229,walking
1757686518901031000,0.4280302734374999,0.1064006835222244,0.4672544002532959,0.3456585109233856,0.7744418194741011,0.1866185501545667,-1.5476470828905702,-0.5092838394813239,9.63394774699509,1.7601324802294374,walking
1757686518910985000,0.437984130859375,0.0694866105914115,0.4322104156017303,0.3141924738883972,0.8785714715123176,0.4144809648454189,-1.6560054585397244,-0.5329088625555858,9.630690791025756,1.770926992096752,walking
1757686518920939000,0.4479382324218761,0.0331379137933254,0.3904775977134704,0.2871569991111755,0.884784939199686,0.6007224983811378,-1.701974305771291,-0.5543848909024149,9.628204234907033,1.77784042474702,walking
1757686518930893800,0.4578930664062515,0.05876125395298,0.4330386519432068,0.2825199067592621,0.7335906805824488,0.5578203452438115,-1.6042098048508169,-0.5742269613718614,9.625917585274577,1.7839247130967677,walking
1757686518940847900,0.467847167968749,0.0953493639826774,0.5163455605506897,0.2791290283203125,0.5988484481375664,0.3248246593177318,-1.4077324162438511,-0.5928631266502663,9.622785132467746,1.7946954056970774,walking
1757686518950802000,0.4778012695312501,0.0804990455508232,0.4823289811611175,0.2413427680730819,0.7345505385905504,0.507208932903409,-1.6088520776987074,-0.6087052772959693,9.619665539142488,1.8060744394540784,walking
1757686518960755700,0.4877548828125011,0.0804881453514099,0.4951925277709961,0.1979720294475555,0.8838123678404838,0.6992676282852888,-1.6947734344817698,-0.6210488817688077,9.616897243472934,1.8165782978117464,walking
1757686518970709800,0.4977089843750022,0.0893061384558677,0.54078209400177,0.1591255664825439,0.8542869250833988,0.8717360725343227,-1.5380585858121514,-0.6284837810099124,9.614268064013125,1.8279067704252896,walking
1757686518980665000,0.5076643066406259,0.0862699076533317,0.5365297794342041,0.1626090556383133,0.8030074772883206,1.2331453724056485,-1.5378329603627323,-0.6336175637017936,9.611689737957716,1.839651861015707,walking
1757686518990619000,0.517618164062501,0.0848035737872123,0.5180431604385376,0.1709111928939819,0.5971738659888506,1.6283967361241578,-1.5168727360509335,-0.6399701475989074,9.60908803102672,1.8510136513769624,walking
1757686519000573000,0.5275722656250021,0.0872936248779296,0.5289366245269775,0.1401579976081848,0.7310925070911646,2.1086153707712887,-1.6061466181322932,-0.6453503062672913,9.606513212102652,1.862475979503244,walking
1757686519010527000,0.5375261230468755,0.0911890342831611,0.5638549327850342,0.075552113354206,1.115078453494981,2.559975575202704,-1.828348376712948,-0.6453658691626042,9.604214872032404,1.874286828806251,walking
1757686519020480800,0.5474799804687489,0.1038701459765434,0.5384913086891174,-0.0025159795768558,1.3417647370785477,2.699489259833097,-1.9207045888490968,-0.6383181426081806,9.602218729779125,1.8868864903993905,walking
1757686519030435800,0.5574350585937502,0.1071860492229461,0.408294141292572,-0.0788802579045295,1.301498193141818,2.5500147376805544,-1.890521193639934,-0.6252857156209647,9.600559856656194,1.8996493797302243,walking
1757686519040390000,0.5673891601562513,0.1429188847541809,0.3411597609519958,-0.1224792599678039,1.1933493685901164,2.2886890293270348,-1.8489578878909347,-0.6082662648241967,9.598970541638137,1.913152273773402,walking
1757686519050344000,0.5773432617187506,0.1555055081844329,0.3251400589942932,-0.201800987124443,1.1902291907429694,1.958817608013749,-1.6577207380250096,-0.5868905915793031,9.596946342334151,1.9299115392640231,walking
1757686519060298000,0.5872973632812499,0.1250868886709213,0.2830234467983246,-0.311193972826004,1.620361898228526,2.1119699418962,-1.801091244214028,-0.5564384624313563,9.595676176267862,1.9451921105042096,walking
1757686519070252000,0.5972512207031251,0.0894279703497886,0.2350798845291137,-0.4062981307506561,1.6733365325689316,2.1556717209786176,-1.6813437518052756,-0.5169371672460809,9.595520108923315,1.956827018718421,walking
1757686519080206800,0.6072060546875022,0.0644012913107872,0.2076068669557571,-0.495952695608139,1.5999322736620902,2.1101748751729725,-1.471991537925601,-0.4695698148608207,9.596274142161011,1.965047588444501,walking
1757686519090161000,0.6171601562500015,0.0050777834840118,0.1973520964384079,-0.6247255802154541,1.6218705492258072,2.1089292590260507,-1.3122500349111854,-0.4123495057746767,9.597968086597325,1.9696077359668909,walking
1757686519100115000,0.6271142578125026,-0.0575701110064983,0.1724778860807418,-0.7681190967559814,1.5999217522680758,2.4666601626455784,-1.2367885512135923,-0.3422179118629544,9.60116249872446,1.9674685319811105,walking
1757686519110068700,0.637068115234376,-0.1223698854446411,0.1702640056610107,-0.9169751405715942,1.3510311625957487,2.458217912992835,-0.9240021202139556,-0.2583775078061036,9.60541606451571,1.959494192101061,walking
1757686519120023000,0.6470222167968753,-0.183537483215332,0.16541288793087,-1.0657602548599243,1.1447604019880293,2.2365099292784927,-0.6814015705965459,-0.1602943876568228,9.61044879798591,1.9452407719515263,walking
1757686519129977000,0.6569763183593764,-0.2392457574605941,0.1633358895778656,-1.2174192667007446,1.0310317314773798,1.894690880540013,-0.4077138087980449,-0.0479128391725011,9.615732875868677,1.925038964791596,walking
1757686519139932000,0.66693115234375,-0.2824614346027374,0.168804183602333,-1.376471757888794,1.168899986988306,1.369760997506976,-0.1688923393279314,0.0793767939778044,9.620523617276548,1.8999004318818449,walking
1757686519149886000,0.6768852539062493,-0.2898096144199371,0.2234178930521011,-1.5591813325881958,1.3804022185087204,0.8323235150784254,0.0845065215490758,0.2234133080611936,9.623754269760846,1.8718558022670448,walking
1757686519159839700,0.6868391113281263,-0.2518709003925323,0.3799181282520294,-1.762490153312683,1.4878502013146877,0.4366454503804445,0.5321029895327984,0.3880073108743876,9.623789925596116,1.8445909248530865,walking
1757686519169793800,0.6967929687500014,-0.1803796738386154,0.5921182632446289,-1.920204997062683,1.4627473242402076,0.2004360631048679,1.0503658158920706,0.5738205359954387,9.618932548692822,1.8213291456006464,walking
1757686519179747800,0.7067470703125025,-0.0975363031029701,0.7222912907600403,-1.9597785472869875,1.072139402413368,0.2027256353467702,1.62246632316187,0.7721439177952706,9.608413492766022,1.803486761048436,walking
1757686519189703000,0.7167021484375002,-0.0187330991029739,0.7701640129089355,-1.898224949836731,0.4872947835784405,0.2278770277380943,2.1769744751177726,0.9703246762540192,9.592688684889673,1.791414630460739,walking
1757686519199657000,0.7266562500000013,0.0689335763454437,0.8096888661384583,-1.797468662261963,0.0219862063586711,0.2694482245326042,2.6284593288421627,1.16074934069328,9.57266588755846,1.7852512855254112,walking
1757686519209611000,0.7366103515625024,0.1276325732469558,0.8045201897621155,-1.6984241008758545,-0.2331565755762159,0.2969008796036243,3.087603026756644,1.341522014363855,9.549103810185194,1.7847468431346118,walking
1757686519219564800,0.7465639648437499,0.1245756447315216,0.7500536441802979,-1.6118284463882446,-0.4303087947048246,0.2248585566997528,2.987872486460209,1.5124877989649772,9.5232819711864,1.7860155478961766,walking
1757686519229518800,0.7565180664062492,0.0493341535329818,0.6637416481971741,-1.5569274425506592,-0.724177174744755,0.3658347150981426,2.641797533842921,1.674973924512416,9.49647930445671,1.7837344512216746,walking
1757686519239474000,0.7664731445312505,-0.0919128805398941,0.4262158274650574,-1.5205998420715332,-0.949658977909386,0.3838794903546571,1.8800113439328967,1.8299767085671423,9.47005423886776,1.7718939374327658,walking
1757686519249427700,0.7764270019531256,-0.2392085939645767,0.1043089032173156,-1.5553160905838013,-0.9716450381375848,0.4939706811457872,0.563442569039762,1.97885531065315,9.443910912829637,1.7513013773895798,walking
1757686519259382000,0.7863813476562491,-0.3471653163433075,0.1528071016073227,-1.6001129150390625,-0.9205974263370036,0.9689093295633792,-1.0211904286816715,2.1289206383056936,9.416688559383154,1.7216440518811345,walking
1757686519269336000,0.7963354492187502,-0.4939651489257812,0.3411948680877685,-1.5933467149734497,-0.5755655530318617,1.2693179250270128,-1.5819560335971414,2.283080541795492,9.388622156327962,1.6768265666417776,walking
1757686519279289900,0.8062890625000012,-0.6864728331565857,0.2845504879951477,-1.5743074417114258,0.0883037218749523,1.2781740161776542,-2.2841509475059807,2.4362324372865256,9.36105961114168,1.61422339547351,walking
1757686519289245000,0.8162441406250025,-0.8206213116645813,0.2095302939414978,-1.4718271493911743,0.509015982325375,1.2182009012520312,-2.558153035950661,2.582197636143863,9.334843219867349,1.5373253031015397,walking
1757686519299199000,0.8261982421875,-0.8677694201469421,0.1028457731008529,-1.3694403171539309,-0.1502697641834616,1.0490390973329544,-1.7859899750635029,2.716106632634997,9.310074104791878,1.4545431211270392,walking
1757686519309152800,0.8361520996093752,-0.8506522178649902,-0.0098176561295986,-1.3503468036651611,-0.3940983942911029,0.7397405084490776,-0.8922845011748373,2.842019661936164,9.28478301166892,1.3733695433929562,walking
1757686519319106800,0.8461062011718763,-0.8022509217262268,-0.0493114776909351,-1.3630244731903076,-0.2909460628524422,0.3652846799999475,-0.091033585230261,2.967214898356795,9.2564120727092,1.298010351026058,walking
1757686519329060900,0.8560600585937514,-0.7803754806518555,-0.2690821886062622,-1.3095953464508057,-0.7243509238764643,0.1174117429375648,0.4372950003303587,3.088625940063596,9.22596082034409,1.2298178354181348,walking
1757686519339015000,0.866014160156249,-0.7932884693145752,-0.5812312364578247,-1.298449158668518,-1.3665467116355896,0.0281990895241498,0.4289361181121319,3.202451056686044,9.194714618209003,1.1712884164948016,walking
1757686519348970000,0.8759692382812503,-0.8145778179168701,-0.7322276830673218,-1.3286091089248655,-1.2213652105018495,0.0019774375528097,0.3602267390232533,3.31494550922662,9.161232035323977,1.1195398168180135,walking
1757686519358924000,0.8859233398437514,-0.8467094898223877,-0.8329498171806335,-1.327918291091919,-1.2055632457360623,-0.0162818572372198,0.4635242510862648,3.427532608486712,9.12562179276049,1.0702614066470413,walking
1757686519368877800,0.8958771972656265,-0.9095696806907654,-0.9231316447257996,-1.3005881309509275,-1.4163643432497977,-0.3057207303971052,0.4103247219488024,3.5376267218872903,9.089148795887828,1.0212582332208753,walking
1757686519378832000,0.9058310546875,-0.9611455798149108,-0.997827172279358,-1.2513906955718994,-1.6377864957600832,-0.5449591101050376,0.2382839285273104,3.6435286442950368,9.052752955904602,0.9709373282596468,walking
1757686519388786000,0.915785156250001,-0.979594111442566,-1.0737197399139404,-1.1927447319030762,-1.8092931092396376,-0.8001859170615673,0.3260371769126504,3.743807466123998,9.016935792592168,0.9214913795020432,walking
1757686519398741000,0.9257402343750024,-0.9502086639404296,-1.1281479597091677,-1.0936299562454224,-1.8969220005929468,-1.404534204724431,0.4500118585623801,3.836674550391733,8.982332096722722,0.8763758611641824,walking
1757686519408695000,0.9356943359375016,-0.9039439558982848,-1.1339083909988403,-0.9635046124458312,-1.9692969164520504,-1.944907156082988,0.5896173131294549,3.918926424881816,8.950491435825825,0.8373269493889063,walking
1757686519418648800,0.945648193359375,-0.8303421139717102,-1.1355949640274048,-0.8202507495880127,-2.024952752700448,-2.322295530852675,0.6908134689990431,3.988946886569261,8.922512711054086,0.8046648891065269,walking
1757686519428603000,0.9556020507812502,-0.7444165349006653,-1.1396867036819458,-0.6905209422111511,-1.943441759705544,-2.5712095014005896,0.869082854611799,4.047047485621273,8.89848535425663,0.7802227409631013,walking
1757686519438557000,0.9655561523437496,-0.6440814137458801,-1.132851243019104,-0.5485019683837891,-1.7921037817686796,-2.8612931022048,0.9289989786531776,4.093231436908245,8.878670646718144,0.7648988420378416,walking
1757686519448511700,0.9755109863281266,-0.5306944251060486,-1.0841012001037598,-0.3968557119369507,-1.7444746001094578,-3.0819431012988088,0.8156490783270448,4.126554737578332,8.863789303928613,0.7583888025566935,walking
1757686519458465800,0.985465087890626,-0.4260404109954834,-1.003524899482727,-0.2523036897182464,-1.606219391107559,-3.2398113577872514,0.7970789640221745,4.147215248291194,8.854064613249898,0.7593016796179115,walking
1757686519468419800,0.9954191894531252,-0.3468363881111145,-0.9406083226203918,-0.1294198334217071,-1.50724171500504,-3.3155390912055966,0.6997271355558187,4.15657607409358,8.84913884728551,0.7655244265902788,walking
1757686519478374000,1.0053730468750022,-0.2868267893791199,-0.8501282334327698,-0.0153036899864673,-1.4072262202873824,-3.1933260854661465,0.6221938870854675,4.156068416832388,8.848579459837078,0.7746731440119445,walking
1757686519488328000,1.0153271484375015,-0.2300921380519867,-0.768664538860321,0.085721731185913,-1.2203528185889123,-3.095363139364123,0.6360088427525014,4.146665213192999,8.852069640040398,0.7850992609582841,walking
1757686519498283000,1.025282226562501,-0.1728958934545517,-0.6973534822463989,0.1760272085666656,-0.9551008767023682,-3.0028637193650005,0.6862601165436207,4.129663224987685,8.858933680590987,0.7972473793916404,walking
1757686519508236800,1.0352360839843762,-0.1284738332033157,-0.6199241876602173,0.2761799395084381,-0.7823743660390376,-3.031203678664565,0.6854109523683786,4.104628152452409,8.86931478935182,0.8109650852292776,walking
1757686519518190800,1.0451901855468757,-0.0942806079983711,-0.5437913537025452,0.3916626870632171,-0.6707707248583435,-3.085122900378704,0.6925780675187706,4.0705376668021085,8.88373202176094,0.8248971644699573,walking
1757686519528145000,1.0551440429687506,-0.0698010995984077,-0.4823261797428131,0.5073424577713013,-0.5024637842029333,-3.099998982471228,0.6134128339324146,4.026579282610118,8.902498097029328,0.8382216332063078,walking
1757686519538098700,1.0650979003906258,-0.0625761002302169,-0.3914195597171783,0.6011224389076233,-0.3547907585144043,-3.040499330276251,0.4460511382378637,3.973626567840576,8.925147151210904,0.8499602209907025,walking
1757686519548054000,1.0750532226562497,-0.0622626431286335,-0.2965551018714905,0.6598227620124817,-0.2280494616955518,-2.8880571904897687,0.3272854234080761,3.914522636964917,8.950476238256693,0.8578445444997399,walking
1757686519558008000,1.0850073242187506,-0.0760572105646133,-0.2060916274785995,0.6855449676513672,-0.0219260006040334,-2.5964421423345803,0.1844660482957959,3.852200913086533,8.977140373298525,0.8613513105116785,walking
1757686519567961900,1.0949611816406255,-0.0689391195774078,-0.1472125947475433,0.6930939555168152,0.295709623992443,-2.18757901737094,0.1164148408547043,3.788948338098824,9.004020781439543,0.8613172621116042,walking
1757686519577916000,1.104915283203125,-0.0782559812068939,-0.1432989686727523,0.659265398979187,0.8265525304615498,-1.541720907711983,-0.0019276801269501,3.726770406605303,9.030035512661934,0.8602489752929657,walking
1757686519587870000,1.1148691406250002,-0.0812680199742317,-0.1396227329969406,0.6033914685249329,1.5221441005825995,-1.0044862543791533,-0.3789296859275549,3.668784666104615,9.053941873428226,0.8582190038353205,walking
1757686519597823700,1.1248229980468754,-0.0997527688741684,-0.1752931326627731,0.5392043590545654,2.1094334091559053,-0.4742857374668121,-0.615021730433777,3.6158518250793215,9.07545578610003,0.8556390703447163,walking
1757686519607778800,1.1347780761718749,-0.095699705183506,-0.1980360001325607,0.4722591340541839,2.7047216075286267,-0.1233580841213464,-0.8107625483945011,3.5683871863320467,9.094434042814374,0.8534096307922154,walking
1757686519617733000,1.144732421875,-0.0909905359148979,-0.2337994575500488,0.3630592823028564,3.239026637150347,0.2567266901254654,-0.7629397438593208,3.528334577406943,9.110139561468362,0.8524231039728969,walking
1757686519627687000,1.1546862792968753,-0.0915053263306617,-0.3016999363899231,0.1607682406902313,3.8091616895660754,0.8968675911813974,-0.9523292200319468,3.501682717324793,9.120321348264811,0.8534186908815056,walking
1757686519637641000,1.1646401367187504,-0.0739645734429359,-0.3568836748600006,-0.116744115948677,4.153618393331766,1.5997762063175438,-1.128280172634497,3.4966038066253065,9.12190774067342,0.8572864722255616,walking
1757686519647595000,1.1745942382812515,-0.0820861458778381,-0.3930446207523346,-0.4144929945468902,4.095103368259967,2.193818788543344,-1.260777767957747,3.5175606699362394,9.113249217921496,0.8636396406445652,walking
1757686519657549800,1.1845490722656251,-0.1409441232681274,-0.4407275021076202,-0.6438716650009155,3.641342240166664,2.546391871008277,-1.5129764592647552,3.562661209900677,9.095264063897728,0.8683377353329211,walking
1757686519667503900,1.1945031738281262,-0.2006029188632965,-0.4625153541564941,-0.7176934480667114,2.756946884806454,2.599372350567579,-1.4229910679131743,3.621205168806016,9.07205912939906,0.8688828019950539,walking
1757686519677458000,1.2044572753906255,-0.2294054925441742,-0.5960800647735596,-0.7063549160957336,1.9831325495809315,1.9140654430955648,-0.7204300241056829,3.681249010880291,9.047934741967916,0.868122119820863,walking
1757686519687411700,1.2144108886718763,-0.2600893676280975,-0.9000804424285889,-0.7148093581199646,2.186331647658348,1.2970347839921712,-0.0877997909408062,3.738868256156146,9.023770607048272,0.8733971376143396,walking
1757686519697366000,1.224365234375,-0.2842327952384949,-1.273539900779724,-0.7508129477500916,2.897013819405436,0.9242425048410892,-0.2790838486883789,3.795528301011026,8.998527444720267,0.8893060698859393,walking
1757686519707320800,1.2343200683593754,-0.3060667216777801,-1.5243502855300903,-0.7602535486221313,3.513911792039871,0.5150216524809599,-1.1073909677322953,3.8511014274120328,8.97215206349194,0.9164533853348344,walking
1757686519717275000,1.2442741699218764,-0.3178760409355163,-1.4665720462799072,-0.7150557041168213,3.643291036146879,0.0210854581266641,-1.8629907971575848,3.903531579612195,8.94624722238481,0.9473582997515796,walking
1757686519727229000,1.2542282714843758,-0.3264175951480865,-1.1683353185653689,-0.5778611302375793,3.146402713988721,-0.2360235093146562,-1.6654096850924194,3.94896383574903,8.923832561480998,0.970193304959312,walking
1757686519737183000,1.2641821289062491,-0.3294234871864319,-0.8433910012245178,-0.3842833042144775,2.197694753193855,0.113720487204194,-0.6448442564412951,3.98218835221976,8.907930643472074,0.9804814747396856,walking
1757686519747136800,1.274135986328126,-0.3474845290184021,-0.6770488619804382,-0.2193074077367782,0.9550386251211166,0.8320511278778314,0.1208632716309279,4.001408016474545,8.899331157431005,0.9803199275024236,walking
1757686519757092000,1.2840913085937515,-0.3216336667537689,-0.5474225878715515,-0.0878483578562736,0.3631108430922031,1.285630761924386,0.4840835664469748,4.009150008903443,8.896459401386975,0.9747334326069802,walking
1757686519767046000,1.294045166015625,-0.2651408314704895,-0.0680977925658226,0.1376316398382187,-0.0396720851749181,1.4082090938448906,1.0273622491844,4.004919531726837,8.899728047794103,0.9622195496011524,walking
1757686519777000000,1.303999267578126,-0.186366856098175,0.4012728631496429,0.5182896256446838,-1.4815189524665473,1.380081900513172,1.6100601383142172,3.977923095990717,8.914835016033052,0.9339286901403218,walking
1757686519786954000,1.313953369140625,-0.0202497895807027,0.6251347661018372,0.7649819850921631,-2.388514846691489,1.378992936232686,2.8863863346681,3.924244697295129,8.94166047911644,0.9040836600400508,walking
1757686519796907800,1.3239069824218763,0.0906176194548606,0.671646237373352,0.7657727003097534,-1.8784481862694025,1.2498702972352504,4.367373372215033,3.860846868617832,8.97142374921739,0.8819136946123093,walking
1757686519806862800,1.3338620605468758,0.1614861935377121,0.5978508591651917,0.6388885378837585,-0.8538397658377885,1.6585504668474196,5.444807373905181,3.803047882860899,8.99729410353303,0.8694508111413568,walking
1757686519816817000,1.3438161621093752,0.1467187851667404,0.6124789714813232,0.4388626515865326,0.0510410359293222,2.4173580793380736,5.609214676773548,3.759780111281573,9.016302755385636,0.8606663969874382,walking
1757686519826771000,1.3537702636718765,0.1275211125612259,0.6609567403793335,0.2493994981050491,0.897245192322135,3.13447875970006,5.161567355385422,3.7347868320614097,9.02776756772995,0.8492254769753664,walking
1757686519836725000,1.3637243652343756,0.1303761154413223,0.7132132649421692,0.181680142879486,0.961837783741951,3.137515935438872,4.436692115373909,3.722118489146232,9.034306029587984,0.8351903026863932,walking
1757686519846679000,1.373678222656249,0.1498408913612365,0.7639094591140747,0.2421357631683349,0.1524547070071101,2.1210832226783034,3.541122162787616,3.709541331645846,9.040833970052004,0.8203649278677999,walking
1757686519856634000,1.3836333007812502,0.2004780173301696,0.8536355495452881,0.3459108173847198,-1.0342314043015242,0.6826718827933073,2.5510341438561674,3.689699736100435,9.05020502498746,0.8063845525059848,walking
1757686519866588200,1.3935874023437511,0.2480194270610809,0.9676364064216614,0.4846785366535187,-2.383992400830984,-0.7009966440349817,1.5902876624822615,3.6598026104867456,9.063494714671371,0.7932898008722812,walking
1757686519876542200,1.4035415039062489,0.2797527611255646,0.9926646947860718,0.6741545796394348,-3.99235318788141,-1.8855179785251617,0.7129268088687211,3.61541606401056,9.082339700394868,0.7812047377377748,walking
1757686519886496300,1.41349560546875,0.3265844583511352,0.8743606805801392,0.8602336645126343,-5.158238503223657,-2.6463877842426298,0.3055735770113766,3.553076219953597,9.107441408425569,0.7749596328031271,walking
1757686519896450300,1.4234494628906251,0.4198293089866638,0.7198870182037354,1.0050718784332275,-5.36511950468421,-2.9371517685264346,0.2884435054469853,3.4744483811795708,9.137235658186674,0.78071717341654,walking
1757686519906404400,1.4334035644531262,0.5330019593238831,0.5509733557701111,1.1453979015350342,-5.096923326039314,-2.796300113290548,0.4284237116105854,3.381627181880176,9.170115014481544,0.802495363047719,walking
1757686519916359200,1.4433583984375016,0.6379714012145996,0.4124752879142761,1.2937915325164795,-4.935338094854354,-2.360357258221507,0.3406303504105657,3.274060833391547,9.205678495293856,0.8404591099347919,walking
1757686519926313200,1.453312500000001,0.7025679349899292,0.3836076855659485,1.427395939826965,-4.6156572281658645,-1.5162480282813309,0.1436176128178835,3.1525010308638213,9.243384833353756,0.8899293894160538,walking
1757686519936267300,1.4632666015625002,0.6999790072441101,0.4695072770118713,1.5300140380859375,-3.769359840531647,-0.276895617929101,-0.2697251417778432,3.019974136380851,9.282385302877426,0.942046822405234,walking
1757686519946221000,1.4732202148437494,0.6420994400978088,0.6033215522766113,1.54058837890625,-2.501756318207085,1.0634183358192444,-0.8887714515525847,2.8825834352537987,9.32113150537908,0.9887291516683996,walking
1757686519956175000,1.4831743164062503,0.5521963238716125,0.7756398320198059,1.4442377090454102,-0.5776236546054482,2.2321353674560784,-1.3937106128931045,2.7508102817475795,9.35699718400836,1.02470413589105,walking
1757686519966130200,1.49312939453125,0.4574203193187713,0.882108211517334,1.3256481885910034,1.2179843358919025,2.5956436854332683,-1.3108153259329498,2.630395265340805,9.38883083064258,1.0493982860341668,walking
1757686519976084200,1.5030834960937494,0.4074790179729461,0.8106405138969421,1.2629530429840088,1.5021177961200476,2.0258938329428435,-0.7256592299960554,2.518793085464835,9.417340301290151,1.0675807892609388,walking
1757686519986038300,1.5130375976562505,0.365233838558197,0.7226507663726807,1.2326894998550415,0.8843148374699056,1.036121163570881,-0.1697431840036064,2.410106354644149,9.443747246700523,1.0850763331368565,walking
1757686519995992000,1.5229912109375014,0.3411999344825744,0.628716230392456,1.2446084022521973,-0.0686934508673846,-0.0568447537720203,0.0009700140759348,2.3011364229679105,9.468898639091847,1.1023077461838722,walking
1757686520005946000,1.5329453125000023,0.3216052055358886,0.5295355916023254,1.262160062789917,-0.8697039821848273,-0.7454267373919486,0.0160283208675682,2.189208226007968,9.493242222231626,1.1207687010258436,walking
1757686520015901200,1.542900390625002,0.2844138443470001,0.5848560333251953,1.2790415287017822,-1.2935107015192508,-1.125426755964756,0.0716985509674996,2.075218128082156,9.51680488412678,1.137672562618926,walking
1757686520025855200,1.5528544921875014,0.2718096375465393,0.616182804107666,1.2876489162445068,-1.34204910697788,-0.983123148354888,-0.0576519054364412,1.9605011771865188,9.539402500382064,1.15180221025832,walking
1757686520035809300,1.5628085937500025,0.2406771928071975,0.5886669158935547,1.2889925241470337,-1.1536020262219011,-0.7567348978698253,-0.4599309758346527,1.8450772470653056,9.560812368157505,1.1648737271469085,walking
1757686520045763300,1.5727626953125,0.2032840102910995,0.5169466137886047,1.2573305368423462,-0.979788450974226,-0.4964338563889264,-0.9599203327480704,1.7300713962256908,9.580932780644297,1.1759970325771718,walking
1757686520055717000,1.5827163085937492,0.1509567201137542,0.370451420545578,1.1939293146133425,-0.6574364653803407,-0.2459966217964887,-1.2069433749828486,1.6185587943293154,9.599244097882508,1.1853954869762062,walking
1757686520065672200,1.5926713867187503,0.0916230902075767,0.2066755294799804,1.1472363471984863,-0.4364683402478694,-0.2303355268061161,-1.5331059318408369,1.510117854963243,9.616054947429896,1.1922313243456184,walking
1757686520075626200,1.6026254882812516,0.0705064684152603,0.1843208223581314,1.091257929801941,-0.2092448079824447,-0.392395389765501,-1.6798700259909032,1.405447812438011,9.631320321100947,1.196989551723376,walking
1757686520085580000,1.612579345703125,0.071850299835205,0.2519137263298034,1.0814697742462158,0.116340898835659,-0.6952583926439285,-1.4065329773262143,1.304318803520501,9.64508347351551,1.2006315614875405,walking
1757686520095534000,1.622533447265626,0.0848076045513153,0.3722465932369232,1.098189353942871,0.1637011273603886,-1.031154481074214,-1.0184059125296772,1.2035371467359364,9.657761753302813,1.203956395061314,walking
1757686520105488400,1.6324875488281254,0.1167468950152397,0.4456576704978943,1.0886205434799194,0.2713843071617186,-1.153554533818364,-0.5408604426145553,1.1033367969706651,9.669132457622885,1.208693360455334,walking
1757686520115443200,1.6424423828125023,0.1612835079431533,0.4579214751720428,1.0419652462005615,0.3168342450857162,-1.2073796475082634,-0.2605990745794028,1.0062612281624228,9.678664256078005,1.2170827108770608,walking
1757686520125397200,1.652396484375,0.2166671305894851,0.4070585668087005,0.982741117477417,0.3512835541110485,-1.152201950165629,-0.0902748758174478,0.9140523155424743,9.686033908063171,1.231111966881901,walking
1757686520135351300,1.6623505859375012,0.2589241564273834,0.3331211507320404,0.9312121272087096,0.2851274397015571,-1.030949313890934,-0.0685040657751262,0.826530830086395,9.691375269091129,1.2507907730810344,walking
1757686520145305000,1.6723044433593763,0.2830012440681457,0.2995064556598663,0.9160102605819702,0.1718636102236807,-0.928483795672655,-0.255606453923881,0.7416743260558695,9.695154203107952,1.2744893363155425,walking
1757686520155259100,1.6822583007812515,0.3055979609489441,0.3090458214282989,0.914763569831848,0.1239244858324527,-0.8622586346149445,-0.4310547907665372,0.6571841711197048,9.697760586214065,1.3007485438182949,walking
1757686520165213200,1.692212402343749,0.3321970999240875,0.3116511702537536,0.9240529537200928,0.2541933357229456,-0.8363298281103372,-0.6080277068279684,0.5725539501257241,9.699214876675605,1.3295800860270857,walking
1757686520175168300,1.7021674804687503,0.3461484313011169,0.2753945589065552,0.9146965146064758,0.3442330510776489,-0.9051759853214024,-0.7847562927395105,0.4874532620757817,9.699526426842809,1.3608607749536632,walking
1757686520185122300,1.7121215820312514,0.3649389147758484,0.1934951394796371,0.8583222031593323,0.6884475435853004,-0.9389964218586684,-0.9744587803840636,0.4049543905546888,9.6986315238297,1.3938928375922142,walking
1757686520195076400,1.722075683593749,0.4088979363441467,0.1402550041675567,0.797909140586853,1.1204887150406837,-0.9934621715396642,-1.0047380371831356,0.3274042274821549,9.696236153125762,1.4304571660101413,walking
1757686520205030100,1.732029296875,0.476199746131897,0.1369763761758804,0.7540847063064575,1.3654384581327437,-1.0570634138345718,-1.0064642764538525,0.2543891688222996,9.692050391873718,1.4730341788463293,walking
1757686520214984200,1.741983398437501,0.5070460438728333,0.1398153305053711,0.6843899488449097,1.4157786523163318,-0.8470622345268726,-1.1695474911116064,0.1871390303647145,9.686303957176207,1.5201481044597922,walking
1757686520224939000,1.7519382324218764,0.5362929105758667,0.1624106466770172,0.6430363655090332,1.1568225957036018,-0.3868120366752147,-1.3945333274528384,0.125870423135301,9.67930664563477,1.5702077281363307,walking
1757686520234893000,1.7618923339843755,0.5588349103927612,0.196546271443367,0.6602349281311035,0.4982476278126239,-0.1924135001689195,-1.4742875399082898,0.0663350557395489,9.671207510331271,1.622877680441737,walking
1757686520244847400,1.771846679687501,0.5731760859489441,0.2174049466848373,0.7033944129943848,-0.0328010303616523,-0.1320446639239788,-1.535928149654716,0.0040701925979577,9.662163203132152,1.6771859014734625,walking
1757686520254801200,1.781800537109376,0.6107612252235413,0.2273558527231216,0.7089980840682983,-0.06561082855165,-0.1594073026239872,-1.3231085519254209,-0.0602342866124585,9.65196797233224,1.7338637742459773,walking
1757686520264755200,1.7917543945312513,0.6679373979568481,0.2507669031620025,0.6548722982406616,0.3052402534037828,-0.3590361409991979,-0.8779737978801131,-0.1216350962536409,9.6401588765949,1.7952524550579487,walking
1757686520274710300,1.801709472656249,0.7325477600097656,0.302035391330719,0.5890587568283081,0.5544920776039362,-0.4468202229142188,-0.5695028919920325,-0.1760585411628708,9.62648924768269,1.8628209935486315,walking
1757686520284664000,1.811663330078126,0.7763530611991882,0.409735769033432,0.5515004396438599,0.4467389743715524,-0.2562871296644211,-0.5251223368652165,-0.2239285458406433,9.611032150831818,1.936055741107464,walking
1757686520294618000,1.8216174316406253,0.7712112069129944,0.5146087408065796,0.5144099593162537,0.3336322351515293,0.263349907657504,-0.6461321042947471,-0.2656969091750681,9.594476737350226,2.0114256009988485,walking
1757686520304572200,1.8315715332031264,0.7153788805007935,0.5908883810043335,0.4814184308052063,0.2082178030222654,0.8630997616142034,-1.002441450678557,-0.3018910160411149,9.577864040723442,2.0841715421274305,walking
1757686520314526200,1.841525390625001,0.6270090937614441,0.6356648206710815,0.4520717561244964,0.1002179950198158,1.3517290817320349,-1.443190098594129,-0.3333535278080031,9.56224035513401,2.1500782848857343,walking
1757686520324481300,1.851480468750001,0.5376787185668945,0.6524147987365723,0.4189172685146332,0.1296358857491985,1.555472954210639,-1.839659752061218,-0.3608260931558907,9.54808557305336,2.207768111179769,walking
1757686520334435300,1.861434570312502,0.4625110626220703,0.6961931586265564,0.3760648667812347,0.27385380254779,1.5561960077881811,-2.183524919674545,-0.3835378373101353,9.535540564256904,2.2575950951442123,walking
1757686520344389000,1.8713884277343755,0.4060501754283905,0.7233232855796814,0.3302989602088928,0.4001871030876412,1.3963526518344878,-2.427236937665194,-0.400934925780259,9.524349308156967,2.3013914206422865,walking
1757686520354343200,1.8813425292968768,0.3772366046905517,0.7376694083213806,0.2816678285598755,0.7624468457758427,1.3550865754663943,-2.5925544872462747,-0.4128934399256482,9.51413946430981,2.341163166799396,walking
1757686520364297200,1.89129638671875,0.3809093832969665,0.7497377991676331,0.2474382370710373,1.075692710980773,1.4573784906834364,-2.635584942938387,-0.4202801161108538,9.504174535134434,2.380003769586235,walking
1757686520374252000,1.9012512207031251,0.379122644662857,0.7476702332496643,0.2313510626554489,1.2847212458640336,1.53062902033329,-2.589624279013276,-0.4249033554647117,9.4940710742712,2.419186756069958,walking
1757686520384206300,1.9112055664062504,0.3374790549278259,0.7842303514480591,0.2160283029079437,1.5444751748561858,1.685596294683218,-2.6444763976633547,-0.4274303531916811,9.484401913172006,2.456382221998274,walking
1757686520394160400,1.92115966796875,0.2697933912277221,0.831146240234375,0.2092783749103546,1.8150877669930456,2.0163053358644247,-2.661518133357167,-0.4274983038613572,9.476011685967444,2.488536771149933,walking
1757686520404114200,1.931113525390625,0.1918437182903289,0.8226100206375122,0.1595299988985061,2.20124806176126,2.765149188223481,-2.445859951201081,-0.4244512643156573,9.469520570382477,2.513645785704255,walking
1757686520414068200,1.9410673828125,0.1264193952083587,0.7858420014381409,0.0714442655444145,2.7013743429273367,3.5885932312756776,-2.1950030298918484,-0.415210886555165,9.465043132707477,2.5319869135588404,walking
1757686520424022300,1.9510214843750011,0.0382338836789131,0.7020539045333862,-0.056417029350996,2.8341631032168864,3.897580269992351,-2.101203340949118,-0.3971650153201073,9.46296281930208,2.5426342720404267,walking
1757686520433977000,1.960976318359375,-0.0803801640868187,0.5109867453575134,-0.2442630380392074,2.7405378940582272,3.6706904997259375,-2.5333731072202323,-0.3674354282930493,9.46419908309877,2.542501001049578,walking
1757686520443931100,1.970930419921876,-0.1708616018295288,0.2786978185176849,-0.4736142158508301,2.466224109315872,3.5656893255501982,-2.986322626669705,-0.3237126064226031,9.468643787547943,2.5318732240512967,walking
1757686520453885200,1.9808845214843755,-0.2671911120414734,0.0325528346002101,-0.7453250288963318,2.3584523013830183,3.539562366124988,-3.129078361961245,-0.2624780932590365,9.475916993421317,2.5116739011093974,walking
1757686520463839200,1.9908383789062505,-0.3686005473136902,-0.2163222283124923,-1.0307213068008425,2.7171213626354933,3.5392917324900623,-3.2464676008060573,-0.1809133242502808,9.485763849174976,2.481520170386136,walking
1757686520473793300,2.000792480468752,-0.4860705733299255,-0.4103107750415802,-1.3121416568756104,2.61113936072886,3.235995014369488,-3.225541132633388,-0.0779244032124057,9.497715568253398,2.440841246256232,walking
1757686520483748000,2.010747314453125,-0.6214950084686279,-0.5454795360565186,-1.5773301124572754,1.6814134560406206,2.835197122439742,-3.0923990288615224,0.0473498806606512,9.51125134165287,2.3883542493022976,walking
1757686520493702100,2.0207014160156263,-0.7749223113059998,-0.6482738256454468,-1.8130167722702024,0.594351209783554,2.463167644354701,-2.9227094016760584,0.1942390350956469,9.525497309148312,2.3232608687534926,walking
1757686520503656200,2.0306555175781256,-0.9546984434127808,-0.7084152102470398,-2.015587329864502,-0.0824772442111745,2.2384581407368183,-2.3499125827051697,0.3606538053289055,9.539965979483725,2.242622128548473,walking
1757686520513610200,2.040609619140625,-1.019578218460083,-0.7308022379875183,-2.203877210617065,-0.0461725531101226,2.420841245278716,-0.893362944061309,0.5455130907259881,9.55226256647706,2.1510668575316667,walking
1757686520523564000,2.050563232421876,-0.9416131377220154,-0.7450743317604065,-2.362254858016968,0.4940846629142761,2.767852601963281,1.032760162705183,0.7476080269537866,9.558245148018004,2.06189512065053,walking
1757686520533519400,2.0605185546875013,-0.7571818828582764,-0.7531300187110901,-2.4394071102142334,0.8618691969059408,2.928199231263995,2.519702017003297,0.9616142041191458,9.555016833621265,1.9867837655648588,walking
1757686520543473200,2.0704724121093765,-0.5075693726539612,-0.6509000658988953,-2.3705735206604004,0.2452793403726071,3.0200960091948508,3.7417473187237977,1.1771759401634334,9.541681551229953,1.9341564833574,walking
1757686520553427200,2.080426513671876,-0.3132835626602173,-0.443184345960617,-2.209423780441284,-0.921327055785805,2.703261179587245,4.2122737036570905,1.3843056556880473,9.52018517421484,1.902666973985732,walking
1757686520563381200,2.090380615234375,-0.1939702332019806,-0.1634011715650558,-2.0023512840271,-1.6306046214319765,2.114198723861575,3.894809343974292,1.577932184908539,9.493787581154704,1.883745708155632,walking
1757686520573335300,2.1003344726562503,-0.2301370054483413,0.1342382580041885,-1.793502926826477,-1.785750613349676,1.740350798177719,3.7611715656399727,1.7567204798288645,9.466009347391129,1.8652023357272147,walking
1757686520583289000,2.110288330078125,-0.4673290550708771,0.4583944976329803,-1.5899980068206787,-1.6906161686718464,1.5363140802323818,3.99919793920964,1.921057640070468,9.441399806791544,1.827540713591873,walking
1757686520593244200,2.120243408203125,-0.6060917377471924,0.8026097416877747,-1.4903135299682615,-1.3922197898134587,1.3100059092462062,4.635838430929184,2.076362768072635,9.420807100617886,1.7628155818335711,walking
1757686520603198200,2.130197509765626,-0.492346316576004,0.9229151010513306,-1.4518239498138428,-0.8586039114996791,1.2976608069360256,4.605414651092887,2.228835156866908,9.398885776188967,1.6922339791320264,walking
1757686520613152300,2.1401516113281254,-0.5543860793113708,0.7900838851928711,-1.455751657485962,-0.9473523084022104,1.1666717895448206,2.2554124904081223,2.3789351174414155,9.37395007237494,1.6248400665558873,walking
1757686520623106300,2.1501054687500023,-0.7379854917526245,0.5414980053901672,-1.4878193140029907,-1.0102759436964988,1.006032899299264,-0.924127354028821,2.5264035604685544,9.348290730461478,1.548265799310803,walking
1757686520633060000,2.160059326171876,-0.8817744255065918,0.2034279257059097,-1.5787155628204346,-1.1491036918893456,1.257869479295611,-2.21557118614614,2.674210149408877,9.32090880253911,1.4627442555002867,walking
1757686520643015200,2.170014404296875,-0.927335560321808,-0.1658159047365188,-1.7293643951416016,-1.005353977124393,1.5349965678930282,-2.1163604319401084,2.8273414405033,9.288591756302118,1.3778990035161376,walking
1757686520652969200,2.1799685058593763,-0.9252649545669556,-0.5213422179222107,-1.9418890476226809,-0.6563865179359912,1.43581197104156,-1.357471863167733,2.991781184336543,9.247864024594426,1.3025548625878989,walking
1757686520662923000,2.1899223632812514,-0.8939342498779297,-0.7811460494995117,-2.127762794494629,-0.1818602497115731,0.9324053530305624,-0.619145605430752,3.1707214549481866,9.196862151631713,1.238794776469469,walking
1757686520672877300,2.199876464843749,-0.8466305136680603,-0.9313048720359802,-2.179350137710572,-0.5047957342818379,-0.026570611539483,0.1796427928578108,3.3580855627730486,9.136956841245294,1.1872966444224118,walking
1757686520682831400,2.20983056640625,-0.8865022659301758,-1.264420747756958,-2.005760669708252,-1.5285250337913632,-1.0188257453769445,0.2314914188429713,3.535914365011453,9.074867757079003,1.146521566441655,walking
1757686520692786200,2.219785400390625,-0.9354259967803956,-1.631594181060791,-1.7861933708190918,-2.654811329194904,-1.4596388368308544,-0.2202531817961484,3.690003395222128,9.017084261152148,1.11643249845244,walking
1757686520702740200,2.2297395019531265,-0.9625537395477296,-1.83057963848114,-1.6653907299041748,-3.067121379742026,-1.7188310402870175,-0.1027629667948931,3.8245878067567936,8.96323752015233,1.0969554253704843,walking
1757686520712694300,2.239693603515626,-0.9919549822807312,-1.763014793395996,-1.6140505075454712,-3.360729063019156,-1.7595505886882543,-0.2098953077804297,3.950750426904857,8.910433566203713,1.0798884821701795,walking
1757686520722648000,2.249647216796875,-0.9943771362304688,-1.6407487392425537,-1.550945520401001,-3.70258639794141,-1.9711504353642464,-0.4277767920091748,4.0727904141649605,8.857774573683738,1.0595471204090865,walking
1757686520732602000,2.259601318359376,-0.9260046482086182,-1.561594843864441,-1.4573311805725098,-4.082486463271081,-2.342415943339467,-0.2525217857815325,4.18857864755392,8.805860846573115,1.0406628255885093,walking
1757686520742557200,2.269556396484376,-0.8451851606369019,-1.4855302572250366,-1.3111978769302368,-4.293388098549842,-2.790690456715226,0.1115190316371619,4.294135994307696,8.756442443409561,1.0273726975131778,walking
1757686520752511200,2.279510498046875,-0.7360175848007202,-1.4581986665725708,-1.1542840003967283,-4.238004649502039,-3.122452806341648,0.4632411963611841,4.386296099349856,8.711267669165133,1.0220616585582494,walking
1757686520762465300,2.289464599609376,-0.6190259456634521,-1.4776746034622192,-1.0113319158554075,-3.888804258340597,-3.1677602670550344,1.1242147498264907,4.464908448293805,8.670532923194765,1.028022905050218,walking
1757686520772419300,2.2994187011718754,-0.5422163605690002,-1.5231313705444336,-0.863379716873169,-3.573480417817831,-3.131548551467061,1.5827680806323885,4.530263256257772,8.634471429732441,1.0454667187388986,walking
1757686520782373000,2.3093723144531264,-0.4972414374351501,-1.48522686958313,-0.6787111163139343,-3.601296353243291,-3.0018676940649747,1.7457658089637755,4.580673885329068,8.604896375679969,1.0693659921772778,walking
1757686520792327200,2.3193264160156257,-0.4626345038414001,-1.4138273000717163,-0.4732834994792938,-3.621571371769905,-2.960141598969698,1.8643536099433893,4.614417457237839,8.583674723953008,1.0945807321283965,walking
1757686520802282000,2.329281250000001,-0.4204795956611633,-1.2845577001571655,-0.2687109112739563,-3.4450194575995203,-3.185202984765172,1.8268492241963743,4.631345503424107,8.571407363054156,1.118916424222663,walking
1757686520812236300,2.3392355957031263,-0.370917797088623,-1.1410433053970337,-0.048064436763525,-3.367915467391908,-3.462757358863949,1.693848574721813,4.631604154360294,8.568390645581484,1.1407364071689543,walking
1757686520822190300,2.3491896972656257,-0.3073508143424988,-0.9739744663238524,0.1506121754646301,-3.2890304389864204,-3.662258771467209,1.6341291422963142,4.614968369118869,8.574710496252775,1.1605026724558325,walking
1757686520832144400,2.3591435546875026,-0.2371390908956527,-0.8105683922767639,0.3306361138820648,-2.836087057016789,-3.927033743491769,1.6504492857173083,4.584152959616482,8.588841897457838,1.1780004082888365,walking
1757686520842098200,2.369097412109376,-0.1922656297683715,-0.6670000553131104,0.5366502404212952,-2.495169633293152,-4.168526039606332,1.434504687835276,4.538471112632752,8.610967220026254,1.193281271789968,walking
1757686520852053000,2.3790522460937518,-0.1738064438104629,-0.5322949290275574,0.7452877163887024,-2.2318851920872924,-4.196450988364219,1.2364806543082,4.476299610880017,8.641886089903116,1.2045577219553292,walking
1757686520862006800,2.3890061035156265,-0.1742559820413589,-0.4432961046695709,0.915514588356018,-1.7761247068703174,-4.067116167920828,0.9248259307522326,4.398673642624915,8.680742767041922,1.2111012253146618,walking
1757686520871960800,2.398960205078126,-0.1864503473043441,-0.375512033700943,1.03157377243042,-1.2659367581561207,-3.851692379042506,0.5730732247594743,4.309116121296585,8.725238911372422,1.2133004158593714,walking
1757686520881915000,2.408914062500001,-0.2130483984947204,-0.3199600875377655,1.0906819105148315,-0.7367422034159302,-3.4947505799740552,0.2348253125060349,4.212224603818357,8.772767555266618,1.2108235043518245,walking
1757686520891869000,2.418868164062502,-0.2472965121269226,-0.3027023673057556,1.0904223918914795,-0.0119528881222009,-2.96644274494052,-0.1297661245327442,4.112770250114799,8.82086318539381,1.2032661477748303,walking
1757686520901824000,2.4288232421875016,-0.254628986120224,-0.3080702424049377,1.042658805847168,0.9814525847941636,-2.1306869173258542,-0.420609092336893,4.01509605782628,8.867070809817314,1.193487096560374,walking
1757686520911778000,2.438777343750001,-0.2891739010810852,-0.3377346694469452,0.971835732460022,2.066441531908512,-1.079292196777463,-0.7344480280641466,3.922055078296363,8.910127276733517,1.1821637385133654,walking
1757686520921731800,2.448731201171876,-0.2999743521213531,-0.3685357272624969,0.879112184047699,3.200186034363508,0.097364395686984,-1.1212830072235316,3.835475111474096,8.949425852420925,1.1693166780304165,walking
1757686520931686000,2.4586850585937494,-0.2367400377988815,-0.3499918580055237,0.7453108429908752,4.406043879131973,1.4201304177850484,-0.995467373882234,3.758483057208359,8.983423983612656,1.158572215849906,walking
1757686520941640000,2.4686391601562505,-0.1314405053853988,-0.3848364055156708,0.5188915729522705,5.618829477337003,2.705677593079209,-0.6248114491727202,3.697008597809076,9.009299598625304,1.1554262459743767,walking
1757686520951594000,2.478593261718752,-0.0517915114760398,-0.5695223212242126,0.1482675224542617,6.57360448308587,3.9806414150387046,-0.4739154428496956,3.660859718324244,9.022868105250597,1.1646427679352462,walking
1757686520961548800,2.488548095703125,-0.054326843470335,-0.8248555660247803,-0.317326545715332,7.187731237441301,5.008314483737945,-0.912988558768481,3.660247431644797,9.020360506343842,1.1857779104225337,walking
1757686520971503000,2.4985024414062504,-0.1095727533102035,-0.9257680773735046,-0.7068343162536621,6.836144827926159,5.306195022028684,-1.7785449197545646,3.696546533255279,9.002152649480104,1.211268690836057,walking
1757686520981457000,2.508456054687501,-0.1861588805913925,-0.8562494516372681,-0.8788814544677734,5.311614124467969,4.525202465736866,-2.0318046644218266,3.758070677015185,8.973903875595331,1.231392975780368,walking
1757686520991411000,2.5184101562500025,-0.2723886668682098,-0.7494691014289856,-0.8322359919548035,3.448830832581222,2.7636282622665167,-1.368489077875018,3.825951204064488,8.943867633771896,1.240847909606993,walking
1757686521001365000,2.5283642578125,-0.3492336571216583,-0.7779582142829895,-0.671176552772522,2.0800474479347466,0.9570599018156528,-0.887127410672605,3.88420933176577,8.918574202561379,1.2419183153174818,walking
1757686521011319800,2.5383190917968754,-0.4165726900100708,-0.9561884999275208,-0.5022395849227905,1.769831451945007,-0.4611982923567295,-0.5986166121430695,3.925824659962952,8.900459284678101,1.2410105528227984,walking
1757686521021273900,2.5482731933593765,-0.452383428812027,-1.126760482788086,-0.3554359972476959,2.202573757407069,-1.5589637189358472,-0.3559570258148014,3.950972837483883,8.888961154586076,1.2436071451872586,walking
1757686521031228000,2.55822705078125,-0.4503895342350006,-1.1517081260681152,-0.1830215901136398,2.790373061329126,-2.1306693816691635,0.2093888926282525,3.9611259827077374,8.883814439347386,1.2480813679918643,walking
1757686521041181700,2.568180908203125,-0.3847231864929199,-0.9839437007904052,-0.0158885233104228,2.872679588615894,-1.5570628537505864,1.0199066724814474,3.9564807872504,8.885115585073828,1.2535374414406717,walking
1757686521051136000,2.5781352539062503,-0.3847901225090027,-0.707066535949707,0.0276756957173347,2.3437369628101585,0.2209691480457782,0.976676602564007,3.944932096014917,8.89031315371692,1.2530728926688433,walking
1757686521061091000,2.588090332031252,-0.3429372012615204,-0.3368487358093261,-0.0317759104073047,1.8228478796005247,2.2190058367699383,0.6887088248699903,3.938499432618916,8.894877685153483,1.2408680756121873,walking
1757686521071044900,2.598044189453125,-0.2072839736938476,0.2192509770393371,-0.0819926783442497,1.3550731314629316,3.341708720728755,1.4083786051928997,3.943445072327554,8.895656268310546,1.2194075005628169,walking
1757686521080999000,2.607998291015626,-0.1371440291404724,0.9857681393623352,0.1235205307602882,0.0585007042855024,3.62967459872663,2.015676974833012,3.9507399055108414,8.897537259751557,1.181480213228613,walking
1757686521090953000,2.617952148437501,-0.1144265905022621,1.6907727718353271,0.564153790473938,-2.596776488855481,3.185812056574225,2.528772627687454,3.936333194495737,8.912240323364735,1.1169982425764202,walking
1757686521100906800,2.6279060058593764,-0.0571542493999004,1.94126570224762,0.9423421025276184,-4.504975085744261,1.910389969453216,4.025817942848802,3.888168006263673,8.942973899802565,1.0371702342323958,walking
1757686521110862000,2.637861328125,0.0062204226851463,1.6648370027542114,1.0042186975479126,-4.460848943769932,0.6439373707294463,5.792453521361947,3.817407539863884,8.981501491117477,0.9645820409487932,walking
1757686521120815900,2.6478151855468752,0.1226626113057136,1.1427757740020752,0.7250397801399231,-3.118413760083913,0.7241682607859372,6.5350196086257695,3.7518300290599456,9.01409735429585,0.9166337834030388,walking
1757686521130770000,2.6577692871093763,0.2693138122558594,0.5636913180351257,0.2746326327323913,-1.045404540222883,2.413090485021472,6.112606681737304,3.714190911017358,9.031043812921643,0.9030027329355478,walking
1757686521140724000,2.6677231445312515,0.3763353526592254,0.1612994223833084,-0.1615220308303833,0.3853711902171373,3.681185590255261,4.104643934543431,3.7129035015553233,9.029932052287458,0.9192890471521764,walking
1757686521150678000,2.677677246093749,0.4792954921722412,0.0453970655798912,-0.3764922618865967,0.8236872041583061,3.280112388515472,1.6473893136247992,3.7398110899642094,9.01516118413508,0.9545093405500054,walking
1757686521160631800,2.687631103515626,0.5339427590370178,0.1278993934392929,-0.2320450544357299,-0.1286257953912019,1.9214806877881287,-0.1739795794643461,3.769758484460413,8.998025340417026,0.997435532150045,walking
1757686521170587000,2.697586181640625,0.4609453082084656,0.3793334364891052,0.1452444493770599,-2.3877245730966328,0.4337088124066591,-2.0477207570865747,3.776959501880407,8.99091521615088,1.0336263510804622,walking
1757686521180541000,2.7075402832031266,0.2930332720279693,0.6811039447784424,0.6312111616134644,-4.881298169369996,-0.9126198715865612,-3.332737478765845,3.748393040348589,9.001282880908251,1.0473225026734172,walking
1757686521190495000,2.717494140625,0.1600552648305893,0.8900566697120667,1.219998121261597,-6.900160496240854,-2.017873023572564,-3.2270208497971296,3.673825582881272,9.033035278999805,1.0381222011949869,walking
1757686521200449000,2.727448242187501,0.0493721663951873,0.9302906394004822,1.753434181213379,-8.154952467787265,-2.445888592773676,-2.49214210216552,3.548359128303826,9.085758568927645,1.01417178209126,walking
1757686521210403000,2.737402343750002,0.0640904679894447,0.8991072773933411,2.0978751182556152,-7.768638443762064,-2.288497306147218,-1.6612949432499706,3.381712814337015,9.152075499922036,0.9868782631047068,walking
1757686521220358000,2.747357177734376,0.1913147419691085,0.8649138808250427,2.2653133869171143,-6.414640832576155,-1.4070102394491433,-0.5999928689323365,3.189800249427557,9.222580530256032,0.9692982558157296,walking
1757686521230312000,2.757311279296875,0.3340122401714325,0.9654468894004822,2.243147134780884,-4.909642512583733,-0.289810629081726,0.1421528740275651,2.9896427110031247,9.28976430721283,0.9657639442097397,walking
1757686521240265700,2.767264892578126,0.4217231869697571,1.0905925035476685,2.0136101245880127,-2.8568983743771907,0.5113111075252295,0.3400982893604785,2.801233478039503,9.347713222834468,0.9714755267895756,walking
1757686521250219800,2.7772189941406253,0.423896849155426,1.0912524461746216,1.5787326097488403,0.0682186729624867,1.005728947916627,0.0560924740999937,2.643813842101395,9.392439084267616,0.9811956143584102,walking
1757686521260173800,2.7871730957031264,0.3943701088428497,0.8984792828559875,1.202778697013855,2.7136653769627213,1.4597574947744607,0.0823953746140003,2.5246985101163384,9.42383550852835,0.9937984908219426,walking
1757686521270129000,2.797128173828126,0.3120939135551452,0.6187288165092468,1.0487191677093506,2.995072919358313,1.4791571917712687,0.7179932254128157,2.4279440630212425,9.447681079018116,1.0083760283593088,walking
1757686521280083000,2.8070822753906253,0.2548242509365082,0.5107488632202148,1.071247100830078,1.248036067545414,0.9216583335667848,1.1242667722746729,2.3344378040671345,9.469774837404488,1.0218357408478855,walking
1757686521290037000,2.8170363769531264,0.188146024942398,0.6150967478752136,1.1786597967147827,-1.0469780731499194,0.3272697143822908,1.2934689082041382,2.2342023829884825,9.492997307559849,1.030403151250258,walking
1757686521299990800,2.826989990234376,0.1340817213058471,0.8619430065155029,1.3238457441329956,-2.623981014384329,-0.3707049514830112,0.9788063811343164,2.123442499155551,9.518499413084983,1.0293300421260296,walking
1757686521309944800,2.836944091796875,0.0963513031601905,0.936431646347046,1.4407655000686646,-3.138780548547208,-0.9652519760996102,0.7475506707433611,2.00138512236923,9.54577261993587,1.021315662496537,walking
1757686521319900000,2.846899169921876,0.0959046930074691,0.801866352558136,1.467483401298523,-2.8398434869408606,-1.2923574398308992,0.3855180513419211,1.8712395700648423,9.57300315668881,1.0131446310006085,walking
1757686521329854000,2.8568532714843755,0.0902310460805893,0.5747241377830505,1.378462314605713,-1.992431562193483,-1.477034208267927,0.0838144476316869,1.7419382134996353,9.597718495750426,1.0098869443789125,walking
1757686521339808000,2.8668073730468766,0.0864032804965972,0.3510378301143646,1.2342604398727417,-1.0367207368992268,-1.4933447070777417,-0.4859053750466555,1.6213555854409931,9.618817397880552,1.009936409543827,walking
1757686521349762000,2.87676123046875,0.1613372266292572,0.2420492023229599,1.0799260139465332,-0.2221964978836476,-1.2963836266070603,-0.5679180339533836,1.5140176388807594,9.635538815578816,1.0171302665706723,walking
1757686521359715800,2.886715087890625,0.240064799785614,0.2276497483253479,0.9893069267272948,0.2840893288254738,-1.3134130873411891,-0.6089690062660723,1.4174403019182382,9.648526307445763,1.033041975321248,walking
1757686521369670000,2.8966691894531262,0.3032661080360412,0.3774579167366028,0.94175124168396,0.2260929208002984,-1.2068828039020298,-0.8371369797747582,1.3280432318486273,9.658862408021092,1.0550091116532685,walking
1757686521379625000,2.9066242675781258,0.3393191695213318,0.5579667091369629,0.9309001564979552,-0.0391721728287637,-1.009662195712328,-1.0608347490668295,1.24330611641407,9.667395258566737,1.0798389439400284,walking
1757686521389578800,2.916578125000001,0.3782464563846588,0.6113288402557373,0.9184284210205078,-0.2724957755349576,-0.7669593547642231,-1.363183080421388,1.16059546530582,9.67458780041933,1.1071533595841376,walking
1757686521399532800,2.926531982421876,0.408907413482666,0.5498840808868408,0.8753792643547058,-0.3567360473632812,-0.5184785149365663,-1.521688173508644,1.080832046630606,9.680190442731975,1.138466197214648,walking
1757686521409487000,2.9364863281250013,0.4312901496887207,0.3623257577419281,0.8518251776695251,-0.4711993157587945,-0.4022568585664033,-1.5248397694073617,1.00316121632047,9.684278588828445,1.1742390829939395,walking
1757686521419441000,2.9464401855468765,0.4433957934379577,0.2051361203193664,0.8373596668243408,-0.4615102809153497,-0.5779951182663441,-1.3736629733815788,0.9250876504283396,9.687185416185857,1.2137005210928618,walking
1757686521429396000,2.956395263671876,0.4586208760738373,0.0980107560753822,0.8405029773712158,-0.3759773389279842,-0.8930524168074131,-1.2369810050457717,0.8461389822021126,9.689050041013957,1.2556857055157422,walking
1757686521439350000,2.9663493652343758,0.497426837682724,0.0393104255199432,0.8449046611785889,-0.2015348911922425,-1.1619096897095442,-1.0237782532177866,0.7656682189751416,9.689757312500475,1.3010568791151047,walking
1757686521449303800,2.9763029785156263,0.5254465937614441,0.0551135577261447,0.8527505993843079,0.0878103123348206,-1.3285469435870647,-0.8126289267882705,0.6844694337345659,9.6890985563308,1.350276690966636,walking
1757686521459257900,2.9862570800781256,0.5749390721321106,0.0761674419045448,0.8620085120201111,0.338252296167612,-1.231083179178834,-0.8272992571756244,0.6028183381492271,9.6871035831213,1.4025062060281634,walking
1757686521469212000,2.996211181640625,0.6108348965644836,0.1251926124095916,0.8701773285865784,0.5161538713812828,-1.1415654053390023,-0.7857691230438649,0.5206856695920229,9.683478378361462,1.45928797756657,walking
1757686521479167000,3.0061662597656262,0.6262612342834473,0.1654753237962722,0.8522472977638245,0.5891419141700491,-0.9997516270726918,-0.8750557184763252,0.439765810890682,9.678432200887798,1.518197847174853,walking
1757686521489121000,3.0161203613281256,0.6368235349655151,0.1510892063379287,0.8186019062995911,0.5882850050797686,-0.8429945466965436,-0.996712259376794,0.3617642142562195,9.672061496812104,1.5782036953262983,walking
1757686521499074800,3.0260739746093765,0.6699565052986145,0.1507805585861206,0.7900573015213013,0.5274772294282913,-0.6755237646043301,-1.002154742691666,0.2868511399553157,9.664254037931562,1.640209338992834,walking
1757686521509028900,3.036028076171876,0.693084716796875,0.1789181381464004,0.7488245368003845,0.4403413822889327,-0.6135667823851109,-0.8454308339327573,0.2155200340607203,9.65481927011013,1.705397996609658,walking
1757686521518983000,3.045982177734375,0.7117226123809814,0.1792542189359665,0.6868826150894165,0.5696282719373703,-0.3365127590239047,-0.7231031157724559,0.1496799450641497,9.643971712881326,1.7725116309396922,walking
1757686521528937000,3.0559362792968763,0.7252395153045654,0.2091039568185806,0.6345586180686951,0.60334817070961,-0.2000251442164182,-0.6237712194047867,0.0899225187158212,9.631834115841984,1.8412230558551848,walking
1757686521538891800,3.065891113281252,0.7177627086639404,0.2588997483253479,0.6052603721618652,0.4174877454459667,-0.0598708235949277,-0.5980095861606299,0.0350163409241009,9.618722120812537,1.9103316633947192,walking
1757686521548846000,3.075845458984375,0.6637356281280518,0.3072302937507629,0.5757588744163513,0.3677116148859262,0.3229588654458523,-0.6697932581283151,-0.0160630416961445,9.605347090932726,1.9767283816270529,walking
1757686521558800000,3.085799072265626,0.5746102333068848,0.3672017455101013,0.5445948243141174,0.5057540579199791,0.7038210538059473,-0.8090785408303142,-0.0628266822924139,9.592742460903525,2.03610674552992,walking
1757686521568754000,3.095753173828125,0.4747432470321655,0.4757749140262604,0.5186693668365479,0.4706704695791006,0.8983072685956954,-0.9621668695658444,-0.1049560015934519,9.58156231071949,2.086394186612964,walking
1757686521578708000,3.1057072753906265,0.4084734320640564,0.5604074597358704,0.4710850715637207,0.3295627937555312,0.8837468283236026,-1.2197418470837176,-0.1413188891551457,9.57173182157874,2.1289399275280534,walking
1757686521588662800,3.115662109375,0.385305106639862,0.6370768547058105,0.428200215101242,0.267878217003215,0.8158306454390287,-1.5502305235125124,-0.1713620721760206,9.562584054005146,2.167485492891073,walking
1757686521598616800,3.125616210937501,0.3779281377792358,0.705929160118103,0.3996641635894775,0.1504068345665931,0.9480056577444076,-1.994786454756558,-0.195896720908489,9.553561958637832,2.204877796565741,walking
1757686521608571000,3.1355700683593764,0.3607179820537567,0.7302374839782715,0.3902477324008941,0.1279506726086139,1.4498901807546616,-2.555827223351597,-0.2174339231243356,9.544583117890358,2.2414387639828024,walking
1757686521618524700,3.1455239257812515,0.327856957912445,0.698660671710968,0.3735387921333313,0.3400140816757455,1.9805787734448907,-3.095155049571394,-0.2376617049757391,9.535978955674173,2.2757389468610287,walking
1757686521628479000,3.155478271484375,0.3118705749511719,0.655336856842041,0.3433232009410858,0.8750263462513684,2.3342279607087373,-3.3583272625744343,-0.2562747633731924,9.527844749057293,2.307571862842888,walking
1757686521638434000,3.1654333496093763,0.2915019094944,0.6486570835113525,0.3035408854484558,1.6768816578298806,2.4837527517437934,-3.400728188191354,-0.2719339586674235,9.520026184260844,2.337852434816212,walking
1757686521648387800,3.1753872070312514,0.2381419092416763,0.6656396985054016,0.2694289684295654,2.045739520141482,2.4231249723017214,-3.3861306307792662,-0.283457606793195,9.513017766803502,2.3648539851188657,walking
1757686521658342000,3.1853410644531266,0.1418870091438293,0.6021235585212708,0.2372332215309143,1.7960744389653205,2.2698422900378703,-3.45326355433166,-0.2922167038427665,9.507833642163872,2.3845516421489417,walking
1757686521668296000,3.195295166015626,0.1067139133810997,0.4752813577651977,0.1862534880638122,1.83984694519639,2.405544307425618,-3.219817202028632,-0.2994772146313451,9.504411266499757,2.397258855769783,walking
1757686521678249700,3.205249023437501,0.088668867945671,0.4617788791656494,0.0724643394351005,2.43797416638732,3.1114170330643653,-2.614033913126588,-0.3011494404261932,9.50168505640626,2.4078328567542133,walking
1757686521688205000,3.2152043457031265,0.034759908914566,0.5707539916038513,-0.1108999624848365,2.6613217340022324,3.470220534351468,-2.740339156615734,-0.2871714579508639,9.500216737419366,2.415326281249523,walking
1757686521698159000,3.225158447265626,-0.026930883526802,0.5334798693656921,-0.3286653161048889,2.095993789607286,3.2659728040039537,-2.9926936230063435,-0.2524583468901925,9.500957911175488,2.416289573323726,walking
1757686521708113000,3.235112060546875,-0.0619608052074909,0.3088206946849823,-0.5506115555763245,1.7309142767906187,3.089949297621846,-2.720968977974355,-0.2005705031394958,9.50310427555442,2.4127156603597104,walking
1757686521718067000,3.245066162109376,-0.1724681407213211,-0.0099575631320476,-0.8383184671401978,1.896117698472738,3.1149194882273674,-2.220834221240878,-0.1314416839289944,9.507012388908862,2.4020452132634817,walking
1757686521728021000,3.2550202636718755,-0.2906398773193359,-0.1951866745948791,-1.1133816242218018,2.006875244218111,3.2268753038465974,-1.8099936587244272,-0.0413855471624527,9.513421086907384,2.379814092233032,walking
1757686521737974800,3.26497412109375,-0.4197770953178406,-0.269124299287796,-1.3500796556472778,1.552740314376354,2.5523750370711085,-1.26018900828436,0.0699301028231391,9.521584519618749,2.3462585902422664,walking
1757686521747929900,3.27492919921875,-0.5714278817176819,-0.2500771284103393,-1.593389868736267,0.9096692050874232,1.631926663815975,-0.9984037195950746,0.2031856175413355,9.53103974570632,2.299652760281414,walking
1757686521757884000,3.2848830566406253,-0.7087159752845764,-0.1541844308376312,-1.838544607162476,0.3618611352920532,1.0390841050297022,-0.5769594916082919,0.3617864991532638,9.540743393597008,2.2391339941717683,walking
1757686521767838000,3.2948371582031264,-0.7911690473556519,-0.0925265923142433,-2.024064302444458,-0.0418447530388832,0.7439180863946676,0.3890148074164986,0.5431306160362437,9.54860521301329,2.167842781896144,walking
1757686521777792000,3.3047912597656257,-0.7584984302520752,-0.0416367761790752,-2.133082628250122,-0.365078270707652,0.6969090824604034,1.501406140719354,0.7397709766525775,9.551921205693482,2.093787365604192,walking
1757686521787746000,3.314745361328125,-0.6563453674316406,-0.0680931583046913,-2.216520309448242,-0.3229926215849816,0.9331132090389728,2.907719630075991,0.9456354214817284,9.54825391535759,2.0265807922936974,walking
1757686521797700900,3.324700195312502,-0.5880587697029114,-0.2225067019462585,-2.2807106971740723,0.239506821385771,1.4186094918280838,4.327904700657725,1.1567623168837278,9.536959198883176,1.969444508229196,walking
1757686521807655000,3.334654296875001,-0.6119744181632996,-0.2972239255905151,-2.28442645072937,0.6022295419432222,2.0187246719658374,5.373422053605318,1.3686480678290127,9.519682485389708,1.916473527150601,walking
1757686521817609000,3.3446081542968766,-0.6920652389526367,-0.1676249504089355,-2.202012300491333,0.2985422170698643,2.31848152552247,6.052687927347422,1.5768661631122232,9.49899859380126,1.8582029783591627,walking
1757686521827562800,3.35456201171875,-0.6312127113342285,0.1653697490692138,-2.0680031776428223,-0.1727751721106469,2.598637606552243,6.158106450152397,1.7785368825785814,9.475621809867024,1.794384001660347,walking
1757686521837516800,3.3645161132812493,-0.4238571524620056,0.6509047746658325,-1.8770877122879028,-0.5503697369769215,2.943145455983281,5.824706854712963,1.9717774812214075,9.4480446516335,1.7369300299488006,walking
1757686521847471900,3.37447119140625,-0.296816349029541,1.1128525733947754,-1.6896345615386963,-0.7369770350851118,3.1376363469481467,4.941741532155871,2.1540455810815096,9.417556574389335,1.685258733291924,walking
1757686521857426200,3.384425537109376,-0.2298791259527206,1.4675023555755615,-1.5476316213607788,-0.2291267355382442,3.132324796536565,3.637083413678408,2.3270453557282686,9.385758583590388,1.6318065445676444,walking
1757686521867380200,3.3943793945312493,-0.2234691381454467,1.4393779039382937,-1.43406343460083,0.1315562958851456,3.0849352688521146,1.84673816601485,2.4890467664986846,9.353840765804051,1.5750250652901827,walking
1757686521877334000,3.404333251953126,-0.2252012491226196,1.1389349699020386,-1.4607986211776731,0.0887348067685961,2.911735003197193,0.1289548812150955,2.64319804829061,9.320390916144849,1.5212484669171271,walking
1757686521887288000,3.414287353515625,-0.3439036309719085,0.6923141479492188,-1.5291574001312256,-0.123834469461441,2.4271388841182,-1.2216130477830769,2.7953151939064265,9.283948314410448,1.4713582084581256,walking
1757686521897243100,3.424242431640625,-0.5732372403144836,0.2662334144115448,-1.6430011987686155,-0.5998199965834617,1.6902905899792908,-3.13140125195086,2.948381895332038,9.24522549278438,1.4153573581643402,walking
1757686521907197200,3.434196533203126,-0.7525030970573425,-0.2020997703075409,-1.713782787322998,-0.7127534250631928,1.13176005063951,-3.9178015125051138,3.103214729647338,9.20386063221693,1.3525643635123967,walking
1757686521917151200,3.4441503906250013,-0.740817666053772,-0.6388164162635803,-1.7695454359054563,-1.449039116883278,0.726440297371149,-3.312941475927829,3.2566613703012464,9.158769444602727,1.2967244028687477,walking
1757686521927105300,3.4541044921875024,-0.6233124136924744,-1.0088366270065308,-1.853296995162964,-1.8468007098570465,0.0303688347786664,-1.969781192837656,3.410663014489412,9.10740049189329,1.262144964657724,walking
1757686521937059000,3.464058349609376,-0.5356118679046631,-1.223839282989502,-1.9224145412445068,-2.19077722889036,-1.1778425873786211,-1.3224153089642523,3.567443183480203,9.048931351789832,1.2492426668561991,walking
1757686521947013000,3.474012451171875,-0.4706641137599945,-1.3680176734924316,-1.8945329189300537,-2.879965069448948,-2.3194360497683286,-0.7830188014224171,3.7236218794465055,8.985491437536478,1.2513845011904834,walking
1757686521956968200,3.4839675292968764,-0.477273017168045,-1.5871963500976562,-1.810247778892517,-3.79717109978199,-2.841049355599284,-0.3427729884624481,3.8700443205520494,8.9214237467736,1.2654385993756354,walking
1757686521966922200,3.4939213867187515,-0.5022270679473877,-1.6204856634140017,-1.7583101987838743,-3.942905558623373,-2.985796849229932,-0.1019162137724459,4.007250312761962,8.857727811932563,1.2856995893768963,walking
1757686521976876300,3.503875488281249,-0.5658712983131409,-1.5301586389541626,-1.6942517757415771,-3.6606624421864735,-2.918932221224904,0.4490897752813995,4.138903931541741,8.794451563808321,1.302867143407464,walking
1757686521986830300,3.51382958984375,-0.6664199829101562,-1.476821780204773,-1.552592396736145,-3.465740466327965,-2.7528753975838423,0.7407781809337437,4.261512950861453,8.734338748151064,1.3119503213122483,walking
1757686521996784000,3.5237834472656253,-0.778521716594696,-1.4869729280471802,-1.3369885683059692,-3.39059082505852,-2.543631174123287,0.98449005279392,4.367724669870734,8.681615458223224,1.3125966563917697,walking
1757686522006739200,3.5337385253906266,-0.8461529016494751,-1.4710760116577148,-1.1077358722686768,-3.346393955935538,-2.2606869236797094,1.3130609129026531,4.453711346974969,8.638540286606549,1.3078415708191693,walking
1757686522016693000,3.543692138671876,-0.9199384450912476,-1.2931246757507324,-0.8548551201820374,-3.3537177229523656,-2.025446089175343,1.479981075374782,4.520142551998794,8.606059574240446,1.294000823123753,walking
1757686522026647000,3.553646240234375,-0.96990567445755,-1.149449348449707,-0.6020546555519104,-3.451930259901285,-1.815867519193888,1.2049980130687354,4.566729823389649,8.585323075681924,1.2679131727956234,walking
1757686522036601300,3.563600585937502,-0.9866694808006288,-1.0452451705932615,-0.3899317979812622,-3.2988644352585075,-1.6527385656982658,1.4389467619359493,4.5953237574502825,8.574972946581244,1.2341792454980314,walking
1757686522046555400,3.573554687500001,-0.9655885100364684,-0.9602292776107788,-0.1955209970474243,-3.204914816451073,-1.712424095854163,1.830235505633801,4.60806633464545,8.573458450365067,1.1966339432187378,walking
1757686522056510200,3.583509521484375,-0.9367603659629822,-0.879289984703064,-0.0191949736326932,-3.15431363324374,-2.121362624141574,2.0674612303450703,4.60639606334567,8.57971984884739,1.1575281866896896,walking
1757686522066464300,3.593463623046876,-0.8888274431228638,-0.8075368404388428,0.1609709411859512,-3.0306273400813337,-2.856467874005437,1.911974608296156,4.5908980499625205,8.593273157903552,1.11788737343587,walking
1757686522076418000,3.603417236328125,-0.8213070034980774,-0.725932240486145,0.3541063070297241,-2.874654688081145,-3.4152912588119504,1.816756576988101,4.560622738686203,8.614301332885027,1.0793297523088752,walking
1757686522086372000,3.6133713378906265,-0.7227336168289185,-0.6245662569999695,0.5592494606971741,-2.7063012779355047,-3.813130885457992,1.729664276729524,4.514224560126662,8.643135797703266,1.043270304673165,walking
1757686522096326100,3.623325439453126,-0.6130401492118835,-0.5574977397918701,0.7466766238212585,-2.49090203897655,-4.190946545729041,1.5152125477537512,4.451753783166408,8.67917800194323,1.0120170882754027,walking
1757686522106280200,3.633279541015625,-0.5139736533164978,-0.4291057288646698,0.907643735408783,-2.2330770322203635,-4.410221749338508,1.1735768196929246,4.375139037780463,8.721131476053595,0.9850952521454542,walking
1757686522116235300,3.6432346191406255,-0.4214413166046142,-0.3053798079490661,1.0563184022903442,-2.049930542090535,-4.5066941646218295,0.8382580196939409,4.285965839594603,8.768075013536214,0.960086921486631,walking
1757686522126189300,3.6531884765625016,-0.3377100229263305,-0.2126579880714416,1.1739134788513184,-1.8005954235211017,-4.4813428657442325,0.6697684890132397,4.185818535190821,8.818737863802909,0.9376385775089264,walking
1757686522136143000,3.663142333984375,-0.2851996719837188,-0.167907029390335,1.2546740770339966,-1.35141139408499,-4.327908207789063,0.5623939367696642,4.076910416704416,8.871653461432457,0.9181203686989844,walking
1757686522146097200,3.673096435546876,-0.2451115995645523,-0.1537337452173233,1.2884564399719238,-0.9025596653431652,-4.066748503652215,0.5146854793291539,3.9626480777084825,8.925031415876745,0.9008861791729926,walking
1757686522156051200,3.683050537109376,-0.1702008694410324,-0.1390866339206695,1.2780698537826538,-0.3335404652148485,-3.496968256023526,0.5284217437367886,3.846882348412275,8.976848696875571,0.8877486113108694,walking
1757686522166006000,3.693005371093749,-0.1029185280203819,-0.1487589478492736,1.2109651565551758,0.4052385047256946,-2.4654314976334573,0.62975416627191,3.733886960612237,9.025095133650302,0.8809871543519199,walking
1757686522175960300,3.70295947265625,-0.0673027411103248,-0.2437408566474914,1.126446008682251,1.4733458751440047,-1.333848557126522,0.1827843057539314,3.6270518490076062,9.068616295468807,0.8803908689592033,walking
1757686522185914400,3.712913574218749,-0.0021307789720594,-0.3117677271366119,1.048827052116394,2.1859169293776155,-0.1150952826887369,-0.1493391322698444,3.526049973601103,9.107717302757502,0.887052591870725,walking
1757686522195868200,3.7228674316406254,0.1055096685886383,-0.3612953424453735,0.9004986882209778,2.878948001360893,0.984264135083556,0.0984204806111753,3.4339638105779886,9.141263598528504,0.903104001352936,walking
1757686522205822200,3.7328215332031256,0.220721498131752,-0.4390138387680053,0.6059694290161133,4.1196053568318485,1.8398691570281984,0.417801852896437,3.3609286772444844,9.165528855735063,0.9314806394010782,walking
1757686522215777300,3.742776611328125,0.3056544959545135,-0.5891268849372864,0.1959361284971237,5.518901368641853,2.752536374887824,0.5354953353848309,3.3188454392746087,9.1765728123188,0.9727018537141382,walking
1757686522225731000,3.752730224609376,0.3012236654758453,-0.7583578824996948,-0.2963839471340179,6.499098984938859,3.820846574401856,0.2741764220982789,3.316529563547671,9.171886700329184,1.0234809507716447,walking
1757686522235685000,3.762684326171875,0.1685870587825775,-0.8320906758308411,-0.7543190121650696,6.612018092632293,4.672584399524331,-0.6635636430237442,3.3566903090223668,9.151687961909174,1.072224231152609,walking
1757686522245639200,3.772638427734377,-0.0130514912307262,-0.8371674418449402,-1.026930332183838,5.717394480985403,4.971898770010471,-1.7664068843238054,3.430102166713774,9.120223733109237,1.1074030234962702,walking
1757686522255593200,3.782592529296876,-0.179352581501007,-0.832550048828125,-1.0601847171783447,4.386872145672142,4.430034703311324,-1.7003700854450463,3.516537756629288,9.084785924503208,1.1274079929098486,walking
1757686522265548300,3.7925476074218754,-0.3306095898151397,-0.866949200630188,-0.9525904059410096,3.4103859511137005,3.4477217022955418,-0.8423997226085513,3.5984894791290163,9.0518066149652,1.1340434123363343,walking
1757686522275502000,3.8025014648437514,-0.4563382267951965,-0.9311665296554564,-0.7958559393882751,3.211718651247024,2.475931848859787,-0.5187974446926266,3.6674215610578655,9.024466188097,1.1311145192775875,walking
1757686522285456100,3.8124553222656257,-0.581963837146759,-0.8682114481925964,-0.6489250063896179,3.531049973845481,1.4132459189683195,-0.4867199062999338,3.722333300940692,9.003626229164004,1.1177416813548653,walking
1757686522295410200,3.822409423828125,-0.6663098931312561,-0.6882126331329346,-0.5279796719551086,4.118876165774465,0.4335311177521944,-0.5454943860255181,3.7662779488682734,8.988701047232746,1.0903250474452972,walking
1757686522305364200,3.832363525390626,-0.6533689498901367,-0.417620986700058,-0.4604385197162628,4.280314097443223,0.4229921880811452,-0.3738696991242468,3.804307527533173,8.97724324915111,1.052027465493977,walking
1757686522315318000,3.842317382812501,-0.5767817497253418,-0.2588765919208526,-0.4405332803726196,3.8662849680185314,1.1807172660320997,-0.636444019299373,3.8410993810966607,8.966956832936406,1.0050014373596756,walking
1757686522325273300,3.852272705078125,-0.4239689111709595,-0.4353814423084259,-0.5222539305686951,3.3750948575019835,2.5031635546565054,0.5228121602267026,3.880533858123421,8.95324102679491,0.9753596016813068,walking
1757686522335227100,3.862226318359376,-0.3683376014232635,-0.3852298557758331,-0.5483489036560059,2.9785242278784514,3.655149231722951,0.5042724410600959,3.924707638631761,8.935958468082546,0.956938978849724,walking
1757686522345181200,3.8721804199218752,-0.311564952135086,0.0323863849043846,-0.3919703960418701,1.1193068117797371,3.628786709976196,0.5724446445323527,3.9659772221311926,8.920122016525267,0.9342563877247272,walking
1757686522355135200,3.882134521484376,-0.1809931248426437,0.5297450423240662,-0.0224743783473968,-1.526317002353072,3.368935750350356,1.3985196206100283,3.9877068233802913,8.913918485710024,0.900362959016487,walking
1757686522365089300,3.892088623046876,-0.0020907700527459,0.8411005735397339,0.3349415361881256,-3.830344470587373,2.426486557689309,2.2793919164106247,3.979234178589284,8.921282292476295,0.8641950825702398,walking
1757686522375044000,3.902043457031249,0.1559518575668335,0.9080995917320251,0.5302050113677979,-4.209375351867079,0.705817196059227,3.813488612854481,3.9475089607656,8.938025922006368,0.8362006487727165,walking
1757686522384998100,3.911997314453126,0.2360106706619262,0.7821022272109985,0.6074003577232361,-3.568832592011988,-0.6104360831439495,5.326268672764301,3.903272051893176,8.958867049983143,0.820694525148347,walking
1757686522394952200,3.9219514160156255,0.271560400724411,0.4303964078426361,0.5594019293785095,-2.441286067414284,-0.72427522829175,5.73968756133616,3.855511352808773,8.979632190114259,0.8195270888041705,walking
1757686522404906200,3.931905517578127,0.3024165034294128,0.0586685426533222,0.3898400664329529,-0.7903034054726362,-0.1147743801712989,5.246542809620499,3.814480546501279,8.995617110231517,0.8360762917406857,walking
1757686522414860300,3.941859619140626,0.3664865493774414,-0.1440888345241546,0.1767110228538513,0.4466816912263631,0.0503898785442113,3.9942882475972175,3.788810390932858,9.003432167896628,0.868035829776898,walking
1757686522424815000,3.951814453125001,0.4374023675918579,-0.0645725801587104,0.0826518982648849,0.6174076757222413,-0.4321843793183565,2.3772253909140826,3.7771497637555,9.004325317344069,0.9086668961770832,walking
1757686522434769200,3.961768310546877,0.4654041826725006,0.1654174774885177,0.1812013834714889,-0.3222276285618543,-0.9648691142618656,0.8525712802719324,3.7668840980678793,9.004596535500884,0.9477185844313352,walking
1757686522444723200,3.971722412109376,0.4596977829933166,0.4956943094730377,0.4826955497264862,-2.0630518894702194,-1.211901508846879,-0.5869269780669361,3.7413869609788057,9.0120597109884,0.977331340145692,walking
1757686522454677000,3.981676269531249,0.421558141708374,0.8264642357826233,0.9343439936637878,-4.628159566864371,-1.435869838708639,-1.460150585745275,3.684842943719029,9.033718585088849,0.992084088119492,walking
1757686522464631000,3.99163037109375,0.4042685031890869,0.895968496799469,1.3794015645980835,-6.688154406851529,-1.6255121205985543,-1.6832691669099031,3.588711304697394,9.071779727935793,0.9971809728670864,walking
1757686522474585300,4.001584716796875,0.4111977815628052,0.817950427532196,1.6623941659927368,-7.036078202205896,-1.4618185189574957,-1.0502272842042149,3.4585423715174195,9.121469349256158,1.003839846234396,walking
1757686522484540200,4.011539306640627,0.4340536892414093,0.7639720439910889,1.8241376876831048,-6.349564257031679,-0.62145724337399,0.0404427042212337,3.307281550469994,9.17608882819414,1.0156994300499558,walking
1757686522494494200,4.021493408203126,0.4369256198406219,0.7543673515319824,1.903447389602661,-5.8063657268583775,0.2869482253879308,0.7798118951398879,3.1437144978180527,9.23164880285263,1.0315512253068386,walking
1757686522504448300,4.031447509765625,0.3779107332229614,0.7686858773231506,1.8587064743041992,-4.719465977686643,0.848374486169219,0.8310900277607143,2.977534924580157,9.28493440283835,1.0462633490093052,walking
1757686522514402000,4.041401367187502,0.305022656917572,0.8245925903320312,1.6762539148330688,-2.791842841620744,1.1409855596244334,0.420977487257868,2.821321157300472,9.332598655810951,1.0550476900979875,walking
1757686522524356000,4.0513554687500015,0.2258882820606231,0.8677252531051636,1.3968877792358398,-0.4097986522480845,1.3197598260194063,0.1241390784312039,2.686983706264197,9.371997769263386,1.056501834429055,walking
1757686522534311200,4.061310546875001,0.1720452904701233,0.7436835169792175,1.1503032445907593,1.643290061612427,1.0504168154269455,0.0407640451300889,2.577239136953652,9.40311829919219,1.0533862596917898,walking
1757686522544265200,4.071264404296876,0.1823964416980743,0.6208218336105347,1.0405746698379517,2.274679500935972,0.4336895231842994,0.2907802778314799,2.482598905533552,9.428624496370553,1.052665909527987,walking
1757686522554219300,4.081218505859376,0.2244259119033813,0.7725002765655518,1.058638334274292,1.4366110124647615,-0.0271650703012943,1.005765845860913,2.3917174421250817,9.451790267902611,1.0553425813913344,walking
1757686522564173300,4.091172607421877,0.2464666217565536,1.1278553009033203,1.17615008354187,-0.0286915492162108,-0.3801151693850755,1.4118269920811055,2.296898639267683,9.475240117073058,1.055697313113138,walking
1757686522574127000,4.10112646484375,0.2340126037597656,1.4585392475128174,1.3535197973251345,-1.262600891731679,-0.7746399723947047,1.3302727444663642,2.1912517145343124,9.500907057771084,1.0495638518594206,walking
1757686522584082200,4.111081542968751,0.2176354080438614,1.5895529985427856,1.535213828086853,-2.0252394606873394,-1.1061123991638422,0.8738958078514784,2.070429870892316,9.529214283844828,1.038173639121279,walking
1757686522594036200,4.121035400390626,0.1783862709999084,1.5745368003845217,1.6241618394851685,-2.418597558005154,-1.2693991735696792,0.1380764183688908,1.9358660637542604,9.558872340005635,1.025056529525295,walking
1757686522603990000,4.130989257812502,0.1888767480850219,1.4491593837738037,1.6219850778579712,-2.7804057940661906,-1.0663538047492505,-0.3529059676811099,1.796687748558074,9.587166706597804,1.0141542464345692,walking
1757686522613944300,4.140943603515625,0.2047947347164154,1.2275925874710083,1.557375192642212,-2.968168253558874,-0.6411188061773777,-0.6767264183923601,1.6576427043527364,9.612640170550346,1.0098195051658898,walking
1757686522623898400,4.150897705078126,0.2166498154401779,0.8975182771682739,1.4218577146530151,-2.283998095031828,-0.6217600257128477,-1.2601140433520075,1.5256351575687528,9.63413537852168,1.0130625056751072,walking
1757686522633852200,4.160851318359375,0.1953035145998001,0.4759843349456787,1.3070882558822632,-1.3313980952344835,-0.5117997678250074,-1.8074235159754752,1.4020266058176756,9.65181541211903,1.0233227645352485,walking
1757686522643807200,4.170806396484375,0.1345300376415252,0.2004669159650802,1.2513657808303833,-0.4892107732675969,-0.6168816060215234,-2.428351767039299,1.282290511585772,9.667264325663448,1.0344776341475546,walking
1757686522653761000,4.18076025390625,0.1275674700736999,0.1795874685049057,1.2399723529815674,0.2823499378122389,-0.8207020508676767,-2.3987672145061194,1.1646456174794584,9.681045013734698,1.0446966842144727,walking
1757686522663715000,4.190714355468749,0.1524817794561386,0.2778027951717376,1.2725791931152344,0.6833750626266002,-1.0125281065374612,-2.068749370459467,1.045837013356015,9.693454413452743,1.0552539532598106,walking
1757686522673669000,4.2006684570312505,0.2251578569412231,0.4174576103687286,1.274245023727417,0.7153459257744252,-1.1317197186291217,-1.5734987325057386,0.9263282250739634,9.704007956171036,1.0698182659894226,walking
1757686522683623200,4.210622314453126,0.3028549551963806,0.4784606695175171,1.2282350063323977,0.584636455976963,-1.2746668848395346,-1.0649006102662533,0.8101352833416312,9.71198317283392,1.0915361037354916,walking
1757686522693578200,4.220577392578125,0.3483196198940277,0.4436390399932861,1.1785383224487305,0.260447683409974,-1.2941449077695608,-0.7569974943287671,0.6991782695014029,9.717394676488638,1.1197190458424389,walking
1757686522703532300,4.230531494140626,0.3825343251228332,0.3364923596382141,1.1474888324737549,-0.1920995388489216,-1.4100292950093745,-0.5234768346805125,0.591033792331256,9.720753339266777,1.1524037563480436,walking
1757686522713486000,4.240485351562501,0.4456552267074585,0.2033044695854187,1.1310895681381226,-0.3619792087137699,-1.633215534582734,-0.2356216505154967,0.484083968305774,9.722025843420624,1.1909081859830766,walking
1757686522723440000,4.2504394531250025,0.5357234477996826,0.0866176784038543,1.1408638954162598,-0.4601811877360567,-1.7957050211310386,0.188815914068371,0.3760844160316511,9.720962598103284,1.237679508703947,walking
1757686522733394200,4.2603935546875,0.631022036075592,-0.0107695944607257,1.149653434753418,-0.4886380879461765,-1.8458727813571687,0.4159368627421557,0.2655282198109663,9.71725965193212,1.2941216730244458,walking
1757686522743349000,4.2703481445312494,0.6878495812416077,-0.0537258461117744,1.123378038406372,-0.1343394968628883,-1.7041110255390404,0.4037482661679387,0.1549890295240096,9.71091992751658,1.3580848804995416,walking
1757686522753303300,4.2803024902343765,0.7264126539230347,-0.033108714967966,1.085731863975525,0.4165431580722332,-1.4866495933532713,0.1349460844539105,0.0474829963878728,9.702202368053792,1.4266718022525309,walking
1757686522763257300,4.290256591796876,0.7354885935783386,0.055484402924776,1.030478835105896,0.9444295528233052,-1.193592529696226,-0.1871056030191481,-0.0545344903685385,9.691511462691423,1.497332461539656,walking
1757686522773211100,4.300210449218749,0.7448131442070007,0.1306508034467697,0.975261926651001,1.3395984989553689,-0.967895184084773,-0.4065577706307172,-0.1496800089962314,9.679197340041398,1.5687928929023445,walking
1757686522783165200,4.31016455078125,0.7311401963233948,0.1770273000001907,0.9214680790901184,1.4330892680794,-0.7719932572782039,-0.6170655842863023,-0.2385323503304272,9.665554014614225,1.6402872265346349,walking
1757686522793119200,4.320118408203125,0.7181171178817749,0.2018543630838394,0.8444550633430481,1.3387784147441386,-0.4528448900312185,-0.8760526205591856,-0.3204948499524965,9.651066639578342,1.710132185524702,walking
1757686522803074000,4.330073242187503,0.7347875237464905,0.261599063873291,0.7513036131858826,1.2986433882325887,-0.0114952074825763,-0.957228390250355,-0.3930367564089596,9.635586746373772,1.780833761344105,walking
1757686522813028000,4.34002734375,0.7137627005577087,0.3130329847335815,0.6548811793327332,1.167122455921769,0.4322469231605529,-1.10217184484452,-0.4551464449718594,9.619508887276051,1.8515569644734264,walking
1757686522822982400,4.349981689453125,0.6771842837333679,0.3297093212604522,0.5713520050048828,0.7949883484184741,1.0225561640769243,-1.5441506190769374,-0.5075348038569093,9.603509354111551,1.9197410045139487,walking
1757686522832936200,4.359935546875002,0.6175875067710876,0.3421465456485748,0.508033275604248,0.2471651175865903,1.4484598556905983,-1.6984435012966392,-0.5524260849848389,9.588061025089026,1.9835029903285204,walking
1757686522842890200,4.369889404296876,0.5381534099578857,0.319187730550766,0.4674864411354065,0.1027169356960803,1.6367185742676258,-1.6554579076595604,-0.5923309560023248,9.573680617558956,2.04062466134578,walking
1757686522852844500,4.379843750000001,0.4595555067062378,0.2965433895587921,0.4044534265995025,0.3844120628613978,1.834558775660396,-1.3663317537106572,-0.6278723711133003,9.560792494413256,2.08982927562818,walking
1757686522862798300,4.389797607421876,0.4168160259723663,0.3387668132781982,0.3090628385543823,0.8693775997746735,1.945190064677596,-0.9536040622733531,-0.6552462618596852,9.54937093668878,2.133197000450641,walking
1757686522872752400,4.399751708984375,0.4023007154464721,0.4574995934963226,0.23704694211483,0.9497277322966604,1.790551291629672,-0.6782694100506603,-0.6725989631988107,9.538810379707812,2.174645301517844,walking
1757686522882706400,4.4097058105468765,0.3746877610683441,0.5809500217437744,0.2078201621770858,0.5645762492448091,1.6924848851531742,-0.8175843572385608,-0.6820416951309889,9.528839020791647,2.215050084881484,walking
1757686522892660500,4.41965966796875,0.3331741392612457,0.650981605052948,0.2063154727220535,0.2884912901114672,1.7558166628569365,-1.4255087498225272,-0.6877243438772856,9.51952758708894,2.253005137005448,walking
1757686522902615300,4.429614501953125,0.2465696036815643,0.6800403594970703,0.2244766950607299,0.2769645915120839,1.903812929150462,-2.1299936743646857,-0.6929569107685237,9.511441311267015,2.285317653197795,walking
1757686522912569300,4.439568603515626,0.1614448577165603,0.7367249131202698,0.2179319709539413,0.7783370733469724,2.141732042953372,-2.7733465232044456,-0.6979817531932145,9.505310845687983,2.309170822472125,walking
1757686522922523400,4.449522705078126,0.1122550889849662,0.8669442534446716,0.1805630922317505,1.9333739546775817,2.3259686664074657,-2.703569807144999,-0.6985643023215233,9.50078839982748,2.327530508896708,walking
1757686522932477400,4.459476806640625,0.0884416401386261,0.9957738518714904,0.0970929563045501,2.793850382050872,2.2028373767793177,-2.3371928018637,-0.6902450214613228,9.497476498800516,2.34347758122161,walking
1757686522942431500,4.4694306640625,0.0651083216071128,1.0204592943191528,-0.0121009163558483,3.0141134276539088,2.069766292417049,-2.1595140756204723,-0.6704892775684594,9.495424826967716,2.357484625394642,walking
1757686522952386300,4.479385498046876,0.0602493844926357,0.9292654991149902,-0.1344068497419357,2.881538017854094,2.3062544966340064,-2.1360526821427044,-0.6405653370130807,9.49446562654674,2.3696368354812263,walking
1757686522962340400,4.489339599609377,0.0542431883513927,0.8229698538780212,-0.3027678728103637,2.976366757583618,3.142391432520747,-2.253304412212968,-0.5995232421265915,9.49450537403524,2.3801972463317216,walking
1757686522972294400,4.499293701171876,0.0491235256195068,0.8154645562171936,-0.5110241770744324,2.991661941871047,3.497229537308216,-2.6420237438142298,-0.5417953488444909,9.495654544070362,2.3894351764068005,walking
1757686522982248200,4.509247558593749,0.0120473783463239,0.6970376968383789,-0.7604691982269287,2.4332541521281,3.083698420533538,-3.124951637420058,-0.4634249188976362,9.498129994273183,2.39606686950624,walking
1757686522992202500,4.51920166015625,-0.0583538189530372,0.4135273993015289,-1.0160373449325562,1.6934791568875311,2.7398276999622584,-3.531021332272887,-0.3658943728635087,9.502322769787908,2.39631909070164,walking
1757686523002156500,4.529155761718752,-0.1626160740852356,0.1193174123764038,-1.268283724784851,1.213184534394741,2.8145231677234173,-3.561911852838098,-0.2514638559601269,9.50843394614458,2.386808042773604,walking
1757686523012111400,4.539110595703125,-0.3006911277770996,-0.1248401328921318,-1.4865708351135254,1.6286808137625457,2.8386545694172383,-3.1932413297921416,-0.1209320625508204,9.51647287569344,2.364847409247607,walking
1757686523022065400,4.549064697265626,-0.4476510286331177,-0.2259734570980072,-1.6913065910339355,1.8753180715501307,2.4162907423675057,-2.9141642761707303,0.0253787143241963,9.52598655396998,2.329230444682389,walking
1757686523032019500,4.559018798828125,-0.5956854820251465,-0.2322068512439727,-1.889392256736756,1.128675528627634,1.7270523406654594,-2.632122527524829,0.1902308223675936,9.536019872206449,2.280025099747628,walking
1757686523041973200,4.568972412109376,-0.7664076089859009,-0.3210627436637878,-2.0293989181518555,-0.2280827429106459,1.1805272964179516,-2.3694012731596827,0.3706877080872655,9.545796585333347,2.216023021566868,walking
1757686523051927300,4.578926513671876,-0.8594768047332764,-0.4798920750617981,-2.1721954345703125,-1.116546699416637,1.0772767653018236,-1.5024778616040944,0.5613913721309974,9.553876431414484,2.139784269886464,walking
1757686523061882400,4.588881591796875,-0.8172644972801208,-0.6734521389007568,-2.4112160205841064,-0.5860766448479146,1.7098802565902471,0.2731462022677063,0.7668393816463649,9.556485737130044,2.062996506021172,walking
1757686523071836400,4.598835693359376,-0.6639910936355591,-0.8723609447479248,-2.6671595573425293,0.6665631901659071,2.6463831080675124,2.149757528498769,0.9930675461988896,9.549232405000923,1.99909511173591,walking
1757686523081790500,4.608789794921876,-0.5205070376396179,-0.9224193692207336,-2.752903699874878,1.002642087817192,3.093013361367583,3.727288000738621,1.2338410995848477,9.530565113931894,1.953554280658066,walking
1757686523091744500,4.618743896484375,-0.5394349098205566,-0.725357711315155,-2.634319543838501,0.1696283985175192,2.974301057225466,4.419668792119622,1.4739914795711635,9.504130111470818,1.91553873051852,walking
1757686523101698300,4.628697509765626,-0.6155707836151123,-0.386486142873764,-2.391664266586304,-0.7440624633014201,2.5672616405576467,4.483621624331176,1.7012940684221685,9.475273434820773,1.8695421184971928,walking
1757686523111652400,4.638651611328125,-0.5986402630805969,0.0339926518499851,-2.077937364578247,-1.3803510728433728,2.330831888529658,4.608434291175008,1.9085709373325108,9.446394546338915,1.8147592656910416,walking
1757686523121607400,4.648606689453127,-0.4464669525623321,0.5093351602554321,-1.78449547290802,-1.953997494380921,2.6875141598790884,4.737644316194952,2.094356836055219,9.417417458179592,1.7596200006626546,walking
1757686523131561500,4.658560791015626,-0.2696873843669891,0.8800693154335022,-1.5987529754638672,-1.840582273733616,2.9727549968272444,4.877323712781071,2.264206329977512,9.387011798521876,1.7110703431576488,walking
1757686523141515500,4.668514892578125,-0.2673714160919189,0.9682549834251404,-1.5281468629837036,-1.3880927730113266,2.7708126208126544,4.017633175088465,2.42493216785416,9.35507235342562,1.665154541287571,walking
1757686523151469600,4.678468750000002,-0.2821929454803467,1.0102589130401611,-1.5912222862243652,-0.7198968670770526,2.224767469036579,1.7412502312354745,2.58572873287946,9.320822293299436,1.6145228168115018,walking
1757686523161423400,4.688422607421876,-0.3319349288940429,0.8909804224967957,-1.6298969984054563,-0.2081535056143999,1.5605536184757949,0.4525518984340131,2.750796545483172,9.28263840085566,1.5608224985450505,walking
1757686523171378400,4.698377685546875,-0.468669056892395,0.4618404805660248,-1.6244763135910034,-0.7489803382202982,0.9699725748807192,-0.9052304919876156,2.911543280017376,9.242795050767064,1.5046790249101816,walking
1757686523181332200,4.70833154296875,-0.589094340801239,-0.0272540114820003,-1.6567703485488892,-1.0948062845125794,1.0383955382436514,-2.133338454747945,3.064635700406134,9.202052706012129,1.449344821831584,walking
1757686523191286300,4.718285644531251,-0.5775378346443176,-0.3493582606315613,-1.775283932685852,-1.2183736274704335,0.9846575183153152,-1.888259532318264,3.218280786241591,9.15688260794282,1.4016381910219788,walking
1757686523201240300,4.728239501953127,-0.5329220294952393,-0.6243990659713745,-1.901603102684021,-1.1568038910031315,0.4133528375983238,-1.021368707858026,3.378922599096596,9.10404767433405,1.3673309938810765,walking
1757686523211194600,4.73819384765625,-0.5165638327598572,-0.8619945645332336,-1.9760315418243408,-1.466293618544936,-0.4794640168875455,-0.6524803042776882,3.544460075038671,9.044120152115822,1.3457510302357374,walking
1757686523221149400,4.748148681640625,-0.5381572246551514,-1.0854414701461792,-1.953319430351257,-2.13119837397933,-1.2146306415498256,-0.5171743004702032,3.708378425346315,8.979924451059102,1.333896341791004,walking
1757686523231103500,4.758102783203126,-0.604383111000061,-1.3077895641326904,-1.8536211252212524,-3.0700530492797493,-1.3667571395158766,-0.592192716575414,3.8622342313230034,8.915674389466643,1.3282599433392286,walking
1757686523241057300,4.768056640625002,-0.7180945873260498,-1.477663278579712,-1.7309961318969729,-3.713715402460098,-1.2847586552649737,-0.7004749582484364,4.002366340112686,8.854176841452718,1.324762895003706,walking
1757686523251011300,4.778010498046875,-0.8534287214279175,-1.5367611646652222,-1.5963680744171145,-4.14193613884449,-0.9545406124711036,-0.856463100078702,4.128618684370816,8.797197063124178,1.3168980068475007,walking
1757686523260965400,4.787964599609376,-0.9665989279747008,-1.493231177330017,-1.469650149345398,-4.364415399192273,-0.8621469909340143,-0.6672114249415695,4.242609220688045,8.745203841036558,1.3007766008689998,walking
1757686523270920400,4.797919677734376,-1.0146236419677734,-1.4941762685775757,-1.295343041419983,-4.32325190641582,-1.0770926409065722,-0.2168671195544302,4.343751089087128,8.698882234844564,1.2773485251389445,walking
1757686523280874500,4.807873779296875,-0.985476851463318,-1.5842058658599854,-1.1489194631576538,-4.488270034658909,-1.439963830024004,0.7507244054086506,4.429611801724136,8.658332197791337,1.2578611498586834,walking
1757686523290828500,4.817827880859376,-0.9538123607635498,-1.579910159111023,-1.0426499843597412,-4.181495995816588,-2.031421656453609,1.2519994182184335,4.504114961783587,8.621611948159337,1.2454521885320544,walking
1757686523300782300,4.827781494140625,-0.941894829273224,-1.5119779109954834,-0.8891317844390869,-4.060093721938133,-2.825190107688308,1.259133361751586,4.568114263485372,8.589532217809557,1.2339790467508136,walking
1757686523310736400,4.837735595703126,-0.9191133975982666,-1.44154155254364,-0.6938597559928894,-3.990998558402061,-3.445217610520124,1.2733346133224666,4.617831065073609,8.564619310349226,1.222022066975385,walking
1757686523320690400,4.847689697265626,-0.8324465155601501,-1.3058570623397827,-0.458192378282547,-3.711895785817504,-3.957251771622896,1.4098001624286174,4.650424005642533,8.548584121349453,1.2106536276776343,walking
1757686523330645200,4.857644531250001,-0.7477172613143921,-1.1659806966781616,-0.1601316928863525,-3.363982219596207,-4.060929588240385,1.8377825600124893,4.662088724473119,8.543622699549793,1.200758548868075,walking
1757686523340599300,4.867598632812502,-0.6891763210296631,-1.03709614276886,0.1217199116945266,-3.22138781234622,-4.046778313291073,1.6973390471860763,4.650278167431056,8.551470490440726,1.1906671437688172,walking
1757686523350553600,4.8775529785156255,-0.6401198506355286,-0.8801741003990173,0.3296203911304474,-3.0498189472854134,-4.008106345069408,1.5178851279638708,4.61936806538254,8.569958333289623,1.1779859413720666,walking
1757686523360507400,4.8875065917968765,-0.589566707611084,-0.7833071947097778,0.4708669483661651,-2.9137837524205445,-4.022652172294259,1.4731978449754417,4.575211236009001,8.595578512236475,1.163566517005861,walking
1757686523370461400,4.897460693359376,-0.549065113067627,-0.7017739415168762,0.5670486092567444,-2.711721549418568,-4.095228163683414,1.329485978002846,4.521888226622343,8.625807061761616,1.1482136842470616,walking
1757686523380416500,4.907415771484375,-0.4823112785816192,-0.6136156916618347,0.6280437707901001,-2.551654321581125,-4.244917205369473,1.139708306230232,4.462825796800852,8.65847832826376,1.1332868948806076,walking
1757686523390370300,4.9173696289062505,-0.4207943975925445,-0.4901477694511413,0.7062842845916748,-2.320847377870977,-4.348084734377265,0.8529453742813319,4.399312525050342,8.6928102214545,1.1186794005963951,walking
1757686523400324400,4.927323730468752,-0.3844931125640869,-0.3434051871299743,0.8455108404159546,-2.131541780589521,-4.337378046923876,0.3927664881002157,4.327771721927822,8.730736339744926,1.1022625188026576,walking
1757686523410278400,4.937277587890625,-0.4165927171707153,-0.0213991943746805,1.1134352684020996,-1.9493886854112148,-4.434624369189143,-0.3382802801530808,4.241387862199544,8.776509079882501,1.0741980154436082,walking
1757686523420232200,4.9472314453125,-0.2775824964046478,-0.1658516526222229,1.255616545677185,-1.8522820638775823,-4.158717762297392,0.2913204491227865,4.135901534855366,8.829954838865994,1.0471879895735532,walking
1757686523430187500,4.957186767578126,-0.240540325641632,-0.3388037383556366,1.327639102935791,0.2266308270692825,-3.2155975385069846,1.51708915528059,4.019186249749362,8.885067069756984,1.0354290165882558,walking
1757686523440141300,4.9671406250000025,-0.2895530462265014,-0.4984059929847717,1.3609614372253418,0.6784387752681971,-2.123829306516051,0.8000590758115053,3.895384221252799,8.940868451955915,1.0282129477296025,walking
1757686523450095400,4.9770947265625,-0.2918969094753265,-0.6926931738853455,1.324421525001526,1.7580471983879804,-0.7209574820458888,0.5310234506677836,3.768966457299888,8.99531725050211,1.0244592942845077,walking
1757686523460049400,4.987048583984375,-0.2139472216367721,-0.8025102019309998,1.203229904174805,3.2853713319569824,0.8191887236952781,0.1768071310404688,3.647338557972014,9.044771309500932,1.029271663002297,walking
1757686523470003500,4.997002685546876,-0.0922397077083587,-0.7377927303314209,1.011114478111267,4.5314241167306895,2.0705723481029272,-0.2678057180225849,3.538980766844749,9.086108113017678,1.0433774183094502,walking
1757686523479957200,5.006956542968752,-0.0135711673647165,-0.6781281232833862,0.6983180642127991,5.487151308637857,3.366246365135908,-0.8312657496538013,3.453397702105343,9.11667393167317,1.0633539653461426,walking
1757686523489912600,5.016911865234375,0.0063013415783643,-0.7440764904022217,0.2172920554876327,6.3405766484558574,4.52793510557115,-1.6400255068585277,3.4033757800906894,9.132632548305391,1.0874139823041855,walking
1757686523499866400,5.02686572265625,-0.0419778451323509,-0.8415234088897705,-0.3433950841426849,6.655658496916294,5.490910368910432,-2.254405651453137,3.40043768081218,9.130628807267549,1.1131195745121687,walking
1757686523509820400,5.0368195800781255,-0.1826177835464477,-0.8380247950553894,-0.7804397940635681,6.037367608618736,6.137653444710374,-2.895203847374022,3.443222345049679,9.112213445132973,1.1323230913497506,walking
1757686523519774500,5.046773681640627,-0.3589273393154144,-0.8535254597663879,-0.9657891392707824,4.7942578915596,5.501540483996272,-3.0886244787588715,3.51422071185857,9.084533995568751,1.136601937712729,walking
1757686523529728500,5.056727783203126,-0.5084222555160522,-0.967843532562256,-0.9654407501220704,3.801924431788921,3.9901381421804425,-2.204312417767942,3.591969137449562,9.054968878388404,1.1294655830267817,walking
1757686523539683300,5.066682617187501,-0.6527072191238403,-1.1666197776794434,-0.8977760672569275,3.3808953604742884,2.436628012475371,-1.3455129836961626,3.6644913528248666,9.027706777453425,1.1146220149643715,walking
1757686523549637400,5.076636718750002,-0.7217621803283691,-1.3685725927352903,-0.7943777441978455,3.527924535301328,0.8494003220856189,-0.8314165563013404,3.726806062440574,9.004087416934967,1.098968737954274,walking
1757686523559591200,5.086590332031252,-0.7296393513679504,-1.3834062814712524,-0.6854337453842163,3.657035191600024,-0.4176321223527193,-0.3415215270966291,3.777858496546745,8.984384353077411,1.085818895132467,walking
1757686523569545500,5.096544677734375,-0.6737995743751526,-1.275748372077942,-0.542975664138794,3.4827988608956333,-1.952761961236596,0.1960436002995818,3.819067582030594,8.968521013513207,1.0727336419794709,walking
1757686523579499500,5.106498779296876,-0.5220823287963867,-1.0563905239105225,-0.3429640233516693,2.9783909568876026,-2.4519518383353947,1.2439499672755598,3.845982769224048,8.958046381250023,1.0640606523107736,walking
1757686523589454300,5.116453613281252,-0.4173263311386108,-0.8126974105834961,-0.2441929429769516,1.7526725196123123,-1.3513345294564962,1.608187184049189,3.861581028111279,8.95202697483003,1.0582052773460746,walking
1757686523599408400,5.126407714843749,-0.3837622106075287,-0.6498931050300598,-0.2618585526943207,1.0627844218298792,0.1485351954758167,1.2614559594802557,3.876153743343055,8.946587414124608,1.050893858354166,walking
1757686523609362400,5.13636181640625,-0.3677811324596405,-0.2242249101400375,-0.280846893787384,0.957557329943776,1.1117658948808908,1.054783778464794,3.8962367464289054,8.939690640348196,1.0352044140521437,walking
1757686523619316200,5.146315429687501,-0.3172960877418518,0.627778947353363,-0.047549270093441,-0.1921688777580857,1.4722119026780127,1.2126870332013815,3.91485347635448,8.935833380398154,0.9976103041950612,walking
1757686523629270300,5.156269531250002,-0.2152605205774307,1.5637120008468628,0.501096785068512,-3.255190128704905,1.636606346064806,1.2894383375138043,3.90641210348457,8.946810116964578,0.9299863091900944,walking
1757686523639225600,5.166224853515626,-0.0175888929516077,1.97982144355774,1.015334963798523,-5.548752901548147,1.4440005381941794,2.4479613073945043,3.853658126157522,8.977659428736567,0.849303291451931,walking
1757686523649179400,5.176178710937501,0.1646634638309478,1.9024311304092407,1.2272634506225586,-5.324583496156334,1.0746978547245265,4.880620416238903,3.767006263142824,9.02045461436808,0.7819659313686191,walking
1757686523659133400,5.186132812500002,0.2845016121864319,1.591708779335022,1.033164620399475,-3.6208375045374033,1.5219278274834156,6.508052106723189,3.676502400875092,9.061490389111638,0.7369516814481467,walking
1757686523669087500,5.196086669921876,0.3407784700393677,0.8252695798873901,0.4764517843723297,-0.9808666015997528,3.686641517573595,7.199843700039386,3.615535598737001,9.087321580460667,0.7203252485569566,walking
1757686523679041300,5.206040527343749,0.4030671417713165,-0.1876184195280075,-0.227742314338684,2.253875490099192,6.312158947744965,6.65822045635879,3.606831191016733,9.088992144021391,0.7425562965221703,walking
1757686523688995300,5.21599462890625,0.5379687547683716,-0.4972257912158966,-0.6342597603797913,3.5033214244425293,5.9976171975106,4.247784285238385,3.645764440523088,9.068644937041402,0.7990433228977024,walking
1757686523698950400,5.225949707031251,0.656823992729187,-0.3165010511875152,-0.5265228748321533,1.8119529760986568,2.299841122460365,1.2889525998234748,3.696956283099949,9.04149331074357,0.8685225173152983,walking
1757686523708904400,5.235903808593751,0.683344841003418,0.0796976834535598,-0.1813649088144302,-0.8875251778185367,-0.2796218280225992,-0.3674726915635168,3.728245447593927,9.022048605561256,0.9344495722092688,walking
1757686523718858500,5.245857666015626,0.6107649803161621,0.6213926076889038,0.2632993757724762,-3.438518989664316,-1.4881325253874065,-1.770088349315524,3.728367028146982,9.017148558560011,0.9801513660024852,walking
1757686523728812500,5.255811767578125,0.4858576357364654,1.0616682767868042,0.8309159874916077,-5.784693408754468,-2.0995885992288588,-2.532196172395349,3.688569855287671,9.03155176244378,0.9979621133074164,walking
1757686523738766300,5.265765625,0.385663628578186,1.2806321382522583,1.4976025819778442,-8.312795589834451,-2.516986912825704,-2.5553181047856808,3.595469839046895,9.06946794386208,0.993849563422054,walking
1757686523748721400,5.2757207031250015,0.3470443189144134,1.3042885065078735,2.013517141342163,-9.361742332708834,-2.5176503451704977,-1.67297559030205,3.4477649569153783,9.128040544340012,0.9809017459783702,walking
1757686523758675500,5.285674804687503,0.3769107460975647,1.2652897834777832,2.3185651302337646,-8.12469293860197,-1.8749252728402608,-0.5511546768095344,3.2616204540133475,9.19729235974252,0.97058902627863,walking
1757686523768629200,5.29562841796875,0.4443134665489197,1.2458546161651611,2.4354336261749268,-6.734100165468454,-0.7480927417308092,0.0929240020867437,3.054063160726428,9.268459068855645,0.9689045803230256,walking
1757686523778583300,5.305582519531249,0.5023224353790283,1.2371244430541992,2.33121657371521,-5.008033913230896,0.1593318993002176,0.0066532473441213,2.843974595396221,9.334275649112463,0.9764658093575388,walking
1757686523788537600,5.315536865234376,0.5046769380569458,1.2890470027923584,1.9906463623046875,-2.6017966551050544,0.8880518320411444,-0.4770416120462119,2.653271698537469,9.38891032561958,0.9894009134501218,walking
1757686523798492400,5.32549169921875,0.4257099628448486,1.4012497663497925,1.4580397605895996,0.3428761565759778,1.4658055427670478,-1.189462736415118,2.5044278755038976,9.428711005610229,0.998824575355649,walking
1757686523808446500,5.335445800781249,0.3031845688819885,1.2030354738235474,1.013400316238403,3.3954067009076474,2.204381683611869,-1.932605016131699,2.402900514918566,9.454930319494007,1.0003626716431229,walking
1757686523818400300,5.345399414062502,0.2146756649017334,0.7030763626098633,0.8525621891021729,4.451735078465938,2.425511575177312,-1.2430287607774138,2.3259511307507754,9.47396936648488,1.0021120725937187,walking
1757686523828354300,5.355353515625001,0.1392088681459427,0.4933590590953827,0.8707912564277649,2.7862346463501453,1.5802017372757196,0.3086342066910117,2.2510155706234274,9.491634202513096,1.006081853007525,walking
1757686523838308400,5.365307617187503,0.0493122637271881,0.7394028902053833,0.9938970804214478,0.1886494714602828,0.426916668048501,1.0426583102546632,2.169189520329982,9.511113979008794,1.001840123784542,walking
1757686523848262400,5.37526171875,-0.003702750429511,1.0658562183380127,1.1276259422302246,-1.7787135543197392,-0.6013029286175966,1.0548338281515983,2.0776887559793886,9.533318796554209,0.9845766350988298,walking
1757686523858217500,5.385216796875001,-0.0398050881922245,1.3179969787597656,1.3268167972564695,-2.613139010113477,-1.5203390969872477,0.8206564581602811,1.97343825404048,9.558123567464946,0.9582354484010488,walking
1757686523868171500,5.395170898437501,-0.1002138331532478,1.451698660850525,1.5405330657958984,-3.266804870913923,-2.3261592205435035,0.4531870545323938,1.8497374939613045,9.58612801119983,0.9246761470180004,walking
1757686523878125300,5.405124511718752,-0.0544927977025508,1.3390613794326782,1.630966067314148,-3.3740520704507824,-2.523412561959028,0.3441087671108543,1.7099324251689016,9.6151875169456,0.8914488540682941,walking
1757686523888079400,5.415078613281251,0.0519596077501773,1.0634857416152954,1.5004653930664062,-2.177807126549632,-2.447777767521143,0.5805273401577026,1.569081500585377,9.641005848813055,0.8714061829928308,walking
1757686523898033400,5.42503271484375,0.1676111668348312,0.6563429236412048,1.2736998796463013,-0.5143989905379712,-2.2594670264959333,0.4946484342768788,1.4431995970748364,9.66084276818335,0.869298397058621,walking
1757686523907988500,5.43498779296875,0.2295877188444137,0.2271646708250045,1.088944673538208,0.431772145255655,-1.6880121236532926,0.0165541713725775,1.3336518655106424,9.675366383576392,0.8826181165546179,walking
1757686523917942500,5.444941894531249,0.2609679400920868,-0.05354730412364,1.00201153755188,0.8185761447548866,-1.131388879239559,-0.4948347506292164,1.234152795882523,9.68646996139288,0.9052906977422536,walking
1757686523927896600,5.454895751953126,0.3043910562992096,-0.0568709298968315,0.9963150024414062,0.7387947520315646,-0.6952391034215688,-0.7327933196596801,1.1373612316474315,9.695641694363951,0.9334573463015258,walking
1757686523937850400,5.464849609374999,0.2748883664608001,0.138307511806488,1.0230226516723633,0.6114825234569609,-0.5296715246021747,-1.121791614332795,1.0402172007128596,9.703804542553424,0.9615299599017948,walking
1757686523947804400,5.474803710937502,0.2523188889026642,0.3991870582103729,0.9965232014656068,0.4256732438586652,-0.3047831572860479,-1.5795523334562778,0.9448569844551384,9.711301620310543,0.983994451296702,walking
1757686523957759500,5.484758789062502,0.2602836489677429,0.4572084248065948,0.9531168341636658,0.6754582250874489,-0.2448451136738061,-1.2302031814739107,0.8550347477760165,9.71750339756012,1.004699312607944,walking
1757686523967713300,5.494712646484375,0.2821929454803467,0.3405691683292389,0.9140818119049072,0.6780652657806873,-0.5719909094154835,-0.9800205061644316,0.7687803596463054,9.722329794803262,1.027455553491041,walking
