time,seconds_elapsed,z,y,x
1757088350079997200,0.0189970703125,-0.9710235595703125,-0.1026763916015625,0.1614227294921875
1757088350090044200,0.029044189453125,-0.9739227294921875,-0.1035003662109375,0.162750244140625
1757088350100090400,0.03909033203125,-0.9692535400390625,-0.108551025390625,0.1691741943359375
1757088350110137300,0.049137451171875,-0.962127685546875,-0.1126861572265625,0.1671142578125
1757088350120183300,0.059183349609375,-0.95489501953125,-0.115478515625,0.1600189208984375
1757088350130229200,0.069229248046875,-0.961181640625,-0.1165924072265625,0.1656341552734375
1757088350140276200,0.079276123046875,-0.9682464599609375,-0.102325439453125,0.153289794921875
1757088350150322200,0.089322265625,-0.9744415283203125,-0.091888427734375,0.1315155029296875
1757088350160369400,0.099369384765625,-0.9735870361328125,-0.0998382568359375,0.129364013671875
1757088350170415000,0.1094150390625,-0.9811248779296875,-0.1091461181640625,0.1305084228515625
1757088350180461000,0.1194609375,-0.9744720458984375,-0.114593505859375,0.12310791015625
1757088350190508300,0.12950830078125,-0.9553375244140625,-0.1137542724609375,0.11041259765625
1757088350200554500,0.139554443359375,-0.9454193115234375,-0.1067352294921875,0.1084442138671875
1757088350210601200,0.149601318359375,-0.946868896484375,-0.0929412841796875,0.119476318359375
1757088350220647400,0.1596474609375,-0.9466552734375,-0.1250762939453125,0.0809783935546875
1757088350230693400,0.169693359375,-0.9384002685546875,-0.142730712890625,0.085906982421875
1757088350240740400,0.179740234375,-0.9208984375,-0.0823516845703125,0.1284942626953125
1757088350250786600,0.18978662109375,-0.9049072265625,-0.1198577880859375,0.1472930908203125
1757088350260833500,0.19983349609375,-0.89678955078125,-0.225494384765625,0.17657470703125
1757088350270879500,0.20987939453125,-0.8822021484375,-0.2145538330078125,0.2066192626953125
1757088350280926500,0.219926513671875,-0.8896484375,-0.1201171875,0.1981658935546875
1757088350290972400,0.229972412109375,-0.91387939453125,-0.10357666015625,0.1849212646484375
1757088350301018400,0.240018310546875,-0.9702911376953125,-0.12359619140625,0.188385009765625
1757088350311065300,0.2500654296875,-0.97296142578125,-0.0891571044921875,0.062774658203125
1757088350321111600,0.260111572265625,-0.898773193359375,-0.0168914794921875,0.0401611328125
1757088350331158500,0.270158447265625,-0.8824920654296875,-0.0314178466796875,0.0746612548828125
1757088350341204700,0.280204833984375,-0.9178314208984375,-0.0673675537109375,0.01171875
1757088350351250400,0.29025048828125,-0.924346923828125,-0.0464324951171875,-0.011322021484375
1757088350361297700,0.300297607421875,-0.928375244140625,0.0015716552734375,0.0169830322265625
1757088350371343600,0.310343505859375,-0.970794677734375,-0.0025482177734375,0.079803466796875
1757088350381390600,0.320390625,-0.9860992431640625,-0.0412445068359375,0.0603790283203125
1757088350391436500,0.3304365234375,-0.985321044921875,-0.00323486328125,0.0863800048828125
1757088350401483500,0.3404833984375,-0.987396240234375,-0.0001220703125,0.1553802490234375
1757088350411529500,0.350529541015625,-0.9926910400390625,-0.04541015625,0.139923095703125
1757088350421575400,0.360575439453125,-0.974853515625,-0.0486297607421875,0.1600189208984375
1757088350431622400,0.370622314453125,-0.9516448974609375,-0.057647705078125,0.1889801025390625
1757088350441668600,0.380668701171875,-0.9639892578125,-0.0850067138671875,0.2401580810546875
1757088350451715600,0.390715576171875,-1.004058837890625,-0.1217193603515625,0.343231201171875
1757088350461761500,0.400761474609375,-1.0375213623046875,-0.1823577880859375,0.336822509765625
1757088350471807500,0.410807373046875,-1.0507965087890625,-0.1756591796875,0.261871337890625
1757088350481854500,0.4208544921875,-1.0422821044921875,-0.090972900390625,0.2455596923828125
1757088350491900400,0.430900390625,-1.075897216796875,-0.0638427734375,0.2391815185546875
1757088350501947600,0.44094775390625,-1.1147308349609375,-0.1071014404296875,0.207122802734375
1757088350511993600,0.45099365234375,-1.11865234375,-0.1299285888671875,0.1526947021484375
1757088350522040600,0.46104052734375,-1.094146728515625,-0.0987701416015625,0.1124114990234375
1757088350532086500,0.47108642578125,-1.0609588623046875,-0.0699920654296875,0.0981292724609375
1757088350542132700,0.4811328125,-1.031005859375,-0.068695068359375,0.0917816162109375
1757088350552179500,0.491179443359375,-1.0013275146484375,-0.076385498046875,0.0835418701171875
1757088350562225700,0.5012255859375,-0.9680328369140625,-0.080291748046875,0.072601318359375
1757088350572272600,0.511272705078125,-0.954559326171875,-0.08941650390625,0.0697479248046875
1757088350582318600,0.521318603515625,-0.954315185546875,-0.087493896484375,0.088836669921875
1757088350592364500,0.531364501953125,-0.939208984375,-0.0752105712890625,0.1279144287109375
1757088350602411500,0.54141162109375,-0.907958984375,-0.0605010986328125,0.1470947265625
1757088350612457500,0.55145751953125,-0.865447998046875,-0.035491943359375,0.1531524658203125
1757088350622504400,0.56150439453125,-0.8393707275390625,-0.0121307373046875,0.1472625732421875
1757088350632550400,0.57155029296875,-0.8050537109375,0.00762939453125,0.1505889892578125
1757088350642597400,0.581597412109375,-0.780487060546875,0.0209197998046875,0.1588897705078125
1757088350652643300,0.591643310546875,-0.7598876953125,0.020111083984375,0.2005615234375
1757088350662689500,0.601689453125,-0.7324371337890625,0.004364013671875,0.2747039794921875
1757088350672736800,0.61173681640625,-0.7170562744140625,-0.0204925537109375,0.363922119140625
1757088350682782500,0.621782470703125,-0.70501708984375,-0.0543670654296875,0.3876190185546875
1757088350692829700,0.63182958984375,-0.68780517578125,-0.03997802734375,0.3488311767578125
1757088350702875600,0.641875732421875,-0.6316680908203125,0.044708251953125,0.2459564208984375
1757088350712922600,0.651922607421875,-0.609130859375,0.0955047607421875,0.2455902099609375
1757088350722968600,0.661968505859375,-0.6757049560546875,0.0686187744140625,0.1944732666015625
1757088350733014500,0.6720146484375,-0.7036285400390625,0.07977294921875,0.0937652587890625
1757088350743061500,0.6820615234375,-0.75244140625,0.10723876953125,0.1753997802734375
1757088350753107500,0.692107421875,-0.7607269287109375,0.1054840087890625,0.2837982177734375
1757088350763154400,0.702154541015625,-0.7168731689453125,0.103515625,0.29730224609375
1757088350773200400,0.712200439453125,-0.6479339599609375,0.1497650146484375,0.300811767578125
1757088350783246600,0.72224658203125,-0.603057861328125,0.2011566162109375,0.3266448974609375
1757088350793293600,0.73229345703125,-0.5875244140625,0.202362060546875,0.34771728515625
1757088350803339500,0.742339599609375,-0.54052734375,0.1762847900390625,0.331817626953125
1757088350813386500,0.752386474609375,-0.46600341796875,0.1744384765625,0.3216552734375
1757088350823432400,0.762432373046875,-0.4024810791015625,0.195465087890625,0.373443603515625
1757088350833479700,0.772479736328125,-0.381561279296875,0.1962127685546875,0.477752685546875
1757088350843525400,0.782525390625,-0.3769073486328125,0.200592041015625,0.537841796875
1757088350853571300,0.7925712890625,-0.40802001953125,0.2420654296875,0.5862274169921875
1757088350863618600,0.80261865234375,-0.4655609130859375,0.290008544921875,0.6109161376953125
1757088350873664500,0.81266455078125,-0.497161865234375,0.332000732421875,0.5878448486328125
1757088350883711500,0.82271142578125,-0.6378631591796875,0.4080352783203125,0.58880615234375
1757088350893757700,0.8327578125,-0.693359375,0.477325439453125,0.5478057861328125
1757088350903804400,0.842804443359375,-0.630096435546875,0.5580291748046875,0.5288238525390625
1757088350913850600,0.8528505859375,-0.5288543701171875,0.641845703125,0.5815887451171875
1757088350923896600,0.862896484375,-0.3921356201171875,0.6454010009765625,0.5774383544921875
1757088350933943600,0.872943603515625,-0.401519775390625,0.5386962890625,0.533355712890625
1757088350943989500,0.882989501953125,-0.4120635986328125,0.5517730712890625,0.61590576171875
1757088350954036500,0.893036376953125,-0.395233154296875,0.6663970947265625,0.7501068115234375
1757088350964082400,0.90308251953125,-0.41510009765625,0.802459716796875,0.844146728515625
1757088350974128400,0.91312841796875,-0.466094970703125,0.8841400146484375,0.815582275390625
1757088350984175400,0.92317529296875,-0.4814605712890625,0.91650390625,0.7531280517578125
1757088350994221600,0.9332216796875,-0.476470947265625,0.963287353515625,0.72283935546875
1757088351004268500,0.9432685546875,-0.40277099609375,1.018524169921875,0.7038421630859375
1757088351014314500,0.953314453125,-0.306671142578125,0.982574462890625,0.748291015625
1757088351024361700,0.96336181640625,-0.2610015869140625,0.9453277587890625,0.829498291015625
1757088351034407700,0.97340771484375,-0.2472686767578125,0.97412109375,1.000946044921875
1757088351044453600,0.98345361328125,-0.3287200927734375,1.02239990234375,1.2551727294921875
1757088351054500600,0.99350048828125,-0.398529052734375,1.0631561279296875,1.382720947265625
1757088351064546600,1.003546630859375,-0.432830810546875,1.0682220458984375,1.3868865966796875
1757088351074593500,1.013593505859375,-0.465057373046875,1.0574493408203125,1.3345489501953125
1757088351084639500,1.023639404296875,-0.389862060546875,1.0799713134765625,1.2286224365234375
1757088351094686500,1.0336865234375,-0.3298492431640625,1.129638671875,1.201690673828125
1757088351104732400,1.043732421875,-0.2748565673828125,1.1722564697265625,1.179656982421875
1757088351114778600,1.053778564453125,-0.211334228515625,1.2016143798828125,1.137725830078125
1757088351124825600,1.06382568359375,-0.1923980712890625,1.230194091796875,1.170013427734375
1757088351134871600,1.07387158203125,-0.1843719482421875,1.2411346435546875,1.159149169921875
1757088351144918500,1.08391845703125,-0.1761016845703125,1.1855010986328125,1.1790008544921875
1757088351154964500,1.093964599609375,-0.160186767578125,1.072998046875,1.3276519775390625
1757088351165011700,1.10401171875,-0.10015869140625,1.0108642578125,1.4341583251953125
1757088351175057400,1.114057373046875,-0.2151031494140625,0.9477081298828125,1.326751708984375
1757088351185103400,1.124103271484375,-0.3243255615234375,0.899169921875,1.18548583984375
1757088351195150600,1.134150634765625,-0.3310089111328125,0.8982696533203125,1.241241455078125
1757088351205196500,1.144196533203125,-0.36767578125,0.8693389892578125,1.2921600341796875
1757088351215243500,1.154243408203125,-0.415252685546875,0.8726806640625,1.3527679443359375
1757088351225289500,1.16428955078125,-0.3688201904296875,0.89337158203125,1.3130950927734375
1757088351235335700,1.174335693359375,-0.375640869140625,0.85791015625,1.2892608642578125
1757088351245382700,1.184382568359375,-0.3111419677734375,0.8215484619140625,1.2515411376953125
1757088351255428400,1.194428466796875,-0.273223876953125,0.7824554443359375,1.2368927001953125
1757088351265475300,1.204475341796875,-0.230438232421875,0.756927490234375,1.221221923828125
1757088351275521300,1.214521240234375,-0.1745147705078125,0.747833251953125,1.0982666015625
1757088351285568300,1.224568359375,-0.1714019775390625,0.715545654296875,0.9942474365234375
1757088351295614200,1.2346142578125,-0.208984375,0.7043609619140625,0.888946533203125
1757088351305660200,1.24466015625,-0.1969451904296875,0.7527008056640625,0.6428680419921875
1757088351315707100,1.25470703125,-0.2027740478515625,0.7532501220703125,0.4134674072265625
1757088351325753000,1.264753173828125,-0.3036041259765625,0.6882781982421875,0.3856353759765625
1757088351335800000,1.274800048828125,-0.3868408203125,0.6670379638671875,0.43011474609375
1757088351345846300,1.28484619140625,-0.33074951171875,0.6888885498046875,0.410064697265625
1757088351355893200,1.294893310546875,-0.276275634765625,0.678985595703125,0.3640289306640625
1757088351365939500,1.304939453125,-0.1636199951171875,0.648834228515625,0.2049407958984375
1757088351375985400,1.3149853515625,0.46063232421875,0.4606781005859375,-0.5164337158203125
1757088351386032400,1.325032470703125,0.1081085205078125,0.721649169921875,-0.148406982421875
1757088351396078300,1.335078369140625,-0.217193603515625,1.0832977294921875,0.2000274658203125
1757088351406125300,1.345125244140625,-0.246612548828125,0.913177490234375,0.1156463623046875
1757088351416171300,1.355171142578125,-0.279815673828125,0.651214599609375,0.2437286376953125
1757088351426218200,1.36521826171875,-0.096923828125,0.5928955078125,0.3330230712890625
1757088351436264200,1.37526416015625,-0.0914306640625,0.57843017578125,0.4220733642578125
1757088351446310400,1.385310302734375,-0.23492431640625,0.578826904296875,0.51776123046875
1757088351456357000,1.395357177734375,-0.36077880859375,0.5824127197265625,0.5792388916015625
1757088351466403300,1.4054033203125,-0.438934326171875,0.632080078125,0.6026763916015625
1757088351476450300,1.4154501953125,-0.496734619140625,0.7021636962890625,0.6195526123046875
1757088351486496300,1.425496337890625,-0.4953460693359375,0.7340087890625,0.633514404296875
1757088351496543200,1.435543212890625,-0.45733642578125,0.7289276123046875,0.638580322265625
1757088351506589200,1.445589111328125,-0.395843505859375,0.7122802734375,0.66064453125
1757088351516635100,1.45563525390625,-0.383636474609375,0.6869049072265625,0.6647491455078125
1757088351526682400,1.465682373046875,-0.3150482177734375,0.6507415771484375,0.7144775390625
1757088351536728300,1.475728271484375,-0.2315216064453125,0.6177825927734375,0.6894073486328125
1757088351546775300,1.485775390625,-0.2378692626953125,0.6011199951171875,0.58807373046875
1757088351556821200,1.4958212890625,-0.2653350830078125,0.6332244873046875,0.5421600341796875
1757088351566868200,1.5058681640625,-0.2733306884765625,0.6841888427734375,0.505767822265625
1757088351576914400,1.51591455078125,-0.2717437744140625,0.6980133056640625,0.4825592041015625
1757088351586960400,1.52596044921875,-0.2628326416015625,0.70489501953125,0.51910400390625
1757088351597007400,1.53600732421875,-0.29913330078125,0.7071533203125,0.5917816162109375
1757088351607053300,1.54605322265625,-0.327728271484375,0.691986083984375,0.6882476806640625
1757088351617100300,1.556100341796875,-0.3437347412109375,0.6726837158203125,0.7454681396484375
1757088351627146200,1.566146240234375,-0.354522705078125,0.6795501708984375,0.793487548828125
1757088351637193200,1.576193115234375,-0.357177734375,0.672760009765625,0.874755859375
1757088351647239200,1.5862392578125,-0.3332061767578125,0.6737060546875,0.8760223388671875
1757088351657285000,1.59628515625,-0.3203582763671875,0.741180419921875,0.8108978271484375
1757088351667332000,1.60633203125,-0.3578033447265625,0.788177490234375,0.693389892578125
1757088351677378300,1.61637841796875,-0.3472900390625,0.788726806640625,0.657928466796875
1757088351687425300,1.62642529296875,-0.2942352294921875,0.7977294921875,0.7193756103515625
1757088351697471500,1.636471435546875,-0.346893310546875,0.800323486328125,0.7115325927734375
1757088351707518500,1.6465185546875,-0.3257598876953125,0.788604736328125,0.7373046875
1757088351717564400,1.656564453125,-0.308013916015625,0.757843017578125,0.8459930419921875
1757088351727610400,1.6666103515625,-0.2805633544921875,0.6868896484375,0.901885986328125
1757088351737657300,1.6766572265625,-0.263671875,0.6004791259765625,0.8695526123046875
1757088351747703300,1.686703369140625,-0.244140625,0.6205902099609375,0.891815185546875
1757088351757750300,1.696750244140625,-0.208251953125,0.6551666259765625,0.684600830078125
1757088351767796200,1.706796142578125,-0.2453155517578125,0.6942901611328125,0.5594940185546875
1757088351777842200,1.71684228515625,-0.31353759765625,0.718170166015625,0.4391937255859375
1757088351787889200,1.72688916015625,-0.2527008056640625,0.716705322265625,0.366363525390625
1757088351797935400,1.736935302734375,-0.257293701171875,0.683746337890625,0.375640869140625
1757088351807982000,1.746982177734375,-0.3041534423828125,0.6244964599609375,0.3357391357421875
1757088351818028300,1.7570283203125,-0.3468780517578125,0.6038818359375,0.2797393798828125
1757088351828075300,1.7670751953125,-0.3405609130859375,0.5876922607421875,0.181488037109375
1757088351838121200,1.777121337890625,-0.3258514404296875,0.6355133056640625,0.5081329345703125
1757088351848167200,1.787167236328125,-0.3705596923828125,0.576904296875,0.684814453125
1757088351858214400,1.79721435546875,-0.31036376953125,0.5594482421875,0.589324951171875
1757088351868260400,1.80726025390625,-0.2975006103515625,0.576019287109375,0.6269683837890625
1757088351878307300,1.817307373046875,-0.2739715576171875,0.575653076171875,0.660797119140625
1757088351888353300,1.827353271484375,-0.206939697265625,0.663421630859375,0.6358184814453125
1757088351898400300,1.837400146484375,-0.250030517578125,0.7980804443359375,0.6837310791015625
1757088351908446200,1.8474462890625,-0.1830902099609375,0.7700958251953125,0.6496124267578125
1757088351918492400,1.857492431640625,-0.0892181396484375,0.7116851806640625,0.621826171875
1757088351928539400,1.867539306640625,-0.100677490234375,0.7371826171875,0.5674591064453125
1757088351938585300,1.87758544921875,-0.1439056396484375,0.788726806640625,0.632293701171875
1757088351948632300,1.88763232421875,-0.14215087890625,0.829437255859375,0.7413482666015625
1757088351958678300,1.89767822265625,-0.1538848876953125,0.84173583984375,0.7348785400390625
1757088351968725200,1.907725341796875,-0.1900482177734375,0.79412841796875,0.7685394287109375
1757088351978771200,1.917771240234375,-0.1924896240234375,0.714996337890625,0.7969970703125
1757088351988817200,1.927817138671875,-0.1960296630859375,0.665557861328125,0.7911529541015625
1757088351998864100,1.937864013671875,-0.1978759765625,0.6380462646484375,0.78662109375
1757088352008910000,1.94791015625,-0.201568603515625,0.5986175537109375,0.7441558837890625
1757088352018957300,1.957957275390625,-0.1854248046875,0.5901947021484375,0.7333526611328125
1757088352029003300,1.968003173828125,-0.1370391845703125,0.6397552490234375,0.741546630859375
1757088352039050200,1.97805029296875,-0.118011474609375,0.6966094970703125,0.693206787109375
1757088352049096400,1.988096435546875,-0.1390533447265625,0.722137451171875,0.7066497802734375
1757088352059142400,1.998142333984375,-0.1708984375,0.7056427001953125,0.760009765625
1757088352069189400,2.008189453125,-0.2050018310546875,0.6682281494140625,0.79705810546875
1757088352079235300,2.0182353515625,-0.2172698974609375,0.6435394287109375,0.8315582275390625
1757088352089282300,2.0282822265625,-0.1625823974609375,0.683349609375,0.81201171875
1757088352099328300,2.038328369140625,-0.1564788818359375,0.7589111328125,0.7694244384765625
1757088352109374200,2.048374267578125,-0.1777496337890625,0.7327728271484375,0.727142333984375
1757088352119421200,2.058421142578125,-0.16387939453125,0.6981658935546875,0.722930908203125
1757088352129467100,2.068467041015625,-0.111785888671875,0.7046356201171875,0.7325897216796875
1757088352139514000,2.07851416015625,-0.0479888916015625,0.7104949951171875,0.6839752197265625
1757088352149560300,2.088560302734375,-0.04669189453125,0.7300262451171875,0.664764404296875
1757088352159607300,2.098607177734375,-0.049163818359375,0.7239837646484375,0.6828460693359375
1757088352169653200,2.1086533203125,-0.0633392333984375,0.6934661865234375,0.677581787109375
1757088352179699200,2.11869921875,-0.063934326171875,0.686187744140625,0.6869659423828125
1757088352189746400,2.128746337890625,-0.059295654296875,0.711639404296875,0.7125396728515625
1757088352199792400,2.13879248046875,-0.047821044921875,0.719482421875,0.6849822998046875
1757088352209839400,2.14883935546875,-0.0422210693359375,0.7175750732421875,0.682403564453125
1757088352219885300,2.15888525390625,-0.0667724609375,0.693206787109375,0.7341156005859375
1757088352229932300,2.168932373046875,-0.1397857666015625,0.6474151611328125,0.8039703369140625
1757088352239978200,2.178978271484375,-0.1766510009765625,0.5826263427734375,0.8775177001953125
1757088352250024200,2.189024169921875,-0.1617431640625,0.5798797607421875,0.87701416015625
1757088352260071400,2.199071533203125,-0.181304931640625,0.6351776123046875,0.830841064453125
1757088352270117600,2.20911767578125,-0.211090087890625,0.6861114501953125,0.7544097900390625
1757088352280164600,2.21916455078125,-0.2377471923828125,0.68975830078125,0.6563262939453125
1757088352290210600,2.22921044921875,-0.212493896484375,0.690185546875,0.5970001220703125
1757088352300257500,2.239257568359375,-0.1641693115234375,0.688507080078125,0.5159454345703125
1757088352310303500,2.249303466796875,-0.086639404296875,0.664581298828125,0.513336181640625
1757088352320349400,2.259349365234375,0.0265960693359375,0.6400909423828125,0.58477783203125
1757088352330396400,2.269396484375,0.044403076171875,0.639434814453125,0.5789031982421875
1757088352340442400,2.2794423828125,-0.013824462890625,0.6560211181640625,0.6063079833984375
1757088352350489600,2.289489501953125,-0.0289459228515625,0.6942138671875,0.6607208251953125
1757088352360535600,2.29953564453125,-0.034454345703125,0.7185821533203125,0.670501708984375
1757088352370581500,2.30958154296875,-0.0341949462890625,0.729827880859375,0.704925537109375
1757088352380628500,2.31962841796875,-0.0403594970703125,0.7143707275390625,0.78033447265625
1757088352390674700,2.3296748046875,-0.0213470458984375,0.7069854736328125,0.870697021484375
1757088352400721700,2.3397216796875,0.111907958984375,0.779510498046875,0.8502349853515625
1757088352410767600,2.349767578125,0.16461181640625,0.8192291259765625,0.8100433349609375
1757088352420814600,2.359814697265625,0.09527587890625,0.783935546875,0.825286865234375
1757088352430860500,2.369860595703125,0.0318756103515625,0.710479736328125,0.835693359375
1757088352440906500,2.379906494140625,-0.066802978515625,0.6816864013671875,0.813720703125
1757088352450953500,2.389953369140625,-0.092010498046875,0.67474365234375,0.79345703125
1757088352460999400,2.39999951171875,0.021881103515625,0.644561767578125,0.80609130859375
1757088352471046400,2.41004638671875,0.291259765625,0.5777130126953125,1.0733795166015625
1757088352481092400,2.42009228515625,0.9937591552734375,0.3756561279296875,1.8620758056640625
1757088352491139300,2.430139404296875,-0.2719879150390625,0.2516632080078125,1.0916748046875
1757088352501185500,2.440185546875,-1.2432098388671875,0.7804412841796875,0.397918701171875
1757088352511231500,2.4502314453125,-0.675140380859375,1.170257568359375,0.4413909912109375
1757088352521278700,2.46027880859375,-0.49237060546875,0.7169036865234375,0.2615203857421875
1757088352531324700,2.47032470703125,-0.1641998291015625,0.5498046875,0.3359527587890625
1757088352541371600,2.48037158203125,-0.0973968505859375,0.4163665771484375,0.2414093017578125
1757088352551417600,2.49041748046875,-0.237762451171875,0.264617919921875,0.1241302490234375
1757088352561464600,2.500464599609375,-0.3372955322265625,0.1511688232421875,0.080535888671875
1757088352571510500,2.510510498046875,-0.3123626708984375,0.0853424072265625,0.067108154296875
1757088352581556500,2.520556396484375,-0.2555694580078125,0.1101531982421875,0.119384765625
1757088352591603500,2.530603515625,-0.1934814453125,0.2777557373046875,0.249542236328125
1757088352601649400,2.5406494140625,0.2488861083984375,0.349853515625,0.3321075439453125
1757088352611696400,2.5506962890625,0.4275054931640625,0.519378662109375,0.36932373046875
1757088352621742600,2.56074267578125,0.565155029296875,0.621856689453125,0.666534423828125
1757088352631788500,2.57078857421875,0.62615966796875,0.84326171875,1.2044219970703125
1757088352641835500,2.58083544921875,0.2321929931640625,0.8159637451171875,1.3585205078125
1757088352651881500,2.590881591796875,0.0420379638671875,0.585601806640625,1.1444854736328125
1757088352661928400,2.600928466796875,0.029083251953125,0.85565185546875,1.3266143798828125
1757088352671974400,2.610974365234375,0.0298309326171875,0.9675445556640625,1.500244140625
1757088352682021600,2.621021728515625,0.060791015625,0.9083099365234375,1.3310699462890625
1757088352692067600,2.631067626953125,0.16326904296875,0.8932342529296875,1.237030029296875
1757088352702113500,2.641113525390625,0.4075775146484375,0.8850250244140625,1.243255615234375
1757088352712160500,2.651160400390625,0.3013458251953125,0.6643218994140625,0.721588134765625
1757088352722206700,2.661206787109375,-0.158660888671875,0.7504730224609375,0.304229736328125
1757088352732253400,2.67125341796875,-0.2266693115234375,0.8517608642578125,0.3373260498046875
1757088352742299600,2.681299560546875,-0.1784820556640625,0.80218505859375,0.423797607421875
1757088352752346600,2.6913466796875,-0.0680999755859375,0.688079833984375,0.5343475341796875
1757088352762392600,2.701392578125,-0.02520751953125,0.70867919921875,0.6317138671875
1757088352772438500,2.7114384765625,-0.0207672119140625,0.842926025390625,0.6368560791015625
1757088352782485500,2.721485595703125,-0.0943450927734375,0.9501800537109375,0.6135101318359375
1757088352792531500,2.731531494140625,-0.1141815185546875,0.98577880859375,0.7995758056640625
1757088352802578400,2.741578369140625,-0.030792236328125,1.048004150390625,1.0333099365234375
1757088352812624400,2.751624267578125,0.150177001953125,1.04730224609375,1.1558837890625
1757088352822670300,2.76167041015625,-0.09698486328125,0.99066162109375,1.069732666015625
1757088352832717300,2.77171728515625,0.105712890625,0.8007049560546875,1.0649871826171875
1757088352842763500,2.781763427734375,0.4228057861328125,0.9028472900390625,1.058135986328125
1757088352852810500,2.791810546875,0.2854156494140625,0.926605224609375,0.8340301513671875
1757088352862856700,2.801856689453125,0.249114990234375,0.655670166015625,0.8213043212890625
1757088352872903700,2.811903564453125,0.2795562744140625,0.6412353515625,0.8983154296875
1757088352882949600,2.82194970703125,0.268218994140625,0.8270263671875,1.062957763671875
1757088352892995600,2.83199560546875,0.1736907958984375,0.79534912109375,0.88983154296875
1757088352903042600,2.84204248046875,-0.1287689208984375,0.672149658203125,0.5744781494140625
1757088352913088500,2.852088623046875,-0.3369140625,0.5975494384765625,0.5961456298828125
1757088352923135500,2.862135498046875,-0.1734619140625,0.567626953125,0.4783935546875
1757088352933181400,2.872181396484375,-0.048492431640625,0.4503173828125,0.2769317626953125
1757088352943228400,2.882228515625,-0.01593017578125,0.4873046875,0.37762451171875
1757088352953274400,2.8922744140625,-0.0225830078125,0.41082763671875,0.413299560546875
1757088352963320600,2.902320556640625,0.0026092529296875,0.21221923828125,0.5230255126953125
1757088352973367600,2.912367431640625,0.062347412109375,0.1739501953125,0.7143707275390625
1757088352983413500,2.92241357421875,0.149566650390625,0.357513427734375,0.706787109375
1757088352993460500,2.93246044921875,0.214752197265625,0.5962982177734375,0.64324951171875
1757088353003506400,2.94250634765625,0.1119232177734375,0.57611083984375,0.336639404296875
1757088353013552400,2.952552490234375,0.1304168701171875,0.39508056640625,0.3570556640625
1757088353023599600,2.962599609375,0.2815399169921875,0.488189697265625,0.6466217041015625
1757088353033645600,2.9726455078125,0.306671142578125,0.6703948974609375,0.8154144287109375
1757088353043692500,2.982692626953125,0.169769287109375,0.8846435546875,0.8045501708984375
1757088353053738500,2.992738525390625,0.0045166015625,0.9662322998046875,0.6879425048828125
1757088353063785500,3.002785400390625,0.1926727294921875,0.924346923828125,0.582550048828125
1757088353073831700,3.012831787109375,0.380523681640625,1.0122833251953125,0.380279541015625
1757088353083877600,3.022877685546875,0.4511566162109375,0.92364501953125,0.43902587890625
1757088353093924600,3.032924560546875,0.20196533203125,0.7792205810546875,0.620361328125
1757088353103970600,3.042970458984375,-0.2700958251953125,0.784271240234375,0.7339935302734375
1757088353114017500,3.053017578125,-0.5147552490234375,0.74658203125,0.7118072509765625
1757088353124063500,3.0630634765625,-0.224822998046875,0.6818389892578125,0.6654052734375
1757088353134109400,3.073109375,0.2457733154296875,0.69866943359375,0.6906585693359375
1757088353144156400,3.083156494140625,0.526885986328125,0.691619873046875,0.7431793212890625
1757088353154202400,3.093202392578125,0.6932373046875,0.666290283203125,0.7227783203125
1757088353164249300,3.103249267578125,0.673797607421875,0.76702880859375,0.649993896484375
1757088353174295600,3.113295654296875,0.3098297119140625,0.75042724609375,0.73577880859375
1757088353184342500,3.123342529296875,-0.0805511474609375,0.4463653564453125,0.8240509033203125
1757088353194388700,3.133388671875,-0.3391571044921875,0.3430023193359375,0.80096435546875
1757088353204434700,3.1434345703125,-0.1590728759765625,0.5567626953125,0.738800048828125
1757088353214481700,3.153481689453125,0.1943511962890625,0.6991424560546875,0.6378173828125
1757088353224527600,3.163527587890625,0.0612335205078125,0.812286376953125,0.6446533203125
1757088353234574600,3.17357470703125,-0.1314697265625,0.8775177001953125,0.619140625
1757088353244620500,3.18362060546875,-0.1893768310546875,0.9124298095703125,0.62060546875
1757088353254666800,3.193666748046875,-0.16265869140625,0.84466552734375,0.612548828125
1757088353264713700,3.203713623046875,-0.133331298828125,0.7482757568359375,0.53118896484375
1757088353274759700,3.213759765625,-0.0677337646484375,0.7006072998046875,0.5542144775390625
1757088353284806700,3.223806640625,0.020050048828125,0.6724395751953125,0.5469512939453125
1757088353294852600,3.2338525390625,0.0543212890625,0.5830535888671875,0.6190643310546875
1757088353304899800,3.24389990234375,0.0681610107421875,0.4525909423828125,0.7196502685546875
1757088353314946000,3.253946044921875,-0.006805419921875,0.457489013671875,0.7613677978515625
1757088353324991700,3.26399169921875,-0.116302490234375,0.51416015625,0.7523193359375
1757088353335039000,3.2740390625,-0.1513671875,0.52447509765625,0.70928955078125
1757088353345085000,3.2840849609375,-0.12701416015625,0.54815673828125,0.68829345703125
1757088353355132000,3.2941318359375,-0.073974609375,0.6246490478515625,0.647003173828125
1757088353365177900,3.304177734375,-0.0239410400390625,0.736663818359375,0.636688232421875
1757088353375223800,3.314223876953125,0.012298583984375,0.867462158203125,0.68914794921875
1757088353385270800,3.324270751953125,0.0677032470703125,0.9691314697265625,0.7509307861328125
1757088353395316700,3.334316650390625,0.1280670166015625,1.0946044921875,0.7649078369140625
1757088353405363700,3.34436376953125,0.1021270751953125,1.1182098388671875,0.754486083984375
1757088353415410000,3.354409912109375,0.1066436767578125,1.00091552734375,0.738433837890625
1757088353425456600,3.36445654296875,0.150299072265625,0.934539794921875,0.77752685546875
1757088353435502800,3.3745029296875,0.154327392578125,0.8923187255859375,0.797576904296875
1757088353445548800,3.384548828125,0.1749725341796875,0.8325042724609375,0.787445068359375
1757088353455595800,3.394595703125,0.2235107421875,0.875030517578125,0.804962158203125
1757088353465641700,3.404641845703125,0.2317047119140625,0.9221649169921875,0.825347900390625
1757088353475689000,3.41468896484375,0.1697235107421875,0.9682464599609375,0.8204803466796875
1757088353485734700,3.424734619140625,0.11505126953125,0.987548828125,0.8159332275390625
1757088353495782000,3.434781982421875,0.0938262939453125,0.97869873046875,0.848907470703125
1757088353505827800,3.444827880859375,0.0625762939453125,0.925933837890625,0.8600006103515625
1757088353515873800,3.454873779296875,0.0469818115234375,0.8782501220703125,0.8262176513671875
1757088353525920800,3.464920654296875,0.032958984375,0.8231353759765625,0.799346923828125
1757088353535967000,3.474967041015625,-0.0023651123046875,0.709228515625,0.7513885498046875
1757088353546014000,3.485013916015625,0.0562286376953125,0.6417388916015625,0.644287109375
1757088353556060000,3.495059814453125,0.029632568359375,0.51898193359375,0.5735626220703125
1757088353566105900,3.50510595703125,-0.08697509765625,0.327850341796875,0.6038360595703125
1757088353576152800,3.51515283203125,-0.1158294677734375,0.2878265380859375,0.5853424072265625
1757088353586198800,3.52519873046875,-0.088287353515625,0.5695343017578125,0.4804229736328125
1757088353596245800,3.535245849609375,-0.1005401611328125,0.689666748046875,0.602783203125
1757088353606291700,3.545291748046875,-0.067138671875,0.6491241455078125,0.61590576171875
1757088353616338700,3.555338623046875,-0.014801025390625,0.681060791015625,0.6119842529296875
1757088353626384600,3.565384521484375,0.0139923095703125,0.6893310546875,0.657501220703125
1757088353636430800,3.575430908203125,-0.0009918212890625,0.6545562744140625,0.6767578125
1757088353646477800,3.585477783203125,-0.0256805419921875,0.656036376953125,0.641815185546875
1757088353656523800,3.595523681640625,-0.0404205322265625,0.6909027099609375,0.601959228515625
1757088353666571000,3.605571044921875,-0.034912109375,0.6993865966796875,0.5927734375
1757088353676617000,3.615616943359375,0.0124664306640625,0.753143310546875,0.5580596923828125
1757088353686664000,3.625663818359375,0.041900634765625,0.8482208251953125,0.6177215576171875
1757088353696710000,3.6357099609375,0.041656494140625,0.83404541015625,0.64453125
1757088353706755800,3.645755859375,0.043609619140625,0.8121337890625,0.6600494384765625
1757088353716802800,3.655802734375,0.0509033203125,0.6909332275390625,0.6795654296875
1757088353726848800,3.665848876953125,0.04351806640625,0.3248138427734375,0.642547607421875
1757088353736895700,3.675895751953125,-0.0406951904296875,0.2221832275390625,0.7838287353515625
1757088353746941700,3.685941650390625,-0.112701416015625,0.524993896484375,0.8504638671875
1757088353756988000,3.69598779296875,-0.004547119140625,0.5704193115234375,0.753997802734375
1757088353767035000,3.706034912109375,0.0781707763671875,0.557525634765625,0.6872100830078125
1757088353777080800,3.716080810546875,0.0829925537109375,0.6027984619140625,0.6669158935546875
1757088353787127800,3.7261279296875,0.063720703125,0.64569091796875,0.64959716796875
1757088353797173800,3.736173828125,-0.00048828125,0.6435394287109375,0.6143798828125
1757088353807219700,3.7462197265625,-0.07305908203125,0.5807647705078125,0.5792236328125
1757088353817266700,3.7562666015625,-0.115081787109375,0.54931640625,0.5017242431640625
1757088353827312600,3.766312744140625,-0.1359405517578125,0.5399627685546875,0.4267120361328125
1757088353837359900,3.77635986328125,-0.1366424560546875,0.5680084228515625,0.398590087890625
1757088353847405800,3.78640576171875,-0.1053924560546875,0.5039215087890625,0.39605712890625
1757088353857452800,3.796452880859375,-0.066497802734375,0.4154052734375,0.3538665771484375
1757088353867498800,3.806498779296875,-0.0671234130859375,0.482696533203125,0.3894195556640625
1757088353877545000,3.816544921875,-0.0505218505859375,0.52703857421875,0.3990631103515625
1757088353887592000,3.826592041015625,-0.0586090087890625,0.7283477783203125,0.4963531494140625
1757088353897638000,3.836637939453125,-0.0234527587890625,0.79217529296875,0.5233001708984375
1757088353907684900,3.846684814453125,0.02374267578125,0.809814453125,0.50732421875
1757088353917730800,3.856730712890625,0.0297698974609375,0.7938995361328125,0.5649566650390625
1757088353927776800,3.86677685546875,0.0059967041015625,0.6919097900390625,0.527923583984375
1757088353937823700,3.87682373046875,-0.0339508056640625,0.629241943359375,0.442840576171875
1757088353947869700,3.88686962890625,-0.109649658203125,0.651947021484375,0.3744049072265625
1757088353957916700,3.896916748046875,0.8051300048828125,1.66986083984375,0.96142578125
1757088353967962600,3.906962646484375,-0.4459381103515625,0.9697265625,0.6371917724609375
1757088353978009600,3.917009521484375,-0.125335693359375,1.5937347412109375,1.066650390625
1757088353988055800,3.927055908203125,-0.3037872314453125,1.407501220703125,0.702117919921875
1757088353998101800,3.937101806640625,-0.3463897705078125,1.3457489013671875,0.4923095703125
1757088354008149000,3.94714892578125,-0.2701873779296875,1.2854766845703125,0.4715576171875
1757088354018195000,3.95719482421875,-0.1756439208984375,1.1791229248046875,0.467041015625
1757088354028242000,3.967241943359375,-0.12701416015625,1.067535400390625,0.3474884033203125
1757088354038288000,3.977287841796875,-0.086578369140625,1.0111083984375,0.2372894287109375
1757088354048334800,3.9873349609375,-0.0752716064453125,1.06060791015625,0.234130859375
1757088354058380800,3.997380859375,-0.07061767578125,1.09552001953125,0.3194122314453125
1757088354068426800,4.0074267578125,-0.05328369140625,1.1363677978515625,0.41510009765625
1757088354078473700,4.0174736328125,-0.01739501953125,1.1515350341796875,0.480926513671875
1757088354088520000,4.02752001953125,0.0258636474609375,1.098876953125,0.53692626953125
1757088354098566700,4.037566650390625,0.0437774658203125,1.072235107421875,0.5039215087890625
1757088354108612900,4.04761279296875,0.01910400390625,1.0715484619140625,0.46771240234375
1757088354118658800,4.057658935546875,0.17987060546875,1.038177490234375,0.5537109375
1757088354128705800,4.067705810546875,0.2500762939453125,1.038055419921875,0.498199462890625
1757088354138751700,4.077751708984375,0.1173553466796875,1.0357513427734375,0.48468017578125
1757088354148798700,4.087798828125,0.04254150390625,0.978057861328125,0.5011138916015625
1757088354158844700,4.0978447265625,0.0287933349609375,0.9344482421875,0.48095703125
1757088354168892000,4.107891845703125,0.004150390625,0.8860931396484375,0.4589385986328125
1757088354178937900,4.117937744140625,-0.035369873046875,0.7720184326171875,0.46234130859375
1757088354188983800,4.12798388671875,-0.084747314453125,0.7180328369140625,0.4655303955078125
1757088354199030800,4.13803076171875,-0.1048431396484375,0.7051544189453125,0.456390380859375
1757088354209077000,4.148076904296875,-0.1110687255859375,0.67095947265625,0.4911041259765625
1757088354219124000,4.1581240234375,-0.1291046142578125,0.649688720703125,0.53607177734375
1757088354229170000,4.168169921875,-0.133331298828125,0.59393310546875,0.5500946044921875
1757088354239215900,4.1782158203125,-0.162567138671875,0.5834808349609375,0.5327911376953125
1757088354249262800,4.188262939453125,-0.1871185302734375,0.598388671875,0.505615234375
1757088354259308300,4.198308349609375,-0.2191925048828125,0.527008056640625,0.5557861328125
1757088354269355500,4.20835546875,-0.2200469970703125,0.5901947021484375,0.526092529296875
1757088354279401500,4.2184013671875,-0.1864013671875,0.719451904296875,0.4922027587890625
1757088354289447400,4.228447509765625,-0.20013427734375,0.7610321044921875,0.632843017578125
1757088354299494400,4.238494384765625,-0.2117767333984375,0.7936859130859375,0.8078460693359375
1757088354309540600,4.24854052734375,-0.214996337890625,0.82244873046875,0.866729736328125
1757088354319587600,4.258587646484375,-0.173187255859375,0.8697662353515625,0.769317626953125
1757088354329633500,4.268633544921875,-0.10467529296875,0.91827392578125,0.7317047119140625
1757088354339680500,4.278680419921875,-0.057464599609375,0.939483642578125,0.74462890625
1757088354349726500,4.2887265625,-0.0097198486328125,0.973114013671875,0.681549072265625
1757088354359772400,4.2987724609375,0.03765869140625,0.9687957763671875,0.603485107421875
1757088354369819400,4.3088193359375,0.064361572265625,0.9949493408203125,0.5254974365234375
1757088354379865300,4.318865234375,0.0919342041015625,1.02618408203125,0.47100830078125
1757088354389912300,4.328912353515625,0.1063079833984375,1.0237274169921875,0.454620361328125
1757088354399958300,4.338958251953125,0.097503662109375,1.0234222412109375,0.4411163330078125
1757088354410004500,4.34900439453125,0.075836181640625,0.951446533203125,0.4559478759765625
1757088354420051500,4.359051513671875,0.0233001708984375,0.9675750732421875,0.48681640625
1757088354430097400,4.369097412109375,-0.002288818359375,0.9705352783203125,0.4638519287109375
1757088354440144600,4.37914453125,-0.0341796875,0.98333740234375,0.5059356689453125
1757088354450190600,4.389190673828125,-0.07440185546875,1.0092620849609375,0.5323333740234375
1757088354460237600,4.399237548828125,-0.0795440673828125,0.9983673095703125,0.557891845703125
1757088354470283500,4.409283447265625,-0.0859222412109375,0.960540771484375,0.5753173828125
1757088354480329500,4.41932958984375,-0.106903076171875,0.9195404052734375,0.5853424072265625
1757088354490376400,4.42937646484375,-0.113525390625,0.9157257080078125,0.57220458984375
1757088354500422400,4.43942236328125,-0.094329833984375,0.9261627197265625,0.5285491943359375
1757088354510469400,4.449469482421875,-0.0703125,0.923004150390625,0.482177734375
1757088354520515300,4.459515380859375,-0.056243896484375,0.90185546875,0.44830322265625
1757088354530561500,4.4695615234375,-0.05450439453125,0.895172119140625,0.434112548828125
1757088354540608500,4.4796083984375,-0.081085205078125,0.8851776123046875,0.4382781982421875
1757088354550654500,4.489654541015625,-0.1002197265625,0.850433349609375,0.449493408203125
1757088354560701400,4.499701416015625,-0.086700439453125,0.8179473876953125,0.46160888671875
1757088354570747400,4.509747314453125,-0.11224365234375,0.8519287109375,0.50103759765625
1757088354580794400,4.51979443359375,-0.090606689453125,0.8677520751953125,0.5265045166015625
1757088354590840300,4.52984033203125,-0.03411865234375,0.8259735107421875,0.5342254638671875
1757088354600886300,4.53988623046875,-0.0162506103515625,0.7686309814453125,0.534393310546875
1757088354610933500,4.54993359375,0.0076446533203125,0.6957550048828125,0.560882568359375
1757088354620979500,4.5599794921875,-0.0062408447265625,0.723114013671875,0.607208251953125
1757088354631026400,4.5700263671875,-0.0200042724609375,0.7196044921875,0.6542510986328125
1757088354641072400,4.580072265625,-0.0384368896484375,0.7320709228515625,0.68359375
1757088354651119400,4.590119384765625,-0.0781097412109375,0.7663116455078125,0.7111358642578125
1757088354661165600,4.60016552734375,-0.0633087158203125,0.7429351806640625,0.697601318359375
1757088354671211500,4.61021142578125,-0.03155517578125,0.7237701416015625,0.6617584228515625
1757088354681258500,4.620258544921875,0.048797607421875,0.671478271484375,0.57281494140625
1757088354691304400,4.630304443359375,0.0640411376953125,0.7050018310546875,0.5144805908203125
1757088354701351400,4.640351318359375,0.0461578369140625,0.78680419921875,0.483795166015625
1757088354711397400,4.6503974609375,0.0475921630859375,0.8141632080078125,0.4665374755859375
1757088354721443300,4.660443359375,0.0368194580078125,0.83978271484375,0.449462890625
1757088354731490300,4.670490234375,0.030548095703125,0.850555419921875,0.4223175048828125
1757088354741536300,4.680536376953125,0.00048828125,0.791534423828125,0.4251556396484375
1757088354751583200,4.690583251953125,-0.0182342529296875,0.7186126708984375,0.4394683837890625
1757088354761629400,4.70062939453125,-0.022552490234375,0.7060394287109375,0.4835205078125
1757088354771675400,4.71067529296875,-0.01092529296875,0.7168426513671875,0.5273590087890625
1757088354781722600,4.72072265625,0.009521484375,0.7147674560546875,0.5481719970703125
1757088354791768600,4.7307685546875,0.0220947265625,0.713134765625,0.56072998046875
1757088354801815600,4.740815673828125,0.0149688720703125,0.7288360595703125,0.559326171875
1757088354811861500,4.750861572265625,-0.0005340576171875,0.768707275390625,0.5573883056640625
1757088354821908500,4.760908447265625,0.0054931640625,0.7775421142578125,0.555938720703125
1757088354831954400,4.770954345703125,0.0243072509765625,0.714385986328125,0.567352294921875
1757088354842000400,4.78100048828125,0.0482177734375,0.562164306640625,0.579986572265625
1757088354852047400,4.79104736328125,0.0208892822265625,0.591827392578125,0.6781005859375
1757088354862093600,4.801093505859375,-0.01568603515625,0.8679351806640625,0.7275848388671875
1757088354872140300,4.811140380859375,0.030609130859375,0.9583282470703125,0.6453704833984375
1757088354882186500,4.8211865234375,0.01947021484375,0.992340087890625,0.6036834716796875
1757088354892232400,4.831232421875,0.011444091796875,1.0413360595703125,0.5758819580078125
1757088354902279400,4.841279541015625,0.0372467041015625,0.9972991943359375,0.5348968505859375
1757088354912325400,4.851325439453125,0.0550689697265625,0.9783782958984375,0.493072509765625
1757088354922372400,4.861372314453125,0.065582275390625,0.90472412109375,0.4026641845703125
1757088354932418300,4.871418212890625,0.04986572265625,0.8460845947265625,0.286376953125
1757088354942465500,4.881465576171875,0.0171966552734375,0.78668212890625,0.248291015625
1757088354952511500,4.891511474609375,-0.029815673828125,0.78472900390625,0.274017333984375
1757088354962557400,4.901557373046875,-0.0659942626953125,0.8277587890625,0.3495330810546875
1757088354972604400,4.9116044921875,-0.0983428955078125,0.8991546630859375,0.4496612548828125
1757088354982650600,4.921650634765625,-0.105255126953125,0.9188079833984375,0.538818359375
1757088354992697600,4.931697509765625,-0.0906524658203125,0.9223480224609375,0.5901031494140625
1757088355002743600,4.94174365234375,-0.0915985107421875,0.9545745849609375,0.646270751953125
1757088355012789500,4.95178955078125,-0.067047119140625,0.930755615234375,0.6504669189453125
1757088355022836500,4.96183642578125,-0.0219268798828125,0.880828857421875,0.644317626953125
1757088355032882400,4.97188232421875,0.0039825439453125,0.869964599609375,0.6325225830078125
1757088355042929400,4.981929443359375,0.0319366455078125,0.81781005859375,0.59765625
1757088355052975400,4.991975341796875,0.0483856201171875,0.8047027587890625,0.5663299560546875
1757088355063022300,5.002022216796875,0.063720703125,0.805206298828125,0.5473480224609375
1757088355073068300,5.012068359375,0.0543060302734375,0.8337249755859375,0.53985595703125
1757088355083114500,5.022114501953125,0.005218505859375,0.8824615478515625,0.5422515869140625
1757088355093161500,5.032161376953125,-0.051422119140625,0.9003753662109375,0.5562591552734375
1757088355103207400,5.04220751953125,-0.0499725341796875,0.91400146484375,0.5684661865234375
1757088355113254700,5.052254638671875,-0.0334930419921875,0.9158782958984375,0.565826416015625
1757088355123300600,5.062300537109375,-0.028228759765625,0.9087677001953125,0.56793212890625
1757088355133346600,5.0723466796875,-0.0337677001953125,0.9050445556640625,0.5856475830078125
1757088355143393500,5.0823935546875,-0.02520751953125,0.8978118896484375,0.6193695068359375
1757088355153439500,5.092439453125,-0.01422119140625,0.89605712890625,0.646392822265625
1757088355163486500,5.102486572265625,-0.0048065185546875,0.891204833984375,0.663177490234375
1757088355173532400,5.112532470703125,0.004486083984375,0.881744384765625,0.6863861083984375
1757088355183578400,5.122578369140625,0.0013580322265625,0.8963623046875,0.6920318603515625
1757088355193625300,5.132625244140625,0.0074615478515625,0.8925933837890625,0.675445556640625
1757088355203671600,5.142671630859375,0.01336669921875,0.877105712890625,0.6529083251953125
1757088355213718500,5.152718505859375,0.0154876708984375,0.8820953369140625,0.6310272216796875
1757088355223764500,5.162764404296875,0.0226593017578125,0.8740081787109375,0.611419677734375
1757088355233811500,5.1728115234375,0.0164794921875,0.85400390625,0.583526611328125
1757088355243857400,5.182857421875,0.00390625,0.8459320068359375,0.5533905029296875
1757088355253903400,5.1929033203125,-0.0053558349609375,0.851043701171875,0.5355072021484375
1757088355263950000,5.2029501953125,-0.0157012939453125,0.848724365234375,0.519989013671875
1757088355273996000,5.21299609375,-0.0198974609375,0.8166351318359375,0.50421142578125
1757088355284043000,5.22304296875,-0.0384368896484375,0.7957763671875,0.4993133544921875
1757088355294089000,5.2330888671875,-0.0443878173828125,0.7489013671875,0.5013885498046875
1757088355304135200,5.24313525390625,-0.0184173583984375,0.6236724853515625,0.4907684326171875
1757088355314182100,5.25318212890625,-0.0122528076171875,0.59326171875,0.5296478271484375
1757088355324228000,5.26322802734375,-0.0341033935546875,0.6409912109375,0.580352783203125
1757088355334275300,5.273275390625,-0.03839111328125,0.6338043212890625,0.6093902587890625
1757088355344321300,5.2833212890625,-0.0473175048828125,0.5875091552734375,0.624114990234375
1757088355354368300,5.2933681640625,-0.063232421875,0.571380615234375,0.672943115234375
1757088355364414200,5.303414306640625,-0.0715484619140625,0.5938568115234375,0.7382049560546875
1757088355374460200,5.313460205078125,-0.06365966796875,0.6471710205078125,0.7573394775390625
1757088355384507100,5.323507080078125,-0.03973388671875,0.6934661865234375,0.7762908935546875
1757088355394553000,5.333552978515625,-0.0039520263671875,0.7102508544921875,0.776641845703125
1757088355404600000,5.34360009765625,0.03973388671875,0.7368621826171875,0.7384185791015625
1757088355414646300,5.353646240234375,0.0553131103515625,0.79754638671875,0.6967315673828125
1757088355424692200,5.363692138671875,0.06439208984375,0.8277130126953125,0.655426025390625
1757088355434739200,5.3737392578125,0.08184814453125,0.834564208984375,0.6132659912109375
1757088355444785200,5.38378515625,0.092193603515625,0.83917236328125,0.5724945068359375
1757088355454832000,5.39383203125,0.090576171875,0.8512420654296875,0.5247650146484375
1757088355464878000,5.403878173828125,0.0881805419921875,0.8666839599609375,0.511322021484375
1757088355474924000,5.413924072265625,0.0792694091796875,0.846588134765625,0.5291290283203125
1757088355484971000,5.423970947265625,0.0541229248046875,0.849456787109375,0.5391082763671875
1757088355495017000,5.434016845703125,0.044342041015625,0.85009765625,0.544525146484375
1757088355505064200,5.444064208984375,0.0311126708984375,0.8463897705078125,0.5467071533203125
1757088355515110100,5.454110107421875,0.0162811279296875,0.835662841796875,0.5564422607421875
1757088355525157000,5.4641572265625,0.005035400390625,0.8161773681640625,0.5697479248046875
1757088355535203300,5.474203369140625,-0.0059967041015625,0.8050079345703125,0.5880889892578125
1757088355545249300,5.484249267578125,-0.010406494140625,0.79278564453125,0.6063385009765625
1757088355555296300,5.494296142578125,-0.0109405517578125,0.7808990478515625,0.6147308349609375
1757088355565342200,5.50434228515625,-0.01214599609375,0.7782135009765625,0.617767333984375
1757088355575389200,5.51438916015625,-0.005706787109375,0.7704010009765625,0.62664794921875
1757088355585435100,5.52443505859375,0.00732421875,0.756805419921875,0.62884521484375
1757088355595481000,5.534481201171875,0.01068115234375,0.7650146484375,0.62823486328125
1757088355605528000,5.544528076171875,0.021820068359375,0.769500732421875,0.6271514892578125
1757088355615574000,5.554573974609375,0.0312652587890625,0.779876708984375,0.6143341064453125
1757088355625621000,5.56462109375,0.0294647216796875,0.7849273681640625,0.6129913330078125
1757088355635667200,5.574667236328125,0.0329742431640625,0.7877655029296875,0.599853515625
1757088355645713200,5.584713134765625,0.029052734375,0.7989959716796875,0.5933380126953125
1757088355655760100,5.594760009765625,0.0243988037109375,0.8054046630859375,0.5910491943359375
1757088355665806000,5.60480615234375,0.021759033203125,0.812103271484375,0.590484619140625
1757088355675853300,5.614853271484375,0.0193939208984375,0.815521240234375,0.5908355712890625
1757088355685899300,5.624899169921875,0.01751708984375,0.8133697509765625,0.589202880859375
1757088355695945200,5.6349453125,0.01641845703125,0.808380126953125,0.58984375
1757088355705992200,5.6449921875,0.0162200927734375,0.8037872314453125,0.5904693603515625
1757088355716038100,5.6550380859375,0.0148162841796875,0.7959747314453125,0.5958251953125
1757088355726085000,5.665085205078125,0.01385498046875,0.7906951904296875,0.5993499755859375
1757088355736131000,5.675131103515625,0.0110015869140625,0.78753662109375,0.6026611328125
1757088355746178000,5.685177978515625,0.0079803466796875,0.7837982177734375,0.608612060546875
1757088355756224300,5.695224365234375,0.0040435791015625,0.7826690673828125,0.612396240234375
1757088355766270200,5.705270263671875,0.004180908203125,0.784698486328125,0.6175079345703125
1757088355776317200,5.715317138671875,0.004852294921875,0.7866973876953125,0.6165313720703125
1757088355786363100,5.725363037109375,0.0081329345703125,0.7848358154296875,0.61395263671875
1757088355796410000,5.73541015625,0.0087432861328125,0.7874755859375,0.610809326171875
1757088355806456000,5.7454560546875,0.0079345703125,0.7906494140625,0.6101531982421875
1757088355816502000,5.755501953125,0.0078125,0.7943267822265625,0.6112823486328125
1757088355826549000,5.765549072265625,0.006866455078125,0.80157470703125,0.613433837890625
1757088355836595000,5.775594970703125,0.008514404296875,0.799957275390625,0.6080474853515625
1757088355846642200,5.78564208984375,0.0095062255859375,0.7968597412109375,0.6046142578125
1757088355856688400,5.7956884765625,0.00909423828125,0.7862548828125,0.5912322998046875
1757088355866734300,5.805734375,0.0030059814453125,0.7860260009765625,0.585723876953125
1757088355876781300,5.81578125,-0.0026092529296875,0.789703369140625,0.586273193359375
1757088355886827300,5.8258271484375,-0.0047607421875,0.788360595703125,0.5919952392578125
1757088355896874200,5.835874267578125,-0.0044097900390625,0.781036376953125,0.60198974609375
1757088355906920200,5.845920166015625,-0.0019378662109375,0.7833099365234375,0.6051483154296875
1757088355916966100,5.855966064453125,-0.0080718994140625,0.7869415283203125,0.6019744873046875
1757088355927013000,5.86601318359375,-0.0080413818359375,0.786407470703125,0.60748291015625
1757088355937059000,5.87605908203125,-0.0084991455078125,0.78466796875,0.614013671875
1757088355947106000,5.88610595703125,-0.0133209228515625,0.787841796875,0.622100830078125
1757088355957152300,5.89615234375,-0.0096893310546875,0.779083251953125,0.6231536865234375
1757088355967198200,5.9061982421875,-0.0102386474609375,0.765533447265625,0.618255615234375
1757088355977245200,5.9162451171875,-0.0104827880859375,0.75982666015625,0.6186676025390625
1757088355987291100,5.926291015625,-0.0096588134765625,0.7587432861328125,0.619232177734375
1757088355997338000,5.936338134765625,-0.00823974609375,0.762054443359375,0.622314453125
1757088356007384000,5.946384033203125,-0.0052490234375,0.76751708984375,0.6279449462890625
1757088356017431300,5.956431396484375,-0.004119873046875,0.7777862548828125,0.631500244140625
1757088356027477200,5.966477294921875,-0.0018310546875,0.78515625,0.6338348388671875
1757088356037523200,5.976523193359375,0.0011444091796875,0.7853240966796875,0.628875732421875
1757088356047570200,5.986570068359375,0.0016021728515625,0.7876129150390625,0.621002197265625
1757088356057616100,5.9966162109375,0.0028076171875,0.7882080078125,0.6132965087890625
1757088356067663000,6.0066630859375,0.0044403076171875,0.7912139892578125,0.6060638427734375
1757088356077709300,6.016709228515625,0.0074005126953125,0.7947998046875,0.6017913818359375
1757088356087755300,6.02675537109375,0.0040435791015625,0.8028717041015625,0.59747314453125
1757088356097802200,6.03680224609375,0.004791259765625,0.8099365234375,0.598052978515625
1757088356107848200,6.04684814453125,0.0040435791015625,0.8178558349609375,0.6006317138671875
1757088356117895200,6.056895263671875,0.00341796875,0.82708740234375,0.6015777587890625
1757088356127941000,6.066941162109375,0.0095977783203125,0.8284149169921875,0.6008758544921875
1757088356137987000,6.076987060546875,0.0132598876953125,0.8201751708984375,0.596923828125
1757088356148034000,6.087033935546875,0.009490966796875,0.809112548828125,0.59515380859375
1757088356158080000,6.097080078125,0.0088348388671875,0.7960357666015625,0.5982666015625
1757088356168127000,6.107126953125,0.0032806396484375,0.792510986328125,0.6033782958984375
1757088356178173200,6.117173095703125,0.0010986328125,0.78936767578125,0.6039276123046875
1757088356188219100,6.12721923828125,0.0010833740234375,0.7878875732421875,0.60162353515625
1757088356198266400,6.137266357421875,0.0002593994140625,0.78802490234375,0.598480224609375
1757088356208312000,6.14731201171875,-0.0044403076171875,0.7903900146484375,0.5950469970703125
1757088356218359300,6.157359375,-0.012420654296875,0.790985107421875,0.5926055908203125
1757088356228405200,6.1674052734375,-0.0155487060546875,0.7894287109375,0.59130859375
1757088356238451200,6.177451171875,-0.020965576171875,0.78948974609375,0.5933990478515625
1757088356248498200,6.187498291015625,-0.0298919677734375,0.7894287109375,0.5929107666015625
1757088356258544000,6.197544189453125,-0.032684326171875,0.7838897705078125,0.596405029296875
1757088356268591000,6.207591064453125,-0.037322998046875,0.7765960693359375,0.60137939453125
1757088356278637000,6.217636962890625,-0.0399169921875,0.767608642578125,0.6084136962890625
1757088356288683300,6.227683349609375,-0.0402679443359375,0.756622314453125,0.6195220947265625
1757088356298730500,6.23773046875,-0.036407470703125,0.753387451171875,0.63323974609375
1757088356308776400,6.2477763671875,-0.030059814453125,0.751007080078125,0.6444854736328125
1757088356318823400,6.257823486328125,-0.0188751220703125,0.7533416748046875,0.6524658203125
1757088356328869400,6.267869384765625,-0.00506591796875,0.755889892578125,0.6554107666015625
1757088356338915300,6.277915283203125,0.008026123046875,0.7628631591796875,0.6527557373046875
1757088356348962300,6.28796240234375,0.0179901123046875,0.7733154296875,0.6504974365234375
1757088356359008300,6.29800830078125,0.0272216796875,0.7820281982421875,0.6425323486328125
1757088356369055200,6.30805517578125,0.0368194580078125,0.7908782958984375,0.634429931640625
1757088356379101200,6.31810107421875,0.03955078125,0.798675537109375,0.624298095703125
1757088356389147400,6.3281474609375,0.0370635986328125,0.7972412109375,0.616912841796875
1757088356399194400,6.3381943359375,0.0284423828125,0.795989990234375,0.6153411865234375
1757088356409240300,6.348240234375,0.0264739990234375,0.7866363525390625,0.61328125
1757088356419287300,6.358287353515625,0.0140228271484375,0.7831878662109375,0.6166534423828125
1757088356429333200,6.368333251953125,0.000091552734375,0.7769775390625,0.617156982421875
1757088356439379200,6.378379150390625,-0.0067138671875,0.775238037109375,0.61871337890625
1757088356449426200,6.38842626953125,-0.0167236328125,0.775360107421875,0.618927001953125
1757088356459472100,6.39847216796875,-0.0209808349609375,0.7762603759765625,0.615264892578125
1757088356469519400,6.408519287109375,-0.015899658203125,0.7748565673828125,0.612274169921875
1757088356479565300,6.4185654296875,-0.01751708984375,0.7784271240234375,0.6080169677734375
1757088356489611300,6.428611328125,-0.0131683349609375,0.780059814453125,0.6037445068359375
1757088356499658200,6.438658203125,-0.0048675537109375,0.7825775146484375,0.601318359375
1757088356509704400,6.448704345703125,0.001220703125,0.7866058349609375,0.600311279296875
1757088356519751400,6.45875146484375,0.0032958984375,0.7926788330078125,0.5995635986328125
1757088356529797400,6.46879736328125,0.00836181640625,0.793975830078125,0.6013641357421875
1757088356539843300,6.47884326171875,0.004180908203125,0.7933807373046875,0.6027069091796875
1757088356549890300,6.488890380859375,-0.00213623046875,0.793212890625,0.6060943603515625
1757088356559936300,6.498936279296875,-0.001190185546875,0.7882843017578125,0.60797119140625
1757088356569983200,6.508983154296875,-0.0041046142578125,0.7869873046875,0.608612060546875
1757088356580029200,6.519029296875,-0.0028839111328125,0.7850341796875,0.6086273193359375
1757088356590075100,6.5290751953125,0.0009765625,0.7829437255859375,0.6098175048828125
1757088356600122000,6.5391220703125,0.0045318603515625,0.7836761474609375,0.6107635498046875
1757088356610168300,6.549168212890625,0.00775146484375,0.7824859619140625,0.610626220703125
1757088356620215300,6.55921533203125,0.0071563720703125,0.7836456298828125,0.6130218505859375
1757088356630261200,6.56926123046875,0.01171875,0.782470703125,0.6141815185546875
1757088356640307200,6.57930712890625,0.0118255615234375,0.7838897705078125,0.61639404296875
1757088356650354400,6.5893544921875,0.0030364990234375,0.7868804931640625,0.61883544921875
1757088356660400400,6.599400390625,0.003509521484375,0.7847747802734375,0.6186065673828125
1757088356670447400,6.609447265625,-0.000640869140625,0.7847900390625,0.6178741455078125
1757088356680493300,6.619493408203125,-0.001007080078125,0.7836761474609375,0.6168670654296875
1757088356690539300,6.629539306640625,-0.000335693359375,0.7847747802734375,0.6162567138671875
1757088356700586200,6.639586181640625,0.0003814697265625,0.7840118408203125,0.6144561767578125
1757088356710632400,6.649632568359375,-0.0036468505859375,0.786773681640625,0.610931396484375
1757088356720679200,6.65967919921875,0.004058837890625,0.7851409912109375,0.611358642578125
1757088356730725400,6.669725341796875,-0.0019073486328125,0.784423828125,0.6117401123046875
1757088356740771300,6.679771240234375,-0.0046539306640625,0.7830963134765625,0.61102294921875
1757088356750818300,6.689818359375,-0.003082275390625,0.7817230224609375,0.612274169921875
1757088356760864300,6.6998642578125,-0.00494384765625,0.7795562744140625,0.6146392822265625
1757088356770911200,6.7099111328125,-0.0032806396484375,0.7804107666015625,0.616943359375
1757088356780957200,6.719957275390625,-0.0047454833984375,0.782928466796875,0.6170806884765625
1757088356791003100,6.730003173828125,-0.003814697265625,0.7852783203125,0.6136016845703125
1757088356801050000,6.740050048828125,-0.00347900390625,0.7874755859375,0.609832763671875
1757088356811096000,6.750095947265625,-0.00384521484375,0.786712646484375,0.60552978515625
1757088356821143300,6.760143310546875,-0.0064697265625,0.7864227294921875,0.6015472412109375
1757088356831189500,6.770189453125,0.0004425048828125,0.781097412109375,0.6033477783203125
1757088356841235200,6.780235107421875,-0.0089874267578125,0.7827301025390625,0.6051483154296875
1757088356851282400,6.790282470703125,-0.0047607421875,0.7806396484375,0.6067352294921875
1757088356861328400,6.800328369140625,-0.006317138671875,0.7832183837890625,0.608978271484375
1757088356871375400,6.810375244140625,-0.0068206787109375,0.787322998046875,0.611663818359375
1757088356881421300,6.82042138671875,-0.00689697265625,0.7899322509765625,0.6115875244140625
1757088356891467300,6.83046728515625,-0.0052947998046875,0.7923736572265625,0.612762451171875
1757088356901514200,6.84051416015625,-0.003997802734375,0.7905731201171875,0.6142120361328125
1757088356911560200,6.850560302734375,-0.00360107421875,0.7922210693359375,0.6150665283203125
1757088356921607200,6.860607177734375,-0.0049591064453125,0.7933502197265625,0.614501953125
1757088356931653400,6.8706533203125,0.0078125,0.7855224609375,0.61419677734375
1757088356941699300,6.88069921875,0.0021820068359375,0.789794921875,0.61138916015625
1757088356951746300,6.890746337890625,0.0048675537109375,0.78955078125,0.609466552734375
1757088356961792300,6.900792236328125,0.0076751708984375,0.78802490234375,0.6107940673828125
1757088356971839200,6.910839111328125,0.004119873046875,0.787506103515625,0.6135406494140625
1757088356981885200,6.92088525390625,0.0046539306640625,0.78607177734375,0.6131439208984375
1757088356991931100,6.93093115234375,0.0010223388671875,0.7821197509765625,0.6147003173828125
1757088357001978000,6.94097802734375,-0.0024871826171875,0.7811279296875,0.6162567138671875
1757088357012024000,6.951024169921875,-0.0005035400390625,0.776641845703125,0.6152496337890625
1757088357022070300,6.9610703125,-0.002166748046875,0.7733612060546875,0.621124267578125
1757088357032117200,6.9711171875,-0.0118560791015625,0.774627685546875,0.6232147216796875
1757088357042163500,6.98116357421875,-0.0089874267578125,0.7748260498046875,0.623016357421875
1757088357052210400,6.99121044921875,-0.0123748779296875,0.7785797119140625,0.619354248046875
1757088357062256400,7.00125634765625,-0.0110931396484375,0.7836151123046875,0.6170501708984375
1757088357072302300,7.01130224609375,-0.0095062255859375,0.7903594970703125,0.609039306640625
1757088357082349300,7.021349365234375,-0.0067291259765625,0.7935028076171875,0.6050262451171875
1757088357092395300,7.031395263671875,-0.0109100341796875,0.795196533203125,0.60302734375
1757088357102442200,7.041442138671875,-0.0034637451171875,0.790252685546875,0.6003570556640625
1757088357112488200,7.05148828125,-0.0085296630859375,0.7924957275390625,0.6029205322265625
1757088357122534400,7.061534423828125,-0.0133209228515625,0.7907867431640625,0.6031951904296875
1757088357132581000,7.0715810546875,-0.010589599609375,0.7919158935546875,0.607421875
1757088357142627300,7.08162744140625,-0.0117034912109375,0.7912139892578125,0.610443115234375
1757088357152674300,7.09167431640625,-0.0092620849609375,0.7895050048828125,0.6089324951171875
1757088357162720300,7.10172021484375,-0.0080413818359375,0.7854766845703125,0.610321044921875
1757088357172766200,7.11176611328125,-0.005584716796875,0.7813720703125,0.6084136962890625
1757088357182813200,7.121813232421875,-0.0035552978515625,0.776336669921875,0.6095428466796875
1757088357192859100,7.131859130859375,-0.00189208984375,0.7756195068359375,0.6156005859375
1757088357202906400,7.14190625,-0.00286865234375,0.776123046875,0.62286376953125
1757088357212952300,7.151952392578125,0.0058135986328125,0.77178955078125,0.6305084228515625
1757088357222998300,7.161998291015625,-0.000518798828125,0.774566650390625,0.63134765625
1757088357233045200,7.172045166015625,0.0013885498046875,0.771636962890625,0.6301116943359375
1757088357243091500,7.182091552734375,0.0019989013671875,0.7742462158203125,0.6322021484375
1757088357253138200,7.19213818359375,0.0015869140625,0.7757415771484375,0.634307861328125
1757088357263185000,7.202184814453125,0.0016632080078125,0.7764434814453125,0.634063720703125
1757088357273230800,7.21223095703125,-0.001617431640625,0.77703857421875,0.631134033203125
1757088357283277800,7.22227783203125,-0.002593994140625,0.777679443359375,0.6265411376953125
1757088357293323800,7.23232373046875,-0.003387451171875,0.77923583984375,0.6221771240234375
1757088357303370800,7.242370849609375,-0.0062255859375,0.781982421875,0.61700439453125
1757088357313416700,7.252416748046875,-0.012451171875,0.784576416015625,0.6110687255859375
1757088357323462700,7.262462646484375,0.0018463134765625,0.78082275390625,0.605682373046875
1757088357333509600,7.272509521484375,-0.0046539306640625,0.7859039306640625,0.6007843017578125
1757088357343555600,7.2825556640625,-0.007781982421875,0.78729248046875,0.5972900390625
1757088357353602800,7.292602783203125,-0.0051422119140625,0.788330078125,0.5966949462890625
1757088357363648800,7.302648681640625,-0.0091552734375,0.7921142578125,0.5966949462890625
1757088357373695000,7.312695068359375,-0.0109100341796875,0.79254150390625,0.5966033935546875
1757088357383742000,7.322741943359375,-0.017486572265625,0.792572021484375,0.5980224609375
1757088357393788000,7.332787841796875,-0.013763427734375,0.787384033203125,0.6017913818359375
1757088357403835000,7.3428349609375,-0.0228271484375,0.789398193359375,0.606689453125
1757088357413880800,7.352880859375,-0.031158447265625,0.7893524169921875,0.6084136962890625
1757088357423926800,7.3629267578125,-0.03009033203125,0.7887420654296875,0.6104736328125
1757088357433973800,7.372973876953125,-0.033447265625,0.7902069091796875,0.609619140625
1757088357444019700,7.383019775390625,-0.03216552734375,0.7883758544921875,0.608062744140625
1757088357454066000,7.39306591796875,-0.0283050537109375,0.7871551513671875,0.6074371337890625
1757088357464112600,7.403112548828125,-0.0238494873046875,0.785797119140625,0.608642578125
1757088357474158800,7.413158935546875,-0.0105133056640625,0.784759521484375,0.607452392578125
1757088357484205800,7.423205810546875,-0.0004119873046875,0.784088134765625,0.6097564697265625
1757088357494251800,7.433251708984375,0.0142822265625,0.77935791015625,0.6114654541015625
1757088357504297700,7.443297607421875,0.0153045654296875,0.7817840576171875,0.61370849609375
1757088357514344700,7.4533447265625,0.022430419921875,0.7806854248046875,0.6175537109375
1757088357524390700,7.463390625,0.026123046875,0.7799072265625,0.62127685546875
1757088357534438000,7.47343798828125,0.02447509765625,0.7829132080078125,0.624176025390625
1757088357544483600,7.483483642578125,0.022705078125,0.7845916748046875,0.6269073486328125
1757088357554529800,7.49352978515625,0.0160369873046875,0.786895751953125,0.6255645751953125
1757088357564576800,7.50357666015625,0.0111846923828125,0.7883758544921875,0.621368408203125
1757088357574623000,7.513623046875,0.00177001953125,0.789703369140625,0.614593505859375
1757088357584670000,7.523669921875,-0.0005950927734375,0.7865142822265625,0.6092987060546875
1757088357594716000,7.5337158203125,0.005828857421875,0.7822723388671875,0.6092681884765625
1757088357604761900,7.543761962890625,-0.0131988525390625,0.7927398681640625,0.60888671875
1757088357614808800,7.553808837890625,-0.0062713623046875,0.7897491455078125,0.610382080078125
1757088357624854800,7.563854736328125,-0.0020751953125,0.792205810546875,0.6121978759765625
1757088357634901800,7.57390185546875,-0.00653076171875,0.7952728271484375,0.609344482421875
1757088357644947700,7.58394775390625,0.017852783203125,0.786285400390625,0.6073760986328125
1757088357654993700,7.59399365234375,0.00958251953125,0.79345703125,0.6071929931640625
1757088357665040600,7.60404052734375,0.00433349609375,0.7943267822265625,0.5992889404296875
1757088357675086800,7.6140869140625,0.00897216796875,0.7928009033203125,0.596343994140625
1757088357685133600,7.624133544921875,0.0018768310546875,0.7981414794921875,0.5925445556640625
1757088357695179800,7.6341796875,-0.004180908203125,0.804290771484375,0.5880279541015625
1757088357705225700,7.644225830078125,0.01263427734375,0.799468994140625,0.5879669189453125
1757088357715272700,7.654272705078125,0.0068206787109375,0.806304931640625,0.5888519287109375
1757088357725318700,7.664318603515625,0.0072021484375,0.8062744140625,0.5870208740234375
1757088357735366000,7.674365966796875,0.011749267578125,0.802825927734375,0.58990478515625
1757088357745411800,7.684411865234375,0.0110321044921875,0.7964324951171875,0.59539794921875
1757088357755457800,7.694457763671875,0.01116943359375,0.78997802734375,0.6011810302734375
1757088357765504800,7.7045048828125,0.0068359375,0.7850494384765625,0.608734130859375
1757088357775550700,7.71455078125,0.0000762939453125,0.7797698974609375,0.6160430908203125
1757088357785597000,7.724596923828125,-0.01434326171875,0.7787628173828125,0.618927001953125
1757088357795644000,7.734643798828125,-0.006805419921875,0.7725067138671875,0.6230926513671875
1757088357805689900,7.74468994140625,-0.0099334716796875,0.77496337890625,0.624176025390625
1757088357815736800,7.75473681640625,-0.0218353271484375,0.7795562744140625,0.6220703125
1757088357825782800,7.76478271484375,-0.0129241943359375,0.778717041015625,0.6182708740234375
1757088357835828700,7.774828857421875,-0.0147247314453125,0.7833099365234375,0.612945556640625
1757088357845875700,7.784875732421875,-0.0106353759765625,0.7821044921875,0.6097869873046875
1757088357855921700,7.794921630859375,-0.014007568359375,0.7868194580078125,0.608184814453125
1757088357865968600,7.80496875,0.004730224609375,0.7824859619140625,0.60699462890625
1757088357876014600,7.8150146484375,0.000518798828125,0.787200927734375,0.604766845703125
1757088357886060800,7.825060791015625,-0.00177001953125,0.78741455078125,0.6025238037109375
1757088357896107800,7.835107666015625,-0.001190185546875,0.787261962890625,0.6021575927734375
1757088357906153700,7.84515380859375,0.00067138671875,0.7867279052734375,0.602783203125
1757088357916201000,7.855200927734375,-0.0010833740234375,0.786346435546875,0.6072540283203125
1757088357926247000,7.865246826171875,-0.00640869140625,0.786376953125,0.610107421875
1757088357936292900,7.87529296875,-0.003631591796875,0.784210205078125,0.608673095703125
1757088357946339800,7.88533984375,0.004913330078125,0.78033447265625,0.6110992431640625
1757088357956385800,7.8953857421875,-0.0062255859375,0.78521728515625,0.6092529296875
1757088357966432800,7.905432861328125,-0.0072784423828125,0.78521728515625,0.6071624755859375
1757088357976478700,7.915478759765625,-0.0098724365234375,0.78765869140625,0.6082611083984375
1757088357986525000,7.92552490234375,-0.0100860595703125,0.7873077392578125,0.60809326171875
1757088357996572000,7.935572021484375,-0.00970458984375,0.7874298095703125,0.607208251953125
1757088358006617900,7.945617919921875,-0.011749267578125,0.7893524169921875,0.60992431640625
1757088358016664800,7.955664794921875,-0.006805419921875,0.790618896484375,0.611602783203125
1757088358026710800,7.965710693359375,0.0084991455078125,0.7869415283203125,0.6157073974609375
1757088358036756700,7.9757568359375,0.0029754638671875,0.789093017578125,0.6164703369140625
1757088358046803700,7.9858037109375,0.009033203125,0.7883758544921875,0.6177825927734375
1757088358056849700,7.995849609375,0.0091552734375,0.7898712158203125,0.617095947265625
1757088358066896600,8.005896728515625,0.0119171142578125,0.786285400390625,0.61566162109375
1757088358076942600,8.015942626953125,0.0099945068359375,0.7857666015625,0.6151885986328125
1757088358086988800,8.02598876953125,0.008148193359375,0.78619384765625,0.6128082275390625
1757088358097035800,8.036035888671876,0.0021820068359375,0.785797119140625,0.60943603515625
1757088358107082000,8.04608203125,-0.00439453125,0.783660888671875,0.603790283203125
1757088358117129000,8.05612890625,0.0066070556640625,0.7738494873046875,0.604522705078125
1757088358127175000,8.0661748046875,-0.0080413818359375,0.77679443359375,0.60894775390625
1757088358137220900,8.076220947265625,-0.0205230712890625,0.7790679931640625,0.61474609375
1757088358147267800,8.086267822265626,-0.0189361572265625,0.7813720703125,0.6230316162109375
1757088358157313800,8.096313720703124,-0.0197296142578125,0.782989501953125,0.6204681396484375
1757088358167360800,8.10636083984375,-0.0157318115234375,0.7784423828125,0.61322021484375
1757088358177406700,8.11640673828125,-0.0141448974609375,0.7801666259765625,0.6087799072265625
1757088358187452700,8.12645263671875,-0.0098724365234375,0.7837371826171875,0.60821533203125
1757088358197499600,8.136499755859376,0.0069580078125,0.781707763671875,0.6100006103515625
1757088358207545900,8.1465458984375,0.001220703125,0.7867431640625,0.610687255859375
1757088358217592800,8.1565927734375,-0.000396728515625,0.7917633056640625,0.6093597412109375
1757088358227638800,8.166638671875,0.0067901611328125,0.791351318359375,0.60870361328125
1757088358237684700,8.176684814453125,0.0099945068359375,0.7951202392578125,0.6083221435546875
1757088358247731700,8.186731689453126,0.014862060546875,0.79791259765625,0.6077880859375
1757088358257777700,8.196777587890624,0.0175628662109375,0.8002166748046875,0.607147216796875
1757088358267824600,8.20682470703125,0.021209716796875,0.8001251220703125,0.6043548583984375
1757088358277870600,8.21687060546875,0.01300048828125,0.8007659912109375,0.600921630859375
1757088358287916500,8.22691650390625,0.0077362060546875,0.7957611083984375,0.60198974609375
1757088358297963500,8.236963623046876,0.014007568359375,0.789215087890625,0.6054840087890625
1757088358308009700,8.247009765625,-0.0048980712890625,0.790557861328125,0.6053619384765625
1757088358318056700,8.257056640625,-0.0157470703125,0.78594970703125,0.6064453125
1757088358328102700,8.2671025390625,-0.015869140625,0.7808990478515625,0.6081390380859375
1757088358338148600,8.277148681640625,-0.0184173583984375,0.78033447265625,0.6091461181640625
1757088358348195800,8.28719580078125,-0.0181884765625,0.7800750732421875,0.6100616455078125
1757088358358241800,8.29724169921875,-0.01495361328125,0.78277587890625,0.61077880859375
1757088358368288800,8.307288818359375,-0.0124664306640625,0.7838287353515625,0.609832763671875
1757088358378334700,8.317334716796875,-0.0115509033203125,0.7856597900390625,0.608734130859375
1757088358388380700,8.327380615234375,-0.0198974609375,0.7889556884765625,0.6096343994140625
1757088358398427600,8.337427734375,-0.0111236572265625,0.7858734130859375,0.60955810546875
1757088358408473900,8.347473876953124,-0.00146484375,0.7834014892578125,0.61126708984375
1757088358418519800,8.357519775390625,-0.011962890625,0.789703369140625,0.6074066162109375
1757088358428566800,8.36756689453125,-0.0104522705078125,0.7904510498046875,0.604095458984375
1757088358438612700,8.37761279296875,-0.0048828125,0.7911529541015625,0.6023101806640625
1757088358448659700,8.38765966796875,-0.0086517333984375,0.794525146484375,0.6026458740234375
1757088358458705700,8.39770556640625,-0.0038299560546875,0.7963409423828125,0.6019134521484375
1757088358468751600,8.407751708984375,0.0121307373046875,0.795440673828125,0.6056365966796875
1757088358478798600,8.417798583984375,0.00933837890625,0.8025970458984375,0.6079559326171875
1757088358488844500,8.427844482421875,0.0076446533203125,0.8107147216796875,0.6044158935546875
1757088358498891500,8.4378916015625,0.016693115234375,0.812255859375,0.600738525390625
1757088358508937500,8.4479375,0.015289306640625,0.8089752197265625,0.601287841796875
1757088358518983700,8.457983642578125,0.0007781982421875,0.810394287109375,0.604888916015625
1757088358529031000,8.468031005859375,0.0067291259765625,0.79888916015625,0.604339599609375
1757088358539076900,8.478076904296875,-0.0054473876953125,0.7957305908203125,0.6007843017578125
1757088358549123800,8.488123779296876,-0.0159759521484375,0.79290771484375,0.592620849609375
1757088358559169800,8.498169677734374,-0.013092041015625,0.7840728759765625,0.592498779296875
1757088358569215700,8.5082158203125,-0.0091705322265625,0.782135009765625,0.5984649658203125
1757088358579262700,8.5182626953125,-0.0154571533203125,0.779998779296875,0.60150146484375
1757088358589308700,8.52830859375,-0.0165863037109375,0.78033447265625,0.6034088134765625
1757088358599355600,8.538355712890626,-0.019805908203125,0.77984619140625,0.60791015625
1757088358609401600,8.548401611328124,-0.022308349609375,0.778564453125,0.6094970703125
1757088358619447800,8.55844775390625,-0.0214080810546875,0.7769012451171875,0.6078338623046875
1757088358629494800,8.568494873046875,-0.0156402587890625,0.7777252197265625,0.6029052734375
1757088358639540700,8.578540771484375,-0.0124053955078125,0.7802581787109375,0.5976715087890625
1757088358649586700,8.588586669921876,-0.013092041015625,0.781280517578125,0.5952301025390625
1757088358659633700,8.598633544921874,-0.011322021484375,0.78045654296875,0.5930023193359375
1757088358669679600,8.6086796875,-0.009124755859375,0.7780303955078125,0.591766357421875
1757088358679726600,8.6187265625,-0.0114593505859375,0.780975341796875,0.5941619873046875
1757088358689772500,8.6287724609375,-0.0076446533203125,0.782012939453125,0.601165771484375
1757088358699818500,8.638818603515626,-0.0088043212890625,0.7863616943359375,0.6072845458984375
1757088358709865700,8.64886572265625,-0.0052032470703125,0.7838134765625,0.6122894287109375
1757088358719911700,8.65891162109375,-0.0042266845703125,0.782501220703125,0.6165924072265625
1757088358729958700,8.668958740234375,-0.0012359619140625,0.7801361083984375,0.6182861328125
1757088358740004900,8.6790048828125,0.0015716552734375,0.77783203125,0.6218109130859375
1757088358750050800,8.68905078125,0.0065765380859375,0.7733001708984375,0.6240081787109375
1757088358760097800,8.699097900390624,0.0045928955078125,0.7722320556640625,0.630401611328125
1757088358770143700,8.709143798828125,0.0002288818359375,0.7784271240234375,0.6332244873046875
1757088358780190700,8.719190673828125,0.0114898681640625,0.7752685546875,0.6395263671875
1757088358790236700,8.729236572265625,0.00616455078125,0.77618408203125,0.644195556640625
1757088358800282600,8.73928271484375,-0.00164794921875,0.7759552001953125,0.646392822265625
1757088358810329600,8.74932958984375,-0.0109100341796875,0.7732086181640625,0.646148681640625
1757088358820375800,8.759375732421875,-0.015167236328125,0.7629241943359375,0.6447601318359375
1757088358830422500,8.769422607421875,-0.03216552734375,0.7599334716796875,0.64190673828125
1757088358840468700,8.77946875,-0.04833984375,0.7598724365234375,0.6331024169921875
1757088358850514700,8.7895146484375,-0.0585784912109375,0.7553253173828125,0.623779296875
1757088358860561700,8.799561767578124,-0.062835693359375,0.7479400634765625,0.6104736328125
1757088358870607600,8.809607666015625,-0.0764007568359375,0.7483367919921875,0.6071624755859375
1757088358880653600,8.819653564453125,-0.0607147216796875,0.744049072265625,0.6129302978515625
1757088358890700500,8.829700439453125,-0.05462646484375,0.75164794921875,0.621673583984375
1757088358900746500,8.83974658203125,-0.0630035400390625,0.7626953125,0.6309356689453125
1757088358910793700,8.849793701171874,-0.0680084228515625,0.76776123046875,0.6364898681640625
1757088358920839700,8.859839599609375,-0.0555572509765625,0.765899658203125,0.6408843994140625
1757088358930886000,8.869885986328125,-0.052764892578125,0.7699127197265625,0.6478424072265625
1757088358940932900,8.879932861328125,-0.0670013427734375,0.7802734375,0.6519927978515625
1757088358950978800,8.889978759765626,-0.0741729736328125,0.7877044677734375,0.65380859375
1757088358961025800,8.90002587890625,-0.076690673828125,0.794219970703125,0.6517791748046875
1757088358971071700,8.91007177734375,-0.082427978515625,0.7979736328125,0.6423797607421875
1757088358981117700,8.92011767578125,-0.0764007568359375,0.8030548095703125,0.6261444091796875
1757088358991164700,8.93016455078125,-0.0471343994140625,0.7947235107421875,0.60400390625
1757088359001210600,8.940210693359376,-0.0128173828125,0.7853546142578125,0.5875396728515625
1757088359011257600,8.950257568359374,0.0213775634765625,0.7806243896484375,0.5868682861328125
1757088359021303600,8.960303466796875,0.05975341796875,0.7771148681640625,0.6039886474609375
1757088359031349800,8.970349853515625,0.0921783447265625,0.78521728515625,0.6350555419921875
1757088359041396700,8.980396728515625,0.1153106689453125,0.7916717529296875,0.6693267822265625
1757088359051442700,8.990442626953126,0.1202545166015625,0.785552978515625,0.6925811767578125
1757088359061488600,9.000488525390624,0.094329833984375,0.76885986328125,0.7238922119140625
1757088359071535600,9.01053564453125,0.058380126953125,0.740997314453125,0.7509002685546875
1757088359081581600,9.02058154296875,0.031402587890625,0.7256011962890625,0.75537109375
1757088359091628800,9.03062890625,-0.011505126953125,0.7276458740234375,0.7657928466796875
1757088359101674800,9.0406748046875,-0.043792724609375,0.718902587890625,0.7601318359375
1757088359111720700,9.050720703125,-0.045013427734375,0.70477294921875,0.72882080078125
1757088359121767700,9.060767578125,-0.0525970458984375,0.7044677734375,0.703460693359375
1757088359131814000,9.07081396484375,-0.05987548828125,0.7140350341796875,0.6744842529296875
1757088359141860600,9.080860595703125,-0.075775146484375,0.725799560546875,0.6468963623046875
1757088359151906800,9.09090673828125,-0.0981903076171875,0.7344512939453125,0.6351318359375
1757088359161952800,9.100952880859374,-0.1063385009765625,0.7313385009765625,0.619873046875
1757088359171999700,9.110999755859375,-0.10919189453125,0.7236175537109375,0.6213226318359375
1757088359182045700,9.121045654296875,-0.0974578857421875,0.722900390625,0.60955810546875
1757088359192092700,9.1310927734375,-0.09295654296875,0.7193756103515625,0.6164703369140625
1757088359202138600,9.141138671875,-0.061126708984375,0.712890625,0.6455535888671875
1757088359212184600,9.1511845703125,-0.0042572021484375,0.7039947509765625,0.6695556640625
1757088359222231600,9.1612314453125,0.048614501953125,0.694793701171875,0.686492919921875
1757088359232277500,9.171277587890625,0.0958404541015625,0.7015838623046875,0.7130126953125
1757088359242324500,9.181324462890625,0.1083984375,0.71044921875,0.730377197265625
1757088359252370700,9.19137060546875,0.1006317138671875,0.712738037109375,0.729461669921875
1757088359262416400,9.20141650390625,0.069610595703125,0.7193603515625,0.7213287353515625
1757088359272463600,9.211463623046875,0.0385894775390625,0.720794677734375,0.69970703125
1757088359282509300,9.22150927734375,0.0339508056640625,0.713592529296875,0.6687164306640625
1757088359292555300,9.23155517578125,0.030853271484375,0.6989288330078125,0.669281005859375
1757088359302602500,9.2416025390625,0.02923583984375,0.685821533203125,0.67376708984375
1757088359312648400,9.2516484375,0.0186920166015625,0.6855316162109375,0.683135986328125
1757088359322695400,9.2616953125,0.0229339599609375,0.6686248779296875,0.678375244140625
1757088359332741400,9.271741455078125,0.0097198486328125,0.6739959716796875,0.68853759765625
1757088359342787600,9.28178759765625,0.010498046875,0.6725311279296875,0.6873016357421875
1757088359352834600,9.29183447265625,0.0217132568359375,0.6675567626953125,0.6863250732421875
1757088359362880500,9.301880615234374,0.0323333740234375,0.6688385009765625,0.68914794921875
1757088359372927500,9.311927490234375,0.0347442626953125,0.6705780029296875,0.6953125
1757088359382973400,9.321973388671875,0.025543212890625,0.6733551025390625,0.6959991455078125
1757088359393019400,9.332019287109375,0.0169830322265625,0.6693878173828125,0.68487548828125
1757088359403066400,9.34206640625,0.010406494140625,0.6690826416015625,0.6741943359375
1757088359413112300,9.3521123046875,0.008575439453125,0.67413330078125,0.6635284423828125
1757088359423158500,9.362158447265625,-0.0048980712890625,0.684722900390625,0.66552734375
1757088359433205200,9.372205322265625,0.001617431640625,0.6881103515625,0.66900634765625
1757088359443251500,9.38225146484375,0.016845703125,0.691009521484375,0.6718902587890625
1757088359453298400,9.39229833984375,0.0286865234375,0.6903533935546875,0.6816864013671875
1757088359463344400,9.402344482421874,0.0327911376953125,0.693634033203125,0.6978759765625
1757088359473390300,9.412390380859375,0.0348358154296875,0.7014923095703125,0.7136383056640625
1757088359483437600,9.4224375,0.0356292724609375,0.7065582275390625,0.7252044677734375
1757088359493483500,9.4324833984375,0.043121337890625,0.697845458984375,0.7265167236328125
1757088359503530500,9.442530517578126,0.045501708984375,0.6850128173828125,0.7293243408203125
1757088359513576400,9.452576416015624,0.03900146484375,0.6853790283203125,0.728973388671875
1757088359523622400,9.462622314453125,0.0313720703125,0.6901397705078125,0.7277679443359375
1757088359533669400,9.47266943359375,0.0193328857421875,0.6910400390625,0.7313079833984375
1757088359543715600,9.482715576171875,0.0191497802734375,0.694244384765625,0.73406982421875
1757088359553762600,9.492762451171876,0.0213775634765625,0.706451416015625,0.7371978759765625
1757088359563808500,9.50280859375,0.0005035400390625,0.7286834716796875,0.760040283203125
1757088359573854500,9.5128544921875,-0.0568695068359375,0.7533416748046875,0.8085784912109375
1757088359583901400,9.5229013671875,-0.1463623046875,0.75958251953125,0.8529205322265625
1757088359593947400,9.532947509765625,-0.229156494140625,0.7388458251953125,0.8582611083984375
1757088359603993300,9.542993408203126,-0.258331298828125,0.7268218994140625,0.812896728515625
1757088359614040300,9.553040283203124,-0.21820068359375,0.7631378173828125,0.7158660888671875
1757088359624086300,9.563086181640625,-0.13189697265625,0.8482513427734375,0.64678955078125
1757088359634133200,9.57313330078125,-0.0284423828125,0.9453887939453125,0.650390625
1757088359644179500,9.583179443359375,0.0585174560546875,1.0311737060546875,0.6966400146484375
1757088359654225400,9.593225341796876,0.0969390869140625,1.0908355712890625,0.7643890380859375
1757088359664272600,9.603272705078124,0.0683135986328125,1.1004486083984375,0.8342437744140625
1757088359674318600,9.613318603515625,-0.0169219970703125,1.0455169677734375,0.8916778564453125
1757088359684365600,9.623365478515625,-0.0875091552734375,0.9737701416015625,0.918212890625
1757088359694411500,9.63341162109375,-0.1106719970703125,0.949188232421875,0.9257965087890625
1757088359704457500,9.64345751953125,-0.130828857421875,0.9793701171875,0.944976806640625
1757088359714504400,9.65350439453125,-0.1417388916015625,1.027801513671875,0.9546661376953125
1757088359724550400,9.66355029296875,-0.1276702880859375,1.0712432861328125,0.93975830078125
1757088359734597400,9.673597412109375,-0.097015380859375,1.0907745361328125,0.8978729248046875
1757088359744643300,9.683643310546875,-0.0408477783203125,1.089324951171875,0.8462982177734375
1757088359754689500,9.693689453125,0.0421295166015625,1.0740203857421875,0.8160400390625
1757088359764736500,9.703736572265624,0.1399688720703125,1.060211181640625,0.805511474609375
1757088359774782500,9.713782470703125,0.2205352783203125,1.0280609130859375,0.7921905517578125
1757088359784828400,9.723828369140625,0.28057861328125,0.9706878662109375,0.7703094482421875
1757088359794875400,9.73387548828125,0.326995849609375,0.9102783203125,0.772247314453125
1757088359804921300,9.74392138671875,0.3598175048828125,0.859100341796875,0.7943572998046875
1757088359814968300,9.75396826171875,0.382568359375,0.807403564453125,0.82525634765625
1757088359825014300,9.76401416015625,0.3720855712890625,0.781982421875,0.8654937744140625
1757088359835060500,9.774060546875,0.3450775146484375,0.7940673828125,0.8876190185546875
1757088359845107500,9.784107421875,0.2992706298828125,0.80023193359375,0.8851165771484375
1757088359855153700,9.794153564453126,0.2547454833984375,0.792633056640625,0.867034912109375
1757088359865200600,9.80420068359375,0.177001953125,0.7922210693359375,0.85772705078125
1757088359875246600,9.81424658203125,0.09051513671875,0.817138671875,0.812896728515625
1757088359885292500,9.82429248046875,0.008026123046875,0.8582305908203125,0.7736053466796875
1757088359895339500,9.834339599609375,-0.0254364013671875,0.8626861572265625,0.7238311767578125
1757088359905385500,9.844385498046876,-0.106842041015625,0.8787841796875,0.6648712158203125
1757088359915431400,9.854431396484374,-0.1339111328125,0.8876953125,0.59576416015625
1757088359925478400,9.864478515625,-0.099822998046875,0.8758697509765625,0.5530242919921875
1757088359935524400,9.8745244140625,-0.02484130859375,0.854248046875,0.554046630859375
1757088359945571300,9.8845712890625,0.0880126953125,0.8255767822265625,0.6095123291015625
1757088359955617500,9.894617431640626,0.152557373046875,0.761260986328125,0.6459503173828125
1757088359965663500,9.90466357421875,0.18048095703125,0.7016143798828125,0.6522979736328125
1757088359975710500,9.91471044921875,0.1967315673828125,0.7242279052734375,0.6426239013671875
1757088359985756400,9.92475634765625,0.179962158203125,0.75238037109375,0.6629791259765625
1757088359995803400,9.934803466796875,0.1271514892578125,0.7667694091796875,0.66497802734375
1757088360005849300,9.944849365234376,0.1024627685546875,0.7767181396484375,0.690460205078125
1757088360015895300,9.954895263671874,0.122894287109375,0.76776123046875,0.711090087890625
1757088360025942300,9.9649423828125,0.1495819091796875,0.7724761962890625,0.7266387939453125
1757088360035988200,9.97498828125,0.1934661865234375,0.7911834716796875,0.768096923828125
1757088360046034400,9.985034423828125,0.1922760009765625,0.8159942626953125,0.8072967529296875
1757088360056081400,9.995081298828126,0.1795806884765625,0.8524169921875,0.772735595703125
1757088360066127600,10.005127685546874,0.1950225830078125,0.8697662353515625,0.7408599853515625
1757088360076174600,10.015174560546875,0.257537841796875,0.86090087890625,0.67657470703125
1757088360086220500,10.025220458984375,0.3217620849609375,0.805419921875,0.6029205322265625
1757088360096266500,10.0352666015625,0.3394012451171875,0.7781219482421875,0.596435546875
1757088360106313500,10.0453134765625,0.3109588623046875,0.751739501953125,0.5840606689453125
1757088360116359400,10.055359375,0.30694580078125,0.697265625,0.5545654296875
1757088360126406400,10.065406494140625,0.3224029541015625,0.6297760009765625,0.537200927734375
1757088360136452400,10.075452392578125,0.3271484375,0.54034423828125,0.5187835693359375
1757088360146498600,10.08549853515625,0.3896331787109375,0.449981689453125,0.4798583984375
1757088360156545300,10.095545166015626,0.4252166748046875,0.4139251708984375,0.4503936767578125
1757088360166591500,10.105591552734374,0.411590576171875,0.40380859375,0.4449615478515625
1757088360176637400,10.115637451171875,0.401031494140625,0.4066925048828125,0.4548492431640625
1757088360186684400,10.125684326171875,0.39617919921875,0.398956298828125,0.4537200927734375
1757088360196730400,10.13573046875,0.3859405517578125,0.38958740234375,0.4440765380859375
1757088360206777300,10.14577734375,0.3687286376953125,0.3597564697265625,0.39794921875
1757088360216823300,10.1558232421875,0.391815185546875,0.311431884765625,0.346160888671875
1757088360226869200,10.165869140625,0.39031982421875,0.2652587890625,0.2671966552734375
1757088360236916500,10.17591650390625,0.418731689453125,0.2092437744140625,0.183135986328125
1757088360246962400,10.18596240234375,0.4428558349609375,0.1597900390625,0.1162567138671875
1757088360257009400,10.196009521484376,0.442718505859375,0.1192626953125,0.0510101318359375
1757088360267055600,10.2060556640625,0.441009521484375,0.0959930419921875,-0.0047454833984375
1757088360277101600,10.2161015625,0.4402923583984375,0.11322021484375,-0.0122833251953125
1757088360287148500,10.2261484375,0.4550018310546875,0.1513519287109375,0.0071563720703125
1757088360297194500,10.236194580078125,0.4686737060546875,0.1765289306640625,0.039642333984375
1757088360307240400,10.246240478515626,0.4906158447265625,0.1929779052734375,0.074798583984375
1757088360317287400,10.256287353515624,0.521026611328125,0.197509765625,0.1087799072265625
1757088360327333400,10.26633349609375,0.561859130859375,0.1772003173828125,0.150390625
1757088360337380400,10.27638037109375,0.6097869873046875,0.152801513671875,0.18719482421875
1757088360347426300,10.28642626953125,0.650054931640625,0.146270751953125,0.2118988037109375
1757088360357472500,10.296472412109376,0.6705169677734375,0.1543731689453125,0.230072021484375
1757088360367519500,10.30651953125,0.6922454833984375,0.17181396484375,0.25286865234375
1757088360377565400,10.3165654296875,0.7138519287109375,0.1906890869140625,0.2890777587890625
1757088360387612400,10.3266123046875,0.7227630615234375,0.21514892578125,0.3542022705078125
1757088360397658400,10.336658447265625,0.7248382568359375,0.2311859130859375,0.425262451171875
1757088360407704300,10.346704345703126,0.699127197265625,0.2354888916015625,0.468231201171875
1757088360417751600,10.35675146484375,0.6657257080078125,0.2312774658203125,0.4757232666015625
1757088360427797500,10.366797607421875,0.72015380859375,0.219268798828125,0.4860076904296875
1757088360437843500,10.376843505859375,0.9188995361328125,0.2186126708984375,0.5746917724609375
1757088360447890400,10.386890380859375,1.2137451171875,0.3116302490234375,0.7959747314453125
1757088360457936600,10.3969365234375,1.3331298828125,0.625701904296875,1.0434112548828125
1757088360467983400,10.4069833984375,1.514495849609375,1.04901123046875,1.292205810546875
1757088360478029600,10.417029541015625,1.515625,1.4083251953125,1.60882568359375
1757088360488075500,10.427075439453125,0.7189788818359375,1.5534210205078125,1.71673583984375
1757088360498122500,10.43712255859375,0.0615386962890625,1.2375640869140625,1.4016571044921875
1757088360508168400,10.44716845703125,0.2252349853515625,0.7517242431640625,0.796630859375
1757088360518214400,10.45721435546875,0.40655517578125,0.3636016845703125,0.40325927734375
1757088360528261400,10.467261474609375,0.5900115966796875,0.17938232421875,0.2534637451171875
1757088360538307300,10.477307373046875,0.6341400146484375,0.179962158203125,0.1757965087890625
1757088360548354300,10.487354248046875,0.388824462890625,0.3279266357421875,0.168609619140625
1757088360558400500,10.497400390625,0.2012481689453125,0.502532958984375,0.211456298828125
1757088360568446500,10.507446533203124,0.2310943603515625,0.66204833984375,0.252655029296875
1757088360578493400,10.517493408203125,0.401275634765625,0.8047027587890625,0.32843017578125
1757088360588539400,10.527539306640625,0.5442047119140625,0.9964447021484375,0.445281982421875
1757088360598586600,10.537586669921875,0.549957275390625,1.1903076171875,0.5614471435546875
1757088360608632300,10.54763232421875,0.473236083984375,1.27386474609375,0.6578369140625
1757088360618678300,10.55767822265625,0.3733978271484375,1.1401519775390625,0.7110443115234375
1757088360628725500,10.5677255859375,0.2966461181640625,0.9255828857421875,0.72454833984375
1757088360638771500,10.577771484375,0.2662200927734375,0.7510223388671875,0.6913299560546875
1757088360648817700,10.587817626953125,0.2722320556640625,0.64300537109375,0.6512603759765625
1757088360658864400,10.597864501953126,0.2549285888671875,0.574493408203125,0.61224365234375
1757088360668910600,10.60791064453125,0.236083984375,0.572998046875,0.570831298828125
1757088360678957600,10.61795751953125,0.2053680419921875,0.5996856689453125,0.566436767578125
1757088360689003500,10.62800341796875,0.138641357421875,0.643402099609375,0.554595947265625
1757088360699049500,10.638049560546875,0.1169586181640625,0.678314208984375,0.5590057373046875
1757088360709096400,10.648096435546876,0.0811614990234375,0.7133026123046875,0.5891876220703125
1757088360719142400,10.658142333984374,0.0775299072265625,0.74273681640625,0.64947509765625
1757088360729189400,10.668189453125,0.1024169921875,0.7429656982421875,0.7122802734375
1757088360739235300,10.6782353515625,0.18829345703125,0.7273406982421875,0.739410400390625
1757088360749281300,10.68828125,0.2855987548828125,0.665740966796875,0.7330474853515625
1757088360759328300,10.698328369140626,0.2579345703125,0.648681640625,0.7327728271484375
1757088360769374500,10.70837451171875,0.2182159423828125,0.6522216796875,0.698211669921875
1757088360779420400,10.71842041015625,0.1427154541015625,0.6597747802734375,0.67633056640625
1757088360789467400,10.72846728515625,0.148406982421875,0.624603271484375,0.6782379150390625
1757088360799513300,10.738513427734375,0.149810791015625,0.5714569091796875,0.655975341796875
1757088360809560600,10.748560546875,0.1536102294921875,0.5523681640625,0.6273193359375
1757088360819606500,10.7586064453125,0.165618896484375,0.5440826416015625,0.597900390625
1757088360829652500,10.768652587890625,0.1762237548828125,0.534332275390625,0.57000732421875
1757088360839699500,10.778699462890625,0.207611083984375,0.5211181640625,0.5547027587890625
1757088360849745400,10.788745361328125,0.225616455078125,0.4825592041015625,0.57763671875
1757088360859791600,10.79879150390625,0.19989013671875,0.48040771484375,0.631378173828125
1757088360869838600,10.808838623046874,0.150787353515625,0.5902252197265625,0.6570587158203125
1757088360879884500,10.818884521484375,0.100494384765625,0.7374725341796875,0.6932525634765625
1757088360889931500,10.828931640625,0.0798187255859375,0.862060546875,0.72430419921875
1757088360899977500,10.8389775390625,0.163055419921875,0.9637908935546875,0.6646728515625
1757088360910023400,10.8490234375,0.275299072265625,0.9265899658203125,0.58758544921875
1757088360920070400,10.8590703125,0.3231201171875,0.8015289306640625,0.494537353515625
1757088360930116400,10.869116455078125,0.29571533203125,0.74945068359375,0.46746826171875
1757088360940163300,10.879163330078125,0.326568603515625,0.7190704345703125,0.509552001953125
1757088360950209300,10.889209228515625,0.334808349609375,0.65728759765625,0.5375823974609375
1757088360960255500,10.89925537109375,0.31689453125,0.6561737060546875,0.609893798828125
1757088360970302500,10.909302490234374,0.288726806640625,0.69842529296875,0.6732025146484375
1757088360980348400,10.919348388671875,0.2389068603515625,0.7338104248046875,0.744293212890625
1757088360990394400,10.929394287109375,0.198822021484375,0.7260284423828125,0.767547607421875
1757088361000441600,10.939441650390625,0.11016845703125,0.6911163330078125,0.7447052001953125
1757088361010487600,10.949487548828126,0.0178375244140625,0.6664276123046875,0.7215118408203125
1757088361020534500,10.959534423828124,-0.045501708984375,0.64422607421875,0.671722412109375
1757088361030580500,10.96958056640625,-0.0738525390625,0.6408233642578125,0.62054443359375
1757088361040626400,10.97962646484375,-0.0720672607421875,0.6685638427734375,0.61669921875
1757088361050673400,10.98967333984375,-0.0472869873046875,0.7134246826171875,0.65625
1757088361060719600,10.9997197265625,-0.004913330078125,0.7698516845703125,0.68768310546875
1757088361070765600,11.009765625,0.0210418701171875,0.826507568359375,0.69061279296875
1757088361080812500,11.0198125,0.0268707275390625,0.8700408935546875,0.6763458251953125
1757088361090858500,11.0298583984375,0.0353851318359375,0.9290313720703125,0.666107177734375
1757088361100905500,11.039905517578125,0.023193359375,1.007476806640625,0.6611328125
1757088361110951400,11.049951416015626,-0.00518798828125,1.1075897216796875,0.6582183837890625
1757088361120997400,11.059997314453126,-0.01202392578125,1.22235107421875,0.6615753173828125
1757088361131044400,11.07004443359375,0.002960205078125,1.31475830078125,0.6672821044921875
1757088361141090300,11.08009033203125,-0.024810791015625,1.3476409912109375,0.696502685546875
1757088361151137300,11.09013720703125,-0.12811279296875,1.3042755126953125,0.777740478515625
1757088361161183200,11.100183349609376,-0.260589599609375,1.2304229736328125,0.875885009765625
1757088361171229400,11.1102294921875,-0.3029022216796875,1.17779541015625,0.8804779052734375
1757088361181276700,11.120276611328125,-0.20159912109375,1.18084716796875,0.893280029296875
1757088361191322400,11.130322265625,-0.03350830078125,1.217987060546875,0.881134033203125
1757088361201368300,11.140368408203125,0.1353607177734375,1.2078399658203125,0.796783447265625
1757088361211415600,11.15041552734375,0.2881011962890625,1.1519927978515625,0.722320556640625
1757088361221461500,11.16046142578125,0.4085540771484375,1.123626708984375,0.71807861328125
1757088361231508500,11.170508544921875,0.5392608642578125,1.092529296875,0.7613525390625
1757088361241554400,11.180554443359375,0.6855926513671875,1.036407470703125,0.80230712890625
1757088361251600400,11.190600341796875,0.7966156005859375,0.9632568359375,0.902374267578125
1757088361261648000,11.20064794921875,0.8610687255859375,0.93048095703125,1.0352935791015625
1757088361271693800,11.21069384765625,0.8878021240234375,0.9629974365234375,1.1322021484375
1757088361281740000,11.220739990234375,0.77862548828125,0.9696502685546875,1.21832275390625
1757088361291787000,11.230787109375,0.7693023681640625,0.954833984375,1.2027435302734375
1757088361301833000,11.2408330078125,0.5109710693359375,1.00946044921875,1.088165283203125
1757088361311880000,11.2508798828125,0.3624725341796875,1.0323028564453125,0.8648223876953125
1757088361321926000,11.26092578125,0.1340789794921875,1.119384765625,0.680755615234375
1757088361331971800,11.270971923828125,-0.3018035888671875,1.253509521484375,0.6224212646484375
1757088361342018800,11.281018798828125,-0.562744140625,1.298248291015625,0.49969482421875
1757088361352064800,11.291064697265625,-0.611968994140625,1.289520263671875,0.51800537109375
1757088361362111700,11.30111181640625,-0.3927459716796875,1.1744537353515625,0.512969970703125
1757088361372157700,11.31115771484375,-0.2921600341796875,1.081634521484375,0.5135650634765625
1757088361382204000,11.321203857421875,-0.03790283203125,1.059478759765625,0.6586456298828125
1757088361392251100,11.331251220703125,0.2187652587890625,1.0360260009765625,0.6634979248046875
1757088361402297000,11.341297119140625,0.3994293212890625,0.9490203857421875,0.723052978515625
1757088361412342800,11.3513427734375,0.632293701171875,0.80206298828125,0.8872833251953125
1757088361422390000,11.36139013671875,0.5295562744140625,0.74896240234375,0.99713134765625
1757088361432436000,11.37143603515625,0.2696533203125,0.7630615234375,0.958953857421875
1757088361442483000,11.38148291015625,0.0557861328125,0.7916259765625,0.7659454345703125
1757088361452529000,11.39152880859375,-0.0133056640625,0.8045806884765625,0.6360321044921875
1757088361462574800,11.401574951171876,-0.0139617919921875,0.7615966796875,0.5631103515625
1757088361472621800,11.411621826171874,-0.0326995849609375,0.6946563720703125,0.5155181884765625
1757088361482668000,11.42166796875,-0.028289794921875,0.5811767578125,0.523406982421875
1757088361492714000,11.4317138671875,0.052398681640625,0.477691650390625,0.4672088623046875
1757088361502761000,11.441760986328125,0.0928497314453125,0.3533172607421875,0.3897247314453125
1757088361512807000,11.451806884765626,0.161346435546875,0.255279541015625,0.2816619873046875
1757088361522854000,11.46185400390625,0.185760498046875,0.2167510986328125,0.1716461181640625
1757088361532899800,11.47189990234375,0.193878173828125,0.162750244140625,0.0920867919921875
1757088361542945800,11.48194580078125,0.2018585205078125,0.115478515625,0.044036865234375
1757088361552992800,11.49199267578125,0.1846466064453125,0.0925140380859375,0.0168609619140625
1757088361563038700,11.502038818359376,0.186798095703125,0.078125,0.0008392333984375
1757088361573085000,11.5120849609375,0.2272491455078125,0.0555419921875,-0.0323486328125
1757088361583132000,11.5221318359375,0.29052734375,0.041839599609375,-0.0692596435546875
1757088361593177900,11.532177734375,0.321807861328125,0.0558929443359375,-0.09356689453125
1757088361603225000,11.54222509765625,0.3313446044921875,0.1002960205078125,-0.1101226806640625
1757088361613271000,11.55227099609375,0.3663787841796875,0.1495361328125,-0.1208953857421875
1757088361623317000,11.56231689453125,0.384002685546875,0.191436767578125,-0.09539794921875
1757088361633364000,11.572364013671875,0.3948211669921875,0.22216796875,-0.0193328857421875
1757088361643410000,11.582409912109375,0.4182891845703125,0.24017333984375,0.0677947998046875
1757088361653457000,11.592456787109375,0.4657745361328125,0.2285614013671875,0.15179443359375
1757088361663502800,11.6025029296875,0.490020751953125,0.18353271484375,0.229034423828125
1757088361673549000,11.612549072265624,0.5144805908203125,0.149932861328125,0.3013153076171875
1757088361683595800,11.622595703125,0.54168701171875,0.114532470703125,0.3050537109375
1757088361693642000,11.63264208984375,0.5723419189453125,0.07427978515625,0.307861328125
1757088361703688000,11.64268798828125,0.67742919921875,0.0322723388671875,0.3009185791015625
1757088361713735000,11.65273486328125,0.6880035400390625,0.048583984375,0.33123779296875
1757088361723780900,11.66278076171875,0.7141571044921875,0.0771636962890625,0.3724212646484375
1757088361733827800,11.672827880859375,0.855621337890625,0.10943603515625,0.4460296630859375
1757088361743873800,11.682873779296875,1.1510467529296875,0.168609619140625,0.604644775390625
1757088361753919700,11.692919677734375,1.3726959228515625,0.32940673828125,0.8296661376953125
1757088361763966700,11.702966796875,0.9839324951171875,0.6547088623046875,0.907867431640625
1757088361774013000,11.713012939453124,0.630157470703125,1.0206298828125,0.8119049072265625
1757088361784059000,11.723058837890624,1.0403289794921875,1.2751617431640625,0.8580322265625
1757088361794106000,11.733106201171875,1.2600555419921875,1.4667205810546875,0.900665283203125
1757088361804152000,11.743152099609375,0.994354248046875,1.3706512451171875,0.922088623046875
1757088361814199000,11.753198974609376,0.8324432373046875,1.0189056396484375,0.7710418701171875
1757088361824245000,11.763244873046874,0.5233001708984375,0.6842193603515625,0.5647125244140625
1757088361834291000,11.773291015625,0.22979736328125,0.4705352783203125,0.4588623046875
1757088361844338000,11.783337890625,0.225494384765625,0.356475830078125,0.4306182861328125
1757088361854383900,11.7933837890625,0.3829803466796875,0.3708648681640625,0.3885650634765625
1757088361864429800,11.803429931640625,0.476043701171875,0.57049560546875,0.4173431396484375
1757088361874476800,11.813476806640624,0.4628448486328125,0.8568878173828125,0.478302001953125
1757088361884523000,11.82352294921875,0.399993896484375,1.0715789794921875,0.5661163330078125
1757088361894570000,11.833570068359375,0.3827667236328125,1.1668243408203125,0.667022705078125
1757088361904616000,11.843615966796875,0.3629913330078125,1.16253662109375,0.7488861083984375
1757088361914662000,11.853661865234375,0.325286865234375,1.078857421875,0.7469329833984375
1757088361924708900,11.863708984375,0.3148651123046875,0.9643096923828125,0.6971588134765625
1757088361934754800,11.8737548828125,0.31109619140625,0.86590576171875,0.6689453125
1757088361944800800,11.88380078125,0.26336669921875,0.8165130615234375,0.6468048095703125
1757088361954847700,11.89384765625,0.2191162109375,0.79547119140625,0.622100830078125
1757088361964893700,11.903893798828125,0.2145233154296875,0.7843170166015625,0.611785888671875
1757088361974941000,11.91394091796875,0.255340576171875,0.7580108642578125,0.594512939453125
1757088361984987100,11.923987060546875,0.2055816650390625,0.7230072021484375,0.586517333984375
1757088361995032800,11.93403271484375,0.1371917724609375,0.7301788330078125,0.60711669921875
1757088362005080000,11.944080078125,0.1276397705078125,0.764007568359375,0.626068115234375
1757088362015126000,11.9541259765625,0.109588623046875,0.7603759765625,0.63421630859375
1757088362025172000,11.964171875,0.0693206787109375,0.74847412109375,0.658905029296875
1757088362035219000,11.974218994140625,0.03863525390625,0.7244873046875,0.69342041015625
1757088362045265000,11.984264892578125,0.049468994140625,0.701904296875,0.7400970458984375
1757088362055312000,11.994311767578125,0.059234619140625,0.683349609375,0.785980224609375
1757088362065357800,12.00435791015625,0.0550079345703125,0.6598968505859375,0.8312530517578125
1757088362075404000,12.014404052734376,0.1379241943359375,0.6161041259765625,0.837158203125
1757088362085451000,12.024450927734375,0.19696044921875,0.5687713623046875,0.7946624755859375
1757088362095497000,12.0344970703125,0.2180938720703125,0.501953125,0.753265380859375
1757088362105543000,12.04454296875,0.2474365234375,0.4635009765625,0.702239990234375
1757088362115590000,12.05458984375,0.249359130859375,0.456939697265625,0.647125244140625
1757088362125635800,12.0646357421875,0.2411346435546875,0.4590301513671875,0.6001434326171875
1757088362135682800,12.074682861328125,0.167205810546875,0.51873779296875,0.569915771484375
1757088362145728800,12.084728759765625,0.1282806396484375,0.57904052734375,0.5500030517578125
1757088362155774700,12.094774658203125,0.0982666015625,0.5829315185546875,0.55096435546875
1757088362165821700,12.10482177734375,0.04461669921875,0.5626220703125,0.6039886474609375
1757088362175868000,12.114867919921876,-0.033966064453125,0.6156158447265625,0.65869140625
1757088362185913900,12.124913818359374,-0.1018218994140625,0.7390289306640625,0.60211181640625
1757088362195961000,12.134961181640625,0.016387939453125,0.884552001953125,0.440765380859375
1757088362206007000,12.145007080078125,0.14813232421875,1.016510009765625,0.0995025634765625
1757088362216054000,12.155053955078126,0.268157958984375,1.036712646484375,-0.0891265869140625
1757088362226100000,12.165099853515626,0.322479248046875,0.9383087158203125,0.017852783203125
1757088362236146000,12.17514599609375,0.159088134765625,0.858612060546875,0.211944580078125
1757088362246193000,12.18519287109375,0.113677978515625,0.7332000732421875,0.359039306640625
1757088362256238800,12.19523876953125,0.149505615234375,0.665924072265625,0.45245361328125
1757088362266284500,12.205284423828125,0.1603240966796875,0.6634063720703125,0.578643798828125
1757088362276331500,12.21533154296875,0.1018829345703125,0.714202880859375,0.69964599609375
1757088362286377500,12.22537744140625,0.0618743896484375,0.7593841552734375,0.80535888671875
1757088362296424400,12.235424560546875,0.129547119140625,0.7802581787109375,0.890289306640625
1757088362306470400,12.245470458984375,0.14007568359375,0.819549560546875,0.921661376953125
1757088362316516400,12.255516357421875,0.1615142822265625,0.838104248046875,0.8837890625
1757088362326563300,12.265563232421876,0.2173614501953125,0.830352783203125,0.8008575439453125
1757088362336609300,12.275609375,0.2433624267578125,0.8276824951171875,0.75146484375
1757088362346655500,12.285655517578125,0.2398834228515625,0.825347900390625,0.74169921875
1757088362356702200,12.2957021484375,0.191558837890625,0.8410491943359375,0.739532470703125
1757088362366748400,12.30574853515625,0.11248779296875,0.8830718994140625,0.738433837890625
1757088362376795400,12.31579541015625,0.0169219970703125,0.9454345703125,0.7196044921875
1757088362386841300,12.32584130859375,-0.0933380126953125,1.0240631103515625,0.6906585693359375
1757088362396887300,12.33588720703125,-0.19439697265625,1.12103271484375,0.652099609375
1757088362406934500,12.3459345703125,-0.280731201171875,1.254547119140625,0.6397247314453125
1757088362416980500,12.35598046875,-0.341766357421875,1.4010162353515625,0.6493377685546875
1757088362427027500,12.36602734375,-0.357513427734375,1.4651947021484375,0.69366455078125
1757088362437073400,12.376073486328124,-0.3386077880859375,1.436737060546875,0.752288818359375
1757088362447119400,12.386119384765625,-0.2655487060546875,1.38739013671875,0.809844970703125
1757088362457166300,12.396166259765625,-0.16571044921875,1.3425750732421875,0.826507568359375
1757088362467212500,12.406212646484375,-0.024658203125,1.3091888427734375,0.8065185546875
1757088362477258500,12.416258544921876,0.1205596923828125,1.2965545654296875,0.77130126953125
1757088362487305500,12.426305419921874,0.2523651123046875,1.2873382568359375,0.706024169921875
1757088362497351400,12.436351318359375,0.366119384765625,1.27825927734375,0.6197509765625
1757088362507398400,12.4463984375,0.446533203125,1.2548370361328125,0.547576904296875
1757088362517444400,12.4564443359375,0.5053863525390625,1.2107086181640625,0.5416717529296875
1757088362527490300,12.466490234375,0.5540771484375,1.1511688232421875,0.60235595703125
1757088362537537300,12.476537353515624,0.60186767578125,1.1067962646484375,0.704315185546875
1757088362547583200,12.486583251953125,0.660186767578125,1.079864501953125,0.82110595703125
1757088362557629400,12.49662939453125,0.7569732666015625,1.0558624267578125,0.9468994140625
1757088362567676400,12.506676513671875,0.85064697265625,1.109283447265625,1.0860137939453125
1757088362577722400,12.516722412109376,0.8584136962890625,1.1175689697265625,1.15380859375
1757088362587769600,12.52676953125,0.7038116455078125,1.1070404052734375,1.1625518798828125
1757088362597815600,12.536815673828125,0.4582672119140625,1.127471923828125,1.0832977294921875
1757088362607861500,12.546861572265625,0.1859893798828125,1.1256103515625,0.9363861083984375
1757088362617908500,12.556908447265625,-0.260589599609375,1.1909027099609375,0.8197479248046875
1757088362627954400,12.566954345703126,-0.5646820068359375,1.179656982421875,0.6934661865234375
1757088362638000400,12.57700048828125,-0.5056915283203125,1.1201934814453125,0.476898193359375
1757088362648047400,12.58704736328125,-0.384063720703125,1.0028076171875,0.3128509521484375
1757088362658093600,12.597093505859375,-0.25146484375,0.98046875,0.322662353515625
1757088362668140300,12.607140380859375,-0.2909393310546875,0.9883270263671875,0.232177734375
1757088362678186500,12.6171865234375,-0.2217559814453125,0.957672119140625,0.193328857421875
1757088362688232400,12.627232421875,0.118804931640625,0.8486785888671875,0.40142822265625
1757088362698279400,12.637279541015625,0.6050262451171875,0.699188232421875,0.7922821044921875
1757088362708325400,12.647325439453125,0.7904510498046875,0.7480621337890625,1.0850067138671875
1757088362718371300,12.657371337890625,0.5286102294921875,0.806854248046875,1.0716552734375
1757088362728418300,12.667418212890626,0.0914154052734375,0.931121826171875,0.9774017333984375
1757088362738464300,12.67746435546875,-0.1758270263671875,0.96966552734375,0.771697998046875
1757088362748511200,12.68751123046875,-0.134765625,0.858673095703125,0.5587921142578125
1757088362758557400,12.697557373046875,-0.052978515625,0.7399444580078125,0.4438934326171875
1757088362768603400,12.707603271484375,0.0726470947265625,0.5962371826171875,0.353607177734375
1757088362778650400,12.717650390625,0.123504638671875,0.4608001708984375,0.2654266357421875
1757088362788696300,12.7276962890625,0.0773773193359375,0.392364501953125,0.1654510498046875
1757088362798742300,12.7377421875,0.0560760498046875,0.327301025390625,0.0765533447265625
1757088362808789500,12.74778955078125,0.0812530517578125,0.2130889892578125,-0.022857666015625
1757088362818835500,12.75783544921875,0.0799102783203125,0.0994110107421875,-0.112548828125
1757088362828882400,12.76788232421875,0.116455078125,0.03802490234375,-0.14373779296875
1757088362838928400,12.777928466796874,0.1537628173828125,-0.0012664794921875,-0.14984130859375
1757088362848974600,12.787974609375,0.2006988525390625,-0.0049285888671875,-0.1502227783203125
1757088362859021300,12.798021240234375,0.249359130859375,0.0070037841796875,-0.1415863037109375
1757088362869067500,12.808067626953125,0.2472991943359375,0.055328369140625,-0.119903564453125
1757088362879113500,12.818113525390626,0.2596588134765625,0.1086883544921875,-0.099151611328125
1757088362889160400,12.828160400390624,0.2977142333984375,0.13970947265625,-0.0746612548828125
1757088362899206400,12.838206298828124,0.3887176513671875,0.1275634765625,-0.05120849609375
1757088362909252400,12.84825244140625,0.5046539306640625,0.103240966796875,-0.036773681640625
1757088362919299300,12.85829931640625,0.5826873779296875,0.1182403564453125,-0.0315399169921875
1757088362929345300,12.86834521484375,0.628631591796875,0.147247314453125,0.00189208984375
1757088362939392300,12.878392333984374,0.656036376953125,0.1842803955078125,0.0426788330078125
1757088362949438200,12.888438232421874,0.6905975341796875,0.196044921875,0.0696563720703125
1757088362959484400,12.898484375,0.736663818359375,0.2019500732421875,0.0915374755859375
1757088362969531400,12.908531494140625,0.751708984375,0.193511962890625,0.119659423828125
1757088362979577300,12.918577392578126,0.7709503173828125,0.1851043701171875,0.191986083984375
1757088362989623300,12.928623291015626,0.8180389404296875,0.1786346435546875,0.29193115234375
1757088362999670500,12.93867041015625,0.88372802734375,0.175506591796875,0.393280029296875
1757088363009716500,12.948716552734375,0.93017578125,0.1628570556640625,0.4582061767578125
1757088363019763500,12.958763427734375,0.9878997802734375,0.1816558837890625,0.5178985595703125
1757088363029809400,12.968809326171876,1.107818603515625,0.2720489501953125,0.63922119140625
1757088363039855400,12.97885546875,1.3029327392578125,0.47796630859375,0.883880615234375
1757088363049902300,12.98890234375,1.3534088134765625,0.9031982421875,1.1156005859375
1757088363059948500,12.998948486328125,1.554046630859375,1.436065673828125,1.3347015380859375
1757088363069994500,13.008994384765625,1.3846282958984375,1.9577484130859375,1.6567535400390625
1757088363080041500,13.01904150390625,0.60247802734375,1.9199981689453125,1.7361907958984375
1757088363090087400,13.02908740234375,0.2038726806640625,1.2879486083984375,1.23651123046875
1757088363100134400,13.039134521484375,0.25640869140625,0.7253875732421875,0.60382080078125
1757088363110180400,13.049180419921875,0.377166748046875,0.3055572509765625,0.3281097412109375
1757088363120226300,13.059226318359375,0.422515869140625,0.1025848388671875,0.2163543701171875
1757088363130273300,13.069273193359376,0.3648834228515625,0.113800048828125,0.1254425048828125
1757088363140319200,13.0793193359375,0.216888427734375,0.2438812255859375,0.0394744873046875
1757088363150365400,13.089365478515624,0.1317901611328125,0.400177001953125,-0.0142822265625
1757088363160412400,13.099412353515625,0.1414794921875,0.5579681396484375,-0.0108184814453125
1757088363170458400,13.109458251953125,0.20635986328125,0.7080841064453125,0.038482666015625
1757088363180505600,13.119505615234376,0.2953033447265625,0.9169158935546875,0.122222900390625
1757088363190551600,13.129551513671874,0.3464813232421875,1.174072265625,0.2433624267578125
1757088363200597200,13.13959716796875,0.335235595703125,1.324249267578125,0.403900146484375
