time,seconds_elapsed,z,y,x
1757088956084586200,0.019586181640625,0.5916062949895858,0.9146065884243696,-1.6254390553623437
1757088956094540000,0.0295400390625,0.5668810190558433,0.8258556342385709,-1.5441908049568533
1757088956104495000,0.0394951171875,0.49979427273273463,0.9385678211830556,-1.3609119206190108
1757088956114449200,0.04944921875,0.3415840709388256,1.1336923338763416,-1.376440475270897
1757088956124404200,0.059404296875,0.5586106188386678,1.4586235223084687,-1.466885154697299
1757088956134358300,0.069358154296875,0.9039800535351038,1.5516498887911438,-1.3867556791886686
1757088956144313000,0.07931298828125,0.8841887268722057,1.4987050650671123,-1.2516402295172213
1757088956154268000,0.089267822265625,0.5764063877701759,1.4771867684811353,-1.0848112524598836
1757088956164222000,0.099221923828125,0.6314420462936162,1.364441117658466,-0.842096721073985
1757088956174177300,0.10917724609375,0.9873287833511829,1.3486324308909474,-0.7072007593721151
1757088956184130600,0.119130615234375,1.0752052197247743,1.2654559889018535,-0.8845569756627082
1757088956194085600,0.129085693359375,1.0950830556273459,0.9259944630749523,-1.1274021476909517
1757088956204040000,0.1390400390625,1.2508283286124466,0.6947124491989612,-1.1166750019714236
1757088956213994800,0.148994873046875,1.588641648840904,0.614495295406878,-1.323786889578402
1757088956223948800,0.15894873046875,1.8050410047531127,0.6216507201194763,-1.4833356464996934
1757088956233903600,0.168903564453125,1.77171858086586,0.45676425543203947,-1.8178741828411817
1757088956243857700,0.178857666015625,1.8562264175891876,0.20559329973757265,-2.1832813201770187
1757088956253812700,0.188812744140625,1.323559218302369,-0.11536971571594476,-2.344009934532642
1757088956263767800,0.198767822265625,0.5938064353823661,-0.3006076251670718,-1.7804492920711636
1757088956273721600,0.2087216796875,0.490325018119812,-0.07213833062425255,-0.8886600270673632
1757088956283676700,0.2186767578125,0.15536474923491478,0.32364743223190306,-0.31133214053809644
1757088956293630700,0.228630615234375,-0.42853813177049155,0.7100315988838672,-0.14654343713670967
1757088956303585800,0.238585693359375,-1.016118824505806,0.9543032965838909,0.4238119800314307
1757088956313539800,0.248539794921875,-1.9591005166083573,1.2626926616683603,0.9584519406959414
1757088956323494700,0.25849462890625,-2.926421700197458,1.4571093183532355,1.0117010080635547
1757088956333448700,0.26844873046875,-3.464330891790986,1.2671759445622564,1.096475971290469
1757088956343403800,0.27840380859375,-3.7572003239214418,1.2669744306407869,0.6451134287714958
1757088956353357800,0.28835791015625,-2.8317718241661787,1.4156722693324089,-0.3097299660384655
1757088956363312600,0.298312744140625,-0.0984866777151823,1.7136795027427374,-1.0136386981278658
1757088956373267700,0.308267822265625,-1.6895178520411251,0.2184451825261116,-2.0163836617976427
1757088956383221500,0.318221435546875,-3.995282519331574,-2.0856248096756635,-1.7857494443058965
1757088956393176800,0.3281767578125,-4.4930110917061565,-0.5880468489423394,-2.640287129279971
1757088956403131000,0.338130859375,-5.166004461050033,2.046128957850486,-1.5393395655333995
1757088956413085700,0.348085693359375,-4.34057596618235,3.324622561371326,-0.3291390153855085
1757088956423039700,0.358039794921875,-4.205937778633833,2.496405604828894,-1.1963777765005825
1757088956432994600,0.36799462890625,-4.413376998499036,0.8197263377033174,-3.2321886078238484
1757088956442948900,0.377948974609375,-3.507943823546171,-0.6789411718323827,-6.7748296507418155
1757088956452903700,0.387903564453125,-2.8781179802775383,-0.5494288028649985,-6.265494227203726
1757088956462858800,0.397858642578125,-2.5107430500000714,1.3827492200262843,-3.5012066242456434
1757088956472812500,0.4078125,-2.5949592103004453,2.0778443849325177,-2.099920023140311
1757088956482768000,0.417767822265625,-3.682068218308687,1.961047412892431,-0.937020153349638
1757088956492722000,0.427721923828125,-4.788351882386207,1.9177109599910676,-0.04524491687119007
1757088956502676700,0.4376767578125,-5.020964121952653,1.7583960118256508,0.9697223995119333
1757088956512630800,0.447630859375,-4.866731591618061,1.8066838035240769,1.402887606561184
1757088956522585600,0.457585693359375,-4.407921071180701,1.493807210022956,1.3978981277108191
1757088956532539600,0.46753955078125,-3.4736849955916402,0.9862580853797495,0.8088128756314515
1757088956542494700,0.47749462890625,-1.9923867001384497,0.9486344571672379,-0.22862813836634158
1757088956552448800,0.48744873046875,-0.019863222855329512,2.103093538609892,-2.2561644778192043
1757088956562403600,0.497403564453125,1.9806758040785788,2.274230734255165,-3.500459605270624
1757088956572358700,0.507358642578125,4.399450764477253,0.2780078169547021,-3.5785873855680226
1757088956582312700,0.517312744140625,6.121778414708375,1.1994083763681351,-5.877280507037043
1757088956592267800,0.527267822265625,4.8995475272879006,2.1087965725570914,-3.454742394712567
1757088956602221800,0.537221923828125,1.973330994273722,0.13902546272203326,0.7581593777149915
1757088956612176600,0.5471767578125,-0.8582143276602029,-0.9697086632475256,2.344847554400563
1757088956622130700,0.557130615234375,-1.5430159159585832,-0.0852299039201811,3.382932711520791
1757088956632085800,0.567085693359375,-1.0177817892819643,-1.5428385135650633,10.410831698924303
1757088956642039800,0.577039794921875,1.7135630367562174,1.3833252663485704,11.236447825318574
1757088956651994600,0.58699462890625,4.728521975323558,2.0505147717192767,7.329559628754854
1757088956661949700,0.59694970703125,4.867523326517642,-1.5128547325812278,2.126860637035966
1757088956671903500,0.606903564453125,4.954204123365879,-1.6495234030440449,0.08844459165036678
1757088956681858800,0.61685888671875,4.634515365631878,-0.19214188015330583,1.0299135411024094
1757088956691812900,0.626812744140625,2.546232588793337,-0.14666931027239188,1.5280752441972494
1757088956701767700,0.636767578125,0.8239952471941709,-0.7486436536118388,1.2724965550631284
1757088956711721700,0.6467216796875,-0.5331266334921121,-0.5544799487747252,1.0129039541125298
1757088956721676500,0.656676513671875,-1.8296674964874982,-0.23872684998922047,0.6586684913933277
1757088956731630800,0.666630859375,-2.384261719291657,-0.3993400212716311,0.3597960194557905
1757088956741585700,0.676585693359375,-2.6734368269488216,-0.37964755187332627,0.1053705920100212
1757088956751540700,0.686540771484375,-4.246773646891117,-0.4722618304237723,-0.5218167194485664
1757088956761494500,0.69649462890625,-2.9302228460460897,-0.1980934455014765,-1.5203765063881873
1757088956771449900,0.706449951171875,-1.7414748337715864,1.136877832044661,-1.7041104410171508
1757088956781404000,0.71640380859375,-1.0435714065115897,-0.148760218137037,0.05588321526348591
1757088956791358700,0.726358642578125,-0.7381330732524395,-0.951960532850027,-1.4637287364929914
1757088956801312800,0.736312744140625,-1.7866536996692417,-0.7872661566685885,-3.3173972862929104
1757088956811267600,0.746267578125,-3.0070979959338904,-0.2207035193795338,-2.7956372654676436
1757088956821221600,0.7562216796875,-1.2903133667826652,-0.2103624869007617,-0.7514736163407564
1757088956831176700,0.7661767578125,-0.9364362890470772,-0.9446646767534315,-0.6518371840685606
1757088956841130800,0.776130859375,-0.4854543433435261,-1.7446685152463615,-0.5845294884711504
1757088956851085600,0.78608544921875,0.4948030403167009,-2.5301740189179776,-0.5044722014158964
1757088956861040600,0.79604052734375,1.7094506330013275,-2.6044927623212337,-0.7052455336511134
1757088956870994700,0.80599462890625,3.8527041864335536,-1.717760926837474,-0.5497773240417242
1757088956880949800,0.81594970703125,3.453787578205764,-1.476522313223034,-1.226741350582242
1757088956890903800,0.82590380859375,-0.5563172472044825,-1.0007302628464996,-2.795716760444641
1757088956900858600,0.835858642578125,-1.8634440938830374,-1.5866427301086485,-3.6480408610224724
1757088956910812700,0.845812744140625,0.6183414494410157,-1.5979919532492757,-3.1324943078845737
1757088956920767700,0.855767822265625,0.26033845088183877,-0.591904401153326,-2.1876421457350252
1757088956930722800,0.865722900390625,-0.12315233241617679,-0.7927154350504279,-1.8184475988149642
1757088956940676600,0.875676513671875,-0.7671253589808941,-1.3291130530372262,-1.6789321606189012
1757088956950631700,0.885631591796875,-1.57492292008996,-1.8756541716367006,-1.7729133436083793
1757088956960585500,0.89558544921875,-1.7271195606827734,-1.963993987738341,-1.765336186352372
1757088956970540800,0.905540771484375,-1.301677349101007,-1.4502274498850107,-1.2500199348390102
1757088956980494800,0.915494873046875,-0.6511889492928982,-1.1456878920964897,-0.8850666787505149
1757088956990449700,0.92544970703125,-0.0395183559179306,-0.9758506731338799,-0.5625578951597213
1757088957000403700,0.93540380859375,0.5913415065735578,-0.6589565145544707,-0.18544658376574516
1757088957010358800,0.94535888671875,1.422292564254999,-0.363237319016084,-0.07145838553607463
1757088957020312800,0.955312744140625,2.2560165937811134,-0.15681867437027394,-0.2572919227927923
1757088957030267600,0.965267578125,2.760549000951648,0.08167378234118222,-0.6880389627844095
1757088957040222700,0.97522265625,2.8346909264832734,0.3814879921082407,-1.1287748973488807
1757088957050176500,0.985176513671875,2.515225163850188,0.7143971006169915,-1.4295003036767244
1757088957060131800,0.9951318359375,1.7953654139131308,1.9162528701372443,-1.961680596229434
1757088957070086000,1.0050859375,1.2557172696977854,2.7785689340278505,-2.473898881727457
1757088957080040700,1.015040771484375,0.728711749434471,1.4978130846634505,-1.5277373905450105
1757088957089994800,1.024994873046875,0.19783201808631418,1.1829022819209842,-1.8654267921328544
1757088957099949600,1.034949462890625,-0.5933066691666841,1.7163322092086075,-2.5183050096869466
1757088957109904600,1.044904541015625,-1.489602597939968,2.14552149836421,-2.3812696978688237
1757088957119858700,1.054858642578125,-2.0143045174360275,2.3608096781641246,-2.064183523848653
1757088957129813800,1.064813720703125,-2.315291497309506,2.6454557640895247,-2.0666870311021803
1757088957139767600,1.074767578125,-2.2933406545251604,2.8486206676363945,-2.143881914463639
1757088957149723000,1.084722900390625,-1.7884899751856922,2.9353707303285597,-2.0001415520489214
1757088957159676700,1.0946767578125,-0.7631630312211811,2.934530480112135,-1.8908610931187868
1757088957169631700,1.1046318359375,0.6079034228611737,2.701459098601341,-1.552321212181449
1757088957179586000,1.1145859375,1.2983604796379804,2.526746090295911,-0.11019465116560459
1757088957189541000,1.124541015625,1.6859417471200226,3.820147193960845,0.1441524503469467
1757088957199496000,1.134495849609375,2.1306080068707467,4.533516997356712,0.9948480729401111
1757088957209450000,1.144449951171875,1.9920149442166089,2.825650126415491,4.285307667946816
1757088957219405000,1.154405029296875,1.9689479568839072,1.4943904167383908,4.4063188966810705
1757088957229358800,1.16435888671875,2.0062807854563,0.7017587144486606,3.3729292039006946
1757088957239314200,1.174314208984375,1.9838667090743778,0.3485448498621583,2.4177479554384944
1757088957249268000,1.18426806640625,1.9570149425059555,0.26050094796717166,1.2940443700045345
1757088957259223000,1.19422314453125,2.0132284126371145,0.18818916047215462,0.7034218253552913
1757088957269176800,1.2041767578125,2.076469589447975,0.10576017584949732,0.8219552657991647
1757088957279132000,1.2141318359375,2.1277081937760114,0.2726727395370602,1.4801093779295682
1757088957289087000,1.2240869140625,1.903178722900152,0.2768815894037485,1.910172527310252
1757088957299041000,1.234041015625,1.321201841521263,0.1841366702109575,1.908753308162093
1757088957308995800,1.243995849609375,0.65961541685462,0.3904904329270124,1.502329393044114
1757088957318950000,1.253949951171875,0.054786688731051976,0.5723883843004703,1.1523784757763147
1757088957328905200,1.2639052734375,-0.2957856483707204,0.619642595167458,1.4154402141422033
1757088957338859000,1.27385888671875,-0.37126196431126446,0.9046844024121761,2.3701789795339105
1757088957348814000,1.28381396484375,-0.4321434627860784,1.1656295870155096,3.481439847502112
1757088957358767900,1.293767822265625,-0.6727274118840694,1.2143790048763154,4.743256603118777
1757088957368723000,1.303722900390625,-2.4428970097422598,1.3678826364144683,5.671840352034568
1757088957378678000,1.313677978515625,-2.9281834491729732,1.0372928376987576,5.036834475779533
1757088957388632000,1.323632080078125,-0.5525350252520292,0.8316600827336311,4.518007001274824
1757088957398587000,1.3335869140625,0.02293371634185314,1.0772750117361545,4.616801722025871
1757088957408541000,1.343541015625,0.3619108196526766,1.0284989981293677,4.435905641171336
1757088957418496000,1.35349609375,1.1104057124435902,0.7786737579554319,4.889305826997757
1757088957428450000,1.363449951171875,2.23778301795423,-0.16043781471550464,5.194266678938269
1757088957438405000,1.373405029296875,5.679325154832005,-1.7334668838828802,5.459581749188899
1757088957448359000,1.38335888671875,9.09076499891281,-3.3313433940589428,4.550843102949857
1757088957458314000,1.39331396484375,8.402436697793007,-4.062509550908207,3.2102795583546158
1757088957468269000,1.40326904296875,6.2410214647263285,-3.464002975010872,2.3517139330387113
1757088957478223000,1.41322314453125,1.9787965662032365,-1.5644798520088194,2.665267256757617
1757088957488178000,1.423177978515625,-2.5800571169838307,-0.564669772747159,3.120914344727993
1757088957498132000,1.433132080078125,-4.4327290569618345,0.31050679562985894,2.74909295643568
1757088957508087000,1.443087158203125,-5.255825601750612,0.9810516027778386,3.0084067404448986
1757088957518040800,1.453040771484375,-3.828851017159223,0.29959669455885884,2.0970541123151776
1757088957527996200,1.46299609375,-1.0072238626495003,-0.3230570651233196,1.6666455104976892
1757088957537951000,1.472950927734375,2.0359791736274957,-1.2964841643720864,1.2225772166401148
1757088957547905000,1.482905029296875,4.771602699898183,-2.7474697391480207,0.05075929637849331
1757088957557859800,1.49285986328125,3.860445009818673,-2.873408487412333,0.3763146080583334
1757088957567814100,1.502814208984375,-6.793025817167758,-1.1974345920771359,3.0058336750864982
1757088957577769000,1.51276904296875,-8.66931477957666,-2.1251918270409105,-0.337681802803278
1757088957587723000,1.522722900390625,-1.4732804086923599,-2.3295278201937673,-0.908250570461154
1757088957597677800,1.532677734375,-1.8276187472641467,-1.6941873051568865,0.13329144911468027
1757088957607632000,1.5426318359375,6.024353813266754,-2.6492306064531204,-3.1921886058688163
1757088957617587200,1.552587158203125,10.461206964421272,-5.204570630809664,-5.440398909813165
1757088957627542000,1.5625419921875,8.042350755479932,-5.661235371389985,-6.055097911098599
1757088957637496000,1.57249609375,4.592319607198238,-3.477426520207524,-5.932207444489002
1757088957647451000,1.582450927734375,1.4907894696369766,-1.2071095983952282,-7.591882531452178
1757088957657405000,1.592405029296875,-0.6371653923764824,-1.5544780979543924,-7.877237350168824
1757088957667360000,1.602360107421875,-0.2427180385172367,-2.9493676914989946,-3.4322552530944344
1757088957677314000,1.61231396484375,1.2114753923892974,-4.253045566767454,-1.6927677937477825
1757088957687268900,1.622268798828125,2.8447423648983237,-4.843979661583901,-2.6251608718186614
1757088957697224000,1.632223876953125,2.917861377122998,-4.6276235602915285,-3.419121046233177
1757088957707178000,1.642177978515625,1.1802806281805038,-3.6552819181919096,-3.225013601627946
1757088957717133000,1.652133056640625,-0.8807739499926567,-2.1056395698308945,-2.8086235882908106
1757088957727087000,1.662087158203125,-2.4939926984682677,-0.6277361775130033,-2.6431097854852674
1757088957737042000,1.6720419921875,-3.0015824473828077,0.4868161332160234,-1.776189004278183
1757088957746996000,1.681995849609375,-2.7427774896785615,0.9508709840476512,-0.23418518797159193
1757088957756951000,1.691950927734375,-1.9184724458828568,1.1603928554058074,1.3692624003350733
1757088957766906000,1.701906005859375,0.2488081720858812,1.2706477123260498,2.569808402431011
1757088957776860000,1.71185986328125,1.511354411020875,1.9726631780147552,3.633434828042984
1757088957786815000,1.72181494140625,1.6786539281994104,2.7784178351193667,3.190965201553702
1757088957796769000,1.73176904296875,1.105672254180908,2.9210715713411566,2.954652353903651
1757088957806724000,1.74172412109375,0.4611985846176743,2.721084421047568,2.2281331460773943
1757088957816678100,1.75167822265625,-0.7757499794632196,2.846597637376189,0.9829483763098716
1757088957826633000,1.761633056640625,-1.095383499878645,3.3821798473268747,0.201974524718523
1757088957836588000,1.771588134765625,-0.7812374709635973,2.660975112521648,0.49706397098600863
1757088957846541800,1.781541748046875,-0.3210188372939825,0.895281198772788,0.9530307924300432
1757088957856497200,1.7914970703125,0.0011775193467736243,-0.10499006825983524,0.584638209542632
1757088957866451000,1.801450927734375,-0.045967385926842685,-0.7664549123734236,0.5887661031275987
1757088957876406000,1.811406005859375,-1.1335974951997398,-1.1493331167310477,-0.005194646033644676
1757088957886360800,1.82136083984375,-1.5681237614691257,-1.7685060485601425,-1.1785890218317507
1757088957896315100,1.831315185546875,-1.8802029209822415,-2.419656419408321,-1.100504496154189
1757088957906270000,1.84127001953125,-2.300387650427222,-2.1542636077463624,-1.5543845744520426
1757088957916224000,1.85122412109375,-2.2164012072294947,-0.4466226545155048,-2.32866506588459
1757088957926178800,1.8611787109375,-1.4858461680158972,1.7106687766194342,-2.52370774551332
1757088957936132900,1.8711328125,-0.2244824168637395,4.1174984476804735,-2.915287727242708
1757088957946088200,1.881088134765625,0.9097402244970202,1.2466425673604011,-2.3528777161210774
1757088957956043000,1.89104296875,2.194079193045199,-1.193681961545348,-1.4959411533117293
1757088957965997000,1.9009970703125,2.2124036620259284,-1.0467185454308987,-2.262915705645084
1757088957975952000,1.910951904296875,2.424442484641075,0.6876707139939069,-2.083660962256789
1757088957985906000,1.920906005859375,2.591110425917804,1.7722148399502038,-2.631308873054385
1757088957995861000,1.930861083984375,2.06758734094277,1.6873533674836159,-2.7158926976233717
1757088958005815000,1.94081494140625,1.8998663834817706,1.1179437067329883,-3.0736387988120315
1757088958015769900,1.950769775390625,2.7013214436963198,0.5275923802405595,-3.6712113087296485
1757088958025725000,1.960724853515625,2.003795982903242,0.18423077823519707,-3.45578167463243
1757088958035679000,1.970678955078125,-1.3981072404168546,0.06516191574037075,-1.869883187019825
1757088958045634000,1.980634033203125,-2.100677563509345,0.49000411560237406,0.8283101877838372
1757088958055588000,1.990588134765625,-1.1168412984490395,0.18512743481397628,0.39665480077564713
1757088958065543000,2.00054296875,-0.7734310349963605,0.005378185907006263,2.292793542036414
1757088958075498000,2.010498046875,0.3488737164903432,-0.14410627311766147,2.793160061699152
1757088958085452000,2.0204521484375,0.9801398216951638,-1.358813487035036,1.8655097942411898
1757088958095407000,2.030406982421875,0.8445002750843763,-1.9539251597970724,2.8075585894078015
1757088958105361000,2.04036083984375,1.0770903028190135,-1.238347032701969,4.504572350162268
1757088958115316000,2.05031591796875,0.44910051587112243,-0.9337854092121124,5.678022255539894
1757088958125271000,2.06027099609375,0.8543846863694489,-0.7596937476754189,5.677046688506007
1757088958135225000,2.07022509765625,1.3383072901010513,-0.33944647438824177,5.131290875065327
1757088958145180000,2.080179931640625,1.091419783879444,-0.013819266515970229,4.039973309451342
1757088958155134000,2.090134033203125,0.9418505691807717,0.05646072289049625,2.98132350320816
1757088958165088800,2.1000888671875,1.1193986547816543,-0.6749333974957465,2.4872101987212893
1757088958175043000,2.11004296875,0.9974462727397679,-1.5188976660072802,2.0873247454613444
1757088958184997600,2.11999755859375,0.5537830525517463,-2.0979829175978897,0.9715811791211366
1757088958194952400,2.129952392578125,0.3846178145665675,-3.0986072358518837,-0.14309797285795212
1757088958204906500,2.139906494140625,-0.19264847796857357,-2.4387404745846983,-0.9790753342688083
1757088958214861300,2.149861328125,-2.280768173199892,-1.2477835540890694,-1.1330036209598182
1757088958224815400,2.1598154296875,-4.056038309067487,-1.3869161304473876,-2.031638514074683
1757088958234770400,2.1697705078125,-3.9282875429451463,-1.2667507048875093,-2.9868279458433387
1757088958244725500,2.1797255859375,-2.914433740761876,-0.6005167466759681,-3.420754492653906
1757088958254679600,2.189679443359375,-1.9823972210437057,0.1707441046744585,-3.2614450974464413
1757088958264634400,2.19963427734375,-0.8446154258966445,0.44386195763051506,-2.9790885837629437
1757088958274589400,2.20958935546875,1.6430173821508884,0.9301187033981084,-1.9964146404802798
1757088958284543500,2.21954345703125,1.3978262315183878,-0.4030138144135475,-1.7660925576776265
1757088958294498600,2.22949853515625,1.4987679011702537,-0.948376244622469,-1.5166715143904088
1757088958304452400,2.239452392578125,2.1829437587857243,-1.6395190186411142,-1.2818863146990538
1757088958314407400,2.249407470703125,2.572444011631608,-2.7412469191104174,-1.0735261805966496
1757088958324362500,2.259362548828125,2.711881123894453,-3.723473410886526,-0.4922378660038113
1757088958334316500,2.269316650390625,2.3581197084277865,-4.635900390249491,-0.16110256223455072
1757088958344271400,2.279271240234375,1.5520535011559724,-5.134266676005721,-0.05522197487577796
1757088958354225400,2.289225341796875,0.8505874860435724,-5.360936081519722,0.10240399728938937
1757088958364180500,2.299180419921875,0.40387539967894553,-5.528742379176617,0.12135551212728023
1757088958374135600,2.309135498046875,0.13201777591705322,-5.695135302904248,0.010682137534022331
1757088958384089300,2.31908935546875,-0.45927404629588126,-6.250467922985553,-0.4723112225234508
1757088958394044400,2.32904443359375,-1.2924082932353018,-7.054336912474036,-1.1307122220870107
1757088958403998500,2.33899853515625,-1.234089375257492,-7.113323354449868,-1.6225243369594216
1757088958413953500,2.34895361328125,-1.3852221860110758,-7.005126014581323,-1.6106532819017767
1757088958423908400,2.358908447265625,-1.8560007921397685,-7.2160600908249615,-1.433214063502848
1757088958433862400,2.3688623046875,-2.4653882430136203,-6.709724433624744,-0.9784959269456565
1757088958443817500,2.3788173828125,-3.3111692055582997,-4.7176878620982166,0.32411121381875124
1757088958453771300,2.388771240234375,-5.166929174679518,10.664258178460598,-1.607331151741743
1757088958463726600,2.3987265625,-0.35584983911328016,47.89238017570972,-16.224832450705765
1757088958473681400,2.408681396484375,5.335929650557041,47.81094458603859,-7.314398299980163
1757088958483635500,2.418635498046875,4.556695336109399,15.947428883254528,14.298749822080135
1757088958493590300,2.42859033203125,5.1538487438321114,4.969703305792808,15.490512798261642
1757088958503545600,2.438545654296875,4.175993891268968,1.212718085926771,11.115899537920951
1757088958513499400,2.44849951171875,2.976950110429525,-2.2704238893181086,5.0984267163395875
1757088958523454500,2.458454345703125,2.343143673092127,-7.581383349269628,-4.530408217686414
1757088958533408500,2.468408447265625,2.0343524492084977,-2.0661977862805125,-9.42257001863718
1757088958543363300,2.47836328125,-0.0853238292813301,3.6487650836437937,-12.628795333164929
1757088958553318400,2.488318359375,-4.508328487825393,1.8510995760947464,-6.805662011379003
1757088958563272400,2.4982724609375,-4.015108917307853,-1.1297574786454438,2.368396772292256
1757088958573227500,2.5082275390625,-0.48427412058301267,-0.2092389627635479,2.7056892835170028
1757088958583182300,2.518182373046875,1.9871195733904838,0.7893354372233152,1.8268840032488107
1757088958593136600,2.52813671875,2.3933728081166743,-0.29372049600183964,2.9240704608961936
1757088958603091500,2.538091552734375,2.3553858995497223,-1.6109014114439486,2.9016908713057634
1757088958613046500,2.548046630859375,1.3503881885170936,-2.2173832040041686,1.1028855460718274
1757088958623000300,2.558000244140625,-0.024091581140086055,-2.3575702578514814,0.38967999332696196
1757088958632955600,2.56795556640625,-1.258161155718565,-1.7568851688712834,0.35175241373181343
1757088958642909400,2.577909423828125,-1.5615315235972405,-0.6945277402818203,-0.8765250603765249
1757088958652864500,2.587864501953125,-0.6601321342051029,0.4042243592470884,-1.7272291585370898
1757088958662819300,2.5978193359375,-0.3033505671996623,0.39425358485281464,-0.08817366575449705
1757088958672773400,2.6077734375,-1.5346014310956,-0.47424891258776186,0.8124240518659352
1757088958682728400,2.617728515625,-1.6058160710036753,0.1132522851705551,0.40808395728468894
1757088958692683500,2.62768359375,-1.34664607937932,0.08134440425634383,0.5760486603736877
1757088958702637300,2.63763720703125,-0.2939607344985008,-0.2771463778197765,0.2422252865642309
1757088958712592400,2.64759228515625,0.8424246378540993,-0.2491308281689882,-0.2619566997334361
1757088958722547500,2.65754736328125,0.8784507677420973,-0.49114627137482164,-0.36613223673999307
1757088958732501500,2.66750146484375,1.477362417308986,-0.1346019471913576,-0.32327450726628304
1757088958742456300,2.677456298828125,1.8311422452151773,0.17017068870067595,0.6578048603013158
1757088958752410400,2.687410400390625,0.6103542500793934,-0.2810077294230461,1.2491525043547154
1757088958762365400,2.697365478515625,-0.5993080284733325,-0.5116600670933723,-0.04036328230947256
1757088958772320500,2.707320556640625,-1.0487328078627585,-0.4955418759852647,-0.885420899015665
1757088958782274600,2.717274658203125,-1.3299861826099455,-0.49695817252397534,-0.9817714414849876
1757088958792229400,2.7272294921875,-1.62908720260635,-0.09142506876587868,-0.8491998310774564
1757088958802184400,2.737184326171875,-2.0403578271031377,0.867136469784379,-0.5561190942838787
1757088958812138500,2.747138427734375,-2.2272271371483803,0.8434867141276597,-0.2620110602691769
1757088958822093600,2.757093505859375,-2.011648303838819,0.8160510101914406,-0.4090855355426669
1757088958832048400,2.76704833984375,-1.6914822839818895,0.5749024129480124,-0.8996297493711113
1757088958842002400,2.77700244140625,-0.09847089562416077,0.26340894436836243,-0.8363035246253013
1757088958851957500,2.78695751953125,1.3174714228212832,-0.08005611801147461,0.2420841245278716
1757088958861912600,2.79691259765625,1.3749893996797502,-0.22911329153478144,0.45409547461420297
1757088958871866400,2.806866455078125,0.9010662119150161,-0.27452655071020127,0.05994476561397314
1757088958881821400,2.816821533203125,0.3933620428405702,-0.24169629425406455,-0.4158034456208348
1757088958891776500,2.826776611328125,0.0047800738833844655,-0.06760930889248848,-1.048745082822442
1757088958901730600,2.83673046875,-0.1662906323969364,0.1272434011220932,-1.5001108402118086
1757088958911685400,2.846685302734375,-0.2815371601246297,0.07392272982299328,-1.7458014647990465
1757088958921640400,2.856640380859375,-0.32772388789057727,-0.23789397936165332,-1.8358333256408572
1757088958931594500,2.866594482421875,-0.3114753484010696,-0.31416181100606916,-1.9654875872969626
1757088958941549600,2.876549560546875,-0.12911036403775214,-0.2688034968882799,-1.6908660517796874
1757088958951503600,2.886503662109375,0.15881576647162438,-0.24954759227633475,-1.3657161060303449
1757088958961458400,2.89645849609375,0.4309422703027725,-0.23765023373365401,-1.1491741267770528
1757088958971413200,2.906413330078125,0.6032346273325383,-0.16101298425495625,-0.9631199325069785
1757088958981367300,2.9163671875,0.691699969509989,-0.177606391659379,-0.7263312840387225
1757088958991322600,2.926322509765625,0.7406359959840774,-0.3386749054938555,-0.4803068974524736
1757088959001277400,2.93627734375,0.8008347363591194,-0.47211365412473677,-0.30160014333575963
1757088959011231500,2.9462314453125,0.7011363447666168,-0.40350481280088424,-0.28990444484502076
1757088959021186300,2.956186279296875,0.5932791966378689,-0.3084966248512268,-0.21011983725130556
1757088959031141600,2.9661416015625,0.5213138844929636,-0.23188392529189586,-0.11363573153018951
1757088959041095400,2.976095458984375,0.441533660813421,-0.16065350329279898,0.05565642077028751
1757088959051050500,2.986050537109375,0.3873134103260934,0.1312643272012472,0.20179156936705112
1757088959061005300,2.99600537109375,0.186227358879894,0.1499474003612995,0.577704318626225
1757088959070959600,3.005959716796875,0.03525368421077728,0.2475894439458847,1.053325688610971
1757088959080914400,3.01591455078125,-0.1694714543901384,0.11401800884604453,1.0123723314538597
1757088959090869500,3.025869384765625,-0.14215323935374616,0.06295125395357608,1.143414832597971
1757088959100823300,3.0358232421875,0.16252981855869292,0.23368191462457177,1.3324340141534805
1757088959110778600,3.045778564453125,0.006116437053680419,0.1883160017222166,1.1382266163051127
1757088959120733400,3.0557333984375,-0.009155804749578236,0.16064298189878462,1.1289882478386164
1757088959130687500,3.0656875,0.19347455352917312,0.09886427885591983,0.842268570509553
1757088959140642300,3.075642333984375,0.25529928767085075,0.04308978466391563,0.20706103420257568
1757088959150597400,3.085597412109375,-0.029869214693456887,-0.035109307304024694,-0.2798202732041478
1757088959160551400,3.095551513671875,-0.4548480465471744,0.06279167947769165,-0.647242842015624
1757088959170506500,3.105506591796875,-0.7000983800210058,0.15466332296729088,-0.49694063686728474
1757088959180462000,3.115462158203125,-0.5912791088618338,0.10775134966671467,-0.09365122038275003
1757088959190416100,3.125416015625,-0.0022328736186027526,0.19758534984886644,-0.08010463332831859
1757088959200371200,3.13537109375,0.25533567415848374,0.23055472251474857,0.023247604596614835
1757088959210326300,3.145326171875,0.17347455255165695,0.3184872729897499,-0.05977788461446762
1757088959220280000,3.155280029296875,0.0830757580935955,0.3252747411727905,0.058439037226140494
1757088959230235100,3.165235107421875,-0.11608137111663817,0.2372626957207918,0.06289280176460743
1757088959240190200,3.175190185546875,-0.2779845822095871,0.19998072055280208,0.06619914983361959
1757088959250144300,3.185144287109375,-0.36746085499525066,0.19628654220998287,0.1443473883971572
1757088959260099000,3.19509912109375,-0.3428419620454311,0.07877250794172287,0.18711393245607613
1757088959270054100,3.20505419921875,-0.14821122421845792,0.0432481900960207,0.5581894708171486
1757088959280008200,3.21500830078125,0.112473848143965,0.023206688064336775,0.9710328975886106
1757088959289963300,3.22496337890625,0.33464111993312834,0.016195932519435883,0.9567129880741237
1757088959299918000,3.23491796875,0.33290041374564167,0.006596914047002792,0.6528481146767735
1757088959309872000,3.2448720703125,0.2740389133237302,-0.07790449293553829,0.2956044100522995
1757088959319827200,3.2548271484375,0.22867533850893376,-0.18810089766681193,0.11133885276466607
1757088959329782300,3.2647822265625,0.17215470212474465,-0.15525252103209494,-0.017033552387356758
1757088959339736300,3.274736328125,0.1231963176883757,-0.07400222479999065,-0.022713936111330983
1757088959349691100,3.284691162109375,0.09496960950493812,0.1151303540021181,-0.004315817372500896
1757088959359646200,3.294646240234375,0.005379939472675323,0.30236674379408357,0.1694169477239251
1757088959369600300,3.304600341796875,-0.1154233455993235,0.384431863540411,0.37653321924507616
1757088959379555300,3.314555419921875,-0.19022351584397254,0.31851123838722706,0.6463838870987296
1757088959389510100,3.32451025390625,-0.2007951056756079,0.3074053224831819,0.7564543273627757
1757088959399464200,3.334464111328125,-0.2273218780733645,0.3487684294849634,0.7753811461508273
1757088959409419300,3.344419189453125,-0.11123583078160881,0.2915478281378746,0.7494090850263834
1757088959419374300,3.354374267578125,0.10289221919775009,0.2609697345227003,0.7294999772027134
1757088959429328100,3.364328125,0.41176052690558135,0.306869900432229,0.814412595334649
1757088959439283200,3.374283203125,0.7426186211686581,0.412938411578536,0.9112889152437448
1757088959449238300,3.38423828125,0.8567582836329937,0.3561193767696619,0.8056278158545493
1757088959459192300,3.3941923828125,0.8651881852608173,0.21121815388202667,0.6110659054800868
1757088959469147100,3.404147216796875,0.7164682808678596,0.23387539137005806,0.5427122079610824
1757088959479101200,3.41410107421875,0.2437712738972157,0.028843817168474197,0.4652934527158737
1757088959489056000,3.424055908203125,-0.14657821618914604,0.16326456257402897,0.21679916888475417
1757088959499011300,3.43401123046875,-0.1267396893836558,0.32743279598951336,0.1378024967983365
1757088959508965400,3.44396533203125,-0.33806977920755743,0.21784137141406534,0.05848872158676385
1757088959518920200,3.453920166015625,-0.3173497933924198,0.12923311363458634,-0.23126491661071777
1757088959528875000,3.463875,-0.14764080391936002,0.023492519268393516,-0.7041179909259081
1757088959538829000,3.4738291015625,0.0006171820502728223,-0.17556114956736563,-0.7678823148280381
1757088959548784000,3.4837841796875,0.0024012159228324888,-0.26986089698672294,-0.7621747508361936
1757088959558739200,3.4937392578125,-0.04671272440142929,-0.4571183295667171,-0.7499202494189142
1757088959568693200,3.503693359375,0.024754502028226853,-0.6080027185171842,-0.6382438352629543
1757088959578648000,3.51364794921875,0.10675115964822471,-0.7023024659365416,-0.5005249250948429
1757088959588603100,3.52360302734375,0.1270726476650685,-0.5680395414412022,-0.37467794676721095
1757088959598557200,3.53355712890625,0.08674772460460663,-0.4013537722468376,-0.24996435638368128
1757088959608512300,3.54351220703125,0.01856324617266655,-0.25803543463647366,-0.257947171831131
1757088959618467000,3.553467041015625,-0.05771342636533081,-0.17770049968361853,-0.21723697578012943
1757088959628421400,3.56342138671875,-0.08788995344229042,-0.13943886582851409,-0.13673019139170645
1757088959638376200,3.573376220703125,-0.03530409922376275,-0.12047872929275036,0.03466565518975258
1757088959648331300,3.583331298828125,0.0614823504447937,-0.1326151572883129,0.23488223032504318
1757088959658285000,3.59328515625,0.10558109295554459,-0.00274842192530632,0.43001317275911566
1757088959668240400,3.603240478515625,0.13543722897171973,0.046641924187541005,0.4819219314336776
1757088959678195200,3.6131953125,0.08944595071263611,0.08899111961722374,0.5904980414867401
1757088959688149200,3.623149169921875,-0.019181670331954954,0.187017194083333,0.5668979701906443
1757088959698104000,3.63310400390625,-0.11911620876789092,0.261430922293663,0.4610796344131231
1757088959708059400,3.643059326171875,-0.21029577834010124,0.21033201869726179,0.400470851932466
1757088959718013200,3.65301318359375,-0.36865211060643194,0.1722901650726795,0.268322143112123
1757088959727968300,3.66296826171875,-0.3416998793382197,0.27504852875769137,0.19157792612761257
1757088959737923000,3.672923095703125,-0.4018856871664524,0.185305129468441,0.1151066808655858
1757088959747877000,3.682877197265625,-0.25316695181727406,0.19914193164110183,0.12405688004046678
1757088959757832200,3.692832275390625,0.1732149517673999,0.5033563491284847,0.5281748563036323
1757088959767787300,3.702787353515625,-0.07048157639317214,0.3501017239153385,0.32866467587202786
1757088959777741300,3.7127412109375,-0.3014555472332984,0.02581190212666988,0.20045769041478634
1757088959787696000,3.722696044921875,-0.06842873551659286,-0.06243044494986534,-0.12004647535532713
1757088959797650200,3.732650146484375,-0.3580570668339729,-0.21624621117711065,-0.5435276159971952
1757088959807605200,3.742605224609375,-0.618337723113969,-0.207051097330451,-0.645974721775949
1757088959817560300,3.752560302734375,-0.39715902397073805,-0.21069149965941905,-0.5910328790158033
1757088959827514000,3.76251416015625,-0.4968224903803318,-0.04859364277720451,-0.8903905041217803
1757088959837469200,3.77246923828125,-0.5917920998852699,-0.10926467683911323,-0.8072907806307077
1757088959847424300,3.78242431640625,-0.4540601110398769,-0.048910453641414636,-0.5434989744246006
1757088959857378300,3.79237841796875,-0.3385083167552948,-0.0323117855399847,-0.4573907167673111
1757088959867333000,3.8023330078125,-0.3687432229559868,-0.03156768917441368,-0.5004828395187855
1757088959877288200,3.8122880859375,-0.4632311864238232,-0.10394903477430344,-0.6085819797098636
1757088959887242200,3.8222421875,-0.4063958580672741,-0.08733809171319007,-0.4368129159018397
1757088959897197300,3.832197265625,-0.4198819471061229,-0.09425006305873393,-0.48775516763180493
1757088959907152100,3.842152099609375,-0.3295486921649426,-0.05089081380367279,-0.33496494506001473
1757088959917106200,3.852106201171875,-0.2967979306858033,-0.026567688930034635,-0.23202888672053812
1757088959927061200,3.862061279296875,-0.2450796530820429,-0.006783961051702499,-0.15777414846420287
1757088959937016300,3.872016357421875,-0.2469359484732151,-0.009833996272087097,-0.15330138696432113
1757088959946970000,3.88197021484375,-0.2778091525774449,-0.022884616503119466,-0.213448104891181
1757088959956925200,3.89192529296875,-0.27185988878421485,-0.04424713800549507,-0.285582782253623
1757088959966880000,3.9018798828125,-0.15164609403796492,-0.10678864211440085,-0.3916995164558291
1757088959976834300,3.911834228515625,-0.2416331658899784,-0.05297112720906734,-0.22862609253972768
1757088959986789000,3.9217890625,-0.2653671657640487,-0.01947685388624668,-0.09096914169192313
1757088959996743200,3.9317431640625,-0.10966456287689506,0.057419923311471936,-0.060435764001309865
1757088960006698200,3.9416982421875,-0.05042677648849785,0.17068331439793108,0.027560791620612143
1757088960016653300,3.9516533203125,-0.11136888257674872,0.30197102247476576,0.09846563492715359
1757088960026607400,3.961607421875,-0.0862999808371067,0.34725919396579263,0.08160568554103374
1757088960036562200,3.971562255859375,0.011131707932427525,0.28941490776240825,0.07319441554844379
1757088960046517200,3.981517333984375,0.07716755696311593,0.20913491786718366,0.10182195961773395
1757088960056471000,3.991470947265625,0.05507591746859252,0.13104279340505598,0.1267310676857829
1757088960066426400,4.00142626953125,0.04514028745293617,0.08390928630828857,0.13421060978621244
1757088960076381200,4.011381103515625,0.03860891292281449,0.06441840389668942,0.10027619148045777
1757088960086335200,4.021335205078125,0.038006855376437304,0.06953530851900577,0.018724574214220045
1757088960096290000,4.0312900390625,0.046709217270091176,0.08051964386999606,-0.0436903809055686
1757088960106245400,4.041245361328125,0.046855274677276605,0.08978840747475623,-0.09806932908594608
1757088960116199200,4.05119921875,0.07323591660261154,0.08325403726994991,-0.09987930111736058
1757088960126154200,4.061154296875,0.057863210099563,0.0484720622241497,-0.12153116095513104
1757088960136109000,4.071109130859375,0.04284077833890915,0.009378653720021248,-0.12393968340158462
1757088960146063000,4.08106298828125,0.06102759241461753,0.0009217910200357436,-0.12037789926677941
1757088960156018200,4.09101806640625,0.03299165756292641,-0.007328735452890396,-0.08306260635107755
1757088960165972200,4.10097216796875,0.040461774247884746,-0.05007949742078781,-0.020674246977269647
1757088960175927000,4.110927001953125,0.0647672903995961,-0.06319675314724445,0.012870879749953747
1757088960185881600,4.120881591796875,0.05031790928654373,-0.07658288894295692,0.09244067554920911
1757088960195835600,4.130835693359375,0.06053878598436713,-0.11350655219256878,0.1499310337483883
1757088960205790500,4.14079052734375,0.07721760664992033,-0.12044482702314853,0.20729835008978842
1757088960215745800,4.150745849609375,0.08614683610200881,-0.09654840312898158,0.2520569447487593
1757088960225699600,4.160699462890625,0.13331424546837806,-0.07925356945693493,0.29212825837433337
1757088960235654700,4.170654541015625,0.1754582737147808,-0.037004327270388604,0.37395167831927534
1757088960245609500,4.180609375,0.1899976711988449,0.11143909826874732,0.45709085703790187
1757088960255563800,4.190563720703125,0.1713117484945804,0.07606149541735649,0.5157295084893703
1757088960265518600,4.2005185546875,0.1985551447290927,0.04281915102899074,0.5634384773865342
1757088960275473700,4.2104736328125,0.1987994748789817,0.028212533527612684,0.5697638810157776
1757088960285427500,4.220427490234375,0.2294027029354125,0.04400865307450294,0.5918734214931726
1757088960295382500,4.230382568359375,0.2635189075488597,0.0896814399689436,0.5230050524502993
1757088960305336800,4.2403369140625,0.25149865327887233,0.13075988481044767,0.5000736741960048
1757088960315291600,4.250291748046875,0.2780780326467007,0.10703589487373828,0.41841099777072666
1757088960325246500,4.26024658203125,0.3174373986106366,0.08334346911907195,0.3822723474189639
1757088960335200500,4.270200439453125,0.31980010915398593,0.11090952143669128,0.3616644436761737
1757088960345155800,4.28015576171875,0.3130360218465328,0.13791618630588054,0.35919279286563394
1757088960355110700,4.290110595703125,0.26369068391919137,0.1298228962212801,0.3298626534849405
1757088960365064700,4.300064697265625,0.21584047992043195,0.1833709465354681,0.2659957459911704
1757088960375019500,4.31001953125,0.14814590389728546,0.29325170944631096,0.24264292745441196
1757088960384974600,4.319974609375,0.04320551999807357,0.40150399437248707,0.17128128029108047
1757088960394928600,4.3299287109375,-0.029215573090314865,0.3685445585787296,0.038651509955525395
1757088960404883700,4.3398837890625,-0.042080899882316586,0.2611047590792179,-0.12495996636003255
1757088960414838500,4.349838623046875,-0.0684147800564766,0.09410159449875354,-0.17174714423716067
1757088960424792600,4.35979248046875,-0.020081834042072293,-0.07178337970674037,-0.2299164246112108
1757088960434747600,4.36974755859375,0.05286883587837219,-0.18960662605464457,-0.4663669271662831
1757088960444701700,4.37970166015625,0.13253690442033111,-0.22053309471607208,-0.47356969815194605
1757088960454656500,4.389656494140625,0.18652093499898909,-0.19276655139029025,-0.39308424881249665
1757088960464611600,4.399611572265625,0.2629997790455818,-0.17327742254436015,-0.3084223905712366
1757088960474565600,4.409565673828125,0.2723660847406834,-0.15938801340162753,-0.17280892824977637
1757088960484520700,4.419520751953125,0.1768528698783368,-0.0757686499506235,0.00877425808608532
1757088960494475500,4.4294755859375,0.052281902835890647,-0.10656652379631995,0.04876256960332393
1757088960504429600,4.4394296875,-0.06939684989638627,-0.10926526136100291,0.07503449045717715
1757088960514384400,4.44938427734375,-0.11566409555263817,-0.13862521135807038,0.031954350404441355
1757088960524339700,4.459339599609375,-0.06990531087517737,-0.137547937515378,-0.04053337817937135
1757088960534293800,4.469293701171875,-0.03378310020156205,-0.08586100489795208,-0.040217151837050914
1757088960544248600,4.47924853515625,0.0204862501244992,-0.04638765716552734,0.006175181503593921
1757088960554202600,4.48920263671875,0.06928798269443213,-0.01878711805641651,0.06985591877549886
1757088960564157700,4.49915771484375,0.08066277866773307,-0.008303133442997932,0.14417700026631355
1757088960574112800,4.50911279296875,0.0577531738538295,0.023339959055185315,0.20026275236457586
1757088960584066600,4.519066650390625,0.009530117954686284,0.05486147100031376,0.26125088955163955
1757088960594021600,4.529021728515625,-0.041601664998009796,0.08813070339560508,0.30374007797390223
1757088960603976700,4.538976806640625,-0.08563150699101388,0.1128518876761198,0.3374477017864585
1757088960613930800,4.5489306640625,-0.0998247213859111,0.1398351716697216,0.3609931202858686
1757088960623885600,4.558885498046875,-0.10416538093872368,0.12668050654232502,0.36833150034993883
1757088960633840600,4.568840576171875,-0.0712333446085453,0.10388473736643791,0.35324265228956936
1757088960643794400,4.57879443359375,-0.011526771664619444,0.0682967066347599,0.338588103993237
1757088960653749800,4.588749755859375,0.05441197366714477,0.05278875637948513,0.30992402730584145
1757088960663703800,4.598703857421875,0.10799166122861206,0.0339981311917305,0.3187634595826268
1757088960673658600,4.60865869140625,0.17197328114323318,0.047829088145494456,0.3147618227258324
1757088960683613400,4.618613525390625,0.18039631463885306,0.04282616529166698,0.2952951979726553
1757088960693567500,4.6285673828125,0.1936390964411199,0.05651157629489898,0.3036655514329672
1757088960703522600,4.6385224609375,0.18087671856693924,0.09597732524275779,0.2779617858558893
1757088960713477600,4.6484775390625,0.16022789829187095,0.07616320222616195,0.2611108965590596
1757088960723431700,4.658431640625,0.12884849823117256,0.09136778562068938,0.24103052382171153
1757088960733386500,4.668386474609375,0.12147643509320914,0.1021335097849369,0.21129034233540295
1757088960743341600,4.678341552734375,0.07266542323827743,0.07646013934612274,0.19420710558742282
1757088960753295600,4.688295654296875,0.038598391528800124,0.04759527938961983,0.16425503491610288
1757088960763250700,4.698250732421875,0.025963293296098706,0.007640285620093345,0.12062427524328231
1757088960773204500,4.70820458984375,-0.014139584511518477,-0.018791209709644315,0.08253215273618697
1757088960783159800,4.718159912109375,-0.04563362392783165,-0.037513445836305614,0.01976151604652405
1757088960793114600,4.728114501953125,-0.03895012757591903,-0.05878419740200042,-0.013676058652997015
1757088960803068700,4.738068603515625,-0.007243395256996154,-0.06823007113933563,-0.06115004975050688
1757088960813023500,4.7480234375,0.05919928100891411,-0.06338555371761322,-0.1124596734881401
1757088960822978800,4.757978759765625,0.12062778237462043,-0.05684241568446159,-0.11605594441443681
1757088960832932600,4.7679326171875,0.1902406131092459,-0.00981470704972744,-0.07618073788285255
1757088960842887700,4.7778876953125,0.24415114006027577,0.04093348341286182,-0.03537234215438366
1757088960852842500,4.787842529296875,0.27505371638946235,0.07429448574483394,0.05672784939408302
1757088960862796500,4.797796630859375,0.2856359006803483,0.12087211252450943,0.15783523100167512
1757088960872751600,4.807751708984375,0.27943646151833235,0.15631050565242766,0.2649839386001229
1757088960882705700,4.81770556640625,0.29287345071844756,0.1796323445290327,0.28329788618683815
1757088960892660700,4.82766064453125,0.3547287991940975,0.20558920808434486,0.2766185545533895
1757088960902615600,4.837615478515625,0.45167051248960194,0.21596856327950953,0.22410218537449836
1757088960912569600,4.847569580078125,0.5953063185513019,0.21680676766932008,0.18161738086640833
1757088960922524700,4.857524658203125,0.7135492516160011,0.2187935575723648,0.17098843482434747
1757088960932479700,4.867479736328125,0.746047572704032,0.22452128756940362,0.20522358964234588
1757088960942433500,4.87743359375,0.755963328975439,0.24264146614968776,0.2820873413532972
1757088960952388600,4.887388671875,0.7681739912509917,0.2856996866315603,0.30873598656505347
1757088960962343700,4.89734375,0.7772725128553807,0.3327092750877142,0.3504702649667859
1757088960972297700,4.907297607421875,0.8762473394136875,0.33512861118912696,0.4604854679122567
1757088960982252500,4.91725244140625,1.1083984642744065,0.312865925976634,0.584205663344264
1757088960992206600,4.92720654296875,1.3045897294163704,0.3452139518737793,0.6787602623075246
1757088961002161400,4.937161376953125,1.3236322835385799,0.38847967762649055,0.7715949056103825
1757088961012116700,4.94711669921875,1.3364049636110662,0.45054245830774303,0.8140849708154797
1757088961022070500,4.957070556640625,1.4847535504736005,0.5837123268693685,0.7604869438797235
1757088961032025600,4.967025634765625,1.2181785432897507,0.7811854485154152,0.7416229611948132
1757088961041980400,4.97698046875,0.46351986717209215,0.935121626251936,0.7280158761247992
1757088961051934700,4.986934814453125,0.12207622761726379,1.3241384794950484,0.6019476562619209
1757088961061889500,4.9968896484375,-0.45607875738590953,1.6739853518664836,0.4967454065561294
1757088961071843600,5.006843505859375,-0.46778556179255243,1.5921587170511484,0.11724164706766604
1757088961081798700,5.016798583984375,-0.7455553322076797,1.4639146144539117,-0.1011006596058607
1757088961091753700,5.026753662109375,-1.010844391234219,1.1665075388938189,-0.41564562471061944
1757088961101707800,5.036707763671875,-0.8714461496770382,0.6749860044658184,-0.9397717901453375
1757088961111662600,5.04666259765625,-0.45709144155979153,0.23020225581526754,-1.2070569914251565
1757088961121617700,5.05661767578125,-0.25630408079922196,-0.038839141482114786,-0.7791860913917422
1757088961131571500,5.066571533203125,0.07708440872430801,-0.1306593470454216,-0.5950687104031444
1757088961141526800,5.07652685546875,1.0285068891748785,-0.14984043285548687,-0.5591077547058463
1757088961151481600,5.086481689453125,1.6155261486351489,-0.17775602926313877,-0.46930765679329633
1757088961161435600,5.096435546875,1.3129802488818765,-0.3092529961764812,0.08263269050121307
1757088961171390500,5.106390380859375,0.56715779017061,-0.4080214134424925,0.24674188720583914
1757088961181345000,5.116344970703125,-0.10101005871295929,-0.15831541573405264,-0.030395430524647233
1757088961191299800,5.1262998046875,-0.5492079997211694,0.06851064164638519,0.06353051514625549
1757088961201255000,5.1362548828125,-0.6064294778510928,-0.017667174115777014,-0.01833148324340582
1757088961211208700,5.146208740234375,-0.5948781562671065,-0.2208358770549297,-0.14616028303802012
1757088961221163800,5.156163818359375,-0.5958949320942163,-0.5838917750895023,-0.3551365032121539
1757088961231118800,5.166118896484375,-0.6200248724833131,-1.0192226357400416,-0.43125382046997546
1757088961241073000,5.176072998046875,-0.5674883372992277,-1.4145640158295631,-0.40973873875439165
1757088961251027700,5.18602783203125,-0.3891682444125414,-1.5012264002382754,-0.5338172461047769
1757088961260981800,5.195981689453125,-0.2996346884816885,-1.5244289966493845,-0.601774053260684
1757088961270937000,5.20593701171875,-0.22460838133096694,-1.3965285929232836,-0.3036503538638353
1757088961280892000,5.215891845703125,-0.1602349856197834,-1.2237708103388547,0.02284311544895172
1757088961290846000,5.225845947265625,-0.24560733021795747,-1.1758137118995189,-0.021728432205319403
1757088961300800800,5.23580078125,-0.32566812440454956,-1.171636133953929,0.05551876586526632
1757088961310756000,5.245756103515625,-0.3072492551386356,-1.038306690916419,0.07610124290585517
1757088961320710000,5.2557099609375,-0.3183548787817359,-1.0411088888555764,-0.06776566849797963
1757088961330665000,5.2656650390625,-0.19647505051940678,-0.9899217224538326,-0.23642712167948482
1757088961340618800,5.27561865234375,0.0021697452545166016,-0.7282628366231918,-0.30060177994817494
1757088961350573800,5.28557373046875,0.16571575511842965,-0.5251221907347441,-0.3396975265398621
1757088961360529000,5.29552880859375,0.38501580090820786,-0.5150888724982738,-0.3815250361829996
1757088961370483000,5.30548291015625,0.5899649575233459,-0.4096890543937683,-0.42393063797503705
1757088961380437800,5.315437744140625,0.7626321392148733,-0.14480419225394725,-0.4649056224420666
1757088961390392800,5.325392822265625,0.9613429859623313,0.09929039531350135,-0.3770020058006048
1757088961400347000,5.335346923828125,1.1206053271576761,0.26142624611854554,-0.1907145872965455
1757088961410302000,5.345302001953125,1.3713655100941657,0.4320791653782129,0.1019958548799157
1757088961420256000,5.355256103515625,1.3773439999818802,0.6799211227804421,0.38308337154090405
1757088961430210800,5.3652109375,1.2512646742030977,0.7331406717926263,0.606503712131083
1757088961440165600,5.37516552734375,1.0253493019267916,0.6784148098707199,0.8162547160699963
1757088961450120000,5.385119873046875,0.8107128640338778,0.47698038337826726,0.9104030723199248
1757088961460075000,5.395074951171875,0.7572448932185769,0.3852063550442457,0.9934989964187144
1757088961470029800,5.40502978515625,0.752375241355598,0.31697628390491006,0.9268331058561802
1757088961479983900,5.41498388671875,0.7563330390706658,0.12755202867984772,0.9146209822759032
1757088961489939000,5.42493896484375,0.7018006538942456,-0.016101824495196343,0.7848442632839083
1757088961499893000,5.43489306640625,0.5532862089455127,-0.3098258276283741,0.6378215181976556
1757088961509847800,5.444847900390625,0.41565117766857146,-0.7255319503545761,0.48156741890758276
1757088961519803000,5.454802978515625,0.15210048674196003,-1.0780506722837686,0.25294337219446894
1757088961529756700,5.464756591796875,-0.0790624307990074,-1.330817811128497,0.08646306244432926
1757088961539712000,5.4747119140625,-0.039615678812563414,-1.3414216227293014,-0.0431564201593399
1757088961549666800,5.484666748046875,0.07196545827537774,-1.6325450879752634,-0.3329749402865767
1757088961559620900,5.494620849609375,0.2257692418038845,-1.5995342142552136,-0.3985533278733492
1757088961569575700,5.50457568359375,0.3472717611864209,-1.4212228891968726,-0.23908640401661393
1757088961579529700,5.51452978515625,0.2824874465867877,-1.3741431581139563,-0.013282383160293102
1757088961589485000,5.524485107421875,0.23233313036411998,-1.3545599212437867,0.07334931384921073
1757088961599440000,5.53443994140625,0.27342297338247296,-1.2661480628192423,0.0840343739926815
1757088961609394000,5.544393798828125,0.3014364772066474,-1.1307394754201172,0.06793108819276095
1757088961619348700,5.5543486328125,0.347260363009572,-1.048472695621848,-0.06058540160506963
1757088961629303800,5.5643037109375,0.41909547290354965,-1.0042115290910005,-0.3148860336273908
1757088961639257900,5.5742578125,0.530996927987039,-0.9664116675287484,-0.5793181835636496
1757088961649213000,5.584212890625,0.6374640830621123,-0.9310030850172042,-0.677610800011456
1757088961659166700,5.594166748046875,0.7329130005165934,-0.8801216235637664,-0.6277575125619769
1757088961669122000,5.6041220703125,0.8457201722681522,-0.8616939864695071,-0.38029286403954027
1757088961679076900,5.614076904296875,0.9139885295912623,-0.8798843076765537,-0.10991232709288597
1757088961689031000,5.624031005859375,0.8845558066189289,-0.970368296200037,0.05786269864290952
1757088961698985700,5.63398583984375,0.882873260359466,-1.0575246016055344,0.19283464819043875
1757088961708941000,5.643941162109375,0.9264224792286753,-1.0945090551316738,0.24506986234039066
1757088961718894800,5.653894775390625,1.0917685242518782,-0.9980027375787496,0.23954145430773496
1757088961728850000,5.663849853515625,1.1803238828003406,-0.8434902212589979,0.218451904527843
1757088961738804000,5.673803955078125,1.2832394828736782,-0.7377028651416301,0.14340075519680975
1757088961748758800,5.6837587890625,1.409370246578753,-0.6910977658331394,0.0068473816767334935
1757088961758713900,5.6937138671875,1.223134266000986,-0.5809042837113142,-0.522781765088439
1757088961768668000,5.70366796875,0.7380012635663151,-0.05914426288604736,-1.459213889417052
1757088961778623000,5.713623046875,0.6210147603034972,1.1486223381131886,-1.9435706467822194
1757088961788576800,5.72357666015625,0.8660217865407467,2.180945278444886,-1.6439140387296676
1757088961798531800,5.73353173828125,1.0941975049644708,1.929566963610053,-1.2367156321078538
1757088961808487000,5.74348681640625,1.0162670008048416,1.0636790325820444,-1.2122431618914007
1757088961818441000,5.75344091796875,0.8846221498534083,0.6054290686368942,-1.2474772646188734
1757088961828395800,5.763395751953125,1.208266367214918,0.6077683252394199,-1.015609705939889
1757088961838350800,5.773350830078125,1.9803110624194145,0.8963023585140705,-0.6895759630933403
1757088961848305000,5.783304931640625,2.5664237284287807,1.1055080035299063,-0.534169420543313
1757088961858260000,5.793260009765625,2.7466686518982053,1.317449210989475,-0.3280708016321063
1757088961868214000,5.803214111328125,2.7236332287475467,1.4690700975209474,0.027534488135576247
1757088961878168800,5.8131689453125,2.681046132908761,1.2899766821742058,0.3364966846719384
1757088961888123600,5.82312353515625,2.487962478393316,0.7464736160963773,0.4558046166196465
1757088961898078000,5.833077880859375,2.071264129759371,0.13950316323637962,0.4467556332454085
1757088961908032800,5.84303271484375,1.5639613810926676,-0.4526964214712381,0.27537761458158494
1757088961917986800,5.85298681640625,1.1180623646765946,-0.9084715197354555,0.055204293088614936
1757088961927942000,5.86294189453125,0.7672612603202462,-1.048640453404188,-0.2031213566660881
1757088961937897000,5.87289697265625,0.35992344522774217,-0.9487123447090386,-0.5255220037072896
1757088961947851000,5.88285107421875,-0.05715104324221611,-0.6525257508546114,-0.6835138865754008
1757088961957805800,5.892805908203125,-0.304706584918499,-0.2662316005736589,-0.737307728344202
1757088961967761000,5.902760986328125,-0.47732028285712,0.12031330959796904,-0.6164201259896159
1757088961977714700,5.912714599609375,-0.6898962810888886,0.4300882838219404,-0.39729806711524723
1757088961987670000,5.922669921875,-0.921238354589045,0.3718348322957754,-0.1681491197451949
1757088961997623800,5.932623779296875,-0.9441951595455408,0.04384849407672882,0.10284341161996126
1757088962007579000,5.942578857421875,-1.031424822448194,-0.3240601046860218,0.1952916859537363
1757088962017533700,5.95253369140625,-1.1891057396709919,-0.5649105957657098,0.22666940551400183
1757088962027487700,5.96248779296875,-1.3998068839415907,-0.6888181304633617,0.22142215251028535
1757088962037442800,5.97244287109375,-1.6256465606331825,-0.7201338907033205,0.10768763678073882
1757088962047396900,5.98239697265625,-1.9669655508950352,-0.6664975775837898,-0.030217735870182512
1757088962057352000,5.99235205078125,-2.0194871807709336,-0.5400532178848981,-0.25329496211111546
1757088962067306800,6.002306640625,-1.7513342567458747,-0.3166945443540811,-0.3756125972688198
1757088962077261000,6.012260986328125,-1.1486787444755435,-0.09658990418314933,-0.5980933189213276
1757088962087215900,6.0222158203125,-0.8890227228999137,0.3264385242551565,-0.5182195717394351
1757088962097170000,6.032169921875,-0.37564679179936644,0.6611269904613495,-0.5215840797364711
1757088962107124700,6.042124755859375,0.3122375649452209,0.7877139735013247,-0.3503635897219181
1757088962117080000,6.052080078125,0.29322642887458206,0.8506061907440423,-0.12050240242928266
1757088962127033900,6.062033935546875,-0.24595073682814836,0.6774632082343102,-0.024187515795230864
1757088962136989000,6.071989013671875,-0.6131681384563445,0.41437984255850313,0.2965036969795823
1757088962146943700,6.08194384765625,-0.8113784883357584,0.2409399229288101,0.3439244965851307
1757088962156897800,6.091897705078125,-0.9433061017513275,0.09757540808916092,0.265256033539772
1757088962166852900,6.101852783203125,-1.0075216765522956,-0.04010346232950687,0.3405363154515624
1757088962176807000,6.111806884765625,-1.024606082344055,-0.30372809527516365,0.43796500854641196
1757088962186761700,6.12176171875,-1.0730828207433223,-0.6500830338776111,0.6048220426544547
1757088962196716500,6.131716552734375,-1.1482289548814295,-0.9823679460734128,0.7294725046738981
1757088962206670600,6.141670654296875,-1.1437667147755621,-1.2318126624971628,0.7699190813526511
1757088962216625700,6.151625732421875,-0.979440148993209,-1.3381202430963515,0.646129327815771
1757088962226579700,6.161579833984375,-0.7742306609414518,-1.1854273434191942,0.5706070538416504
1757088962236534500,6.171534423828125,-0.16163535393700001,-0.8183382443457842,0.4519985023349523
1757088962246489600,6.181489501953125,0.585916705045849,-0.5091793561935425,0.25947189718037844
1757088962256443400,6.191443359375,1.0764182487763463,-0.44106502038836476,0.09467939438670873
1757088962266398700,6.201398681640625,1.1005074187636374,-0.3866571383744478,0.15430150391757488
1757088962276352800,6.211352783203125,0.8839433007437735,-0.21503157469034193,0.3317377997070551
1757088962286307600,6.2213076171875,0.8098035671692341,-0.1528589038938284,0.36441286560148
1757088962296262400,6.231262451171875,0.8709176688235253,-0.1479401521921158,0.42900721058696506
1757088962306216400,6.241216552734375,0.87828739387393,-0.32109014896452426,0.44798254469186066
1757088962316171500,6.251171630859375,0.8413749096054584,-0.4356254596829414,0.6130427585110068
1757088962326126600,6.261126708984375,0.6947497855346649,-0.32386604341864583,0.7807774522364139
1757088962336080600,6.27108056640625,0.526315053781122,-0.406138668435812,0.7651619499534368
1757088962346035500,6.281035400390625,0.4393500331640243,-0.5856032551825047,0.8267588666886091
1757088962355989800,6.29098974609375,0.4371545689463615,-0.7074737310945988,0.790430538983643
1757088962365944600,6.300944580078125,0.47752629029061644,-0.7763549596190452,0.7651374000340699
1757088962375899600,6.310899658203125,0.5065653377702459,-0.6464625052928924,0.7598229270130396
1757088962385853400,6.320853515625,0.5868062012314796,-0.8391507307499647,0.5921890633136033
1757088962395808500,6.33080859375,0.8472060269117355,-0.7680307833880186,0.4318050246119499
1757088962405762600,6.340762451171875,0.9510849190592765,-0.6918132206261157,0.36172435716986656
1757088962415717600,6.350717529296875,1.0376537799656391,-0.5862433066517114,0.3033200989961624
1757088962425672400,6.36067236328125,1.1119254693567753,-0.4967003983706236,0.1893792470395565
1757088962435626500,6.37062646484375,1.0760194587171077,-0.28625381338298317,0.30740064630806446
1757088962445581600,6.38058154296875,1.0473697028160094,-0.04673895482122898,0.5385600567176938
1757088962455535600,6.39053564453125,1.019165937116742,0.2669786195486784,0.7075342291101813
1757088962465490700,6.40049072265625,0.8308797460108995,0.579116231250763,0.9017427960023283
1757088962475445500,6.410445556640625,0.7071639344930648,0.8009493026494979,1.0810025078266858
1757088962485399600,6.420399658203125,0.7850713500380515,0.9244745600312948,1.1420160717159509
1757088962495354600,6.430354736328125,0.9451485147476196,0.8301198675543069,1.0962380708813666
1757088962505308700,6.44030859375,1.1722241629749537,0.6333791518360375,1.0158394230425358
1757088962515263500,6.450263427734375,1.3926046974778175,0.6380752006977796,1.0478671309441328
1757088962525218600,6.460218505859375,1.4159949254155157,0.9604583120822906,1.2693629332125187
1757088962535172400,6.47017236328125,1.2454869675844906,1.3390338508099318,1.3506328109279273
1757088962545127700,6.480127685546875,1.2252712780296802,1.5334978537678718,1.1620707254901528
1757088962555081700,6.490081787109375,1.561795142969489,1.4829811339735983,0.6795683638200164
1757088962565036500,6.50003662109375,1.9471137262165545,1.1636141555398702,0.21545418401658534
1757088962574991400,6.509991455078125,2.2607383616060015,1.017853100952506,-0.06193856977969408
1757088962584945700,6.519945556640625,2.1324194402068852,1.0079588989257813,0.1630921286165714
1757088962594900700,6.529900634765625,1.835686318385601,1.4773410822600126,0.15018471624851226
1757088962604855600,6.53985546875,1.9903607472687959,2.0783768843740225,0.07771978401839733
1757088962614809600,6.5498095703125,2.473362290632725,1.9642799650728702,0.25141309388726946
1757088962624764700,6.5597646484375,2.7363948029041287,1.9135241758257149,0.7627946363002062
1757088962634718700,6.56971875,2.3940566987276077,2.1285803004354236,1.6207450523272156
1757088962644673500,6.579673583984375,1.5595809740513562,2.672996974226832,2.6506127084612845
1757088962654628600,6.589628662109375,0.9689011462569236,3.580951192089915,3.027040713766217
1757088962664582400,6.59958251953125,0.8515256436765194,3.8655122300803657,2.6763673274427653
1757088962674537700,6.609537841796875,1.0609487308353185,3.8290602759957313,1.9814695848047732
1757088962684491500,6.619491455078125,1.1036235049575567,3.8851445667892692,1.5075591103911399
1757088962694446600,6.629446533203125,0.6255132407665253,3.844055016031861,1.6072805905982852
1757088962704401400,6.6394013671875,-0.07170272481911816,3.383273487782478,1.8181357563868163
1757088962714355500,6.64935546875,-0.5809481228530406,2.3051257848650217,1.6894444945439695
1757088962724310500,6.659310546875,-0.8196727078199386,0.987059903281927,1.082205453875661
1757088962734264600,6.6692646484375,-0.643848523402214,-0.15726561442017553,0.04627309087514877
1757088962744219600,6.6792197265625,0.13212532794475554,-0.9020984775722026,-1.4372168694034217
1757088962754174500,6.689174560546875,1.1177402931153773,-0.7326064187854529,-2.847278605377674
1757088962764128800,6.699128662109375,1.5759879189729689,-0.29180209515988825,-3.737926883652806
1757088962774083600,6.70908349609375,1.4005378285646437,0.213770760974288,-4.309344669355452
1757088962784037600,6.71903759765625,0.7894961076777428,0.7330068162798881,-4.757848315311968
1757088962793992400,6.728992431640625,0.37957901668176053,0.9967471845597028,-4.665931079114973
1757088962803947800,6.73894775390625,0.19178835400789976,0.8809346935123205,-3.9573800741776823
1757088962813901600,6.748901611328125,-0.04978840551972389,0.6315156960517168,-2.7750954126983878
1757088962823856600,6.758856689453125,-0.6233296131171285,0.6476350562036037,-1.469542391207814
1757088962833810700,6.768810791015625,-1.1671157339200378,0.7029220591396093,-0.30769904473274945
1757088962843765500,6.778765625,-1.7115817998111247,1.042521678262949,1.1290656969889998
1757088962853720600,6.788720458984375,-2.0983435676038265,0.8984270955830812,1.2971496425434945
1757088962863674600,6.798674560546875,-2.1593922028064725,0.5251730441391468,1.3222615797072648
1757088962873629700,6.808629638671875,-2.417922435222566,0.3757990597516298,1.5476178567960857
1757088962883583500,6.81858349609375,-2.6636267960742113,0.3935895679861307,1.4977482027336955
1757088962893538600,6.82853857421875,-2.4777730928122996,0.4895049339085817,1.274312080052495
1757088962903493600,6.83849365234375,-1.6067667958572507,0.7647966237723827,1.593964597429335
1757088962913447700,6.84844775390625,-1.6815169164150952,0.9634890580803155,1.886856241391599
1757088962923402500,6.858402587890625,-2.7962916377231477,1.0941302849471568,2.215466848988831
1757088962933356500,6.8683564453125,-3.1422523163110014,0.9591472294837236,2.3016572319716215
1757088962943311600,6.8783115234375,-2.5832167500585315,0.28203531890511513,1.5730483583897352
1757088962953266700,6.8882666015625,-2.3656623788923024,-0.27847324250936506,0.904656637622416
1757088962963220500,6.898220458984375,-2.579832952839136,-0.5898480531454086,0.37831864135712384
1757088962973175600,6.908175537109375,-2.765801514652371,-0.8626052560955285,-0.14368892448842524
1757088962983129600,6.918129638671875,-2.794373236881196,-1.5771581317961214,-0.6790884713485836
1757088962993084700,6.928084716796875,-2.7664421506434675,-2.8920430452555417,-0.8179366778075694
1757088963003039500,6.93803955078125,-2.519718675877154,-3.242997586607933,0.16164368337392807
1757088963012993500,6.94799365234375,-2.4469293339982627,-3.31784619910419,0.5125216523587703
1757088963022948600,6.957948486328125,-2.6004084156170486,-3.241658446958661,0.2942977113679051
1757088963032902400,6.96790234375,-2.8000574199974535,-2.8044185378164053,0.2863426607102155
1757088963042857700,6.977857666015625,-2.972216944427788,-2.993802461031079,-0.15655425128042696
1757088963052812500,6.9878125,-3.073464611288905,-3.100861152258515,-0.19578765277713536
1757088963062766600,6.9977666015625,-2.900880139444768,-2.8459014718055724,-0.018974749583005903
1757088963072721400,7.007721435546875,-2.6518320211231705,-2.5003344687104225,0.4652878997579217
1757088963082675700,7.01767578125,-2.1554124855205417,-2.399412672802806,0.5239984474018216
1757088963092630500,7.027630615234375,-1.8498022297605872,-2.916526329126954,0.5577700763612985
1757088963102585600,7.037585693359375,-1.6999112357616424,-3.361676573002338,0.7018497537329793
1757088963112539600,7.04753955078125,-1.6082295618861913,-3.609061434286833,0.9611711365267633
1757088963122494500,7.057494384765625,-1.4469447749525308,-3.6903888874083757,1.049563705728948
1757088963132448800,7.06744873046875,-1.1436746525779367,-3.609672259661555,0.9073898619785904
1757088963142403600,7.077403564453125,-0.5620259802401065,-3.294343158441782,0.6388721962943673
1757088963152358700,7.087358642578125,0.34619214925616976,-2.7264351344257594,0.38505817874521014
1757088963162312400,7.0973125,1.45166478921175,-1.7118699691027401,0.19454671280533073
1757088963172267800,7.107267822265625,2.694926774223149,-0.31135201428234577,-0.026471827340126035
1757088963182221600,7.1172216796875,4.114129263508319,1.2947259225279093,-0.5168438994720578
1757088963192176400,7.12717626953125,5.613007054793834,3.032415392541885,-0.8791139078259468
1757088963202131500,7.13713134765625,6.713295862370729,4.869411039960384,-1.255161973902583
1757088963212085500,7.14708544921875,7.057129758062958,6.696984194517135,-1.6339198834598063
1757088963222040300,7.157040283203125,6.548057369375228,7.575380893984437,-2.3389938599362967
1757088963231994400,7.166994384765625,5.775605846935511,7.012419678720831,-2.396528641799092
1757088963241949400,7.176949462890625,4.888151688526571,5.562291597557068,-1.6856030166849494
1757088963251904500,7.186904541015625,4.071468225650489,3.159305157920718,-1.3095832999199628
1757088963261858600,7.196858642578125,3.5621453693330287,0.48128187996447086,-1.1938655014187096
1757088963271813400,7.2068134765625,2.852395802260935,-1.657013174277544,-0.7138526184767484
1757088963281767400,7.216767333984375,1.9244985743045806,-3.2392437870323656,-0.18062164782732723
1757088963291722500,7.226722412109375,0.7574503526628017,-4.001453901442885,-0.34047055673897264
1757088963301677600,7.236677490234375,-0.6578007686480879,-3.366778280055523,-0.7212120413288474
1757088963311631400,7.24663134765625,-0.913629048629105,-1.5144477008610964,-0.17719459598809478
1757088963321586400,7.25658642578125,0.16687866141796112,-0.29023265388607977,-0.1944984897494316
1757088963331540200,7.266540283203125,0.965782137453556,0.46129707655608654,-1.2613608285427094
1757088963341495600,7.27649560546875,1.1509218472272158,1.6115321105629206,-1.943379215863347
1757088963351449600,7.28644970703125,0.942144949017465,2.638937468236685,-2.1050693687275053
1757088963361404400,7.296404296875,0.11126578752845526,3.2213153316318985,-2.3333400719583035
1757088963371359200,7.306359130859375,-1.2556687543809413,3.3910523050904273,-2.6865686957225203
1757088963381313500,7.3163134765625,-2.4893103858709336,3.4679829845577475,-3.1985528802037235
1757088963391268600,7.3262685546875,-3.0034327514246106,3.688929920771718,-3.626618133765459
1757088963401222400,7.336222412109375,-2.4516031710281965,3.7745401657789945,-3.899923618248105
1757088963411177500,7.346177490234375,-1.3312746149852872,2.786564901217818,-3.757975399947166
1757088963421132500,7.356132568359375,-1.8399334544360637,0.3146434570431709,-3.032729573057592
1757088963431086600,7.366086669921875,-3.69878232948333,-2.1728858906298876,-1.5886600612804294
1757088963441041400,7.37604150390625,-5.547799546346068,-3.781813956174254,-0.11268003824055194
1757088963450995500,7.385995361328125,-5.873963345313072,-4.336746178761125,0.9938248673722148
1757088963460950300,7.3959501953125,-5.463653528672457,-4.579363094991446,0.8418009529978037
1757088963470905600,7.405905517578125,-4.8110228561386466,-4.189668780878186,-0.08154051135033369
1757088963480859400,7.415859375,-4.040919650390744,-2.993989508035779,-0.4437523597761988
1757088963490814500,7.425814453125,-3.4416344913363455,-0.8997633126229048,-0.3435670614495873
1757088963500768500,7.4357685546875,-2.855654219534993,2.2038380782544613,1.1222367277517915
1757088963510723300,7.445723388671875,-2.2239646282210943,5.441804100435972,2.701027136924863
1757088963520678400,7.455678466796875,-1.5721952486917377,6.577822977563739,3.172177498975396
1757088963530632400,7.465632568359375,-0.9752475926741957,5.133310398194194,3.469371808567643
1757088963540587500,7.47558740234375,-0.3596314765438437,2.3182693440765143,3.332062355983257
1757088963550541300,7.485541259765625,0.016954349671304225,-0.24133622877001762,2.3255852200478313
1757088963560496600,7.49549658203125,-0.01301934830993414,-1.6016273871421813,0.8062588072344661
1757088963570450400,7.505450439453125,-0.4392142779551446,-2.1348978130191565,-0.7104793426513671
1757088963580405500,7.515405517578125,-1.1819697503112256,-2.3635586846113203,-1.4895324553132057
1757088963590360300,7.5253603515625,-1.3993886585295199,-2.239445398208499,-0.8482941144093871
1757088963600314400,7.535314453125,-0.9711891110636294,-1.5494617310971022,0.2291319962352514
1757088963610269400,7.54526953125,-0.5032568342767656,-0.9553928453862667,0.9293611630290746
1757088963620223500,7.555223388671875,-0.6237281109154224,-0.7149801612019538,1.5621484864518045
1757088963630178600,7.565178466796875,-0.18743162010312078,-0.6547650542140007,1.2952587142303584
1757088963640133400,7.57513330078125,0.1446446177780628,-0.4981675483137369,1.1708572585359216
1757088963650087400,7.58508740234375,0.5686440832056104,-0.2814233244866133,0.766664755731821
1757088963660042500,7.59504248046875,1.0701882683455943,-0.686305270859599,0.09010492607802152
1757088963669996500,7.60499658203125,0.7471849792361259,-1.2069541155725716,0.30417174738943575
1757088963679951400,7.614951416015625,1.2354419589102268,-0.8937012361049651,0.4877145433604717
1757088963689906400,7.624906494140625,1.5558184066474436,-0.542218871486187,0.8471431908085941
1757088963699860200,7.634860107421875,1.2615221565842627,-0.14655132818222044,1.369785547426343
1757088963709815600,7.644815673828125,0.8860113391894847,0.1264981357127428,1.6063915328040719
1757088963719769600,7.65476953125,0.6059094725649804,-0.12193711140751838,1.5792513046830892
1757088963729724400,7.664724365234375,0.07135602114014328,-0.5822480995357037,1.5212056506887077
1757088963739679200,7.67467919921875,-0.5349053336024284,-0.7173164951950312,1.6690616317287086
1757088963749633500,7.684633544921875,-0.6102584250221028,-0.7641080569863319,1.666544972732663
1757088963759588400,7.69458837890625,-0.3069792060256004,-1.080401619324088,1.409726512670517
1757088963769542400,7.70454248046875,0.09780684222485869,-1.556685252609849,1.0041720738634468
1757088963779497500,7.71449755859375,0.5304185435771942,-1.9340572607666253,0.5598474671572446
1757088963789451300,7.724451171875,1.074513730329275,-1.994391025698185,-0.048724575680494306
1757088963799406600,7.734406494140625,1.377640937101841,-1.906610450914502,-0.4910641460493207
1757088963809361400,7.744361328125,1.4433482117652892,-1.514673910832405,-0.6492196950465441
1757088963819315500,7.7543154296875,1.479675078165531,-0.7214204233825207,-0.43845776049941776
1757088963829270300,7.764270263671875,1.3678542871028183,0.21615970193743705,-0.14329378769099713
1757088963839224300,7.774224365234375,1.1593728647083044,1.021657753932476,0.13146861760169268
1757088963849179400,7.784179443359375,1.10278946528621,1.8494231673151253,0.41130496515780685
1757088963859134500,7.794134521484375,1.1581669960498808,2.333200955748558,0.6581847995296121
1757088963869088500,7.804088623046875,1.0774492723245173,2.497215459907055,0.8514017250359058
1757088963879043300,7.814043212890625,1.114537113159895,2.407842062973976,1.043084865103662
1757088963888997600,7.82399755859375,1.2300661110907791,2.013882492631674,1.2590966830030084
1757088963898952400,7.833952392578125,1.169753973469138,1.8596277504652738,1.600667309938371
1757088963908907500,7.843907470703125,0.9823258604973554,1.814546499723196,1.8776067670091985
1757088963918861300,7.853861328125,0.8063292421221733,1.6530793419599532,1.6587620637714862
1757088963928816600,7.863816650390625,1.131860588404536,1.3847382018864154,1.2066460725367067
1757088963938770400,7.8737705078125,1.7777718895554542,1.2990724272996186,0.6940390799820423
1757088963948725500,7.8837255859375,2.0539672502607105,1.6723276477873323,0.27845132293850183
1757088963958679600,7.893679443359375,2.2778449792295694,2.288049562379718,-0.17898790914565324
1757088963968634400,7.90363427734375,2.42197112609148,2.9114263756394383,-0.47102995054125785
1757088963978589400,7.91358935546875,2.192461528715491,3.215020030879974,-0.3633551732420921
1757088963988543500,7.92354345703125,1.6544214042186736,3.4857939510583877,-0.11778729825168847
1757088963998498600,7.93349853515625,1.1812386595577,3.6996132273495195,-0.4075201859220862
1757088964008452400,7.943452392578125,0.9749328276365995,3.377510686472058,-1.003969829289615
1757088964018407400,7.953407470703125,1.185824818304181,2.5907816323548554,-1.3259990126699208
1757088964028362500,7.963362548828125,1.0607803885310887,2.1408967611730096,-0.8098767054706811
1757088964038316500,7.973316650390625,0.39669980896115303,1.42661744171679,-0.01120586914718151
1757088964048271400,7.983271240234375,-0.6268482887625694,0.4545137000262737,0.8066495601177215
1757088964058225400,7.993225341796875,-1.0385001676619052,-0.44595396147370336,1.4097867184251547
1757088964068180500,8.003180419921875,-0.434205071491003,-0.9367600411087273,1.1463149379536508
1757088964078135600,8.013135498046875,0.7526713016927242,-0.36907296636700626,0.2108113266468048
1757088964088089300,8.02308935546875,1.1598703659016638,0.8883125288039445,-0.8998258564651012
1757088964098044400,8.03304443359375,0.8326514318585395,2.030732505145669,-2.061281080405414
1757088964107998500,8.04299853515625,0.3502946161389351,2.9685791724473236,-2.736566360078752
1757088964117953500,8.05295361328125,0.1836484483025968,3.2771266507029533,-2.690131648901105
1757088964127907600,8.062907470703125,0.16423983734697103,2.865258498704433,-2.145189489930868
1757088964137862400,8.0728623046875,0.061678457538783545,2.3526012372672556,-1.4308169392332435
1757088964147817500,8.0828173828125,-0.12005743514075874,1.8232044379532335,-0.6509422810554504
1757088964157771300,8.092771240234375,-0.2625730780661106,1.2951830186456441,0.14756927305310963
1757088964167726600,8.1027265625,-0.4479880976498127,1.0251146163880824,0.26254998945146796
1757088964177680400,8.112680419921874,-0.9610068858757614,0.8541478088736534,0.3607064122989774
1757088964187636500,8.122636474609376,-1.7081708223238585,0.7230489013671875,0.8847814320683479
1757088964197591600,8.132591552734375,-2.190727252268791,0.4398457077264786,1.183579669725895
1757088964207545600,8.142545654296875,-2.8776752049461005,0.028455694633722304,1.0334621734946965
1757088964217500400,8.15250048828125,-3.1749031245470043,-0.10691665240824222,1.0724836858063935
1757088964227454500,8.162454345703125,-2.8280922588706017,-0.08155658570230007,1.1360390431329608
1757088964237409500,8.172409423828125,-2.4170184721201657,-0.20411796648800373,0.8161386884748936
1757088964247364600,8.182364501953124,-2.276101642693579,-0.25387246973812577,0.7330018478438258
1757088964257318400,8.192318359375,-2.6540523275211454,-0.2592576699078083,0.47925417352914806
1757088964267273500,8.2022734375,-3.5997453244090076,-0.18171733410954474,0.38395314011275766
1757088964277227500,8.2122275390625,-3.75568319735676,-0.1634627154946327,0.25757716947495934
1757088964287182600,8.2221826171875,-3.738428403434157,-0.1095318033427,0.01980798553675413
1757088964297136600,8.23213671875,-3.3824878903627393,-0.2146843686878681,-0.15750936004817484
1757088964307091500,8.242091552734376,-2.8579502215176817,-0.47613574924767016,-0.5847708960115909
1757088964317046500,8.252046630859375,-2.992254647067189,-0.7183820785999298,-0.6329091962367296
1757088964327000300,8.262000244140625,-3.0864521031558514,-1.0865864454388618,-0.5612777922213077
1757088964336955600,8.27195556640625,-3.0065429923996327,-2.17937174551785,-0.402876744030416
1757088964346909400,8.281909423828125,-2.4934713049426676,-3.5499037273973224,-0.29785365028381344
1757088964356864500,8.291864501953125,-2.113706848691404,-4.561351637482643,0.2885118214428425
1757088964366818300,8.301818359375,-2.045454273459315,-5.298647675389051,0.6682327308133245
1757088964376773600,8.311773681640625,-2.8136458003669977,-5.0618730554461475,0.49067573125362396
1757088964386728400,8.321728515625,-3.5059546955555674,-3.9258571009278294,0.43067602058202026
1757088964396682500,8.3316826171875,-3.6156507495492693,-3.059552405792475,0.4699354333028197
1757088964406637300,8.34163720703125,-3.3949396679177877,-2.6580682851642368,0.5436076954960822
1757088964416591400,8.35159130859375,-3.0687153709352013,-2.8317507813781497,0.40446722809225316
1757088964426546700,8.361546630859374,-2.78499487542212,-3.124528443571925,0.3193587951272726
1757088964436501500,8.37150146484375,-2.4321102427899834,-3.372928619378805,0.4594838896542787
1757088964446455600,8.38145556640625,-2.08960847248435,-3.5145115114986893,0.5546586663424968
1757088964456410400,8.391410400390624,-1.6586884140133857,-3.4717549043118954,0.4504670549839735
1757088964466364400,8.401364501953125,-1.1513833272591232,-3.184231509384513,0.17456980044245718
1757088964476319500,8.411319580078125,-0.42216041343212124,-2.6518250068604945,-0.06604162118434906
1757088964486274600,8.421274658203124,0.6429422222122549,-1.9089923776149749,-0.28497224913984537
1757088964496228400,8.431228271484375,1.9369427530750631,-0.8629495394885539,-0.22164631665498016
1757088964506183400,8.441183349609375,3.391574575398862,0.5845856025725603,-0.2568909407764673
1757088964516137500,8.451137451171874,4.780109539219737,2.260788630488515,-0.46943011412918567
1757088964526092500,8.461092529296875,6.249240427017211,4.254453095477819,-0.6995826855838299
1757088964536046600,8.471046630859375,7.42322809253335,6.547844603407382,-0.6729647277712821
1757088964546001400,8.48100146484375,7.848486471980809,8.33156049605906,-0.8810583198919891
1757088964555956500,8.49095654296875,7.70737821163535,8.190531730690598,-0.8243015366643667
1757088964565910500,8.50091064453125,7.147264787018298,6.232460557129979,0.2926093198895454
1757088964575865600,8.510865478515624,5.906759114977717,3.8813171174556014,0.7313157944530249
1757088964585819400,8.5208193359375,4.248896338133513,1.4494289929836988,0.31305940272212024
1757088964595774500,8.5307744140625,2.9186890601187945,-0.6348369494289159,0.11698124256581068
1757088964605729500,8.5407294921875,1.7086901700228452,-1.9285937346637247,-0.5295122423872352
1757088964615683600,8.55068359375,-0.10891308692246675,-2.234547689294815,-1.7624296512559054
1757088964625638400,8.560638427734375,-1.3661121196106076,-1.9905267514854668,-1.7002593185469508
1757088964635592400,8.570592529296874,-0.8921747571900487,-1.4153350002020597,-1.0914522979095578
1757088964645547300,8.58054736328125,-0.18240473185181616,-0.46062779899239537,-1.5894561800941824
1757088964655501600,8.59050146484375,-0.00672638564556837,0.7861679131031036,-2.468460782326758
1757088964665456600,8.60045654296875,-0.237777074983716,1.9072668689966201,-2.655854116246104
1757088964675411500,8.610411376953126,-1.0705571016579867,2.6748189289569853,-2.7562735155895353
1757088964685365500,8.620365478515625,-2.135435280896723,2.917863130688667,-3.0768314573735
1757088964695320600,8.630320556640624,-2.8922087572112676,2.714412103676796,-3.3040704794690012
1757088964705274600,8.640274658203126,-2.930308186241984,2.4354993007063865,-3.546194936007261
1757088964715229400,8.6502294921875,-1.9928338593840598,2.289759873428941,-3.632856443633139
1757088964725184500,8.6601845703125,-0.7048147410184145,2.1226783829152582,-3.2912025223284957
1757088964735138300,8.67013818359375,-0.22381021669059992,1.247026598241925,-2.6490996735498307
1757088964745093600,8.68009375,-1.4528946232676505,-0.44010698901116846,-1.544269715411961
1757088964755047700,8.690047607421874,-3.8686476054966445,-2.283367542043328,-0.030975568500161168
1757088964765002500,8.70000244140625,-5.754837784194946,-3.7856864136934276,1.2190955120041966
1757088964774956500,8.70995654296875,-5.783244378989934,-4.341678958988189,1.3955042183116078
1757088964784911400,8.719911376953124,-4.987521871078014,-4.212532354593277,0.4235781712755561
1757088964794866700,8.72986669921875,-4.261386986394227,-3.290350289413333,-0.06779840172380208
1757088964804820500,8.739820556640625,-3.3333804528445,-1.4840402876377106,0.4833621933698654
1757088964814775600,8.749775634765625,-2.8338506762668487,1.1451239746034145,1.7103271235749125
1757088964824729300,8.759729248046876,-2.503969318081438,3.6568443452030417,2.552937639389932
1757088964834684700,8.7696845703125,-2.006355311997235,4.688613158783316,2.639643278418481
1757088964844639500,8.779639404296875,-1.5587797406710684,4.040777027049661,2.4519191051095723
1757088964854593500,8.789593505859376,-0.7925456314414739,2.5871950060397384,2.021211228084564
1757088964864548400,8.79954833984375,0.12302666020989417,0.899554053786397,1.3388663852885365
1757088964874502400,8.80950244140625,0.5292106290921569,-0.2972469165623188,0.37882775992304085
1757088964884457500,8.81945751953125,0.357825596165657,-1.0428127701640129,-0.8177686277642846
1757088964894412500,8.82941259765625,-0.1439969675242901,-1.3651473662316798,-1.0420736422345043
1757088964904366600,8.83936669921875,-0.9482526182428002,-1.3073404894292353,-0.3815805657625198
1757088964914321400,8.8493212890625,-1.6671496606275438,-1.0708803422629833,0.46304567378908396
1757088964924275500,8.859275390625,-2.3672061012029646,-0.7940607121795416,1.1767819724097848
1757088964934230500,8.86923046875,-2.4880656465068456,-0.3216489518910646,1.5501245789200067
1757088964944184600,8.8791845703125,-1.3090778346158563,-0.12656652477383612,1.084807891459018
1757088964954139400,8.889139404296875,-0.6227531284034252,-0.3483171785861254,0.7840471215568482
1757088964964094500,8.899094482421875,-0.4201448358260095,-0.8262059089809656,0.5262621545501053
1757088964974048300,8.90904833984375,-0.015247911079600452,-1.2144143684506417,0.13235489891692995
1757088964984003600,8.919003662109375,0.39171946326531465,-1.4611527485251425,-0.46587914364933963
1757088964993957600,8.92895751953125,0.6732781776346266,-1.5839643046796321,-0.839697404847294
1757088965003912400,8.938912353515626,0.7525240021765232,-1.4533902978301048,-0.8347383211351931
1757088965013867300,8.9488671875,1.0583130485694854,-1.1557073279380798,-0.576836157489568
1757088965023821600,8.958821533203125,1.036272043283656,-1.0147750086814165,-0.1789303337395191
1757088965033776600,8.968776611328124,0.7805214316487312,-0.9559574935317039,0.24362989266514776
1757088965043730400,8.97873046875,0.19178638124652206,-1.0035855061471461,0.3003019202187657
1757088965053685500,8.988685546875,-0.26790742483139035,-1.159914131978154,0.16907704824507236
1757088965063639300,8.998639404296876,-0.38512517956681547,-1.019977253499627,0.23435528384149074
1757088965073594600,9.0085947265625,-0.05596446380615234,-1.050695632368326,0.1587397786259651
1757088965083549400,9.018549560546875,0.5190881712675094,-1.372260413107276,-0.053851124913990495
1757088965093503500,9.02850341796875,0.8105366306841373,-1.478155321252346,-0.18903408686369658
1757088965103458300,9.038458251953125,0.9635282210469245,-1.3005647116839885,-0.1767941984936595
1757088965113412400,9.048412353515625,1.0033785853981971,-1.0851011753171682,-0.17489537913501263
1757088965123367400,9.058367431640624,1.137981701633334,-0.7132932310283183,-0.13111118246614933
1757088965133321500,9.068321533203125,1.3609125051409006,-0.21742636087238787,0.1194812426880002
1757088965143276500,9.078276611328125,1.568210855230689,0.24106851774454116,0.3939101782426238
1757088965153231400,9.0882314453125,1.724274692645669,0.6889169146627188,0.7559925550699234
1757088965163185700,9.098185546875,1.7246113772541283,1.1140513754695653,1.3059224393248556
1757088965173140500,9.108140380859375,1.5136913295358418,1.3990572346180676,1.8331883640900253
1757088965183094500,9.118094482421874,1.1932020690739154,1.6158996581226586,2.1113900961816308
1757088965193049000,9.128049072265625,1.0259124887675046,1.7547639389336107,2.339191720595956
1757088965203004200,9.138004150390625,1.0169757335960865,1.841206543111801,2.5045041556105017
1757088965212958200,9.147958251953124,1.0259698449779302,2.005405756187439,2.684090322910249
1757088965222913000,9.1579130859375,1.2315911287009715,2.25997672958374,2.9696091000169513
1757088965232867000,9.1678671875,1.4091864144444466,2.388595510712266,2.914140895295143
1757088965242822100,9.177822265625,1.7813035708129406,2.2796762863099573,2.2552119993999598
1757088965252776200,9.187776123046875,2.2242162648946047,2.198386827111244,1.744038254518807
1757088965262731000,9.19773095703125,2.7386358598291873,2.320563007971644,1.1799693702742458
1757088965272686000,9.20768603515625,3.2264813360929487,2.940475944513082,0.5065653743028641
1757088965282640000,9.217639892578125,3.1679069820493457,3.5142630896955724,0.6067325524508953
1757088965292595200,9.22759521484375,2.6065426805883645,3.8026907399863004,1.3291644909635185
1757088965302549200,9.23754931640625,1.9715543399900197,3.9025913761526345,1.9453502236753701
1757088965312504000,9.247504150390625,1.2366513346999883,3.8036563701480626,2.1034145872578023
1757088965322459000,9.257458984375,0.8874474364072084,3.850820856904983,1.992943749499321
1757088965332413000,9.267412841796874,0.3835901154866442,3.984463603675365,2.041849234704673
1757088965342368000,9.277367919921875,-0.02870587000250816,3.8743116226077077,1.8325374989658594
1757088965352322000,9.287322021484375,-0.26528818224370476,3.445684643509984,1.494740545350313
1757088965362277000,9.297277099609374,-0.6370785908758639,2.290997306269407,0.9723328742712736
1757088965372231000,9.30723095703125,-0.698875414097309,1.022308911317587,0.19793343263417482
1757088965382186200,9.317186279296875,-0.21093875241875648,-0.29922669220268727,-0.9451987836301327
1757088965392141000,9.32714111328125,0.595632481765747,-1.066636128821969,-2.4779317905053495
1757088965402095000,9.33709521484375,1.2899731750428676,-1.1806687507152556,-3.493126485903561
1757088965412050000,9.3470498046875,1.0440624779641627,-0.9033224664092063,-4.381388161303103
1757088965422004000,9.35700390625,0.34414427681565285,-0.10033610497415066,-5.709264950543642
1757088965431959000,9.366958984375,0.06674772362709044,0.8074410027563571,-6.674787560278177
1757088965441913000,9.3769130859375,-0.006539777032285928,1.5010446139305829,-6.568928892490267
1757088965451868200,9.3868681640625,-0.1747979101099074,1.5645605160295963,-5.710512320256233
1757088965461823000,9.396822998046876,-0.40984336817264555,1.311297118100524,-4.6763022510036825
1757088965471777000,9.406777099609375,-0.8544178579866886,1.3002245199441909,-3.142454560884833
1757088965481732000,9.416732177734374,-1.3790592794671654,1.500275967645645,-1.2564473375380039
1757088965491686100,9.42668603515625,-1.3106731409832835,1.6553139691442251,-0.06998831298351288
1757088965501641000,9.436640869140625,-1.245184477506578,1.9441086991816758,0.9625026773914694
1757088965511596000,9.446595947265624,-2.2482737245693802,1.890204090514779,1.4305822536945343
1757088965521550000,9.456550048828126,-3.5219232490599155,1.7951152385443447,1.7764841878324746
1757088965531505200,9.466505126953125,-3.5146474128380416,1.6149334434390068,1.9582237337738275
1757088965541459200,9.476459228515624,-3.518377831538021,1.4743810634106396,1.9151997078225016
1757088965551414000,9.4864140625,-4.043438939735293,1.4534528416723012,2.5927006177186964
1757088965561369000,9.496369140625,-2.646450912606716,0.7147872689783573,1.9351088156461715
1757088965571323100,9.5063232421875,-2.5133333587542173,-0.14714637146592138,1.4630217572674153
1757088965581278200,9.5162783203125,-2.726236396983266,-0.6487433097064494,1.8361074664071202
1757088965591232000,9.52623193359375,-2.751304787266254,-0.7555231839925051,1.694581857432425
1757088965601187000,9.53618701171875,-2.776980495792627,-0.7934668379396199,1.0365072402790187
1757088965611140900,9.546140869140626,-2.791272640517354,-0.9530670327872037,0.10560264720022677
1757088965621096200,9.55609619140625,-3.0307699634224177,-1.1389549305796622,-0.4122504293143749
1757088965631051000,9.566051025390625,-3.149139153215289,-1.6405770032614468,-0.7026935110807419
1757088965641005000,9.576005126953126,-3.0067396840155123,-2.7576620473384854,-1.057939612147212
1757088965650960000,9.5859599609375,-2.946220625644922,-3.8137177454352376,-1.2214189865157008
1757088965660914200,9.5959140625,-3.238734083944559,-4.503955095046758,-0.6870479059204458
1757088965670869000,9.605868896484376,-3.4782316991105673,-4.68280651833117,-0.23071166664212941
1757088965680823000,9.615822998046875,-3.7677196721091866,-4.517026758065819,-0.056658291289210315
1757088965690778000,9.625778076171875,-3.9146982857927677,-4.121239387774467,0.05287175848782062
1757088965700733200,9.635733154296876,-4.009673740516603,-3.561697041043639,0.2673641117349267
1757088965710687200,9.645687255859375,-3.7907451583877205,-3.439298157343268,0.2538663322582841
1757088965720642000,9.65564208984375,-3.3843688818037507,-3.6099803026974198,0.19209844287037847
1757088965730596000,9.66559619140625,-3.069910133677721,-3.6306934203803536,0.1845639557123184
1757088965740551000,9.675551025390625,-2.6476962364926933,-3.6382115409255027,0.2655260826528072
1757088965750505000,9.6855048828125,-2.118713863198459,-3.6358541641443964,0.3763613698095083
1757088965760460000,9.6954599609375,-1.6451201996490359,-3.6511224604249,0.30889059260487556
1757088965770415000,9.7054150390625,-1.0942384214967489,-3.7229227912664413,0.07677636568844318
1757088965780369200,9.715369140625,-0.43352410348951814,-3.560159748473763,-0.12688333563804627
1757088965790324000,9.725323974609376,0.16885639123171567,-3.077611794096231,-0.5639812059611081
1757088965800278300,9.7352783203125,0.9757444362804293,-2.2817431557118892,-0.983868998286128
1757088965810233000,9.745233154296875,1.9929364429756997,-1.1691039851278067,-1.464611656807363
1757088965820188200,9.755188232421874,3.3071415574774146,0.5034177239269018,-1.4211658983126283
1757088965830142000,9.765141845703125,4.673722463643551,2.5586925496548414,-1.3854258918896316
1757088965840097300,9.77509716796875,6.1830690419733525,4.962704240685701,-1.9327023390263318
1757088965850051000,9.785051025390626,7.344024207437038,7.677391654172539,-2.1660262339934704
1757088965860006100,9.795006103515625,7.750846766483783,9.549555061084032,-2.3624691358089445
1757088965869960200,9.804960205078125,7.446136674433946,9.121606127378344,-2.105844152492285
1757088965879915000,9.8149150390625,6.848688667678832,7.009260337907075,-1.2215744693383574
1757088965889870000,9.8248701171875,5.943258415335417,4.479752966204285,0.22173048780709503
1757088965899824000,9.83482421875,4.777357610163092,1.3066712118655441,0.6108876263037324
1757088965909779000,9.844779052734374,4.197812047584355,-1.1933400162398815,0.3547714692920446
1757088965919733000,9.85473291015625,3.171107531656325,-2.0804332323819397,-0.38202977083474393
1757088965929688000,9.86468798828125,1.2790700882345438,-2.1898218278616666,-1.036827850535512
1757088965939642000,9.87464208984375,0.1282365038126707,-2.4038223059386015,-1.17281832947582
1757088965949597200,9.88459716796875,-0.2655915491044521,-1.687856640830636,-1.1297650774300099
1757088965959552000,9.894552001953125,-0.6543441984534263,-0.40048751080632206,-1.957023710334301
1757088965969506000,9.904506103515626,-0.6835130097925662,0.6902385186553001,-2.3177879903003573
1757088965979461000,9.914461181640625,-0.7587845238760114,1.7147101609647273,-2.5797166329830885
1757088965989415200,9.924415283203125,-1.4267822768896816,2.735370720553398,-3.043710985799134
1757088965999370000,9.934369873046874,-2.4056641344130036,3.4538042370796203,-3.140122026284039
1757088966009325000,9.944324951171875,-3.041328182315826,3.5103432859033346,-3.013686142152548
1757088966019279000,9.954279052734375,-3.100546387220919,3.034049131223559,-2.692194134388864
1757088966029234200,9.964234130859374,-2.00413559012115,2.4399551110714675,-1.896782007600367
1757088966039188200,9.974188232421875,-0.5094210559949278,1.6897171740055084,-0.8881304502353071
1757088966049143000,9.98414306640625,-0.8958031768202781,0.502365584525466,0.030411212615668773
1757088966059097000,9.99409716796875,-2.7120640792459247,-1.1970073065757751,0.675904288354516
1757088966069052000,10.004052001953125,-4.381909554828703,-3.008924042317271,0.9143263832435011
1757088966079007200,10.01400732421875,-5.496838005393744,-4.035225238141417,0.7199339842170477
1757088966088961000,10.0239609375,-5.085751943683624,-3.9913399191856382,0.12981237482726574
1757088966098916000,10.033916015625,-3.925860315798223,-3.566566108384728,-0.6314531522095203
1757088966108870100,10.0438701171875,-3.764681911848485,-2.7563702539622783,-0.8504895786270499
1757088966118825000,10.053824951171874,-4.055656908534467,-1.1932727962225675,-0.02196428678780794
1757088966128779300,10.063779296875,-3.930695773130655,1.2202747849166393,1.2562062222585082
1757088966138734000,10.073734130859375,-3.1250419460520145,3.3906524921178818,1.4405579965248703
1757088966148689200,10.083689208984374,-2.535528239427507,4.360791655737161,1.6994146844163536
1757088966158643000,10.093642822265625,-1.8999588840708135,3.8099803124725815,1.865317194278538
1757088966168598300,10.103598388671875,-0.5882672136947512,1.7789006013244388,1.4149150212243198
1757088966178552000,10.113552001953124,0.4704895600542426,-0.2277075163900852,0.044803602844476695
1757088966188506600,10.123506591796875,0.8460283614344895,-1.295287648063898,-1.8446406092137098
1757088966198461400,10.13346142578125,0.44357349607795477,-1.7247428946793077,-2.7059546564549204
1757088966208415500,10.14341552734375,-0.7106115907289088,-2.000309894353151,-2.0764576067492366
1757088966218370600,10.15337060546875,-0.7812615824915469,-1.6508868003517387,-0.5236743300139903
1757088966228324600,10.16332470703125,-0.636183395601809,-0.8799462669968604,0.5829331591904163
1757088966238279700,10.17327978515625,-0.5742508171714842,-0.539930468288064,0.9325304407149553
1757088966248233500,10.1832333984375,-1.310863987380266,-0.5666612388253212,1.3613248853340745
1757088966258188500,10.1931884765625,-1.398862588828802,-0.8327841183274984,1.3105632508680223
1757088966268143600,10.2031435546875,-1.1092274624444545,-1.0591565867215393,1.1054016205459833
1757088966278097700,10.21309765625,-0.6836535873070358,-1.142011980062723,0.811380095770955
1757088966288052500,10.223052490234375,-0.7328783675946294,-1.2607488341242075,0.6032115387178957
1757088966298006500,10.233006591796874,-0.006775777745246887,-1.4766291345983742,0.15533508474901317
1757088966307961300,10.24296142578125,0.8928023875690996,-1.429140822714567,-0.02425108255073428
1757088966317915600,10.25291552734375,1.2355717227697371,-1.0860662209570406,0.16512188087850807
1757088966327870700,10.26287060546875,1.0416974293332546,-0.8414461482107639,0.2481405019573867
1757088966337825500,10.272825439453126,0.6643357964400202,-0.8223457264214754,0.1760313974276185
1757088966347779600,10.282779541015625,0.25598785445690153,-0.7911801883071661,0.04161430528387427
1757088966357734700,10.292734619140624,-0.3892201937954873,-0.6855933231979608,0.1579066888026893
1757088966367688700,10.302688720703125,-0.7536112128913403,-0.508238275951147,0.34257658910751343
1757088966377643500,10.3126435546875,-0.4863164035329595,-0.8576303902924061,0.2631958861395717
1757088966387597600,10.32259765625,0.08875847990512847,-1.2578858459085225,0.16496990518718957
1757088966397552400,10.332552490234375,0.431817884093523,-1.500054433849454,0.1573652754023671
1757088966407507700,10.3425078125,0.8152361866772174,-1.3858049543350934,0.1745166089504957
1757088966417461800,10.352461669921874,1.4482862526893614,-1.152320023587346,0.17797288688421248
1757088966427416600,10.36241650390625,2.1319968308806416,-0.6823410434037447,0.03048749272227287
1757088966437370600,10.37237060546875,2.61147487629354,-0.10579203229248522,-0.12721885120272636
1757088966447325400,10.382325439453124,2.636585352152586,0.2701888137668371,-0.15160305861383674
1757088966457280500,10.392280517578126,2.2951859901309013,0.6041267538666725,-0.30498394055515526
1757088966467234600,10.402234619140625,1.9479963542699812,0.9520581480056047,-0.3216615191116929
1757088966477189600,10.412189697265624,1.6376538092911241,1.4214789097845553,-0.22123452098369598
1757088966487143400,10.422143310546875,1.3055857547163963,1.8398948759913443,0.6419590563938021
1757088966497098800,10.4320986328125,0.744868518987298,1.7423405106902121,1.7798922427102923
1757088966507052500,10.442052490234374,0.4346487236052751,1.438328337776661,2.782670816388726
1757088966517007600,10.452007568359376,0.5133008565703406,1.4008178145498036,3.6697044112980364
1757088966526962400,10.46196240234375,0.4591220706045627,1.5665274321883915,4.322967828777432
1757088966536916500,10.47191650390625,0.5903296991825103,1.9190759647339581,4.281155516703427
1757088966546871600,10.48187158203125,1.0773416472315787,2.236968778961897,3.6094343592524525
1757088966556825600,10.49182568359375,1.3944465259522199,2.3888754966974255,2.6309797872304914
1757088966566780700,10.50178076171875,1.8359551984548568,2.625210556179285,1.4707371539503336
1757088966576734500,10.511734375,2.493931031408906,2.599680978125334,0.38346038815975186
1757088966586689500,10.521689453125,3.058320818170905,2.775845354282856,-0.31573914332538844
1757088966596644600,10.53164453125,2.9237966123908756,2.9087188702464104,-0.1895791535258293
1757088966606598700,10.5415986328125,2.058011557215452,3.0149001941174265,0.31626345946043727
1757088966616553500,10.551553466796875,1.3390975636959075,3.2528882815033198,0.539374587970972
1757088966626507500,10.561507568359374,1.0751736555427311,2.7831623992979524,0.20490677877813576
1757088966636462600,10.571462646484376,0.9171008163928985,2.192121336975694,0.13692571396380662
1757088966646416600,10.581416748046875,0.5559270788431168,1.7738807273358106,0.2091135828182101
1757088966656371700,10.591371826171875,0.28162030836343765,1.197386076760292,0.17311667902469635
1757088966666326500,10.601326416015626,0.33031909201554954,0.687532766827941,-0.26972791825681924
1757088966676280600,10.611280517578125,0.3561667230427265,0.2821931398153305,-1.0694573237225413
1757088966686235600,10.621235595703125,0.4127615206416696,0.35918753216862676,-1.9939640324577688
1757088966696189700,10.631189697265626,0.4692344454266131,0.7610948466449976,-3.1584657844871282
1757088966706144500,10.64114453125,0.03858765093907714,1.0524994669198988,-4.744023203577101
1757088966716099600,10.651099609375,-0.3563469019152224,1.8937655823886392,-6.0612418206810945
1757088966726053400,10.661053466796876,-0.45366818911284207,2.7450118246018884,-6.830393717053532
1757088966736008700,10.6710087890625,-0.9261664586409926,3.2280601297169924,-6.728648914325237
1757088966745962500,10.68096240234375,-1.5514081889897584,3.460361988160014,-5.94515401982367
1757088966755917600,10.69091748046875,-1.5209449539259075,2.978863835096359,-5.376397270023823
1757088966765871600,10.70087158203125,-1.2542042347863316,2.3493027802437543,-3.2218641976863145
1757088966775826700,10.71082666015625,-1.1339300881549714,1.764458234474063,-1.055162548649311
1757088966785781500,10.720781494140626,-1.1502727356687188,1.2783242383033036,0.09159925628900527
1757088966795735600,10.730735595703125,-1.7723603859007357,1.0839309624940157,0.9117439655348658
1757088966805690600,10.740690673828125,-2.772280939799547,1.2494973722696303,1.8445409482315183
1757088966815644400,10.75064453125,-2.0340996434912086,1.2028642159104346,1.8500892300084233
1757088966825599700,10.760599853515625,-1.6778081250250338,1.1278262183219194,2.2374659148290754
1757088966835553500,10.770553466796875,-2.3192349742382765,0.8345470363467932,2.307260166545212
1757088966845508600,10.780508544921876,-2.7426249294653533,0.04327566262483597,1.3685288253635168
1757088966855463400,10.79046337890625,-3.391933179578185,-0.632697599312663,0.9408598776429891
1757088966865417500,10.80041748046875,-3.911320333792269,-1.2740782712966203,0.6523027557536959
1757088966875372500,10.81037255859375,-3.8498751004874703,-1.6215660133212804,0.3496317683160305
1757088966885326600,10.82032666015625,-3.508483921772241,-1.8071949679166077,0.02422112580388784
1757088966895281700,10.83028173828125,-3.3296664007574317,-1.9030337614715098,-0.18985680142343042
1757088966905235500,10.8402353515625,-3.1957278859108684,-2.0393027650922537,-0.6455681868016719
1757088966915190500,10.8501904296875,-3.016969401606917,-2.58944892244637,-1.1400199294626712
1757088966925145600,10.8601455078125,-2.6853128504425285,-3.409723103290796,-1.4115902607157826
1757088966935099600,10.870099609375,-2.2518802246287466,-4.315566612610221,-1.224947160641849
1757088966945054500,10.880054443359375,-1.9379618669897316,-4.999820796158909,-0.6479346236720681
1757088966955008500,10.890008544921875,-2.0166285764694214,-5.0025072587639094,-0.029180794037878512
1757088966964963600,10.899963623046874,-2.354555586205423,-4.527593160265684,0.38921149903237817
1757088966974917600,10.909917724609375,-2.6476456753492355,-3.925848917621374,0.4362432993203401
1757088966984872700,10.919872802734375,-3.010350860249996,-3.510741345310211,0.4916545131579041
1757088966994827500,10.92982763671875,-3.2513106569230557,-3.354095324093103,0.40270051068067547
1757088967004781600,10.939781494140625,-3.102589875747263,-3.2414071025460958,0.2249807217746973
1757088967014736600,10.949736572265625,-2.838705422821641,-3.1126532968610525,-0.039760932502150535
1757088967024690700,10.959690673828124,-2.4745538385048507,-3.031365591228008,-0.27106092042624946
1757088967034645500,10.9696455078125,-2.077103795698285,-3.115516869598627,-0.3593415536865592
1757088967044600600,10.9796005859375,-1.6762585574954747,-3.139925919190049,-0.35686581122279165
1757088967054554400,10.989554443359374,-1.2077157475948332,-3.1375206116139887,-0.38747926841229197
1757088967064509700,10.999509765625,-0.5987587970927357,-3.111453273421526,-0.5192684962704778
1757088967074463500,11.00946337890625,0.09046995999813079,-3.0791368117064235,-0.7282751115828752
1757088967084418600,11.01941845703125,0.5422010435685515,-2.8266338767558334,-1.0095391538545488
1757088967094372600,11.02937255859375,0.7841536506712437,-2.1101555859506127,-1.5401809847936034
1757088967104327700,11.03932763671875,1.3575731315851212,-1.0867857674032448,-2.225655357787013
1757088967114282500,11.049282470703124,2.1587869303897023,-0.03369184172153473,-2.5138313714042306
1757088967124236500,11.059236572265625,3.043339522138238,1.3449959740847348,-2.5818893008470534
1757088967134191600,11.069191650390625,4.360082046163082,3.5413042413562534,-2.6372870706811544
1757088967144145400,11.0791455078125,6.091058282274007,6.08055442391634,-2.2576862805590032
1757088967154100700,11.089100830078126,7.669038251847028,7.797576368954777,-1.9564497098386286
1757088967164054500,11.099054443359375,8.103664179098606,7.808457828453183,-1.994761904837191
1757088967174009600,11.109009521484374,7.410819861859083,6.5450155174613,-1.915515934164822
1757088967183964400,11.11896435546875,6.622677433812618,5.249677015992999,-1.7211401940122246
1757088967193918700,11.128918701171875,5.889210014283656,2.678303263941407,-0.6827715437754989
1757088967203873500,11.13887353515625,4.86504436918348,-0.6591425386458635,-0.5210153399378061
1757088967213827600,11.14882763671875,3.647992345705628,-2.716340441390872,-1.17067371866256
1757088967223782700,11.15878271484375,1.6952786075249313,-3.100717359873652,-1.7990709904327988
1757088967233736700,11.16873681640625,0.0005275310054421424,-2.533526544216275,-1.8296271644771098
1757088967243691800,11.17869189453125,-0.9227218711450695,-2.091632671788335,-1.4689055546090006
1757088967253646600,11.188646484375,-1.8706912885323166,-1.88468152770102,-1.900517686997354
1757088967263600600,11.1986005859375,-2.4270304553076625,-1.492168649035692,-2.354786472351849
1757088967273555700,11.2085556640625,-2.4147759538903832,-0.658354603138566,-2.4310803152203557
1757088967283509800,11.218509765625,-2.249312419967353,0.7352993111312389,-2.672943198212981
1757088967293464600,11.228464599609374,-1.9932745888888834,2.4033061731100083,-3.2729365055367348
1757088967303419600,11.238419677734376,-1.67606215814054,3.9404847612172365,-3.8427071085542437
1757088967313373700,11.248373779296875,-1.5971253995478152,4.884613285267353,-4.170559298999607
1757088967323328800,11.258328857421875,-1.5699945237770676,5.1877995287507765,-3.921228564344346
1757088967333282800,11.26828271484375,-0.5812935752898455,4.811020810312033,-2.774701444944739
1757088967343237600,11.278237548828125,0.8610752700492739,3.2607553616166114,-1.8591683162599801
1757088967353191700,11.288191650390624,0.1725973313257098,1.0177291823118924,-1.414381352739036
1757088967363146800,11.298146728515626,-2.728742534585297,-1.4784019894897937,-0.6434317592948675
1757088967373101800,11.308101806640625,-5.523598586547374,-3.9967672049313783,0.23948212533593177
1757088967383055600,11.3180556640625,-6.861220816993713,-6.031393210384249,0.7302855746224522
1757088967393010700,11.3280107421875,-6.908474735599756,-6.420719275707006,0.8774974125400186
1757088967402964500,11.337964599609375,-5.498434919196367,-5.126655031958222,0.6706272247344255
1757088967412919800,11.347919921875,-3.5240205136001106,-3.6730455384194847,0.32799013761132956
1757088967422873900,11.357873779296876,-2.3506387050226327,-1.9009476028472183,-0.07340367438495159
1757088967432828700,11.36782861328125,-2.022429663963616,0.6144628544420003,0.3808674490571022
1757088967442783500,11.377783447265625,-1.7768436687946318,3.3290941538274286,1.2167962951511144
1757088967452737800,11.38773779296875,-1.4133411960363387,5.193438995942473,1.6324053872436284
1757088967462692900,11.39769287109375,-1.1452572455942631,5.456778382205963,1.9282494512706994
1757088967472646700,11.407646728515624,-0.8059805748149752,3.8260143324285742,1.4564400407895446
1757088967482601700,11.417601806640626,-0.6488096529409288,1.4180033426284788,0.6504547897994518
1757088967492555500,11.427555419921875,-0.8733493529498577,-0.33360359357893465,-0.5112643457740546
1757088967502510800,11.4375107421875,-1.1099487624563276,-1.154002277585864,-1.9404772108115256
1757088967512465700,11.447465576171876,-1.1102959684588014,-1.3884996002465486,-2.581138190218806
1757088967522419700,11.457419677734375,-1.1291478223145008,-1.2608417731046675,-2.3768116955466567
1757088967532374500,11.46737451171875,-1.052097461990267,-0.9512404018819332,-1.3544804262667893
1757088967542328600,11.47732861328125,-0.9209655289970338,-0.528358103916049,-0.3717822253257036
1757088967552283600,11.48728369140625,-1.247870063328743,-0.30895489001274107,0.3137104139767587
1757088967562237700,11.49723779296875,-1.3611572736822068,-0.2929191164910793,0.4509337957128882
1757088967572192800,11.50719287109375,-1.66319390873909,-0.3069984952479601,0.6831814397506415
1757088967582147600,11.517147705078125,-1.5159250799372792,-0.6050286711424588,0.7062883207023143
1757088967592102000,11.527101806640625,-0.8886169185779988,-0.8606471077650785,0.803591926112771
1757088967602056700,11.537056640625,-0.47062918772064144,-0.8689122472852469,0.7024518112793564
1757088967612010800,11.5470107421875,-0.14663798355236649,-0.8687117562770843,0.28583178857862945
1757088967621965600,11.556965576171875,0.17188216879367826,-0.7858329820603132,0.04740311781838536
1757088967631919600,11.566919677734376,0.5027565566044301,-0.581809123596549,-0.03612228373885155
1757088967641874700,11.576874755859375,0.5631178671300411,-0.4049479973465204,0.12391411056891083
1757088967651829800,11.586829833984375,0.3451017236709594,-0.35370997754037375,0.33219884134754535
1757088967661783800,11.59678369140625,0.12317162163853644,-0.38183833991587157,0.35508404237255453
1757088967671738600,11.606738525390625,-0.040999534386396405,-0.5798141503870486,0.3037969227276742
1757088967681692700,11.616692626953125,-0.13461772928237914,-0.8182663481533526,0.10651961591467261
1757088967691647700,11.626647705078126,-0.08561258309483527,-1.0244541066527366,-0.12972411202192305
1757088967701601800,11.636601806640625,-0.02390584930963814,-1.2851169671833513,-0.19804770666360855
1757088967711556600,11.646556640625,0.05048508254699409,-1.49584704528749,-0.08477569387927651
1757088967721511700,11.65651171875,0.4517336773863062,-1.574842840591073,0.08879501252323388
1757088967731465700,11.6664658203125,1.0104840334892273,-1.5368541784584522,0.26656872357353567
1757088967741420800,11.6764208984375,1.4332090950667857,-1.3384417301356792,0.2377244680136442
1757088967751374800,11.686374755859376,1.7351298486590385,-0.968092752483487,0.16070260313153267
1757088967761329700,11.69632958984375,1.9883505764901637,-0.6291875453650951,0.07331716514527797
1757088967771284700,11.70628466796875,2.033037274956703,-0.4838841714173555,0.0468653576798737
1757088967781238800,11.71623876953125,1.5883786139905451,-0.31943887462615966,0.26879443679898973
1757088967791193600,11.726193603515625,0.6695785924643278,-0.19215163436233995,0.39296325278133154
1757088967801147600,11.736147705078125,-0.08226212188946083,-0.05656710587441921,0.43659722732454537
1757088967811102700,11.746102783203124,-0.0256763295808807,0.011382979279756546,0.42627457075268027
1757088967821056500,11.756056396484375,0.5372825841277837,-0.06820727478563784,0.6158399880141019
1757088967831011800,11.76601171875,1.0909025550723075,-0.03680675887167453,1.097878531564772
1757088967840966700,11.775966552734374,1.518641060897708,0.3338403249442577,1.973558665549755
1757088967850920700,11.785920654296875,1.2128805830121039,0.8195745081424712,2.8681942598953842
1757088967860875500,11.79587548828125,0.9175865540832281,1.5514619650036097,3.497484973374009
1757088967870829800,11.805829833984374,1.0988964764356612,2.09678932389915,3.5453044169083237
1757088967880784600,11.81578466796875,1.7006062322884796,1.931944798657298,2.8709835983529683
1757088967890738700,11.82573876953125,2.6000895589262245,1.696349743887782,2.0293118246927855
1757088967900693800,11.83569384765625,3.054493368837237,1.8113631935119627,1.4794605586320162
1757088967910648600,11.845648681640625,2.871501777008176,2.372951951378584,0.9267050955623388
1757088967920603000,11.855602783203125,2.444861003291607,3.0105735630899666,0.11816723747998475
1757088967930557700,11.8655576171875,2.3786259053617713,3.538043193733692,-0.20051409677714108
1757088967940511700,11.87551171875,2.1863509368807077,3.416964744982123,-0.11334580867290496
1757088967950466600,11.885466552734375,2.1375217317819595,3.232044815438986,0.5437579176217318
1757088967960422000,11.895421875,1.853138972967863,2.9676772551715374,0.6316141879901289
1757088967970375700,11.905375732421875,1.4531313546329736,2.851549706825614,0.5161655618190765
1757088967980330800,11.915330810546875,1.2183908708661795,3.0877292834848165,0.13794102848619222
1757088967990284800,11.925284912109374,1.0258172116994857,3.079227997121215,-0.2006397689834237
1757088968000239600,11.935239501953125,0.6655173343747853,2.532926240235567,-0.38348201546967026
1757088968010193700,11.945193603515625,0.18821312586963176,1.6126806960761546,-0.5395563742786645
1757088968020148700,11.955148681640624,-0.027211247530579564,0.8128449076265096,-0.8845806487992406
1757088968030103800,11.965103759765626,-0.03890813333140686,0.08474047643542289,-1.601736108213663
1757088968040057600,11.9750576171875,-0.23220603338573126,-0.4919231009662151,-2.4172578338339923
1757088968050012700,11.9850126953125,0.17310261396672574,-0.2615980955541134,-3.8682600674837824
1757088968059966700,11.994966796875,0.2805216264065355,0.14444704937934874,-5.895556752961873
1757088968069921800,12.004921875,0.3612918109714985,0.7425164029031992,-7.49406045512557
1757088968079876600,12.014876708984374,0.565077330634743,1.5044786800324916,-8.396912381413578
1757088968089830700,12.02483056640625,0.4658301899410784,1.7977923487991094,-8.625576760137081
1757088968099785700,12.03478564453125,-0.025232348673045635,1.780412759453058,-7.975104434680938
1757088968109739800,12.04473974609375,-0.7770354892291128,1.732549184516072,-5.872488012063503
1757088968119694600,12.054694580078126,-1.2965581063911318,1.449894856929779,-3.0597219171404837
1757088968129648600,12.064648681640625,-1.5310127589538693,1.1782552598327398,-1.1803823349893092
1757088968139603700,12.074603759765624,-1.1795298098132014,1.1393711101651192,-0.11887918514162302
1757088968149558800,12.084558837890626,-0.8462664079740643,1.3624872071117162,0.7234379006847739
1757088968159512800,12.094512939453125,-1.7313336712464689,1.796414630705118,2.2224966014951466
1757088968169467600,12.104467529296874,-2.5168881286263463,1.8155583071142434,2.6772230674892663
1757088968179421700,12.114421630859376,-2.2981673440292476,1.305338501957059,2.478222297884524
1757088968189377300,12.124377197265625,-3.2498531515911218,1.0281897860497236,3.370823171532154
1757088968199332400,12.134332275390625,-3.3703210672289132,0.3941507090002298,2.8500749580979345
1757088968209286100,12.1442861328125,-3.4036820695608854,-0.5765975264281035,1.809287264020741
1757088968219241200,12.1542412109375,-3.7144238429903984,-1.0909031395941973,1.5492600710451603
1757088968229195000,12.164195068359374,-3.6497801059052346,-1.1833154658317566,1.040546578797698
1757088968239150300,12.174150390625,-3.4295652833580967,-1.0213923809945582,0.24490853429883716
1757088968249105200,12.184105224609375,-3.112613257111609,-0.8513251526683568,-0.5346119036138057
1757088968259059200,12.19405908203125,-2.937316603699326,-0.8979512947648763,-1.1360913578420877
1757088968269014000,12.204013916015626,-2.5464856867715713,-1.5468775598227977,-1.8043728962332009
1757088968278968000,12.213968017578125,-1.8715888218939303,-2.5794682111799716,-2.3435002314448354
1757088968288923100,12.223923095703125,-1.1886954053044319,-3.856690041199326,-2.3147087289854884
1757088968298877200,12.233877197265626,-0.8423007192134857,-4.644475910893083,-1.5140908502474426
1757088968308832300,12.243832275390625,-0.6854281957641244,-4.601228305318951,-0.7155383796066045
1757088968318787000,12.253787109375,-0.9414484911859035,-3.8117671958893533,0.032823242193460465
1757088968328741400,12.263741455078126,-1.3981149853318928,-2.724655849793553,0.5984186053529381
1757088968338696200,12.2736962890625,-1.812521131375432,-2.472050623512268,0.5277320809721946
1757088968348650200,12.283650146484375,-2.378258825615048,-2.6652701793670652,0.4408391026780009
1757088968358605000,12.29360498046875,-2.5530823085576295,-2.9433091221123933,0.4321086837336421
1757088968368560400,12.303560302734375,-2.347522326567769,-3.2231916468977926,0.6693629038870335
1757088968378514200,12.31351416015625,-2.1136165400594473,-3.417744497182965,0.8360720539569855
1757088968388469200,12.32346923828125,-1.9182547114789485,-3.592235971692204,0.9228919670149683
1757088968398423300,12.33342333984375,-1.7289391773253677,-3.759727212050557,0.840798790217936
1757088968408378000,12.343378173828125,-1.4832856698781252,-3.9786055252969263,0.6628010611534119
1757088968418333200,12.353333251953124,-1.2100693249836563,-3.999982075324654,0.548184794153273
1757088968428287200,12.363287353515625,-0.7770569704085588,-3.7799370563864705,0.4885068627819419
1757088968438242300,12.3732421875,-0.1622670759692788,-3.4651211653858423,0.2902013819649815
1757088968448196000,12.383196044921876,0.45096360632926225,-3.069251377508044,-0.05010901577621698
1757088968458151200,12.393151123046875,0.9187459532514214,-2.3758342288166285,-0.7387447754099965
1757088968468106200,12.403106201171875,1.7056301979303359,-1.2955910149246455,-1.4748603713601827
1757088968478060300,12.413060302734374,2.9207661586537954,-0.12473112604022026,-1.8672610218226908
1757088968488015000,12.42301513671875,4.156741201527416,1.2738777802884578,-2.2053408840328452
1757088968497969200,12.43296923828125,5.352171175783872,2.7730729669600724,-2.698734642073512
1757088968507924200,12.44292431640625,6.473374176573753,4.384678142759204,-2.5106945346832275
1757088968517878300,12.452878173828125,7.372372350043058,5.925222992429137,-1.954166275076568
1757088968527833300,12.462833251953125,7.888652478152513,6.870212517222762,-1.9129229950621722
1757088968537788200,12.4727880859375,7.461444133681058,6.053180094778537,-1.441996212634444
1757088968547742200,12.4827421875,6.2419000011265275,4.161063448640704,-1.1255109271168708
