time,seconds_elapsed,z,y,x
1757088956084586200,0.019586181640625,-9.643484221625327,-0.3593014774044975,1.7448498631626366
1757088956094540000,0.0295400390625,-9.617561844861507,-0.4912659156991169,1.8524442687019704
1757088956104495000,0.0394951171875,-9.582198270535468,-0.6451285532753914,1.983853265070915
1757088956114449200,0.04944921875,-9.536514962247013,-0.8133181511614471,2.136300227162987
1757088956124404200,0.059404296875,-9.4822485345304,-0.988611808899045,2.297822622244805
1757088956134358300,0.069358154296875,-9.420753909125924,-1.1666322612520306,2.461452949391305
1757088956144313000,0.07931298828125,-9.35352746207118,-1.3415855811193584,2.6233681431829927
1757088956154268000,0.089267822265625,-9.28232217451334,-1.5072639268368482,2.781552041491866
1757088956164222000,0.099221923828125,-9.211512608274816,-1.6565335740670561,2.9281942628279327
1757088956174177300,0.10917724609375,-9.143625651484728,-1.783030394605547,3.0635438135161994
1757088956184130600,0.119130615234375,-9.07812295948267,-1.883459146299213,3.195410198263824
1757088956194085600,0.129085693359375,-9.016299248254299,-1.9575961033947764,3.323333690604567
1757088956204040000,0.1390400390625,-8.96060658712685,-2.0070343803025783,3.442342639605701
1757088956213994800,0.148994873046875,-8.912354889655113,-2.034256879879534,3.549945520712435
1757088956223948800,0.15894873046875,-8.870180466270446,-2.042160492610931,3.64963923612982
1757088956233903600,0.168903564453125,-8.83221927666664,-2.0336453238524497,3.745206519266963
1757088956243857700,0.178857666015625,-8.791181163835525,-2.0100731634765863,3.8529377029284833
1757088956253812700,0.188812744140625,-8.739299585428833,-1.9723741319403052,3.988078287041187
1757088956263767800,0.198767822265625,-8.679474354541302,-1.9227078914955258,4.140084958019853
1757088956273721600,0.2087216796875,-8.616245452690125,-1.8640226244233546,4.296057902280986
1757088956283676700,0.2186767578125,-8.547041568082571,-1.7999720309257505,4.4585383287400004
1757088956293630700,0.228630615234375,-8.473552553501724,-1.7353484598457811,4.6214559775725
1757088956303585800,0.238585693359375,-8.405363398894668,-1.6739105330646038,4.76636830637604
1757088956313539800,0.248539794921875,-8.346590891930461,-1.6165854484297335,4.887888945937156
1757088956323494700,0.25849462890625,-8.308968140500783,-1.5621549161925912,4.969014739006758
1757088956333448700,0.26844873046875,-8.30481569699645,-1.5121325557865202,4.991379715549946
1757088956343403800,0.27840380859375,-8.325287991660833,-1.4682370076976716,4.970336927521228
1757088956353357800,0.28835791015625,-8.362318037894367,-1.427044727218151,4.919914900273084
1757088956363312600,0.298312744140625,-8.370103869464993,-1.3901630034141241,4.9172348674088715
1757088956373267700,0.308267822265625,-8.282780975320934,-1.383373927795887,5.064800341069698
1757088956383221500,0.318221435546875,-8.177437271317839,-1.3949459999069571,5.2301078076481815
1757088956393176800,0.3281767578125,-8.076846899321675,-1.422783270381391,5.376859626838565
1757088956403131000,0.338130859375,-7.954220636606216,-1.489477071864158,5.539153298553824
1757088956413085700,0.348085693359375,-7.821818829807639,-1.5946623704351484,5.696190949437022
1757088956423039700,0.358039794921875,-7.68636055804789,-1.7151476755991577,5.843672836467624
1757088956432994600,0.36799462890625,-7.555835651037096,-1.8224480666279792,5.9798342880606645
1757088956442948900,0.377948974609375,-7.430714648896456,-1.8898875719115138,6.11417963014245
1757088956452903700,0.387903564453125,-7.2961916121602055,-1.9167483985692262,6.265943140015006
1757088956462858800,0.397858642578125,-7.147167171862721,-1.9171051030524073,6.435300758767128
1757088956472812500,0.4078125,-6.994416989040374,-1.9041149808369575,6.604760084328055
1757088956482768000,0.417767822265625,-6.843740105360746,-1.8848820187091826,6.766153007811307
1757088956492722000,0.427721923828125,-6.708604489684104,-1.8623450465999543,6.906278686860204
1757088956502676700,0.4376767578125,-6.602585662898421,-1.8389008965179323,7.013892673882841
1757088956512630800,0.447630859375,-6.514854187953472,-1.8283811099387703,7.09817430063486
1757088956522585600,0.457585693359375,-6.421352312913537,-1.8328861662730573,7.181723521459102
1757088956532539600,0.46753955078125,-6.302139658033847,-1.8499663342811166,7.282241997262835
1757088956542494700,0.47749462890625,-6.136077573695778,-1.8641176092304288,7.419165080878138
1757088956552448800,0.48744873046875,-5.904140456911922,-1.8410780944265424,7.610646853154897
1757088956562403600,0.497403564453125,-5.584398215425014,-1.7724961411096154,7.864041768509149
1757088956572358700,0.507358642578125,-5.16065667028129,-1.6431518221855164,8.175454573068022
1757088956582312700,0.517312744140625,-4.64111403324455,-1.4361352116465567,8.518683488604426
1757088956592267800,0.527267822265625,-4.0835736739858985,-1.1725141588974743,8.838553155863284
1757088956602221800,0.537221923828125,-3.5946541387498376,-0.8951442745201289,9.080063572156428
1757088956612176600,0.5471767578125,-3.2637031055063006,-0.6002891849977895,9.228124720379709
1757088956622130700,0.557130615234375,-3.0813842983722686,-0.33899255660828204,9.303791078999637
1757088956632085800,0.567085693359375,-2.9522534760683774,-0.1862239978790283,9.349861340779066
1757088956642039800,0.577039794921875,-2.880885691425204,-0.1230773035517428,9.373138755992054
1757088956651994600,0.58699462890625,-2.8547599010437725,-0.07095892071449197,9.38166868392825
1757088956661949700,0.59694970703125,-2.8390356776893135,0.005555266927651245,9.38670492452979
1757088956671903500,0.606903564453125,-2.835185432001948,0.09823038313286378,9.387356081914902
1757088956681858800,0.61685888671875,-2.8215061584785577,0.18840103139085693,9.39009982766509
1757088956691812900,0.626812744140625,-2.776824136187136,0.26353635187400504,9.40160614106357
1757088956701767700,0.636767578125,-2.702396087190509,0.3160412315445021,9.421654072836041
1757088956711721700,0.6467216796875,-2.600285081498325,0.3415457116898149,9.449458025562762
1757088956721676500,0.656676513671875,-2.470767597964406,0.3395826679885387,9.484217204254865
1757088956731630800,0.666630859375,-2.3145088224992154,0.31150263826679436,9.524515312373637
1757088956741585700,0.676585693359375,-2.0610968098796905,0.2750508485789411,9.583663082391023
1757088956751540700,0.686540771484375,-1.6935398010335863,0.24735638410868122,9.656144965755939
1757088956761494500,0.69649462890625,-1.2717508512623608,0.22368154880963265,9.721265380442143
1757088956771449900,0.706449951171875,-0.8972348901238292,0.17828693953575567,9.763891054725647
1757088956781404000,0.71640380859375,-0.6292270736578851,0.09997838671081699,9.78593103709817
1757088956791358700,0.726358642578125,-0.4725845230394974,0.01029096110072569,9.795250654107331
1757088956801312800,0.736312744140625,-0.44429326171986755,-0.05848540625167079,9.796404500317573
1757088956811267600,0.746267578125,-0.49352421601992097,-0.09742601708057336,9.793738495978712
1757088956821221600,0.7562216796875,-0.61861325211972,-0.11509927387726493,9.786442493751645
1757088956831176700,0.7661767578125,-0.8276412755463272,-0.12195224504456854,9.770902979314327
1757088956841130800,0.776130859375,-1.111178888773173,-0.12819573341086507,9.742651282820106
1757088956851085600,0.78608544921875,-1.4752287662811576,-0.14190490888217464,9.694016723510622
1757088956861040600,0.79604052734375,-1.9484217400752006,-0.17323003973867743,9.609580782979727
1757088956870994700,0.80599462890625,-2.52048060016036,-0.22199123936882242,9.474612925085426
1757088956880949800,0.81594970703125,-2.994250497059524,-0.26630698563111943,9.334555050575732
1757088956890903800,0.82590380859375,-3.219936736755073,-0.2852553403975442,9.258564282307029
1757088956900858600,0.835858642578125,-3.3807553674817084,-0.27933820704193785,9.201241974151134
1757088956910812700,0.845812744140625,-3.5867020107015963,-0.2536237739403732,9.12368410269618
1757088956920767700,0.855767822265625,-3.8432615275666113,-0.2200292916460894,9.019496582990884
1757088956930722800,0.865722900390625,-4.11458489832133,-0.18726126850489525,8.899747921538353
1757088956940676600,0.875676513671875,-4.357813224448264,-0.1612776082742028,8.783726756176351
1757088956950631700,0.885631591796875,-4.553485141891241,-0.1428074380793143,8.684225348460673
1757088956960585500,0.89558544921875,-4.720914422929287,-0.13407496417518705,8.594497146740554
1757088956970540800,0.905540771484375,-4.8826951766863464,-0.13877437403779477,8.503552554968
1757088956980494800,0.915494873046875,-5.042521873766184,-0.15690746689857915,8.409443946206569
1757088956990449700,0.92544970703125,-5.18238510248661,-0.1868335446121171,8.323362576556205
1757088957000403700,0.93540380859375,-5.283976760479807,-0.22659876969689502,8.25824566900134
1757088957010358800,0.94535888671875,-5.343994883590937,-0.2713757037301548,8.218178447028993
1757088957020312800,0.955312744140625,-5.362941576123237,-0.3155872406993061,8.204245198744536
1757088957030267600,0.965267578125,-5.339403464147448,-0.3520688958024606,8.218102459183335
1757088957040222700,0.97522265625,-5.270641478088498,-0.3741558225892484,8.261400918161868
1757088957050176500,0.985176513671875,-5.166055314454436,-0.374270754205808,8.32719528658688
1757088957060131800,0.9951318359375,-5.033973241129517,-0.34101763269510116,8.409113691338897
1757088957070086000,1.0050859375,-4.868118954323232,-0.2874021066352725,8.508184890943765
1757088957080040700,1.015040771484375,-4.660888701033592,-0.22903586065070702,8.625198574474453
1757088957089994800,1.024994873046875,-4.405642020332813,-0.1694069012539461,8.759681279200315
1757088957099949600,1.034949462890625,-4.0937917011395095,-0.10563322500158101,8.910673804700375
1757088957109904600,1.044904541015625,-3.7264655784398317,-0.03697811968347523,9.070969580596685
1757088957119858700,1.054858642578125,-3.3150384482070803,0.0357860854708706,9.229280904677509
1757088957129813800,1.064813720703125,-2.865461620061099,0.11401137817585841,9.37797918176055
1757088957139767600,1.074767578125,-2.382236058682948,0.2051837325559929,9.51069078516066
1757088957149723000,1.084722900390625,-1.8875079832985997,0.3222395747279748,9.617893853294849
1757088957159676700,1.0946767578125,-1.4196005486920475,0.47406464206203813,9.691769821366668
1757088957169631700,1.1046318359375,-1.0221000908724962,0.659550973316282,9.730913498753308
1757088957179586000,1.1145859375,-0.7289893973320722,0.8769108448237181,9.740122641125321
1757088957189541000,1.124541015625,-0.5534846175944432,1.1256750316374002,9.726092362207174
1757088957199496000,1.134495849609375,-0.4892333504255861,1.3671427778325975,9.698555535984038
1757088957209450000,1.144449951171875,-0.49309499428980047,1.5843195478580891,9.665257077494264
1757088957219405000,1.154405029296875,-0.52704011665266,1.7789320193760096,9.629539867424965
1757088957229358800,1.16435888671875,-0.5694606602855027,1.9567032462082803,9.592570611467957
1757088957239314200,1.174314208984375,-0.6067515494123101,2.1308007529638706,9.553110707738995
1757088957249268000,1.18426806640625,-0.635415406903997,2.3137150417730212,9.508594689664244
1757088957259223000,1.19422314453125,-0.6479347698025405,2.5058862576186653,9.45891675878167
1757088957269176800,1.2041767578125,-0.6314192499399185,2.703984525425732,9.405325453847647
1757088957279132000,1.2141318359375,-0.5849444990128279,2.905330396851897,9.348115373894572
1757088957289087000,1.2240869140625,-0.5295053011897951,3.1017858658879995,9.288106018611789
1757088957299041000,1.234041015625,-0.4800885785266757,3.2959850804299116,9.22368586114943
1757088957308995800,1.243995849609375,-0.4433888967586681,3.500386247773468,9.14992153675854
1757088957318950000,1.253949951171875,-0.4231942499918863,3.7207138830453155,9.063529785984754
1757088957328905200,1.2639052734375,-0.4233725657008588,3.9523847501084206,8.964921527716516
1757088957338859000,1.27385888671875,-0.4472557282546535,4.182395575004816,8.85877585968077
1757088957348814000,1.28381396484375,-0.4993504014227539,4.392809134505689,8.753529186311363
1757088957358767900,1.293767822265625,-0.5855753442622721,4.569712930853664,8.657090088775753
1757088957368723000,1.303722900390625,-0.7213396862965077,4.711294361668825,8.570516551694274
1757088957378678000,1.313677978515625,-0.8965539221223443,4.82805260913372,8.48861042190194
1757088957388632000,1.323632080078125,-1.0894380354776978,4.925347446715832,8.409783553424477
1757088957398587000,1.3335869140625,-1.3071234856776892,5.011029587915539,8.327749413338303
1757088957408541000,1.343541015625,-1.5482374499991536,5.0886862435698506,8.238848310092092
1757088957418496000,1.35349609375,-1.7900597087204455,5.152811217477917,8.14951641421318
1757088957428450000,1.363449951171875,-1.9839976419776677,5.1963417316466565,8.076643485704064
1757088957438405000,1.373405029296875,-2.102986424973607,5.220471964296698,8.030846780169009
1757088957448359000,1.38335888671875,-2.1855884280756115,5.2402697207003825,7.99582047497332
1757088957458314000,1.39331396484375,-2.276123854525387,5.270234066331386,7.950740393275022
1757088957468269000,1.40326904296875,-2.398477437779307,5.305891655167937,7.890829822191596
1757088957478223000,1.41322314453125,-2.5427804025128484,5.327865586566925,7.830613546159863
1757088957488178000,1.423177978515625,-2.6996064564719795,5.328084782275557,7.7777920565545555
1757088957498132000,1.433132080078125,-2.8773674541711807,5.299706244531274,7.7333216311872
1757088957508087000,1.443087158203125,-3.059685676783323,5.252252419438958,7.695619969302415
1757088957518040800,1.453040771484375,-3.2177333814918994,5.2054211101591585,7.662908955311774
1757088957527996200,1.46299609375,-3.346033598190546,5.171166373857855,7.631087583637237
1757088957537951000,1.472950927734375,-3.430900623615086,5.161024919071793,7.600205538639425
1757088957547905000,1.482905029296875,-3.4899563314348456,5.175040000420808,7.56369922401905
1757088957557859800,1.49285986328125,-3.652149465385079,5.156429407975077,7.4995613906294105
1757088957567814100,1.502814208984375,-3.8577299056410785,5.092950330755114,7.439768892967701
1757088957577769000,1.51276904296875,-3.9612954940557477,5.023222714534402,7.432747616028785
1757088957587723000,1.522722900390625,-4.059569990324974,4.947288060367107,7.430654443141818
1757088957597677800,1.532677734375,-4.148458234089612,4.883114278881251,7.424006091168523
1757088957607632000,1.5426318359375,-4.154482608945668,4.882870825514197,7.4207976505160325
1757088957617587200,1.552587158203125,-4.1330335782036185,4.935222944042087,7.3981076798021785
1757088957627542000,1.5625419921875,-4.109126632915437,5.004625566092133,7.3647262192040674
1757088957637496000,1.57249609375,-4.066792342793941,5.081092719700933,7.335808167755603
1757088957647451000,1.582450927734375,-3.9883907139912247,5.17699464161992,7.311760352692008
1757088957657405000,1.592405029296875,-3.8938609572082754,5.268632476353645,7.297241413474082
1757088957667360000,1.602360107421875,-3.795551974147558,5.328007040864229,7.305923901623487
1757088957677314000,1.61231396484375,-3.6828900560855864,5.361860795149207,7.338744221207499
1757088957687268900,1.622268798828125,-3.5570170665338634,5.389259674206376,7.3806439193040125
1757088957697224000,1.632223876953125,-3.4351588655814527,5.423246699482203,7.413397603392601
1757088957707178000,1.642177978515625,-3.335959655682742,5.4684407629489895,7.425491361290216
1757088957717133000,1.652133056640625,-3.2685271646618843,5.527850983294845,7.411476864463091
1757088957727087000,1.662087158203125,-3.2236604334533214,5.598997234141827,7.377644737488031
1757088957737042000,1.6720419921875,-3.187129861174524,5.672417275139689,7.337320325884223
1757088957746996000,1.681995849609375,-3.1511481549501417,5.735984030643105,7.30336428026855
1757088957756951000,1.691950927734375,-3.090795685318112,5.788478187990188,7.287721305456757
1757088957766906000,1.701906005859375,-3.0132129716828464,5.82905803565979,7.287868020451069
1757088957776860000,1.71185986328125,-2.937550412455201,5.859369002771377,7.294449736928939
1757088957786815000,1.72181494140625,-2.8857804777294396,5.881708844873309,7.2971338614463805
1757088957796769000,1.73176904296875,-2.8631659103393554,5.8975213310331105,7.293278939583897
1757088957806724000,1.74172412109375,-2.8552508994311094,5.909264960318803,7.286873164194822
1757088957816678100,1.75167822265625,-2.861641184990108,5.918275365248322,7.277046766707301
1757088957826633000,1.761633056640625,-2.890363713866472,5.925428744134306,7.25985422436595
1757088957836588000,1.771588134765625,-2.929325897206366,5.925529866421222,7.244138184317946
1757088957846541800,1.781541748046875,-2.965920766893029,5.919963464465737,7.233792146870494
1757088957856497200,1.7914970703125,-2.996323796202242,5.913621986484527,7.226444122195243
1757088957866451000,1.801450927734375,-3.014420593906939,5.911294420319796,7.220821021616459
1757088957876406000,1.811406005859375,-3.023933687661588,5.925166293805837,7.2054562792241565
1757088957886360800,1.82136083984375,-3.026798137181997,5.962698444342613,7.173221066051721
1757088957896315100,1.831315185546875,-3.024618455055356,6.02143295738399,7.124914423522353
1757088957906270000,1.84127001953125,-3.0129443838745353,6.098861064979434,7.063741869679093
1757088957916224000,1.85122412109375,-2.98350552342236,6.193754102116823,6.993318087887763
1757088957926178800,1.8611787109375,-2.93070741469264,6.30541765679121,6.915420609214902
1757088957936132900,1.8711328125,-2.858800408606231,6.432251892590522,6.8281608434349295
1757088957946088200,1.881088134765625,-2.77123172300756,6.570276215445995,6.732170658710599
1757088957956043000,1.89104296875,-2.687135681955516,6.717554688858986,6.619982203379273
1757088957965997000,1.9009970703125,-2.619417651991546,6.866424230855703,6.493170763933658
1757088957975952000,1.910951904296875,-2.569890235495567,7.005048857691883,6.363595704993605
1757088957985906000,1.920906005859375,-2.520182786257565,7.128828382095694,6.2449079507708545
1757088957995861000,1.930861083984375,-2.4445244648136195,7.2472080932825795,6.137804835879803
1757088958005815000,1.94081494140625,-2.328428334519267,7.373690446904301,6.031375090205669
1757088958015769900,1.950769775390625,-2.1701076580882073,7.51063924948275,5.920413546320796
1757088958025725000,1.960724853515625,-1.9943688138663767,7.646305026513337,5.807486255320907
1757088958035679000,1.970678955078125,-1.8315211615301668,7.761034398499131,5.708087138935923
1757088958045634000,1.980634033203125,-1.6682450546488166,7.85782888534367,5.625110749563574
1757088958055588000,1.990588134765625,-1.5040610391423106,7.935256408417224,5.562364078271389
1757088958065543000,2.00054296875,-1.3351122934520243,7.990954914763569,5.52562103228569
1757088958075498000,2.010498046875,-1.1660443052962421,8.033598709225654,5.501999918201565
1757088958085452000,2.0204521484375,-1.0036326332245022,8.070957256761194,5.479301764181256
1757088958095407000,2.030406982421875,-0.85886555811055,8.100439371833204,5.460367931130528
1757088958105361000,2.04036083984375,-0.7414530845206231,8.116439489519596,5.453810180050135
1757088958115316000,2.05031591796875,-0.646023602418974,8.122375309309362,5.4571098061174155
1757088958125271000,2.06027099609375,-0.5753102996291592,8.129344563800096,5.454643123742938
1757088958135225000,2.07022509765625,-0.5387937924083323,8.150529975169897,5.426689533412456
1757088958145180000,2.080179931640625,-0.5435965895801782,8.193759460565447,5.360710456070303
1757088958155134000,2.090134033203125,-0.5861617658481002,8.25740571104586,5.257574491244554
1757088958165088800,2.1000888671875,-0.6538762886807322,8.33428261449933,5.126649186739325
1757088958175043000,2.11004296875,-0.7309414812479168,8.4207830863446,4.972577399924397
1757088958184997600,2.11999755859375,-0.798739590710774,8.516388655665516,4.796199965538084
1757088958194952400,2.129952392578125,-0.8251508469700812,8.612302852544188,4.617112395410239
1757088958204906500,2.139906494140625,-0.7784995704323053,8.686409706762433,4.484485547684133
1757088958214861300,2.149861328125,-0.6813081932246685,8.73549960862398,4.404231276752054
1757088958224815400,2.1598154296875,-0.5707562895866111,8.776170641708374,4.338601158978045
1757088958234770400,2.1697705078125,-0.46492268317472185,8.820906440013646,4.259795625549555
1757088958244725500,2.1797255859375,-0.38073574896883217,8.871735294497013,4.161460631264746
1757088958254679600,2.189679443359375,-0.32531397720463573,8.929615821057558,4.040608100223541
1757088958264634400,2.19963427734375,-0.3432081284767017,8.990490853258967,3.901754925328493
1757088958274589400,2.20958935546875,-0.41000385596398264,9.051307433271408,3.75181337018609
1757088958284543500,2.21954345703125,-0.4606461383666843,9.116859225112199,3.5834406708180904
1757088958294498600,2.22949853515625,-0.4951484927535057,9.187870451402663,3.392378585258126
1757088958304452400,2.239452392578125,-0.5191231695156544,9.264452755823731,3.1734552638262508
1757088958314407400,2.249407470703125,-0.5243540193738415,9.344454513299464,2.9285832621455192
1757088958324362500,2.259362548828125,-0.5018835000969469,9.42272024076283,2.6703628263309596
1757088958334316500,2.269316650390625,-0.4439555541981011,9.495380987825989,2.4106042211636898
1757088958344271400,2.279271240234375,-0.3551020894858986,9.55934989438951,2.1594258128151296
1757088958354225400,2.289225341796875,-0.24455508121866731,9.611541853919626,1.9310212540715932
1757088958364180500,2.299180419921875,-0.11687059439872391,9.651557053443788,1.733252948871255
1757088958374135600,2.309135498046875,0.0215109398300061,9.681331429460645,1.5626076283961534
1757088958384089300,2.31908935546875,0.15895141208264976,9.705150111943484,1.3982684223279356
1757088958394044400,2.32904443359375,0.29387625281913204,9.72611691212654,1.219297756578028
1757088958403998500,2.33899853515625,0.4338273607524112,9.744252872797846,1.0157439998440443
1757088958413953500,2.34895361328125,0.5676020633393898,9.75860814588666,0.786000666777417
1757088958423908400,2.358908447265625,0.6837397312205284,9.768279645073413,0.5325452899402007
1757088958433862400,2.3688623046875,0.7681981027789413,9.772955820190907,0.26382678618794303
1757088958443817500,2.3788173828125,0.7990527483131736,9.773941324096917,-0.044139394181547685
1757088958453771300,2.388771240234375,0.7794051409699022,9.755440037244558,-0.6279553732216357
1757088958463726600,2.3987265625,0.7227613896626979,9.646421444121003,-1.6107726704977452
1757088958473681400,2.408681396484375,0.6380527696702629,9.437858773183821,-2.586523098127544
1757088958483635500,2.418635498046875,0.584403889330104,9.210395002421736,-3.3162484085187316
1757088958493590300,2.42859033203125,0.587895932696946,9.041463500127195,-3.751891696119308
1757088958503545600,2.438545654296875,0.6186941353362053,9.046884940654039,-3.733827631640434
1757088958513499400,2.44849951171875,0.6571486614149064,9.16467720734179,-3.42742388741523
1757088958523454500,2.458454345703125,0.7127557631507515,9.26540435746014,-3.1328327460587024
1757088958533408500,2.468408447265625,0.7948454328164458,9.304767230555415,-2.9933111703827975
1757088958543363300,2.47836328125,0.8451831427820027,9.291745251896977,-3.0198563552200794
1757088958553318400,2.488318359375,0.8118302506912499,9.276701996544002,-3.074759619535506
1757088958563272400,2.4982724609375,0.7208373627975583,9.278872326320409,-3.09084683098346
1757088958573227500,2.5082275390625,0.6309183146804571,9.288051073554158,-3.0829253903344274
1757088958583182300,2.518182373046875,0.579165806013532,9.298931948530674,-3.060196841175854
1757088958593136600,2.52813671875,0.5811230044959113,9.310732276439666,-3.023728520478308
1757088958603091500,2.538091552734375,0.6304826266769319,9.317986193090677,-2.991323795957863
1757088958613046500,2.548046630859375,0.7005453931361436,9.317539033845067,-2.9770968254238364
1757088958623000300,2.558000244140625,0.7574659886233508,9.314672538498044,-2.972126051273942
1757088958632955600,2.56795556640625,0.7791711860835552,9.313286052575707,-2.9708596845999358
1757088958642909400,2.577909423828125,0.7775797521736473,9.311858065599203,-2.975745410814881
1757088958652864500,2.587864501953125,0.8385005232129246,9.306956849554181,-2.974533989198506
1757088958662819300,2.5978193359375,0.9553213875852524,9.303010742276907,-2.9515643247604366
1757088958672773400,2.6077734375,1.0919731799785046,9.297630218282341,-2.9209675264447927
1757088958682728400,2.617728515625,1.208078808753565,9.292069661545753,-2.892816075454652
1757088958692683500,2.62768359375,1.2863422711946069,9.28836379276514,-2.8708906593725083
1757088958702637300,2.63763720703125,1.3279567226089537,9.287574688214063,-2.8544489353984592
1757088958712592400,2.64759228515625,1.3282178577631711,9.291132672956586,-2.842724303074181
1757088958722547500,2.65754736328125,1.280669924646616,9.299413010045885,-2.8374586376309394
1757088958732501500,2.66750146484375,1.2283840032227336,9.305440599772334,-2.8408123319730163
1757088958742456300,2.677456298828125,1.196624663933739,9.308922012147306,-2.8429624957442283
1757088958752410400,2.687410400390625,1.1779651908449829,9.313133492362498,-2.8369571178495883
1757088958762365400,2.697365478515625,1.1683792510498314,9.31723391341865,-2.8274411014854905
1757088958772320500,2.707320556640625,1.177421147096157,9.318923181679844,-2.818109794038534
1757088958782274600,2.717274658203125,1.2161115277573467,9.316297509351372,-2.8103447129949926
1757088958792229400,2.7272294921875,1.2819272312313317,9.30999753242433,-2.80195740839988
1757088958802184400,2.737184326171875,1.3610026676423848,9.301487478232383,-2.7929201154634353
1757088958812138500,2.747138427734375,1.436990951693058,9.291917101332544,-2.7867054787322876
1757088958822093600,2.757093505859375,1.4766941626586019,9.285685513466596,-2.7867247679546474
1757088958832048400,2.76704833984375,1.4598429811008273,9.286516119071841,-2.7928280532658096
1757088958842002400,2.77700244140625,1.420818253918737,9.291251330900192,-2.7971967698693274
1757088958851957500,2.78695751953125,1.3845353727906942,9.297732509613036,-2.793854181443155
1757088958861912600,2.79691259765625,1.3572440457612276,9.304632790520786,-2.7842519481003283
1757088958871866400,2.806866455078125,1.3375127787224947,9.310842166554927,-2.7730241593822833
1757088958881821400,2.816821533203125,1.3214848962463437,9.31616833001375,-2.7627982411831615
1757088958891776500,2.826776611328125,1.3063444641292095,9.320599590459466,-2.755042512489855
1757088958901730600,2.83673046875,1.2921638169549405,9.324316565155982,-2.7491481937542557
1757088958911685400,2.846685302734375,1.2808166396409273,9.32750922371745,-2.7436262154623865
1757088958921640400,2.856640380859375,1.2744814452700317,9.329724561679363,-2.739037134106457
1757088958931594500,2.866594482421875,1.2752907158263027,9.329677799928188,-2.7388193997025487
1757088958941549600,2.876549560546875,1.2849110693477093,9.327864028504491,-2.7405022382229567
1757088958951503600,2.886503662109375,1.3029935462661086,9.32491862270236,-2.741985754778981
1757088958961458400,2.89645849609375,1.3264016021214424,9.320952057158946,-2.7442466854482888
1757088958971413200,2.906413330078125,1.350882840166241,9.316140272963047,-2.748640244232118
1757088958981367300,2.9163671875,1.3728501956939696,9.311187618991733,-2.75453894688189
1757088958991322600,2.926322509765625,1.3893059481933712,9.307055049231648,-2.7602450495690105
1757088959001277400,2.93627734375,1.3971918791376055,9.304173940837384,-2.7659707337394357
1757088959011231500,2.9462314453125,1.393640031874925,9.303051658809185,-2.771531582736969
1757088959021186300,2.956186279296875,1.3784955081045627,9.303961759391427,-2.776048183378577
1757088959031141600,2.9661416015625,1.3548423914469778,9.306505598655342,-2.779158424353599
1757088959041095400,2.976095458984375,1.3283797703266143,9.310393838265538,-2.778910879333317
1757088959051050500,2.986050537109375,1.3044891916513441,9.314459188008309,-2.7766055250003934
1757088959061005300,2.99600537109375,1.286056732251495,9.317772842600942,-2.77408477435112
1757088959070959600,3.005959716796875,1.2766187495596706,9.31993966524601,-2.77116537977308
1757088959080914400,3.01591455078125,1.279482906819135,9.320334802043437,-2.7685195414394137
1757088959090869500,3.025869384765625,1.2928662661358714,9.320674409261345,-2.761147259105742
1757088959100823300,3.0358232421875,1.3094548512347042,9.320828723040222,-2.7527941490411756
1757088959110778600,3.045778564453125,1.3204204818852245,9.32055575131774,-2.7484768703639504
1757088959120733400,3.0557333984375,1.320729401703924,9.321294586986303,-2.7458228487238285
1757088959130687500,3.0656875,1.3126282205738127,9.323367886129022,-2.742666430519521
1757088959140642300,3.075642333984375,1.3036248299069702,9.32542131152749,-2.7399767530441284
1757088959150597400,3.085597412109375,1.303584936287999,9.326556453037261,-2.7361253383129833
1757088959160551400,3.095551513671875,1.3148156476154922,9.325920493221282,-2.7329209893137216
1757088959170506500,3.105506591796875,1.3263310211032628,9.323830827465653,-2.734483124063909
1757088959180462000,3.115462158203125,1.3390185071103273,9.321661082211136,-2.7356962992459533
1757088959190416100,3.125416015625,1.3557045612342655,9.319665524479745,-2.734279418185353
1757088959200371200,3.13537109375,1.3730207299552857,9.317672304835915,-2.732436712928116
1757088959210326300,3.145326171875,1.393979346831888,9.31578079200089,-2.7282702408984303
1757088959220280000,3.155280029296875,1.4198840418085454,9.31423005542755,-2.7201927329048514
1757088959230235100,3.165235107421875,1.448604232597351,9.31260917622745,-2.7105805626899
1757088959240190200,3.175190185546875,1.4771800464794038,9.3109853744179,-2.700718801628053
1757088959250144300,3.185144287109375,1.4988712154142558,9.309891149440407,-2.692526142822206
1757088959260099000,3.19509912109375,1.5083694038607178,9.309490751945972,-2.688605754508078
1757088959270054100,3.20505419921875,1.503927768151462,9.310001039555669,-2.6893285158246756
1757088959280008200,3.21500830078125,1.4887982958197592,9.311786169406771,-2.6915663578793403
1757088959289963300,3.22496337890625,1.4668461378611624,9.31460648752451,-2.693855930121243
1757088959299918000,3.23491796875,1.4397066403925418,9.318219417324661,-2.695999956412613
1757088959309872000,3.2448720703125,1.4074384017333388,9.322514484170078,-2.6981854837581514
1757088959319827200,3.2548271484375,1.3688552808389067,9.327367184898257,-2.7012662063777446
1757088959329782300,3.2647822265625,1.3239219141349197,9.33267756626606,-2.705323665075004
1757088959339736300,3.274736328125,1.2733712920710443,9.338665993025899,-2.708920812784135
1757088959349691100,3.284691162109375,1.2200458715315907,9.344958955690265,-2.711756328471005
1757088959359646200,3.294646240234375,1.1679290230643002,9.351354209685326,-2.7126576612249016
1757088959369600300,3.304600341796875,1.1221853628907352,9.357423884987831,-2.711029183240235
1757088959379555300,3.314555419921875,1.086701888512075,9.36259164301455,-2.707641586628556
1757088959389510100,3.32451025390625,1.0637549473624677,9.366066625648736,-2.704735636053979
1757088959399464200,3.334464111328125,1.0536202145781368,9.368098423737287,-2.7016657270893454
1757088959409419300,3.344419189453125,1.0524560661695896,9.369503614360093,-2.6972414809063077
1757088959419374300,3.354374267578125,1.054555011210218,9.370604853600263,-2.6925957009270785
1757088959429328100,3.364328125,1.0554361779589205,9.371989001435042,-2.6874258970737457
1757088959439283200,3.374283203125,1.052434000468254,9.374107893285155,-2.6812022002533076
1757088959449238300,3.38423828125,1.0448365310765801,9.376758700054884,-2.6749007620215415
1757088959459192300,3.3941923828125,1.0334132928516715,9.379653836974502,-2.6691812153309584
1757088959469147100,3.404147216796875,1.0179808189854025,9.38303354254067,-2.663226398579776
1757088959479101200,3.41410107421875,0.9980709074441343,9.386503264477849,-2.6585315187618135
1757088959489056000,3.424055908203125,0.9763185098413377,9.389749114531279,-2.6551442144110795
1757088959499011300,3.43401123046875,0.9531878826878964,9.39347368801236,-2.6503672092676163
1757088959508965400,3.44396533203125,0.9292882439233362,9.398021852836012,-2.642730430778861
1757088959518920200,3.453920166015625,0.9075205756861716,9.402682830384373,-2.633696644973755
1757088959528875000,3.463875,0.89148903994821,9.407268989130854,-2.622775145725906
1757088959538829000,3.4738291015625,0.8814964190483092,9.411792019513248,-2.609887022580206
1757088959548784000,3.4837841796875,0.8749239818554371,9.415710654261707,-2.5979376415893434
1757088959558739200,3.4937392578125,0.8698693288143724,9.41861455900967,-2.589092948615551
1757088959568693200,3.503693359375,0.8658885886151343,9.42016178845167,-2.5848002198576925
1757088959578648000,3.51364794921875,0.863349863917753,9.420337729540467,-2.5850021721705794
1757088959588603100,3.52360302734375,0.8635282161593437,9.419252856913209,-2.5888945034340023
1757088959598557200,3.53355712890625,0.8671917071029543,9.417169036376476,-2.5952450415045023
1757088959608512300,3.54351220703125,0.8738757149115204,9.414210771092772,-2.6037223624706267
1757088959618467000,3.553467041015625,0.8820668393474072,9.410788395428657,-2.6133073524177073
1757088959628421400,3.56342138671875,0.8896482343871146,9.407243270167708,-2.623484755299985
1757088959638376200,3.573376220703125,0.8951219896230846,9.40369463777542,-2.634319160786271
1757088959648331300,3.583331298828125,0.8981434563361108,9.400718836835026,-2.64389801325351
1757088959658285000,3.59328515625,0.8984868629463016,9.398494731044769,-2.6516829680413005
1757088959668240400,3.603240478515625,0.8961641190871595,9.396987833613156,-2.6578023277044296
1757088959678195200,3.6131953125,0.8908304299090057,9.396537751758098,-2.6611832023143767
1757088959688149200,3.623149169921875,0.8836382533825934,9.396822413918375,-2.6625726108461616
1757088959698104000,3.63310400390625,0.8759834277804941,9.397377125191689,-2.663146611341834
1757088959708059400,3.643059326171875,0.8685513050183653,9.39789851871729,-2.663739608798921
1757088959718013200,3.65301318359375,0.8608105546984821,9.398530971401929,-2.6640201793059703
1757088959727968300,3.66296826171875,0.8509168641284107,9.399171607393026,-2.6649375864118334
1757088959737923000,3.672923095703125,0.8392763298910111,9.399881216967104,-2.66612854976207
1757088959747877000,3.682877197265625,0.8303188972577452,9.400259987151623,-2.6675968687489626
1757088959757832200,3.692832275390625,0.8251668482568114,9.400559262359142,-2.668142519932985
1757088959767787300,3.702787353515625,0.8191182888075709,9.401482222422956,-2.6667525268793106
1757088959777741300,3.7127412109375,0.8139647054366766,9.402852341732382,-2.6634923560395833
1757088959787696000,3.722696044921875,0.8118282779298722,9.404007941508292,-2.660070857158303
1757088959797650200,3.732650146484375,0.8102621245916932,9.404144719630478,-2.660063550634682
1757088959807605200,3.742605224609375,0.8098740020569414,9.404076915091276,-2.6604171863779422
1757088959817560300,3.752560302734375,0.8097099706016481,9.404128353017567,-2.6602935599982738
1757088959827514000,3.76251416015625,0.8085176190119236,9.40378816127777,-2.6618565715312954
1757088959837469200,3.77246923828125,0.8071208308912813,9.403257999923825,-2.6641522812530396
1757088959847424300,3.78242431640625,0.8058583366747946,9.402607427060603,-2.666825884376466
1757088959857378300,3.79237841796875,0.8050782922130078,9.401720707353949,-2.670184547154605
1757088959867333000,3.8023330078125,0.8050870600413531,9.400528867220878,-2.6743784917131066
1757088959877288200,3.8122880859375,0.804853470481187,9.399287927249073,-2.678806829549372
1757088959887242200,3.8222421875,0.8029359464220702,9.398089072853326,-2.683580035300553
1757088959897197300,3.832197265625,0.7998116769216954,9.396920613595842,-2.68860224737674
1757088959907152100,3.842152099609375,0.7955202633380889,9.395610115519165,-2.694448635317385
1757088959917106200,3.852106201171875,0.7906022422887384,9.394182128542662,-2.7008681469708677
1757088959927061200,3.862061279296875,0.7858701722655445,9.392801487839222,-2.707037483255565
1757088959937016300,3.872016357421875,0.7814419805597513,9.391363563990593,-2.713306188261509
1757088959946970000,3.88197021484375,0.7771499824542552,9.389900505700707,-2.71959885866493
1757088959956925200,3.89192529296875,0.7728464400414377,9.388218836224079,-2.7266224736914038
1757088959966880000,3.9018798828125,0.7684520044747739,9.386714276880026,-2.7330326329946515
1757088959976834300,3.911834228515625,0.7629701389975846,9.38511970116496,-2.740034328450262
1757088959986789000,3.9217890625,0.7587227106861769,9.38349823744297,-2.746758083747327
1757088959996743200,3.9317431640625,0.7571460359539837,9.381868005892635,-2.752751186682284
1757088960006698200,3.9416982421875,0.7573144513234495,9.380534711462259,-2.7572496671453117
1757088960016653300,3.9516533203125,0.7572043420124799,9.379583109825848,-2.760518898074329
1757088960026607400,3.961607421875,0.756377462734282,9.378885775211453,-2.7631115449160335
1757088960036562200,3.971562255859375,0.7557607921406626,9.378372564992308,-2.7650255618438124
1757088960046517200,3.981517333984375,0.7566133903820067,9.377848833379149,-2.76656899189353
1757088960056471000,3.991470947265625,0.7579054029539227,9.37767873750925,-2.7667870185583827
1757088960066426400,4.00142626953125,0.759909728513658,9.37782662154734,-2.7657375095054504
1757088960076381200,4.011381103515625,0.7634482048381119,9.37801483759582,-2.76412510587275
1757088960086335200,4.021335205078125,0.7682407728768885,9.378284886708855,-2.761881418599188
1757088960096290000,4.0312900390625,0.7737544217318296,9.378673009243608,-2.7590222297757863
1757088960106245400,4.041245361328125,0.7803413989067077,9.378979883235692,-2.756118325027823
1757088960116199200,4.05119921875,0.7879288583610207,9.379228889560698,-2.7531112521663306
1757088960126154200,4.061154296875,0.7961193982750177,9.379447500747442,-2.750015039716661
1757088960136109000,4.071109130859375,0.8042582810670137,9.379633378708363,-2.7470073823332783
1757088960146063000,4.08106298828125,0.8121076793931424,9.379709951075911,-2.744434024713933
1757088960156018200,4.09101806640625,0.8199429761286825,9.379581940782069,-2.7425445577055214
1757088960165972200,4.10097216796875,0.8278852403700351,9.379235903823375,-2.741336643220484
1757088960175927000,4.110927001953125,0.8359010082390159,9.378734968563913,-2.7406147586867213
1757088960185881600,4.120881591796875,0.8436172086395323,9.378055169606208,-2.7405770570248364
1757088960195835600,4.130835693359375,0.8507546593040227,9.37727015670836,-2.7410551959306
1757088960205790500,4.14079052734375,0.8566711898714303,9.37627880758345,-2.7426079783305526
1757088960215745800,4.150745849609375,0.8610591226320713,9.375127299460768,-2.7451690609902144
1757088960225699600,4.160699462890625,0.8638702345300465,9.373694051787256,-2.749177712109685
1757088960235654700,4.170654541015625,0.8651214036349206,9.372445513030886,-2.753039940495789
1757088960245609500,4.180609375,0.8652469297107308,9.37139512719512,-2.75657191401422
1757088960255563800,4.190563720703125,0.8643301801919937,9.370561598980427,-2.7596953067317602
1757088960265518600,4.2005185546875,0.8625251765966415,9.369985844919086,-2.762213719293475
1757088960275473700,4.2104736328125,0.8600367207817733,9.369628702044487,-2.7641993401527403
1757088960285427500,4.220427490234375,0.8574154323674738,9.369394893288613,-2.7658088211759924
1757088960295382500,4.230382568359375,0.854872031494975,9.36906230033338,-2.7677190387114883
1757088960305336800,4.2403369140625,0.852826570207253,9.368682945626974,-2.7696266258984803
1757088960315291600,4.250291748046875,0.8513866005320101,9.368315281358361,-2.7713123870283365
1757088960325246500,4.26024658203125,0.8504840256690979,9.368065690511465,-2.772433500012755
1757088960335200500,4.270200439453125,0.8499170394361019,9.367883904203772,-2.7732240658685563
1757088960345155800,4.28015576171875,0.8494989601545035,9.36781317705512,-2.773595529529452
1757088960355110700,4.290110595703125,0.8488648269694298,9.367825452014804,-2.7737439980894325
1757088960365064700,4.300064697265625,0.8485316494923084,9.367847079324722,-2.7737720551401375
1757088960375019500,4.31001953125,0.8488890846278518,9.367949955177307,-2.773314082239568
1757088960384974600,4.319974609375,0.8499817021701485,9.36833457058072,-2.7716835584282875
1757088960394928600,4.3299287109375,0.8520729022957384,9.368823230880498,-2.769388140967488
1757088960404883700,4.3398837890625,0.8546133074935525,9.369272143691777,-2.7670860015049574
1757088960414838500,4.349838623046875,0.8570050980009138,9.369878292891382,-2.7642922791332003
1757088960424792600,4.35979248046875,0.8596981364771723,9.370414299464226,-2.7616385497540232
1757088960434747600,4.36974755859375,0.862015546574071,9.370472167131304,-2.7607176355168224
1757088960444701700,4.37970166015625,0.863750115281716,9.37027576777637,-2.7608473993763325
1757088960454656500,4.389656494140625,0.8655809109054505,9.369891152372956,-2.761575713650882
1757088960464611600,4.399611572265625,0.8682599939215928,9.369256946122645,-2.762889426597953
1757088960474565600,4.409565673828125,0.8716129576113074,9.368534477066992,-2.7642776660859583
1757088960484520700,4.419520751953125,0.874950285340473,9.368113036784528,-2.7646497142687436
1757088960494475500,4.4294755859375,0.8775655824054032,9.367637235966324,-2.765432973600924
1757088960504429600,4.4394296875,0.8793850529175251,9.367043946248293,-2.766865052230656
1757088960514384400,4.44938427734375,0.8812100033223629,9.366026878160238,-2.769723656532168
1757088960524339700,4.459339599609375,0.8833350326523184,9.364651498153805,-2.7737010357305407
1757088960534293800,4.469293701171875,0.8852209194641559,9.3630931627959,-2.7783564603209494
1757088960544248600,4.47924853515625,0.8867662492100149,9.361476959770917,-2.783299177420139
1757088960554202600,4.48920263671875,0.887494417354092,9.359912779194117,-2.788321974018216
1757088960564157700,4.49915771484375,0.8868941864386201,9.358557272931932,-2.7930615697607397
1757088960574112800,4.50911279296875,0.8854131541006267,9.357142729958891,-2.7982711211025713
1757088960584066600,4.519066650390625,0.8833579020712524,9.355698960891365,-2.803743415033817
1757088960594021600,4.529021728515625,0.8812182596940547,9.354151731449365,-2.8095710982739925
1757088960603976700,4.538976806640625,0.8793090650718659,9.352472984582185,-2.8157451107338067
1757088960613930800,4.5489306640625,0.8774917865168302,9.350779040145873,-2.821932859458029
1757088960623885600,4.558885498046875,0.8753972984556109,9.349120167022942,-2.8280741386920214
1757088960633840600,4.568840576171875,0.8729915524881332,9.347526175829767,-2.834084192761779
1757088960643794400,4.57879443359375,0.8702973449680954,9.346002911785245,-2.839929996180534
1757088960653749800,4.588749755859375,0.8676553790919482,9.344453344255685,-2.8458324982225895
1757088960663703800,4.598703857421875,0.8652513866901397,9.342894424375892,-2.851679470685124
1757088960673658600,4.60865869140625,0.8632191502101719,9.341331997364758,-2.85740340128988
1757088960683613400,4.618613525390625,0.8615297358185052,9.339750865653157,-2.863076478490233
1757088960693567500,4.6285673828125,0.8601089823003858,9.338184346988797,-2.8686031329572197
1757088960703522600,4.6385224609375,0.8589553552858531,9.336577496314048,-2.874173918826878
1757088960713477600,4.6484775390625,0.8580562875542789,9.334844388911128,-2.8800679453015325
1757088960723431700,4.658431640625,0.8575624396227299,9.332958136773108,-2.886324083086848
1757088960733386500,4.668386474609375,0.8574530609641223,9.330870809105038,-2.8930951846569775
1757088960743341600,4.678341552734375,0.8577814161356538,9.328711585244536,-2.8999542567715046
1757088960753295600,4.688295654296875,0.8586284614190459,9.326452992662787,-2.906962674228847
1757088960763250700,4.698250732421875,0.8594421889547258,9.324209597650169,-2.913909424626827
1757088960773204500,4.70820458984375,0.8601908884301781,9.322060310661792,-2.9205589456439016
1757088960783159800,4.718159912109375,0.86056030626446,9.319982919865845,-2.92707051949501
1757088960793114600,4.728114501953125,0.8603107154175639,9.317911374288796,-2.9337361148640513
1757088960803068700,4.738068603515625,0.8594299870602786,9.315833983492851,-2.940580281670391
1757088960813023500,4.7480234375,0.8580793761689215,9.313684111982584,-2.9477792532637714
1757088960822978800,4.757978759765625,0.8557572168316692,9.311479295414685,-2.955405510358512
1757088960832932600,4.7679326171875,0.8524334792364389,9.309190892216563,-2.9635569603711365
1757088960842887700,4.7778876953125,0.8482034404512494,9.306776232290268,-2.9723429088950155
1757088960852842500,4.787842529296875,0.8431875850506126,9.304241160854696,-2.981693797825277
1757088960862796500,4.797796630859375,0.8379929390169679,9.301507936498522,-2.9916718787431713
1757088960872751600,4.807751708984375,0.8334183245778083,9.298540318864584,-3.0021549865737556
1757088960882705700,4.81770556640625,0.8303058916456997,9.295120865809917,-3.0135853121265765
1757088960892660700,4.82766064453125,0.8298021799072622,9.29116131452918,-3.0259102484315634
1757088960902615600,4.837615478515625,0.8325190376505255,9.286617241358757,-3.0390844950422644
1757088960912569600,4.847569580078125,0.8392690964326261,9.281440130981803,-3.053013067151606
1757088960922524700,4.857524658203125,0.8501639999344944,9.275712400984764,-3.067373600937426
1757088960932479700,4.867479736328125,0.8655500773757696,9.269537511742115,-3.0817072467163205
1757088960942433500,4.87743359375,0.8864590829569846,9.263087312689423,-3.0951243621721862
1757088960952388600,4.887388671875,0.9140516579553485,9.256391614443062,-3.10710881447643
1757088960962343700,4.89734375,0.9496947068098932,9.249483734750747,-3.1169699910163877
1757088960972297700,4.907297607421875,0.9960182857632637,9.242275995329022,-3.123885177232325
1757088960982252500,4.91725244140625,1.0568573698684574,9.234312469103932,-3.1274463768452403
1757088960992206600,4.92720654296875,1.1340548105131834,9.22530732487142,-3.126980805160105
1757088961002161400,4.937161376953125,1.228137334985286,9.215112678593396,-3.121503835053742
1757088961012116700,4.94711669921875,1.3398628489799798,9.202877466398476,-3.1116201544210313
1757088961022070500,4.957070556640625,1.4704390477865934,9.186875595146416,-3.099921533320844
1757088961032025600,4.967025634765625,1.6092233952291308,9.166870917993784,-3.0901848599433897
1757088961041980400,4.97698046875,1.7517149266265333,9.141922354698181,-3.08660349432528
1757088961051934700,4.986934814453125,1.8948887411996722,9.112485832333563,-3.0890742683529853
1757088961061889500,4.9968896484375,2.0434348964609206,9.077477062794566,-3.097446959900856
1757088961071843600,5.006843505859375,2.1999906090460715,9.036451224923134,-3.110143652127683
1757088961081798700,5.016798583984375,2.3596966023556885,8.990366934618354,-3.1265824534922837
1757088961091753700,5.026753662109375,2.5170965106800196,8.94091346014142,-3.1455794149070977
1757088961101707800,5.036707763671875,2.6772724595889446,8.888352667298912,-3.1622438417211174
1757088961111662600,5.04666259765625,2.838873472864926,8.833945954328774,-3.1737334962457417
1757088961121617700,5.05661767578125,2.9924270810246467,8.778870548316835,-3.1854616357013583
1757088961131571500,5.066571533203125,3.128901544089615,8.724346346446872,-3.204080411453545
1757088961141526800,5.07652685546875,3.2479856041535733,8.673048120886087,-3.224778039306402
1757088961151481600,5.086481689453125,3.3492996142491696,8.62898861440718,-3.23931042252779
1757088961161435600,5.096435546875,3.4303821526989338,8.593491184568405,-3.2488150407150385
1757088961171390500,5.106390380859375,3.492660037435591,8.564916247469187,-3.257899095402658
1757088961181345000,5.116344970703125,3.5411785691499706,8.54206144158244,-3.2655224298879504
1757088961191299800,5.1262998046875,3.5822125903278588,8.523229899862407,-3.2699645039886236
1757088961201255000,5.1362548828125,3.6213282106637954,8.5064599668473,-3.2705537020534274
1757088961211208700,5.146208740234375,3.6606536743581293,8.490259942674637,-3.2688694022282956
1757088961221163800,5.156163818359375,3.6987799913957713,8.474729780587554,-3.266242560856044
1757088961231118800,5.166118896484375,3.731585697932541,8.461298052084446,-3.263747821430862
1757088961241073000,5.176072998046875,3.756864516095817,8.450525313657522,-3.2626676249787208
1757088961251027700,5.18602783203125,3.772923670493066,8.442916007697582,-3.2638357919752594
1757088961260981800,5.195981689453125,3.7775112905442714,8.439480772551894,-3.267405174894631
1757088961270937000,5.20593701171875,3.7707203152298927,8.44116770272553,-3.2708927247494457
1757088961280892000,5.215891845703125,3.7548289186149835,8.447675769445299,-3.272373318696022
1757088961290846000,5.225845947265625,3.730817051647603,8.457779230308532,-3.2737408076569436
1757088961300800800,5.23580078125,3.7014930497467518,8.470062373298406,-3.2752713782250877
1757088961310756000,5.245756103515625,3.6694565740168095,8.482627840361,-3.2787948761761188
1757088961320710000,5.2557099609375,3.636269174686074,8.493810913154482,-3.286810424849391
1757088961330665000,5.2656650390625,3.603722995868325,8.502928285589814,-3.2990605423524975
1757088961340618800,5.27561865234375,3.5729715915128586,8.510016782546042,-3.314193814076483
1757088961350573800,5.28557373046875,3.545596385592222,8.515172850134968,-3.330314635533094
1757088961360529000,5.29552880859375,3.5230683274418113,8.518155080816149,-3.346545639365911
1757088961370483000,5.30548291015625,3.5047181394979354,8.519149352550507,-3.363247475580871
1757088961380437800,5.315437744140625,3.489769284430146,8.518523329606651,-3.3803315891116856
1757088961390392800,5.325392822265625,3.4779558047786354,8.516243109714985,-3.398204807193577
1757088961400347000,5.335346923828125,3.4716233868867157,8.511526602587104,-3.4164494889363644
1757088961410302000,5.345302001953125,3.4724037236094474,8.50487708157003,-3.4321804342925546
1757088961420256000,5.355256103515625,3.478096382293105,8.497802028617262,-3.4439205564469098
1757088961430210800,5.3652109375,3.486112223227322,8.491717740267514,-3.450814992135763
1757088961440165600,5.37516552734375,3.493257418806851,8.487336748704314,-3.454365378093719
1757088961450120000,5.385119873046875,3.500347669328749,8.483919049215316,-3.4555899514526125
1757088961460075000,5.395074951171875,3.5087726755857465,8.481268826967478,-3.4535403254464265
1757088961470029800,5.40502978515625,3.5185809528946876,8.478271983239054,-3.4509199138149618
1757088961479983900,5.41498388671875,3.53018575823158,8.4742171548903,-3.4490333694159983
1757088961489939000,5.42493896484375,3.543867662103474,8.469130645406246,-3.4474960768461225
1757088961499893000,5.43489306640625,3.5586055047690865,8.462980306082963,-3.447417166391015
1757088961509847800,5.444847900390625,3.5724902377367016,8.456409110999108,-3.4491803766712543
1757088961519803000,5.454802978515625,3.5830037407055495,8.450545771923661,-3.4526439611285924
1757088961529756700,5.464756591796875,3.58851373629868,8.446834057924152,-3.4560026239067314
1757088961539712000,5.4747119140625,3.5890199322551486,8.444119538268447,-3.462104155652225
1757088961549666800,5.484666748046875,3.5860754032358524,8.441057228088379,-3.4726088907927273
1757088961559620900,5.494620849609375,3.581609948259592,8.437972706076502,-3.4846921272963285
1757088961569575700,5.50457568359375,3.575926641926169,8.435636372083424,-3.4961677532956004
1757088961579529700,5.51452978515625,3.5687355613783,8.434642100349068,-3.5058944898009297
1757088961589485000,5.524485107421875,3.5608301950812336,8.434811611697077,-3.5135175320252774
1757088961599440000,5.53443994140625,3.5532600520879027,8.435734571760893,-3.518965568298101
1757088961609394000,5.544393798828125,3.54709276162982,8.437243222758173,-3.5215666907072065
1757088961619348700,5.5543486328125,3.5421202339142557,8.439072191751002,-3.5221871606931088
1757088961629303800,5.5643037109375,3.537173717422783,8.441051382869482,-3.5224209694489836
1757088961639257900,5.5742578125,3.531663137307763,8.443053370341659,-3.5231460688531397
1757088961649213000,5.584212890625,3.5253044159308073,8.445203826373815,-3.5243624589055775
1757088961659166700,5.594166748046875,3.5184412521630524,8.447743573984503,-3.525134612321853
1757088961669122000,5.6041220703125,3.511726556955278,8.45086433635354,-3.5243507684677837
1757088961679076900,5.614076904296875,3.5045109264880416,8.454988722807169,-3.521642386291921
1757088961689031000,5.624031005859375,3.4954862007722256,8.460328914791345,-3.51778337277621
1757088961698985700,5.63398583984375,3.4838510002970695,8.46668032964468,-3.514040971377492
1757088961708941000,5.643941162109375,3.4708275603339076,8.473138712003827,-3.51135918494761
1757088961718894800,5.653894775390625,3.4573636831268666,8.479133568504452,-3.510170267423987
1757088961728850000,5.663849853515625,3.443627418719232,8.48428554444015,-3.5112273752614853
1757088961738804000,5.673803955078125,3.4288480749994514,8.48863146468997,-3.5151848807156085
1757088961748758800,5.6837587890625,3.411056105460226,8.493352647992968,-3.521086505974829
1757088961758713900,5.6937138671875,3.386302772475779,8.50017518748939,-3.528506719103455
1757088961768668000,5.70366796875,3.352941770143807,8.507983815413713,-3.5415254828914997
1757088961778623000,5.713623046875,3.312808204936981,8.515572078585624,-3.5609982451245186
1757088961788576800,5.72357666015625,3.269213393360376,8.524727444943785,-3.579336158108711
1757088961798531800,5.73353173828125,3.2253906182467937,8.537432028216124,-3.588797229415178
1757088961808487000,5.74348681640625,3.1839111913889644,8.553079679203034,-3.5885797872722147
1757088961818441000,5.75344091796875,3.1460163450196386,8.569749658975004,-3.5822257420703765
1757088961828395800,5.763395751953125,3.1122201661407947,8.58566677455306,-3.573625671507418
1757088961838350800,5.773350830078125,3.0823779855847357,8.600597801703215,-3.5635736485704776
1757088961848305000,5.783304931640625,3.0541137218698857,8.615399064993857,-3.5521339706674215
1757088961858260000,5.793260009765625,3.025153584845364,8.630759131211041,-3.5396126350075003
1757088961868214000,5.803214111328125,2.997311053673923,8.646431332117318,-3.525014200812578
1757088961878168800,5.8131689453125,2.9734596379652616,8.661970262032746,-3.507018233133852
1757088961888123600,5.82312353515625,2.9527114489689468,8.677552446568011,-3.4859660927549
1757088961898078000,5.833077880859375,2.931121256190538,8.693755393350123,-3.4637492925107476
1757088961908032800,5.84303271484375,2.9057138432115313,8.711198111060261,-3.4412612741097806
1757088961917986800,5.85298681640625,2.8748683308318257,8.730330681553482,-3.418609589579701
1757088961927942000,5.86294189453125,2.8379581115856767,8.750638141044973,-3.397458665001392
1757088961937897000,5.87289697265625,2.794287312163412,8.771765100225807,-3.3791210442781447
1757088961947851000,5.88285107421875,2.744492769163847,8.79326030819714,-3.3640333652615544
1757088961957805800,5.892805908203125,2.6914269494086502,8.814579575079678,-3.3510908815801144
1757088961967761000,5.902760986328125,2.637638368336856,8.835648082071542,-3.3383523960381742
1757088961977714700,5.912714599609375,2.5838594318762422,8.856569874069095,-3.3249370341479776
1757088961987670000,5.922669921875,2.531338678783178,8.876516683554648,-3.312121976238489
1757088961997623800,5.932623779296875,2.481571316051483,8.894452737739682,-3.3016458826705812
1757088962007579000,5.942578857421875,2.4339785208798945,8.910266977465152,-3.294436097422242
1757088962017533700,5.95253369140625,2.3866553364299237,8.924564967408775,-3.290349704891443
1757088962027487700,5.96248779296875,2.3359404637150467,8.93863908546865,-3.288544409035146
1757088962037442800,5.97244287109375,2.276270715650171,8.954242897313833,-3.2879356294870377
1757088962047396900,5.98239697265625,2.202944198154658,8.97243088043332,-3.2882954027101396
1757088962057352000,5.99235205078125,2.11615292666927,8.993229922834038,-3.288477189017832
1757088962067306800,6.002306640625,2.023674257197231,9.015276919469237,-3.2863185496792195
1757088962077261000,6.012260986328125,1.9338271052725613,9.038335723495482,-3.2770719979062672
1757088962087215900,6.0222158203125,1.8523899081662296,9.061974373236298,-3.2587831847608086
1757088962097170000,6.032169921875,1.7874769987508654,9.084918026450277,-3.2310274550899862
1757088962107124700,6.042124755859375,1.7445317371241746,9.106773884427547,-3.192755592101812
1757088962117080000,6.052080078125,1.7177531819224356,9.127976246932148,-3.1463857628539205
1757088962127033900,6.062033935546875,1.6965373754143713,9.149685389915108,-3.094409199640155
1757088962136989000,6.071989013671875,1.6721534602642059,9.172003604707122,-3.041156625141203
1757088962146943700,6.08194384765625,1.6382755944512783,9.19535642324388,-2.9886192131742835
1757088962156897800,6.091897705078125,1.592433734600246,9.219760212138295,-2.937783636689186
1757088962166852900,6.101852783203125,1.536041400770843,9.24461174480021,-2.88931362029165
1757088962176807000,6.111806884765625,1.4724717226579784,9.26911548693776,-2.843539126588404
1757088962186761700,6.12176171875,1.4045298208102583,9.292702698752283,-2.800604240225255
1757088962196716500,6.131716552734375,1.334078712620586,9.314787689310311,-2.7614015261277554
1757088962206670600,6.141670654296875,1.2627286097645758,9.33483854369223,-2.7270293009266258
1757088962216625700,6.151625732421875,1.1928230066284538,9.351513199639319,-2.7012518855914474
1757088962226579700,6.161579833984375,1.1269264930032192,9.364619933971762,-2.6840888616055247
1757088962236534500,6.171534423828125,1.0690377100709825,9.374767233976721,-2.6723215591832994
1757088962246489600,6.181489501953125,1.0220886196304113,9.382241515380144,-2.664447757068276
1757088962256443400,6.191443359375,0.9827455472141504,9.387897933706641,-2.6593185774862764
1757088962266398700,6.201398681640625,0.9441410182055086,9.39319487107098,-2.6545962251394983
1757088962276352800,6.211352783203125,0.901532660382986,9.398741983804106,-2.649773919549584
1757088962286307600,6.2213076171875,0.8547644794672727,9.404651500108837,-2.6442911042243242
1757088962296262400,6.231262451171875,0.8069687090694904,9.410357018274068,-2.6390046882539986
1757088962306216400,6.241216552734375,0.7609924091838299,9.414866604653,-2.6365821372821925
1757088962316171500,6.251171630859375,0.7178494330279529,9.41867125763297,-2.6350959903776645
1757088962326126600,6.261126708984375,0.6765288499936462,9.421981405094265,-2.634188520143926
1757088962336080600,6.27108056640625,0.6345729647304862,9.424495433741807,-2.6356314124286175
1757088962346035500,6.281035400390625,0.5910542505973949,9.426043247705698,-2.6402169866532086
1757088962355989800,6.29098974609375,0.5459650357445701,9.426108129635452,-2.6496777656987307
1757088962365944600,6.300944580078125,0.49900830998681484,9.42495837507844,-2.6629908362582326
1757088962375899600,6.310899658203125,0.4488701777139678,9.423006071966887,-2.678775265367329
1757088962385853400,6.320853515625,0.3954149567823857,9.419820427668094,-2.6983383362323043
1757088962395808500,6.33080859375,0.33897173301596195,9.414690079042314,-2.72380420140028
1757088962405762600,6.340762451171875,0.2801327366868034,9.407755895864963,-2.754280295945704
1757088962415717600,6.350717529296875,0.22079846765398978,9.398850704875588,-2.7898481606721877
1757088962425672400,6.36067236328125,0.16164070596555247,9.387717900964617,-2.8310815038144588
1757088962435626500,6.37062646484375,0.1025261075654067,9.375092228147388,-2.875331564429402
1757088962445581600,6.38058154296875,0.044686100244917905,9.361528982219099,-2.920640778708458
1757088962455535600,6.39053564453125,-0.010608649889414663,9.347685750305653,-2.9649671194300056
1757088962465490700,6.40049072265625,-0.06264035680692177,9.334674293041228,-3.005048954449594
1757088962475445500,6.410445556640625,-0.10995998389320448,9.323381330132484,-3.0385616402119395
1757088962485399600,6.420399658203125,-0.1519545937315561,9.314179202023148,-3.064859280028939
1757088962495354600,6.430354736328125,-0.188730299877841,9.306929961547254,-3.084772187244892
1757088962505308700,6.44030859375,-0.21888298942148685,9.300613618007302,-3.1017879117146134
1757088962515263500,6.450263427734375,-0.24069464293085038,9.29516821208298,-3.1164573653191328
1757088962525218600,6.460218505859375,-0.25645298775061964,9.290915230813622,-3.1278619719088074
1757088962535172400,6.47017236328125,-0.27239342940533534,9.287629048749803,-3.1362580443322656
1757088962545127700,6.480127685546875,-0.2922807455223054,9.284552125522493,-3.143571874476969
1757088962555081700,6.490081787109375,-0.3163611842138693,9.281199307963252,-3.15113237285912
1757088962565036500,6.50003662109375,-0.3422504258930683,9.276900733986496,-3.1610704140275714
1757088962574991400,6.509991455078125,-0.3676727807128802,9.271828837549686,-3.1730773704245685
1757088962584945700,6.519945556640625,-0.3919843247465789,9.265859700012207,-3.187567375808954
1757088962594900700,6.529900634765625,-0.41742107341792434,9.258408799484371,-3.205934222626686
1757088962604855600,6.53985546875,-0.4447537919037044,9.249190889284014,-3.2287884439915415
1757088962614809600,6.5498095703125,-0.47121089659873394,9.237441414779424,-3.258530379043519
1757088962624764700,6.5597646484375,-0.48449872311912473,9.22430136269927,-3.293615136428177
1757088962634718700,6.56971875,-0.4800421455690637,9.212901432284712,-3.3260148925125597
1757088962644673500,6.579673583984375,-0.4643833156010136,9.205385649827122,-3.3489714052081108
1757088962654628600,6.589628662109375,-0.441578376737982,9.202439659503101,-3.3601340197354554
1757088962664582400,6.59958251953125,-0.4087480837492272,9.204584270316362,-3.358415525379777
1757088962674537700,6.609537841796875,-0.3595970628175884,9.210061240422725,-3.3490076455652713
1757088962684491500,6.619491455078125,-0.2900435793210752,9.218321119245886,-3.3329882386565206
1757088962694446600,6.629446533203125,-0.20054261048557234,9.229782424458861,-3.307762027463317
1757088962704401400,6.6394013671875,-0.09663978947317227,9.244345787340402,-3.271566093966365
1757088962714355500,6.64935546875,0.013222535881970542,9.260813522538543,-3.226073047553003
1757088962724310500,6.659310546875,0.12191285374909638,9.277181889015436,-3.1763837184935806
1757088962734264600,6.6692646484375,0.23114753730874507,9.28979820948243,-3.1331472188353535
1757088962744219600,6.6792197265625,0.35120373034048824,9.294823344168066,-3.1069778815731404
1757088962754174500,6.689174560546875,0.4950534714138135,9.290679668492078,-3.0997683885857463
1757088962764128800,6.699128662109375,0.6667805592436343,9.278438026556373,-3.1042525482624765
1757088962774083600,6.70908349609375,0.8600371591731906,9.258737300786375,-3.1155232993394133
1757088962784037600,6.71903759765625,1.0640650362249464,9.231959183976054,-3.131943688264489
1757088962793992400,6.728992431640625,1.2722706373527646,9.198511087882519,-3.1526334250718353
1757088962803947800,6.73894775390625,1.482057004866004,9.159448074516654,-3.174646811698377
1757088962813901600,6.748901611328125,1.690115964064747,9.116925276085734,-3.1930507756561037
1757088962823856600,6.758856689453125,1.890759970831871,9.07312295923829,-3.205285695590079
1757088962833810700,6.768810791015625,2.080503667269647,9.031005234476924,-3.2066900094300506
1757088962843765500,6.778765625,2.258656879156828,8.991428426370025,-3.19735665615648
1757088962853720600,6.788720458984375,2.427696371870488,8.95146817190349,-3.185576201991737
1757088962863674600,6.798674560546875,2.5887021957322953,8.909029544624685,-3.1777678663283586
1757088962873629700,6.808629638671875,2.74084038413614,8.862977403023839,-3.1789673052459952
1757088962883583500,6.81858349609375,2.8873341369122265,8.810618270233274,-3.1947879747122525
1757088962893538600,6.82853857421875,3.0411583787068723,8.748522171804309,-3.222593681004643
1757088962903493600,6.83849365234375,3.2147719013378024,8.675389715576172,-3.2516496796190735
1757088962913447700,6.84844775390625,3.4033959460958836,8.595060041320323,-3.272948780496418
1757088962923402500,6.858402587890625,3.5950574588537214,8.512007079580426,-3.2850767329245802
1757088962933356500,6.8683564453125,3.7910800894305106,8.424775370851158,-3.289564399732649
1757088962943311600,6.8783115234375,3.993851025223732,8.331106907072662,-3.2881948649451136
1757088962953266700,6.8882666015625,4.194084259232879,8.233958199962974,-3.2835955544561144
1757088962963220500,6.898220458984375,4.376232093714178,8.139962988448142,-3.2802403988093136
1757088962973175600,6.908175537109375,4.528681832285225,8.055683115261793,-3.2813658957079053
1757088962983129600,6.918129638671875,4.638955393905937,7.9883800958395,-3.291844035102427
1757088962993084700,6.928084716796875,4.706043893794715,7.942759915915131,-3.3069732151731848
1757088963003039500,6.93803955078125,4.740639990879595,7.91857356916368,-3.315555165557563
1757088963012993500,6.94799365234375,4.751497192719579,7.911570412403345,-3.3167300545558334
1757088963022948600,6.957948486328125,4.745313243387639,7.917683342325687,-3.3109915109038353
1757088963032902400,6.96790234375,4.725594689700007,7.932349581059813,-3.304084215733409
1757088963042857700,6.977857666015625,4.6931987330079075,7.952043877089023,-3.3029172177806494
1757088963052812500,6.9878125,4.651691249099374,7.974856012877821,-3.306629808562994
1757088963062766600,6.9977666015625,4.6037557779699565,8.000915752285719,-3.310760624757409
1757088963072721400,7.007721435546875,4.546692997533083,8.033035230123996,-3.311844036079943
1757088963082675700,7.01767578125,4.478236131900549,8.072173646813631,-3.309950769679248
1757088963092630500,7.027630615234375,4.396483439104259,8.118227541980147,-3.3069115481138227
1757088963102585600,7.037585693359375,4.300612789106369,8.170579660508036,-3.304047683115303
1757088963112539600,7.04753955078125,4.191273877987265,8.228225793790816,-3.3015035515904425
1757088963122494500,7.057494384765625,4.069194727760553,8.28995072081983,-3.299814283329248
1757088963132448800,7.06744873046875,3.9351635661944746,8.354530452758073,-3.2994963034212588
1757088963142403600,7.077403564453125,3.7919533651337027,8.419880000025033,-3.301074804784357
1757088963152358700,7.087358642578125,3.6437446251332757,8.483740770038962,-3.3044875358372923
1757088963162312400,7.0973125,3.4959532337620853,8.544322956773637,-3.3080563342347737
1757088963172267800,7.107267822265625,3.3552199442088604,8.599177998033165,-3.3116432528108355
1757088963182221600,7.1172216796875,3.2308328093007206,8.64599937044084,-3.3134298439666625
1757088963192176400,7.12717626953125,3.1328619721531865,8.683460209307073,-3.3095416043564674
1757088963202131500,7.13713134765625,3.0664190766915675,8.710501360967754,-3.3007048024281858
1757088963212085500,7.14708544921875,3.034130087505281,8.723618032172322,-3.2958903878837824
1757088963222040300,7.157040283203125,3.0405703496858476,8.719107276749611,-3.301894596734643
1757088963231994400,7.166994384765625,3.0875793536201117,8.699528716054559,-3.3099016698405146
1757088963241949400,7.176949462890625,3.1686370498895644,8.669593011996149,-3.311844620601833
1757088963251904500,7.186904541015625,3.2712486985802647,8.632436124512553,-3.309130685468018
1757088963261858600,7.196858642578125,3.380890099777281,8.59064748557508,-3.3076825324863193
1757088963271813400,7.2068134765625,3.4835599083960056,8.54797563406229,-3.311698490129411
1757088963281767400,7.216767333984375,3.5670521383360025,8.508132868495583,-3.325387408263981
1757088963291722500,7.226722412109375,3.615558395090699,8.476216804274916,-3.3543808630362153
1757088963301677600,7.236677490234375,3.622121699129045,8.45625362817645,-3.3974136568158864
1757088963311631400,7.24663134765625,3.599176000088453,8.447309274220466,-3.443736724312603
1757088963321586400,7.25658642578125,3.565980709712207,8.444733870774508,-3.484341998684406
1757088963331540200,7.266540283203125,3.5332226417094468,8.444833239495754,-3.5173160475254055
1757088963341495600,7.27649560546875,3.5057997972548005,8.446806585395336,-3.539940551787615
1757088963351449600,7.28644970703125,3.4848841427370902,8.451605510109662,-3.549138003721833
1757088963361404400,7.296404296875,3.464325046572089,8.462088325679302,-3.5442750738605855
1757088963371359200,7.306359130859375,3.4369361043870446,8.481644674542546,-3.5241400483265517
1757088963381313500,7.3163134765625,3.4038957123115656,8.510656834015249,-3.486058154952526
1757088963391268600,7.3262685546875,3.3733363233968614,8.544690621042252,-3.43208661852926
1757088963401222400,7.336222412109375,3.3606513216078278,8.575499016281961,-3.3670766784802075
1757088963411177500,7.346177490234375,3.3714334123849867,8.596516669869422,-3.3020760907813904
1757088963421132500,7.356132568359375,3.3906279421985146,8.609443955981732,-3.248308552497625
1757088963431086600,7.366086669921875,3.391127123892307,8.623912041795252,-3.209170135807991
1757088963441041400,7.37604150390625,3.3566555299699306,8.64967309051752,-3.1759049950659275
1757088963450995500,7.385995361328125,3.2855279838234184,8.689104352673887,-3.1424709274977443
1757088963460950300,7.3959501953125,3.1777900781601667,8.736593833601475,-3.121529554016888
1757088963470905600,7.405905517578125,3.034524932041764,8.786986050233244,-3.1226497902184724
1757088963480859400,7.415859375,2.861176490087807,8.83568958312571,-3.1487463545054197
1757088963490814500,7.425814453125,2.6675591670870777,8.88307911081016,-3.1851869104132056
1757088963500768500,7.4357685546875,2.467643912985921,8.934435204038023,-3.202647748301923
1757088963510723300,7.445723388671875,2.2809762629926205,8.991040888357162,-3.1825606535628435
1757088963520678400,7.455678466796875,2.126902284220606,9.046887863263487,-3.130578537391126
1757088963530632400,7.465632568359375,2.018820971947163,9.095730512365698,-3.0598139793381094
1757088963540587500,7.47558740234375,1.9547687710143624,9.136191702091693,-2.9798157289937137
1757088963550541300,7.485541259765625,1.9174105157397687,9.170659788882732,-2.8970509365454316
1757088963560496600,7.49549658203125,1.8785512082524596,9.201722451144457,-2.823074722969532
1757088963570450400,7.505450439453125,1.8098950206555424,9.230863789954782,-2.7723358848571777
1757088963580405500,7.515405517578125,1.7031579625979065,9.259459185320138,-2.7444638353303072
1757088963590360300,7.5253603515625,1.5740153037257492,9.287825448104739,-2.725650413788855
1757088963600314400,7.535314453125,1.4471864747539163,9.31400676806569,-2.7065315795600413
1757088963610269400,7.54526953125,1.336888363213837,9.336895476222038,-2.6843112721845506
1757088963620223500,7.555223388671875,1.250260757857561,9.35535467749834,-2.661685598878562
1757088963630178600,7.565178466796875,1.1894051610089837,9.368312358748913,-2.6439421446561813
1757088963640133400,7.57513330078125,1.1440347911272197,9.378560781040788,-2.6275793311372397
1757088963650087400,7.58508740234375,1.1055019391153007,9.386573407104612,-2.61543764244467
1757088963660042500,7.59504248046875,1.0590052686173468,9.392820192539691,-2.612246737448871
1757088963669996500,7.60499658203125,1.000432010552287,9.397966907778383,-2.616820913496613
1757088963679951400,7.614951416015625,0.9372966322034597,9.401945748281479,-2.6258862634837628
1757088963689906400,7.624906494140625,0.8763907664723694,9.404804644843935,-2.6366592941716314
1757088963699860200,7.634860107421875,0.8175423447277397,9.407173712062836,-2.647092133119702
1757088963709815600,7.644815673828125,0.7571589685007929,9.40930897052586,-2.65744635387361
1757088963719769600,7.65476953125,0.6932443494077771,9.41069019575119,-2.669959506227076
1757088963729724400,7.664724365234375,0.6234109347250312,9.411314465129374,-2.68493700286746
1757088963739679200,7.67467919921875,0.5474746000573039,9.411410911241173,-2.701112184859812
1757088963749633500,7.684633544921875,0.4687008500065654,9.410916405722498,-2.717599501541257
1757088963759588400,7.69458837890625,0.38913046968542037,9.408481872051954,-2.7385084340572354
1757088963769542400,7.70454248046875,0.3077115754207596,9.403979884457588,-2.764209277024865
1757088963779497500,7.71449755859375,0.22480268006036055,9.396783250951767,-2.7964804382935164
1757088963789451300,7.724451171875,0.14218917831680736,9.386187622657419,-2.8371859581694006
1757088963799406600,7.734406494140625,0.060375891606812365,9.371730642759799,-2.8874533793777224
1757088963809361400,7.744361328125,-0.01819951943529886,9.354338778454064,-2.943878738693893
1757088963819315500,7.7543154296875,-0.09118755194926634,9.33426162058711,-3.005601035374403
1757088963829270300,7.764270263671875,-0.15863301204955205,9.312612098836897,-3.069275927427411
1757088963839224300,7.774224365234375,-0.2197984054996632,9.291215090543032,-3.1297569918751713
1757088963849179400,7.784179443359375,-0.2727498964264989,9.271791428148745,-3.182742439870536
1757088963859134500,7.794134521484375,-0.3170540253162384,9.25548326742649,-3.2258164424434304
1757088963869088500,7.804088623046875,-0.35230544450469314,9.242600989499687,-3.25892083966583
1757088963879043300,7.814043212890625,-0.37787097065486014,9.232317495894431,-3.28510508223623
1757088963888997600,7.82399755859375,-0.3950883186439052,9.223602274519205,-3.3074858408704397
1757088963898952400,7.833952392578125,-0.4079487135324627,9.216548264354467,-3.325539968477189
1757088963908907500,7.843907470703125,-0.4250751683676615,9.211350695711374,-3.3377705044969916
1757088963918861300,7.853861328125,-0.4543813788834959,9.207317494672536,-3.34502792827934
1757088963928816600,7.863816650390625,-0.48931686399057506,9.203917330840229,-3.3494562661156055
1757088963938770400,7.8737705078125,-0.5232099639052525,9.200399093586206,-3.3539971244156357
1757088963948725500,7.8837255859375,-0.553251612556167,9.197348473843931,-3.357544003242254
1757088963958679600,7.893679443359375,-0.5742207873594015,9.194092686918378,-3.362934171847999
1757088963968634400,7.90363427734375,-0.5784358112385496,9.189915693494678,-3.3736087105974555
1757088963978589400,7.91358935546875,-0.5608132069168612,9.186794346603751,-3.385066508679092
1757088963988543500,7.92354345703125,-0.521963872834295,9.187313402041791,-3.3898677714809775
1757088963998498600,7.93349853515625,-0.4647738858211785,9.1916657520324,-3.3863913275420665
1757088964008452400,7.943452392578125,-0.38940084759201854,9.198633252957462,-3.3769705882459875
1757088964018407400,7.953407470703125,-0.29233844879260285,9.207544873687624,-3.362446096070111
1757088964028362500,7.963362548828125,-0.17417760452078654,9.218691706123948,-3.340022667337954
1757088964038316500,7.973316650390625,-0.042358004357223394,9.231918267443776,-3.3076059601187704
1757088964048271400,7.983271240234375,0.09563506027688272,9.246341345071793,-3.2659432856485244
1757088964058225400,7.993225341796875,0.23973409080300478,9.260057735735177,-3.219354260692
1757088964068180500,8.003180419921875,0.4003874114327132,9.269778919282555,-3.175101569728553
1757088964078135600,8.013135498046875,0.5823952894540503,9.27295930288434,-3.137423580980301
1757088964088089300,8.02308935546875,0.7791332652259617,9.266844034874438,-3.1127067806139586
1757088964098044400,8.03304443359375,0.9811058902483433,9.250296804699301,-3.104807551796734
1757088964107998500,8.04299853515625,1.1836399485457687,9.224491332313418,-3.110971919645369
1757088964117953500,8.05295361328125,1.387995157855749,9.191276460453867,-3.1247853409424424
1757088964127907600,8.062907470703125,1.5948993940614162,9.152584618487953,-3.1395614697918295
1757088964137862400,8.0728623046875,1.8023567341051994,9.110385060662031,-3.1500387324035164
1757088964147817500,8.0828173828125,2.0071371100246904,9.065923403123021,-3.1544913278982043
1757088964157771300,8.092771240234375,2.205318672201037,9.019486646118759,-3.1552851086243985
1757088964167726600,8.1027265625,2.393575783342868,8.970078764349221,-3.158935155564546
1757088964177680400,8.112680419921874,2.5666183742180464,8.919880024462937,-3.16521408970356
1757088964187636500,8.122636474609376,2.722563845950365,8.871264169853925,-3.1715430004641414
1757088964197591600,8.132591552734375,2.859906616282463,8.825265804266929,-3.1789971158623693
1757088964207545600,8.142545654296875,2.979578413106501,8.781308004596829,-3.1907872146382927
1757088964217500400,8.15250048828125,3.08886091786325,8.739210738101601,-3.2024253377228975
1757088964227454500,8.162454345703125,3.201887285323441,8.694696473592519,-3.2125600705072284
1757088964237409500,8.172409423828125,3.32741306887269,8.643527427369357,-3.2230589604288338
1757088964247364600,8.182364501953124,3.4685634147942066,8.583898011314869,-3.233595552012324
1757088964257318400,8.192318359375,3.6157732068851587,8.518653677988052,-3.2448560739561914
1757088964267273500,8.2022734375,3.760006613513827,8.450392042666673,-3.259389041699469
1757088964277227500,8.2122275390625,3.900982187390327,8.378867606157064,-3.278312353356182
1757088964287182600,8.2221826171875,4.040846585154533,8.305034892705082,-3.2967221625328063
1757088964297136600,8.23213671875,4.187538490851224,8.227478774815797,-3.308097543027997
1757088964307091500,8.242091552734376,4.341607355056703,8.145363386186958,-3.312690423776209
1757088964317046500,8.252046630859375,4.493268281337619,8.061995951670408,-3.3143808610811827
1757088964327000300,8.262000244140625,4.62233334492892,7.987724846801162,-3.3167309313386677
1757088964336955600,8.27195556640625,4.707323119950294,7.935330642697215,-3.3229493674620985
1757088964346909400,8.281909423828125,4.748060496269166,7.906751613944769,-3.3331025126859544
1757088964356864500,8.291864501953125,4.758999531173706,7.897670481866598,-3.3390234271675348
1757088964366818300,8.301818359375,4.750154838199913,7.902643009582161,-3.3398628006011246
1757088964376773600,8.311773681640625,4.723171846467256,7.918456664785742,-3.3406738247230647
1757088964386728400,8.321728515625,4.681058797881007,7.942730105298757,-3.3423248068004843
1757088964396682500,8.3316826171875,4.6269016757577655,7.9742510327219955,-3.342678442543745
1757088964406637300,8.34163720703125,4.562562182316184,8.011651665833591,-3.341680955938995
1757088964416591400,8.35159130859375,4.485929901273549,8.05455148088336,-3.3423023027077314
1757088964426546700,8.361546630859374,4.3937496302261945,8.104020152929424,-3.345181073014438
1757088964436501500,8.37150146484375,4.285221743229031,8.160733973798155,-3.3480881926327943
1757088964446455600,8.38145556640625,4.160592323997617,8.224055814629793,-3.3503380173861976
1757088964456410400,8.391410400390624,4.019969509081542,8.292629584640265,-3.352987655112147
1757088964466364400,8.401364501953125,3.8644630132883786,8.364834404629468,-3.3564635145291684
1757088964476319500,8.411319580078125,3.6978771973371503,8.43801186904311,-3.360959072382748
1757088964486274600,8.421274658203124,3.5277567775189875,8.509655548018216,-3.3631922382622954
1757088964496228400,8.431228271484375,3.3632208798348904,8.576766844260693,-3.361276175507903
1757088964506183400,8.441183349609375,3.2134292545571923,8.635783681374788,-3.3567069678962227
1757088964516137500,8.451137451171874,3.0873861691355704,8.682357216501236,-3.3548575406372545
1757088964526092500,8.461092529296875,2.9937247196197507,8.71314164634347,-3.3599358668148516
1757088964536046600,8.471046630859375,2.9385771251544353,8.725665027830004,-3.3760789001032707
1757088964546001400,8.48100146484375,2.9312568652689457,8.717697994473577,-3.4029163458853957
1757088964555956500,8.49095654296875,2.984527852207422,8.69083570651114,-3.425257064770162
1757088964565910500,8.50091064453125,3.0936335390925405,8.652590439268947,-3.425272262339294
1757088964575865600,8.510865478515624,3.229215144971013,8.610877203655242,-3.405189551514387
1757088964585819400,8.5208193359375,3.360774655726552,8.571651108682156,-3.3767391175776718
1757088964595774500,8.5307744140625,3.4705370529547332,8.537496325623989,-3.3521456513300536
1757088964605729500,8.5407294921875,3.544486670784652,8.509204881641269,-3.3466996608838437
1757088964615683600,8.55068359375,3.571676875527203,8.488500531786679,-3.37028950304687
1757088964625638400,8.560638427734375,3.560846561694145,8.47537100110054,-3.414503615565598
1757088964635592400,8.570592529296874,3.5302860037356614,8.468203593689204,-3.4636657058805227
1757088964645547300,8.58054736328125,3.495530332174897,8.464144673687219,-3.5085473423972724
1757088964655501600,8.59050146484375,3.4651503914803263,8.461437168294191,-3.545025892227888
1757088964665456600,8.60045654296875,3.4413676570937035,8.462168405178188,-3.56637613877058
1757088964675411500,8.610411376953126,3.4195676209568977,8.470188630026579,-3.5683091526597734
1757088964685365500,8.620365478515625,3.394187095984816,8.487813718566297,-3.5506177208855747
1757088964695320600,8.630320556640624,3.3638658997401594,8.514392513412236,-3.515663019621372
1757088964705274600,8.640274658203126,3.3353763028368353,8.544457396808266,-3.4695635317474602
1757088964715229400,8.6502294921875,3.3225133141323924,8.569590669021009,-3.4195638215646147
1757088964725184500,8.6601845703125,3.337088951973617,8.581346573266387,-3.375601053458452
1757088964735138300,8.67013818359375,3.3771231484591957,8.578626208391785,-3.3425393263339993
1757088964745093600,8.68009375,3.423322589576244,8.571265324234963,-3.314313641063869
1757088964755047700,8.690047607421874,3.4469682535797355,8.573533853688836,-3.283796629986167
1757088964765002500,8.70000244140625,3.430816452462971,8.594290810513495,-3.2462358378767964
1757088964774956500,8.70995654296875,3.3719840320050714,8.629544494724273,-3.214199654407799
1757088964784911400,8.719911376953124,3.271926743972301,8.673080854111909,-3.2004034765064713
1757088964794866700,8.72986669921875,3.138655460862815,8.722344358974695,-3.1999872969210146
1757088964804820500,8.739820556640625,2.9868191780149935,8.777823669612408,-3.1935978881448506
1757088964814775600,8.749775634765625,2.8263687960788606,8.840942096826433,-3.165403474795818
1757088964824729300,8.759729248046876,2.6666251011073587,8.910468637517095,-3.1085420621499416
1757088964834684700,8.7696845703125,2.5179659869909283,8.980631138023734,-3.0295985815554856
1757088964844639500,8.779639404296875,2.3919616261444983,9.043983958515524,-2.94198196516186
1757088964854593500,8.789593505859376,2.2981994927331804,9.095463970384001,-2.8567881920009848
1757088964864548400,8.79954833984375,2.236758497212082,9.135891842362284,-2.7753873813822865
1757088964874502400,8.80950244140625,2.1970370199374853,9.168062173604964,-2.7000059771835803
1757088964884457500,8.81945751953125,2.1608749887101353,9.195668557932972,-2.634520528577268
1757088964894412500,8.82941259765625,2.108290084339678,9.223066852468252,-2.5808023823931814
1757088964904366600,8.83936669921875,2.0244456799611448,9.254292596337198,-2.535753572615981
1757088964914321400,8.8493212890625,1.9035776590898632,9.290475085830687,-2.496770638749003
1757088964924275500,8.859275390625,1.752344602832198,9.328791080221533,-2.4644135527625677
1757088964934230500,8.86923046875,1.5954771939493715,9.363948318320512,-2.4374751308239997
1757088964944184600,8.8791845703125,1.4594630418725312,9.392126365056633,-2.4141882171303033
1757088964954139400,8.889139404296875,1.354181589450687,9.412166113522648,-2.3974397652946413
1757088964964094500,8.899094482421875,1.275174395970255,9.425731113016605,-2.3874549623750148
1757088964974048300,8.90904833984375,1.2105525053907185,9.434905768597126,-2.3848496021822094
1757088964984003600,8.919003662109375,1.147901257297024,9.441175350385905,-2.391001548940688
1757088964993957600,8.92895751953125,1.0770328004781156,9.446074812865257,-2.4045957745291293
1757088965003912400,8.938912353515626,0.9968896617703139,9.450622393167018,-2.421226299073547
1757088965013867300,8.9488671875,0.9112171651817857,9.45505716074407,-2.437613224120438
1757088965023821600,8.958821533203125,0.8238727898582816,9.459275070700048,-2.452297583033144
1757088965033776600,8.968776611328124,0.7360559747174382,9.46270562967062,-2.4669454093277454
1757088965043730400,8.97873046875,0.6460345622044056,9.464396066975594,-2.4856097777873276
1757088965053685500,8.988685546875,0.5555106069967151,9.463304764607548,-2.5115040975004432
1757088965063639300,8.998639404296876,0.4645822357065975,9.460285124525427,-2.5411682911410924
1757088965073594600,9.0085947265625,0.37559012970868494,9.454493681642413,-2.577182730591297
1757088965083549400,9.018549560546875,0.2898528425219469,9.44535877355039,-2.6213699551030993
1757088965093503500,9.02850341796875,0.20580217498159034,9.433189612329006,-2.672635155177116
1757088965103458300,9.038458251953125,0.12194319408843293,9.418405300173163,-2.7293177041247487
1757088965113412400,9.048412353515625,0.038698276273277585,9.400911144536733,-2.791370547933876
1757088965123367400,9.058367431640624,-0.043083482787292446,9.381201066416502,-2.8568524894088503
1757088965133321500,9.068321533203125,-0.12191311861057764,9.359984675386547,-2.9233903696775436
1757088965143276500,9.078276611328125,-0.19498665685886515,9.337833049333096,-2.989524053059518
1757088965153231400,9.0882314453125,-0.2581257067358121,9.31615254792273,-3.0517326719522475
1757088965163185700,9.098185546875,-0.308740333946608,9.296534239739179,-3.106361503240466
1757088965173140500,9.108140380859375,-0.34846308986283836,9.280129632905124,-3.1508971027985213
1757088965183094500,9.118094482421874,-0.38201676522269845,9.267093041199445,-3.1851892485007642
1757088965193049000,9.128049072265625,-0.41194947360642253,9.2572169593513,-3.2100825744777914
1757088965203004200,9.138004150390625,-0.44042215590756384,9.249932647562026,-3.2272537817701696
1757088965212958200,9.147958251953124,-0.46797129362300033,9.24464798515737,-3.2384973525792358
1757088965222913000,9.1579130859375,-0.4956733568778261,9.241468770599365,-3.2434459148973223
1757088965232867000,9.1678671875,-0.5273721616186201,9.239593039855361,-3.2437925363779065
1757088965242822100,9.177822265625,-0.5611582574948668,9.23867943214178,-3.240725550022721
1757088965252776200,9.187776123046875,-0.592568052693829,9.239763720247149,-3.232034878566861
1757088965262731000,9.19773095703125,-0.6176725372035056,9.241336084130406,-3.222821936802566
1757088965272686000,9.20768603515625,-0.6316157223600893,9.241970874902606,-3.2182980296373365
1757088965282640000,9.217639892578125,-0.630053222283721,9.242941181239486,-3.2158138116061687
1757088965292595200,9.22759521484375,-0.612472045950964,9.24615780519843,-3.2099595326200125
1757088965302549200,9.23754931640625,-0.5809719786526635,9.252498698657751,-3.197517399676144
1757088965312504000,9.247504150390625,-0.5344018410596997,9.260753316783905,-3.1817028676897285
1757088965322459000,9.257458984375,-0.46831225254777814,9.270900032266974,-3.162510968224704
1757088965332413000,9.267412841796874,-0.38448783151134847,9.283754253143071,-3.135999685657024
1757088965342368000,9.277367919921875,-0.28643083218401294,9.299185046508908,-3.100566553226113
1757088965352322000,9.287322021484375,-0.1782379492948763,9.316457668349146,-3.056508215790987
1757088965362277000,9.297277099609374,-0.061280055638612246,9.334648574078082,-3.0051600136086343
1757088965372231000,9.30723095703125,0.06979915622011758,9.351766297617553,-2.951265049552917
1757088965382186200,9.317186279296875,0.22470513797001912,9.36367417755425,-2.905425673919916
1757088965392141000,9.32714111328125,0.4123259787686169,9.367034009376168,-2.873856815701723
1757088965402095000,9.33709521484375,0.6312235812373459,9.36180721463859,-2.8510592929601666
1757088965412050000,9.3470498046875,0.8698027663841843,9.3476717217803,-2.8345860048040747
1757088965422004000,9.35700390625,1.1182636594023554,9.322801484417916,-2.8293562874570486
1757088965431959000,9.366958984375,1.3706708058282733,9.28756065968871,-2.8342332458436488
1757088965441913000,9.3769130859375,1.6239726360715925,9.244131267806887,-2.8423782661154866
1757088965451868200,9.3868681640625,1.877524495553225,9.194382609775662,-2.8475612217113375
1757088965461823000,9.396822998046876,2.1291794353723525,9.139692403689025,-2.846578640414774
1757088965471777000,9.406777099609375,2.368451425088942,9.083277858027815,-2.838111840842664
1757088965481732000,9.416732177734374,2.5888793058648703,9.026877925413846,-2.8255165631636974
1757088965491686100,9.42668603515625,2.7935817942425607,8.970303805276751,-2.81068548925668
1757088965501641000,9.436640869140625,2.9824773494184016,8.913896273878215,-2.7960125285208224
1757088965511596000,9.446595947265624,3.1480449282377956,8.859461503857373,-2.787495752327144
1757088965521550000,9.456550048828126,3.2886385170593857,8.808355001476407,-2.7871365636259315
1757088965531505200,9.466505126953125,3.4136417380392547,8.75629806650281,-2.800832496023178
1757088965541459200,9.476459228515624,3.518378416059911,8.704120720019937,-2.8336759042218325
1757088965551414000,9.4864140625,3.6186174904003736,8.647531986835599,-2.880303507623076
1757088965561369000,9.496369140625,3.7320720201447606,8.579951904037594,-2.937082210421562
1757088965571323100,9.5063232421875,3.860819103828072,8.501712480059265,-2.997555091562867
1757088965581278200,9.5162783203125,4.002195951981842,8.417327392932773,-3.0498174859806895
1757088965591232000,9.52623193359375,4.153259496891498,8.32987941110432,-3.0877079484358427
1757088965601187000,9.53618701171875,4.308671592399477,8.240930377063155,-3.1133275428608056
1757088965611140900,9.546140869140626,4.457637872768938,8.153928969958423,-3.1326220259174704
1757088965621096200,9.55609619140625,4.58685140492022,8.075705912593007,-3.148675919617712
1757088965631051000,9.566051025390625,4.682923714970052,8.014838479176163,-3.1627447769805785
1757088965641005000,9.576005126953126,4.74178740734905,7.974926740026474,-3.175906748631596
1757088965650960000,9.5859599609375,4.767759760734439,7.954191410511732,-3.1890006234824657
1757088965660914200,9.5959140625,4.768180324234068,7.949061646407842,-3.201135590173304
1757088965670869000,9.605868896484376,4.749852348122,7.955829240846634,-3.211551477986574
1757088965680823000,9.615822998046875,4.717468958650529,7.971260034212469,-3.221003489203751
1757088965690778000,9.625778076171875,4.672761801917851,7.992961578410863,-3.2323712709143755
1757088965700733200,9.635733154296876,4.617500810205936,8.019549725607037,-3.2459000300511716
1757088965710687200,9.645687255859375,4.552849182075262,8.051427795904875,-3.258289848285913
1757088965720642000,9.65564208984375,4.4773225241869685,8.090279796868563,-3.2667022873222824
1757088965730596000,9.66559619140625,4.386870976628363,8.137478770416974,-3.272186271691322
1757088965740551000,9.675551025390625,4.278895462816953,8.194227078077196,-3.2735409011706706
1757088965750505000,9.6855048828125,4.152737518844008,8.260851467585564,-3.2685563907563684
1757088965760460000,9.6954599609375,4.009243240144849,8.335825167766213,-3.2573493525654076
1757088965770415000,9.7054150390625,3.8514617851570248,8.416606677442788,-3.2399659638270735
1757088965780369200,9.715369140625,3.6817066915199157,8.500593705162405,-3.2179654366821047
1757088965790324000,9.725323974609376,3.5026515623569487,8.584872993826865,-3.1940172826007007
1757088965800278300,9.7352783203125,3.3193034121751785,8.665282747581601,-3.1726144290879366
1757088965810233000,9.745233154296875,3.1402322086602448,8.737772814252972,-3.1560476174294947
1757088965820188200,9.755188232421874,2.9777868535146115,8.799850207981466,-3.140985072854161
1757088965830142000,9.765141845703125,2.847212846665084,8.847583434537052,-3.127943512712419
1757088965840097300,9.77509716796875,2.759873001386225,8.87802533455193,-3.119960989525914
1757088965850051000,9.785051025390626,2.721499139328301,8.89003433677554,-3.1194732060089705
1757088965860006100,9.795006103515625,2.735307299928367,8.882206419628858,-3.129679834985733
1757088965869960200,9.804960205078125,2.8026930291980503,8.853162111452221,-3.1522713137611746
1757088965879915000,9.8149150390625,2.917109974233806,8.809230030745267,-3.1714863018408415
1757088965889870000,9.8248701171875,3.0557968526512385,8.760929817956686,-3.174678668141365
1757088965899824000,9.83482421875,3.1924899269029496,8.713210619926452,-3.171485717318952
1757088965909779000,9.844779052734374,3.311452406413853,8.66878695631027,-3.171250739519298
1757088965919733000,9.85473291015625,3.3975346528470514,8.631718916153908,-3.1812907797574996
1757088965929688000,9.86468798828125,3.4436423240274188,8.60403595945835,-3.206594732362032
1757088965939642000,9.87464208984375,3.4539375080704686,8.58579887650013,-3.2441838737830517
1757088965949597200,9.88459716796875,3.4374604205220938,8.575974817100168,-3.2873873479545113
1757088965959552000,9.894552001953125,3.408424880173802,8.570551623007654,-3.3314684817433355
1757088965969506000,9.904506103515626,3.381329075716436,8.565595461905001,-3.3715833422496915
1757088965979461000,9.914461181640625,3.360831938871741,8.560604229488968,-3.4045901243165133
1757088965989415200,9.924415283203125,3.341395124734938,8.560022045686841,-3.4251220402136444
1757088965999370000,9.934369873046874,3.3174057618603108,8.568829036998748,-3.426424647244811
1757088966009325000,9.944324951171875,3.2886794335916636,8.586809514847397,-3.409059086424112
1757088966019279000,9.954279052734375,3.264399563337862,8.609550338965654,-3.374862217789888
1757088966029234200,9.964234130859374,3.262288270272314,8.629335820409654,-3.3260186919048427
1757088966039188200,9.974188232421875,3.2862460689648985,8.642610897046326,-3.267455443777144
1757088966049143000,9.98414306640625,3.319333222791552,8.654408302345871,-3.2021298619076606
1757088966059097000,9.99409716796875,3.3379978835120796,8.67155349841416,-3.1356466344356537
1757088966069052000,10.004052001953125,3.3226249578133222,8.697247327119111,-3.0803304054051637
1757088966079007200,10.01400732421875,3.2678362597882744,8.730852659600973,-3.043656040741503
1757088966088961000,10.0239609375,3.1822119862556457,8.768520419216156,-3.026048195597529
1757088966098916000,10.033916015625,3.0678388803616166,8.807924208843707,-3.02973039124161
1757088966108870100,10.0438701171875,2.9201269839674233,8.85155993695259,-3.0484681171983476
1757088966118825000,10.053824951171874,2.743185193696618,8.902752948573232,-3.0637130326032636
1757088966128779300,10.063779296875,2.552683664628863,8.960319586879015,-3.060536448393762
1757088966138734000,10.073734130859375,2.3686242974378167,9.021638271194696,-3.0282132646769284
1757088966148689200,10.083689208984374,2.2087195666857062,9.081754009461402,-2.968791061632335
1757088966158643000,10.093642822265625,2.0910468347243962,9.133673581790923,-2.893776737180352
1757088966168598300,10.103598388671875,2.0219458259694276,9.175620041638613,-2.8089392301112412
1757088966178552000,10.113552001953124,1.989253224418312,9.208207136988639,-2.724363881109655
1757088966188506600,10.123506591796875,1.9671577124662696,9.234308377450704,-2.6510712658837434
1757088966198461400,10.13346142578125,1.9251900637000798,9.259144712543486,-2.594657889266312
1757088966208415500,10.14341552734375,1.849653176678717,9.287062062516808,-2.549439275880158
1757088966218370600,10.15337060546875,1.749118042001128,9.319065220499038,-2.503194826577604
1757088966228324600,10.16332470703125,1.6441415638752281,9.350929262271523,-2.4550486353069543
1757088966238279700,10.17327978515625,1.5461467613302171,9.379771325874328,-2.4082563428632913
1757088966248233500,10.1832333984375,1.458107974001765,9.404707029688359,-2.3655428441658612
1757088966258188500,10.1931884765625,1.380906368638575,9.425124963817,-2.330343520490825
1757088966268143600,10.2031435546875,1.3127343112967909,9.441256014406681,-2.304297955738753
1757088966278097700,10.21309765625,1.2429983656391501,9.454827443641424,-2.2872551971316337
1757088966288052500,10.223052490234375,1.1644332168377935,9.466274720329046,-2.2812473350189624
1757088966298006500,10.233006591796874,1.0816224663559346,9.474908693161606,-2.2861745622880756
1757088966307961300,10.24296142578125,1.002956706724316,9.481141450071334,-2.2961793850824237
1757088966317915600,10.25291552734375,0.9293854937527328,9.485673832803965,-2.3083811333991586
1757088966327870700,10.26287060546875,0.8552588388554752,9.48885246284008,-2.3239130490519107
1757088966337825500,10.272825439453126,0.7772721475291997,9.490551083451509,-2.344279691384733
1757088966347779600,10.282779541015625,0.6981009956587105,9.489763732466102,-2.3722199838422235
1757088966357734700,10.292734619140624,0.6142754421111196,9.488026533409952,-2.4021716161221263
1757088966367688700,10.302688720703125,0.5231688647098839,9.485895366600156,-2.431966304274648
1757088966377643500,10.3126435546875,0.4294543332999572,9.481693823257087,-2.466459671637416
1757088966387597600,10.32259765625,0.3368106094593182,9.474934996646642,-2.506499128820002
1757088966397552400,10.332552490234375,0.24484297651564702,9.465563941711187,-2.552165485973656
1757088966407507700,10.3425078125,0.15531323824338614,9.453815051728487,-2.6022365078270435
1757088966417461800,10.352461669921874,0.07083457281561568,9.439998123300075,-2.655522400073707
1757088966427416600,10.36241650390625,-0.0050477255433565,9.423721526759863,-2.713639657999575
1757088966437370600,10.37237060546875,-0.06898239191055763,9.406068965691327,-2.7733564600765703
1757088966447325400,10.382325439453124,-0.12072812834340146,9.388319958510994,-2.8311232971295714
1757088966457280500,10.392280517578126,-0.16225167747074737,9.372062651193142,-2.882446657131612
1757088966467234600,10.402234619140625,-0.19588935958594084,9.356626012608409,-2.930112955930829
1757088966477189600,10.412189697265624,-0.22088479423057286,9.342551310026645,-2.972929476611316
1757088966487143400,10.422143310546875,-0.23642505758656188,9.331748176461458,-3.0054847155183553
1757088966497098800,10.4320986328125,-0.24418115160604936,9.324406581526993,-3.0275702905982733
1757088966507052500,10.442052490234374,-0.24401037988271562,9.319717546927928,-3.041992491443455
1757088966517007600,10.452007568359376,-0.23662076282175257,9.31712402330339,-3.0505037146791816
1757088966526962400,10.46196240234375,-0.2325706106481142,9.316166576448083,-3.0537416736871004
1757088966536916500,10.47191650390625,-0.23523986638998612,9.316462344524263,-3.052630497574806
1757088966546871600,10.48187158203125,-0.2456561012631282,9.318494727134704,-3.0455995760247108
1757088966556825600,10.49182568359375,-0.26109122374420984,9.322361923956871,-3.0324574781179425
1757088966566780700,10.50178076171875,-0.27448680322170255,9.327542541465162,-3.0152964999586342
1757088966576734500,10.511734375,-0.27884572908356786,9.332720820885896,-2.9988264266729354
1757088966586689500,10.521689453125,-0.2665317890966311,9.337616776233912,-2.984667552939057
1757088966596644600,10.53164453125,-0.23450961588667704,9.343907400810718,-2.9676246482014657
1757088966606598700,10.5415986328125,-0.18589535044655203,9.353395944646,-2.941056667010486
1757088966616553500,10.551553466796875,-0.12463894511158577,9.365302655538915,-2.9061928589001296
1757088966626507500,10.561507568359374,-0.05030573022498283,9.37803529586196,-2.8671093872681257
1757088966636462600,10.571462646484376,0.041328245750954375,9.391475207671522,-2.8229204091906546
1757088966646416600,10.581416748046875,0.15604838411752134,9.405396180996298,-2.7721067522764202
1757088966656371700,10.591371826171875,0.29867461127787825,9.418204809165001,-2.7163573925256728
1757088966666326500,10.601326416015626,0.4726366550855338,9.427070252665876,-2.6603257087022065
1757088966676280600,10.611280517578125,0.6767818749066442,9.428988068985939,-2.608934251900017
1757088966686235600,10.621235595703125,0.9073413466617465,9.422474741569161,-2.5620526737377047
1757088966696189700,10.631189697265626,1.1555310945883392,9.405434759441018,-2.524471423362195
1757088966706144500,10.64114453125,1.4100541371896862,9.376791433280706,-2.50157920807451
1757088966716099600,10.651099609375,1.6647782553210853,9.33728418327868,-2.4927917982459067
1757088966726053400,10.661053466796876,1.9168251170672475,9.289144714009762,-2.491580376629531
1757088966736008700,10.6710087890625,2.160078577635437,9.236903070119023,-2.4867826209589836
1757088966745962500,10.68096240234375,2.388182545997202,9.182072578778863,-2.481239307618141
1757088966755917600,10.69091748046875,2.600730194917321,9.123375475138426,-2.4840660554766654
1757088966765871600,10.70087158203125,2.7993612544268367,9.062209935557842,-2.4920474096193908
1757088966775826700,10.71082666015625,2.9862942773580547,8.999574323424696,-2.502022860188782
1757088966785781500,10.720781494140626,3.1612527848571537,8.935938009816407,-2.515129594521224
1757088966795735600,10.730735595703125,3.316620456701517,8.874002654907107,-2.5342645031020044
1757088966805690600,10.740690673828125,3.455525946305692,8.813331620845197,-2.560257607014477
1757088966815644400,10.75064453125,3.5937720952183008,8.748486515969038,-2.5921423993140458
1757088966825599700,10.760599853515625,3.7327819219797846,8.678075593659281,-2.632060275943577
1757088966835553500,10.770553466796875,3.8714267148211596,8.599806359064578,-2.6880881603747606
1757088966845508600,10.780508544921876,4.005867041710019,8.514500649961828,-2.7616555008888244
1757088966855463400,10.79046337890625,4.129945256799459,8.426421384492516,-2.8476915700927377
1757088966865417500,10.80041748046875,4.242019145840406,8.338917873084545,-2.939064616410434
1757088966875372500,10.81037255859375,4.348917678070068,8.252458317771554,-3.025601620873809
1757088966885326600,10.82032666015625,4.459730753394961,8.167391678121685,-3.094335842142999
1757088966895281700,10.83028173828125,4.574051836840808,8.086207432863116,-3.1403277779892087
1757088966905235500,10.8402353515625,4.680131746163964,8.013882201364636,-3.169292883449793
1757088966915190500,10.8501904296875,4.759201191225648,7.9582976767867795,-3.191540078832209
1757088966925145600,10.8601455078125,4.80088958465904,7.924141140162944,-3.214007638967037
1757088966935099600,10.870099609375,4.808737083289027,7.91045982081294,-3.235899152779579
1757088966945054500,10.880054443359375,4.794394961942732,7.912966250675916,-3.2510230721533295
1757088966955008500,10.890008544921875,4.765023029246926,7.927922412267327,-3.2577585178881883
1757088966964963600,10.899963623046874,4.7245153700307005,7.951450002849102,-3.2594097922265526
1757088966974917600,10.909917724609375,4.6744870182752605,7.980579066699743,-3.2603537950783967
1757088966984872700,10.919872802734375,4.614316042689979,8.013187204837799,-3.2660853244677184
1757088966994827500,10.92982763671875,4.545676513966917,8.048827258017658,-3.2746959164246916
1757088967004781600,10.939781494140625,4.468032425533234,8.088767054218053,-3.2831241375520825
1757088967014736600,10.949736572265625,4.376980281732976,8.135390273705124,-3.290573869036138
1757088967024690700,10.959690673828124,4.269157912656665,8.190123734411596,-3.296450067593157
1757088967034645500,10.9696455078125,4.143150483070314,8.253624438941479,-3.298849237689376
1757088967044600600,10.9796005859375,3.9998309764161704,8.325765546044707,-3.294441065858304
1757088967054554400,10.989554443359374,3.8414877958923577,8.405362814372777,-3.280736950154602
1757088967064509700,10.999509765625,3.6726135767430064,8.490175771522521,-3.2556390415161847
1757088967074463500,11.00946337890625,3.498438036315143,8.577420924255252,-3.2185663251847028
1757088967084418600,11.01941845703125,3.319497473442554,8.664747325530648,-3.173880211240053
1757088967094372600,11.02937255859375,3.1357530174195762,8.749276789563893,-3.128512252511084
1757088967104327700,11.03932763671875,2.9525886993721127,8.828736110725998,-3.0831875484019515
1757088967114282500,11.049282470703124,2.7788050808712836,8.900918134361506,-3.0368259024605155
1757088967124236500,11.059236572265625,2.6258342410355806,8.96234203261733,-2.991962093861401
1757088967134191600,11.069191650390625,2.509181207510829,9.008651363849639,-2.9527248929724097
1757088967144145400,11.0791455078125,2.450256432594359,9.035087535354494,-2.92127089330554
1757088967154100700,11.089100830078126,2.468310852462053,9.037253773477673,-2.8992908244267106
1757088967164054500,11.099054443359375,2.560857910995185,9.015597237464785,-2.8864164375454187
1757088967174009600,11.109009521484374,2.706178236077726,8.97479760956466,-2.88096752448976
1757088967183964400,11.11896435546875,2.876167722992599,8.922499851572512,-2.8787194533020255
1757088967193918700,11.128918701171875,3.0407135575488207,8.86698488509953,-2.881146972709894
1757088967203873500,11.13887353515625,3.1812685679256916,8.811548244559765,-2.8994010068029166
1757088967213827600,11.14882763671875,3.2902535510405895,8.758555490040779,-2.9380750208511945
1757088967223782700,11.15878271484375,3.3605271107062697,8.712727220323682,-2.994270663064718
1757088967233736700,11.16873681640625,3.3910090504705903,8.67824627405107,-3.059332917822897
1757088967243691800,11.17869189453125,3.385607191427052,8.656832314622402,-3.1252678637623785
1757088967253646600,11.188646484375,3.3516546529427167,8.647252000850438,-3.187759098988771
1757088967263600600,11.1986005859375,3.300614786057174,8.646793151167035,-3.2418098381280895
1757088967273555700,11.2085556640625,3.2419723352134224,8.653041690167784,-3.2840283929154275
1757088967283509800,11.218509765625,3.181105778579414,8.664636850893498,-3.312860519646108
1757088967293464600,11.228464599609374,3.124235890366137,8.680650997105241,-3.3250340647816654
1757088967303419600,11.238419677734376,3.0781653363257644,8.699701734533905,-3.31819983484745
1757088967313373700,11.248373779296875,3.047712330394983,8.719839682677387,-3.2933643765375016
1757088967323328800,11.258328857421875,3.0412317362040278,8.740018547353149,-3.2455145378649233
1757088967333282800,11.26828271484375,3.0763503958582876,8.754523458045721,-3.1724951866224407
1757088967343237600,11.278237548828125,3.1604350387334823,8.756789064890146,-3.082313980437815
1757088967353191700,11.288191650390624,3.264728064639866,8.752558879974483,-2.9840660799145695
1757088967363146800,11.298146728515626,3.3418077971890567,8.756625398761033,-2.8851722827032207
1757088967373101800,11.308101806640625,3.3619293787196276,8.77828602642715,-2.79454362501204
1757088967383055600,11.3180556640625,3.3198978709369897,8.815850910189747,-2.7257033130198716
1757088967393010700,11.3280107421875,3.2269410625591872,8.86310541331768,-2.6837729275241493
1757088967402964500,11.337964599609375,3.103634708625078,8.91293707345724,-2.664099674282968
1757088967412919800,11.347919921875,2.9651237712964416,8.958844838151336,-2.6678733476027845
1757088967422873900,11.357873779296876,2.8185554919794202,9.000352906581758,-2.6869609099105
1757088967432828700,11.36782861328125,2.670060628513992,9.041202218842505,-2.7014471159026026
1757088967442783500,11.377783447265625,2.526228788423538,9.085888917309045,-2.689828866562247
1757088967452737800,11.38773779296875,2.3925693827793,9.136306852903962,-2.640813198980689
1757088967462692900,11.39769287109375,2.2753198446661234,9.188852448177338,-2.5609172399669884
1757088967472646700,11.407646728515624,2.1801032746627924,9.237200007238984,-2.4681401720702647
1757088967482601700,11.417601806640626,2.103885858031362,9.280488529345392,-2.369940786863863
1757088967492555500,11.427555419921875,2.0357341128252444,9.320389162579179,-2.270797983327508
1757088967502510800,11.4375107421875,1.9639304209828377,9.357135131174326,-2.181140801016986
1757088967512465700,11.447465576171876,1.8798823107257485,9.390818789589405,-2.1092523535005747
1757088967522419700,11.457419677734375,1.7821664712525904,9.422077266684173,-2.053957751780003
1757088967532374500,11.46737451171875,1.6771335867643355,9.45140389893353,-2.0071280499354005
1757088967542328600,11.47732861328125,1.5703933138363062,9.478782904246449,-1.9639112778909504
1757088967552283600,11.48728369140625,1.4657427066639064,9.504035418924689,-1.922314654394239
1757088967562237700,11.49723779296875,1.36534771110937,9.526158403405546,-1.8864076208412646
1757088967572192800,11.50719287109375,1.2700957775317132,9.54472691027522,-1.85888409249112
1757088967582147600,11.517147705078125,1.1856746692437679,9.559041851353644,-1.840989977751672
1757088967592102000,11.527101806640625,1.1148690485280006,9.569705868709088,-1.8298066126972437
1757088967602056700,11.537056640625,1.054814538929239,9.577221066644787,-1.8260802856504916
1757088967612010800,11.5470107421875,0.9995718865916132,9.582406944850087,-1.8299419295147061
1757088967621965600,11.556965576171875,0.9472576158560811,9.585870821568369,-1.839612698049098
1757088967631919600,11.566919677734376,0.8969532967034727,9.588495909374952,-1.85110702874884
1757088967641874700,11.576874755859375,0.8449719842493534,9.591350129762292,-1.8607577774085102
1757088967651829800,11.586829833984375,0.7879542119979858,9.594430560120939,-1.8698748575828967
1757088967661783800,11.59678369140625,0.7248250441942363,9.597419220542907,-1.880040862288326
1757088967671738600,11.606738525390625,0.6579557400140911,9.5996696298182,-1.8930979122601448
1757088967681692700,11.616692626953125,0.5911615103641524,9.600646950417756,-1.9101015079006551
1757088967691647700,11.626647705078126,0.5264449637711048,9.600034955999254,-1.9319827925801276
1757088967701601800,11.636601806640625,0.4608481272121891,9.597783962202072,-1.9597263934217393
1757088967711556600,11.646556640625,0.39139435949679463,9.593933131992816,-1.9933910548754035
1757088967721511700,11.65651171875,0.3184509595673531,9.588534487819672,-2.0319887888170776
1757088967731465700,11.6664658203125,0.24288007894484326,9.581220365414023,-2.0764353949174286
1757088967741420800,11.6764208984375,0.16522000749073923,9.571502104476094,-2.128245953914523
1757088967751374800,11.686374755859376,0.08805461508524604,9.55938555022478,-2.1864964828312394
1757088967761329700,11.69632958984375,0.014997767676855437,9.544445755246281,-2.2524894425682724
1757088967771284700,11.70628466796875,-0.051087089861021374,9.526782672783732,-2.325546641603112
1757088967781238800,11.71623876953125,-0.10936052016271278,9.507636073765157,-2.400681231433898
1757088967791193600,11.726193603515625,-0.16096039555119349,9.48793827060461,-2.474571666422486
1757088967801147600,11.736147705078125,-0.20773548113172874,9.468623913803697,-2.5440935309380293
1757088967811102700,11.746102783203124,-0.2502554482847452,9.449904600286484,-2.609038296796381
1757088967821056500,11.756056396484375,-0.2896323681716807,9.431631276971101,-2.670364287635684
1757088967831011800,11.76601171875,-0.32445885821264236,9.413846613955497,-2.728479207473993
1757088967840966700,11.775966552734374,-0.35416144763492047,9.39739232276082,-2.7810031754374505
1757088967850920700,11.785920654296875,-0.38643220704477277,9.382866369280219,-2.8253976129591463
1757088967860875500,11.79587548828125,-0.4233338411256671,9.371184699314831,-2.8586820429235695
1757088967870829800,11.805829833984374,-0.465181261045672,9.362757062709331,-2.879716355384886
1757088967880784600,11.81578466796875,-0.5078447465889155,9.35686508206129,-2.891633587671816
1757088967890738700,11.82573876953125,-0.5439192456632852,9.352741280129552,-2.898407319590449
1757088967900693800,11.83569384765625,-0.5700604528095573,9.351302771759032,-2.898025042274594
1757088967910648600,11.845648681640625,-0.5905756733002141,9.35160380053222,-2.892942916704714
1757088967920603000,11.855602783203125,-0.607012136577256,9.352783365705609,-2.8857147190168497
1757088967930557700,11.8655576171875,-0.614547975442186,9.353985727232693,-2.8802248894289133
1757088967940511700,11.87551171875,-0.6076741441499441,9.35625074955523,-2.8743185879945754
1757088967950466600,11.885466552734375,-0.584283623951301,9.36070772896409,-2.8646371519356966
1757088967960422000,11.895421875,-0.5465036726659164,9.367548388639092,-2.8496920962601897
1757088967970375700,11.905375732421875,-0.4954505079073831,9.377433822837471,-2.826420526266098
1757088967980330800,11.915330810546875,-0.43024953879825767,9.39040027191639,-2.7938585653573274
1757088967990284800,11.925284912109374,-0.35035325099099424,9.40593511017859,-2.7524583412155508
1757088968000239600,11.935239501953125,-0.25551008087731897,9.423117715647816,-2.7036910954371094
1757088968010193700,11.945193603515625,-0.14212465258007867,9.441049093657732,-2.648921394373476
1757088968020148700,11.955148681640624,-0.003763997598829155,9.457382388821244,-2.593895088200271
1757088968030103800,11.965103759765626,0.16101212573843077,9.470368127122521,-2.5409806596145033
1757088968040057600,11.9750576171875,0.3529633604241535,9.47870808544457,-2.4899574516028165
1757088968050012700,11.9850126953125,0.5735889191966503,9.478675352218747,-2.4486910829737782
1757088968059966700,11.994966796875,0.8194649833533912,9.466030390179156,-2.4275863356247545
1757088968069921800,12.004921875,1.0883967827964574,9.438676519307494,-2.4284089040540158
1757088968079876600,12.014876708984374,1.3767698533557355,9.396621922910214,-2.4450801990002393
1757088968089830700,12.02483056640625,1.6771297873720525,9.341830594536662,-2.467357789520919
1757088968099785700,12.03478564453125,1.974262868296355,9.27810718716681,-2.4878566799312827
1757088968109739800,12.04473974609375,2.250965447871387,9.210897691246867,-2.502579032766819
1757088968119694600,12.054694580078126,2.4966522730663416,9.143699885764718,-2.515925128813088
1757088968129648600,12.064648681640625,2.7109052645996212,9.076558194383978,-2.5372140005573627
1757088968139603700,12.074603759765624,2.907695372417569,9.00590995618701,-2.570856742440164
1757088968149558800,12.084558837890626,3.091428722524643,8.933926085472107,-2.6073750397592783
1757088968159512800,12.094512939453125,3.258535055218637,8.864517618203163,-2.6405843586608766
1757088968169467600,12.104467529296874,3.4172570059269667,8.794795262679457,-2.672883576980233
1757088968179421700,12.114421630859376,3.5685903076887127,8.724570802852512,-2.7050726129233835
1757088968189377300,12.124377197265625,3.7095407471239565,8.654712253728508,-2.739652343395352
1757088968199332400,12.134332275390625,3.84482190875113,8.58171248396933,-2.7824387611985206
1757088968209286100,12.1442861328125,3.9745501124262805,8.505296183764933,-2.834305434297025
1757088968219241200,12.1542412109375,4.100339515347779,8.427036301520467,-2.888366987091303
1757088968229195000,12.164195068359374,4.226332331886887,8.348111817887425,-2.93555660828948
1757088968239150300,12.174150390625,4.355672997549176,8.269091472664474,-2.9699595208898186
1757088968249105200,12.184105224609375,4.488381386078894,8.191198670166731,-2.9881562718376515
1757088968259059200,12.19405908203125,4.613258058069646,8.120511269003153,-2.990913753852248
1757088968269014000,12.204013916015626,4.71189086625725,8.065838598573208,-2.9850773027837274
1757088968278968000,12.213968017578125,4.773961537984014,8.031365835607051,-2.9794089017584917
1757088968288923100,12.223923095703125,4.800348025128245,8.01676506332457,-2.976327302356064
1757088968298877200,12.233877197265626,4.799316928514838,8.018803875675797,-2.972493131020665
1757088968308832300,12.243832275390625,4.783553249932825,8.031669786989688,-2.9631521789625284
1757088968318787000,12.253787109375,4.760200431396067,8.050252906906604,-2.9503076026976105
1757088968328741400,12.263741455078126,4.730245438115299,8.070908741444349,-2.942043047699332
1757088968338696200,12.2736962890625,4.6918481951817865,8.092440189772844,-2.9443793816924093
1757088968348650200,12.283650146484375,4.645269107097387,8.11342686370015,-2.9604373670458792
1757088968358605000,12.29360498046875,4.5911476408094165,8.13528622880876,-2.9847768585324284
1757088968368560400,12.303560302734375,4.524749753533303,8.162430256322025,-3.011939883007109
1757088968378514200,12.31351416015625,4.442427736416459,8.197918918332457,-3.0379893932819364
1757088968388469200,12.32346923828125,4.341936148619651,8.243273725318907,-3.060465428984165
1757088968398423300,12.33342333984375,4.224147096802294,8.298087850046157,-3.077132778407633
1757088968408378000,12.343378173828125,4.088475766813755,8.361489770376682,-3.088725601045787
1757088968418333200,12.353333251953124,3.9352684878736732,8.432097092041372,-3.095764705902338
1757088968428287200,12.363287353515625,3.7692096184059976,8.507286480799317,-3.0966900040537118
1757088968438242300,12.3732421875,3.596598843076825,8.584072783359884,-3.090070293653011
1757088968448196000,12.383196044921876,3.422106491784751,8.659714007538556,-3.0771672651991246
1757088968458151200,12.393151123046875,3.2495594293415544,8.731243704745173,-3.062050652348995
1757088968468106200,12.403106201171875,3.0869623907655477,8.795726990571618,-3.0456919304832812
1757088968478060300,12.413060302734374,2.9433816028267143,8.851298071146012,-3.026786739005148
1757088968488015000,12.42301513671875,2.825947940318286,8.895345302665232,-3.009529899255931
1757088968497969200,12.43296923828125,2.7399314525976775,8.924698238399625,-3.0021587859660386
1757088968507924200,12.44292431640625,2.689085646979511,8.938307077035308,-3.007641016769409
1757088968517878300,12.452878173828125,2.677139480859041,8.936784982034563,-3.0227810104951263
1757088968527833300,12.462833251953125,2.708682035592198,8.921192860627174,-3.040679655279219
1757088968537788200,12.4727880859375,2.7821479615584015,8.893371956765652,-3.055810881176591
1757088968547742200,12.4827421875,2.884647382046282,8.859053507578372,-3.0604514004588124
1757088968557697300,12.492697265625,2.995978928287327,8.82450008059144,-3.0533123423591255
1757088968567652400,12.50265234375,3.0977614326775074,8.79150732704997,-3.046914165754616
1757088968577606100,12.512606201171875,3.1811902419924736,8.760244173780084,-3.050989160108566
1757088968587561200,12.522561279296875,3.243860633178055,8.731642933195829,-3.0669515761330723
1757088968597515000,12.532514892578124,3.285000452817976,8.707568230125307,-3.0915035413265226
1757088968607470300,12.54247021484375,3.302764657567441,8.689820391988754,-3.1223622054487463
1757088968617425200,12.552425048828125,3.3014918611526487,8.678083776965737,-3.156170367026329
1757088968627379200,12.562379150390624,3.293425751335919,8.670237739640474,-3.186014301148057
1757088968637334000,12.572333984375,3.289874196334183,8.665046600738167,-3.2037568785876034
1757088968647288000,12.5822880859375,3.2928257396161555,8.663226984095573,-3.205643422986567
1757088968657243100,12.5922431640625,3.2946479866072536,8.66740923821628,-3.192446964544058
1757088968667198200,12.6021982421875,3.287001855768263,8.68143425643742,-3.162074914894998
1757088968677152300,12.61215234375,3.274713744342327,8.704869492560624,-3.1099688800826666
1757088968687107000,12.622107177734375,3.2788197183564303,8.729726285919547,-3.0350656147897244
1757088968697061400,12.632061279296876,3.3204277400299906,8.743810925373435,-2.9480399500265717
1757088968707016200,12.64201611328125,3.3931332030177113,8.746602601918578,-2.8555168568909166
1757088968716971300,12.65197119140625,3.4579099188327787,8.752493413522838,-2.7580986851900815
1757088968726925000,12.661925048828126,3.478357663577795,8.773352661678194,-2.6645219913482663
1757088968736880400,12.67188037109375,3.448000519236922,8.808076184535025,-2.588328393983841
1757088968746834200,12.681834228515624,3.3740541162773963,8.852050350818038,-2.5352234112620353
1757088968756789200,12.691789306640626,3.2680057711362838,8.90193403340578,-2.499224169380963
1757088968766744000,12.701744140625,3.141599113099277,8.952095948413014,-2.482073128093779
1757088968776698000,12.711697998046875,3.0062673903286457,8.99855900890231,-2.4816674699023364
1757088968786653200,12.721653076171876,2.8691677811026572,9.043435092461108,-2.4808321881219744
1757088968796607200,12.731607177734375,2.735226928168535,9.089747346302866,-2.4628011491298674
1757088968806562300,12.741562255859375,2.603896842254698,9.138953568020462,-2.4227314429394897
1757088968816517000,12.75151708984375,2.4767791133388877,9.18942352606356,-2.364414278527349
1757088968826471200,12.76147119140625,2.3619104790128764,9.236191706979275,-2.2988056419327854
1757088968836426200,12.77142626953125,2.2697578266248106,9.275407865080236,-2.232802745323628
