time,seconds_elapsed,z,y,x
1757088956083342000,0.018342041015625,1.2696691751480103,1.0279791355133057,0.9745110869407654
1757088956093296000,0.028296142578125,1.064117193222046,1.2573696374893188,1.2643612623214722
1757088956103251200,0.038251220703125,0.9650264978408813,1.5439833402633667,1.4822955131530762
1757088956113205200,0.048205322265625,0.9477769732475281,1.7376028299331665,1.5917819738388062
1757088956123160000,0.05816015625,0.9809610247612,1.8349640369415283,1.6344306468963623
1757088956133114000,0.068114013671875,1.0151042938232422,1.8572989702224731,1.6265830993652344
1757088956143069000,0.07806884765625,0.997553288936615,1.872660517692566,1.5691614151000977
1757088956153024300,0.088024169921875,0.8651651740074158,1.8173171281814575,1.4735301733016968
1757088956162978000,0.09797802734375,0.6098702549934387,1.6461310386657715,1.345430612564087
1757088956172933000,0.10793310546875,0.27312394976615906,1.5114221572875977,1.1856642961502075
1757088956182886700,0.11788671875,-0.023205986246466637,1.4429593086242676,1.0015137195587158
1757088956192841700,0.127841796875,-0.20427830517292023,1.3565114736557007,0.7863912582397461
1757088956202795800,0.137795654296875,-0.2586382031440735,1.2254126071929932,0.5479621887207031
1757088956212750600,0.14775048828125,-0.20570816099643707,1.1251373291015625,0.29413309693336487
1757088956222704600,0.15770458984375,-0.08571703732013702,1.0797749757766724,0.043411921709775925
1757088956232659700,0.16765966796875,0.06912633776664734,1.1046009063720703,-0.1974630057811737
1757088956242613800,0.17761376953125,0.22928830981254578,1.392337679862976,-0.4387619197368622
1757088956252568800,0.18756884765625,0.37119433283805847,1.7467228174209595,-0.6648086309432983
1757088956262523600,0.197523681640625,0.48622316122055054,1.8960561752319336,-0.8567250967025757
1757088956272477700,0.207477783203125,0.5864014625549316,1.9595379829406738,-1.0133922100067139
1757088956282432800,0.217432861328125,0.6817082762718201,2.0882887840270996,-1.1255700588226318
1757088956292386800,0.22738671875,0.7705515623092651,2.0407755374908447,-1.182347059249878
1757088956302341600,0.237341552734375,0.8591306805610657,1.8004844188690186,-1.2075432538986206
1757088956312295700,0.247295654296875,0.9434890151023865,1.5248371362686157,-1.2306976318359375
1757088956322250500,0.25725048828125,1.0802617073059082,0.9299412369728088,-1.2983936071395874
1757088956332204800,0.267204833984375,1.3030489683151245,0.25739532709121704,-1.362032413482666
1757088956342160000,0.277159912109375,1.394889235496521,-0.17759928107261658,-1.3543462753295898
1757088956352113700,0.28711376953125,1.2434592247009277,-0.44704967737197876,-1.2283356189727783
1757088956362068700,0.29706884765625,0.9816827178001404,0.7336079478263855,-0.9657780528068542
1757088956372023800,0.30702392578125,0.682020902633667,2.379047393798828,-0.33060428500175476
1757088956381977900,0.316977783203125,0.4629839062690735,1.899074912071228,-0.14166152477264404
1757088956391932700,0.3269326171875,0.7693025469779968,2.0292978286743164,-0.027579963207244873
1757088956401886700,0.33688671875,1.4104963541030884,2.333012819290161,0.07146166265010834
1757088956411841500,0.346841552734375,1.7682875394821167,2.310305595397949,0.19440117478370667
1757088956421795600,0.356795654296875,1.6594921350479126,2.246553659439087,0.3211016058921814
1757088956431750700,0.366750732421875,1.2138456106185913,2.050100088119507,0.30583396553993225
1757088956441704700,0.37670458984375,0.6552462577819824,2.017688274383545,0.13907186686992645
1757088956451659800,0.38665966796875,0.33603206276893616,2.303971529006958,-0.10240600258111954
1757088956461614600,0.396614501953125,0.2345597743988037,2.473055362701416,-0.3064318299293518
1757088956471568600,0.406568603515625,0.20367509126663208,2.456679344177246,-0.433622270822525
1757088956481523700,0.416523681640625,0.15441007912158966,2.3362605571746826,-0.45557525753974915
1757088956491477800,0.426477783203125,0.08458572626113892,1.945574402809143,-0.45675528049468994
1757088956501432600,0.4364326171875,0.11466319859027863,1.4930613040924072,-0.4387299418449402
1757088956511386600,0.44638671875,0.21455757319927216,1.2817198038101196,-0.3096316158771515
1757088956521341700,0.456341796875,0.2160888910293579,1.4279502630233765,-0.08941882848739624
1757088956531295700,0.466295654296875,0.18753314018249512,1.8099689483642578,0.09855906665325165
1757088956541250800,0.476250732421875,-0.0949438214302063,2.4915611743927,0.18985089659690857
1757088956551204600,0.48620458984375,-0.612916111946106,3.4261386394500732,0.10189520567655563
1757088956561159700,0.49615966796875,-0.9817282557487488,4.636412143707275,-0.19101789593696594
1757088956571114800,0.50611474609375,-1.5839259624481201,5.831849098205566,-0.565906286239624
1757088956581068800,0.51606884765625,-2.295466423034668,6.688011169433594,-0.9046867489814758
1757088956591023600,0.526023681640625,-2.6544885635375977,6.4336934089660645,-1.0397100448608398
1757088956600977700,0.535977783203125,-2.7896203994750977,4.973677158355713,-0.8251322507858276
1757088956610932500,0.545932373046875,-3.111095905303955,2.8654379844665527,-0.4620584547519684
1757088956620886800,0.55588671875,-2.397050380706787,1.6338030099868774,-0.21999947726726532
1757088956630841900,0.565841796875,-1.0910241603851318,1.2334481477737427,-0.2311442643404007
1757088956640795600,0.575795654296875,-0.29083797335624695,0.49187973141670227,-0.6198387742042542
1757088956650750700,0.585750732421875,-0.2581753432750702,0.2249457687139511,-1.2877331972122192
1757088956660705800,0.595705810546875,-0.3454708456993103,0.12748578190803528,-1.8899468183517456
1757088956670659800,0.605659912109375,-0.30812081694602966,-0.01215972751379013,-2.3679938316345215
1757088956680614700,0.61561474609375,-0.10008984804153442,0.205940380692482,-2.7354211807250977
1757088956690568700,0.625568603515625,0.11345332115888596,0.5301328301429749,-2.846477746963501
1757088956700523500,0.6355234375,0.32715654373168945,0.8110294938087463,-2.7357192039489746
1757088956710477600,0.6454775390625,0.5314108729362488,1.112082839012146,-2.506470203399658
1757088956720432600,0.6554326171875,0.7209249138832092,1.3839648962020874,-2.2702274322509766
1757088956730386700,0.66538671875,0.8829734325408936,1.728231430053711,-2.0361874103546143
1757088956740341800,0.675341796875,0.7365744113922119,3.195361614227295,-1.75749671459198
1757088956750296600,0.685296630859375,0.5334191918373108,4.105279445648193,-1.5785490274429321
1757088956760251000,0.6952509765625,0.4339546263217926,4.367119312286377,-1.2312262058258057
1757088956770205700,0.705205810546875,0.6957060694694519,3.449404239654541,-0.9660033583641052
1757088956780159700,0.71515966796875,0.9534510970115662,2.3258979320526123,-0.732674777507782
1757088956790114600,0.725114501953125,0.9052249789237976,1.1269246339797974,-0.36669889092445374
1757088956800068600,0.735068603515625,0.5639533996582031,-0.12223482877016068,0.3679657578468323
1757088956810023700,0.745023681640625,0.2519022822380066,-0.7523248791694641,0.9162115454673767
1757088956819977700,0.754977783203125,0.033846914768218994,-1.641390323638916,1.369787335395813
1757088956829932800,0.764932861328125,-0.08805129677057266,-2.4693942070007324,1.7049636840820312
1757088956839886600,0.774886474609375,-0.12505938112735748,-3.2354750633239746,1.8214339017868042
1757088956849841700,0.784841552734375,-0.06530923396348953,-4.1413373947143555,1.6911786794662476
1757088956859796700,0.794796630859375,0.14708851277828217,-5.438360691070557,1.3301938772201538
1757088956869750800,0.804750732421875,0.3474429249763489,-6.3079986572265625,0.7836412787437439
1757088956879705600,0.81470556640625,0.7191759943962097,-3.9031264781951904,-1.0930521488189697
1757088956889659600,0.82465966796875,0.9409456849098206,-1.738966464996338,-2.424514055252075
1757088956899614700,0.83461474609375,0.7245768904685974,-1.7543514966964722,-2.4609038829803467
1757088956909568800,0.84456884765625,0.5238203406333923,-2.4659454822540283,-2.211477518081665
1757088956919523800,0.85452392578125,0.4072023928165436,-2.944171905517578,-1.8884541988372803
1757088956929478700,0.864478759765625,0.38692694902420044,-2.9912943840026855,-1.6110845804214478
1757088956939432700,0.8744326171875,0.4299343228340149,-2.544649124145508,-1.415530800819397
1757088956949387800,0.8843876953125,0.4394548535346985,-2.059540271759033,-1.2003554105758667
1757088956959341800,0.894341796875,0.42020899057388306,-1.8788883686065674,-0.8651646375656128
1757088956969296600,0.904296630859375,0.38151007890701294,-1.9079498052597046,-0.4691413938999176
1757088956979250700,0.914250732421875,0.3411826193332672,-1.8692229986190796,-0.12354137748479843
1757088956989205500,0.92420556640625,0.3448713719844818,-1.5415323972702026,0.09950235486030579
1757088956999159800,0.934159912109375,0.37981629371643066,-1.048354983329773,0.20903071761131287
1757088957009114600,0.944114501953125,0.39748239517211914,-0.5561806559562683,0.23907995223999023
1757088957019068700,0.954068603515625,0.36260509490966797,-0.046554986387491226,0.2385084480047226
1757088957029023700,0.964023681640625,0.2380080372095108,0.47703447937965393,0.22696363925933838
1757088957038978800,0.973978759765625,0.031262315809726715,1.0392946004867554,0.24203313887119293
1757088957048932900,0.983932861328125,-0.3395825922489166,1.375545620918274,0.3236539661884308
1757088957058887700,0.9938876953125,-0.7913676500320435,1.6994253396987915,0.4145362079143524
1757088957068841700,1.003841796875,-1.0317192077636719,2.1112959384918213,0.6029689311981201
1757088957078796500,1.013796630859375,-1.2054436206817627,2.583031177520752,0.9441872835159302
1757088957088750600,1.02375048828125,-1.4027236700057983,3.1359236240386963,1.3830093145370483
1757088957098705700,1.03370556640625,-1.6317288875579834,3.746028423309326,1.8954718112945557
1757088957108660700,1.04366064453125,-1.80927574634552,4.274129390716553,2.4539148807525635
1757088957118614800,1.05361474609375,-1.9213511943817139,4.655972003936768,3.0200467109680176
1757088957128569600,1.063569580078125,-1.9897264242172241,5.013338088989258,3.5679194927215576
1757088957138524000,1.07352392578125,-2.0820205211639404,5.302681922912598,4.020654201507568
1757088957148478700,1.083478759765625,-2.2134833335876465,5.2783660888671875,4.240090370178223
1757088957158432800,1.093432861328125,-2.3572659492492676,4.864442825317383,4.19410514831543
1757088957168387600,1.1033876953125,-2.4728281497955322,4.000310897827148,3.988267183303833
1757088957178342100,1.113342041015625,-2.692858934402466,2.888049602508545,3.638930559158325
1757088957188297000,1.123296875,-2.799053192138672,1.7132517099380493,3.156235933303833
1757088957198252000,1.133251953125,-2.5523743629455566,0.6670318245887756,2.728299379348755
1757088957208205800,1.143205810546875,-2.287681818008423,0.1935497522354126,2.436213731765747
1757088957218161200,1.1531611328125,-2.0710222721099854,-0.021885057911276817,2.2204418182373047
1757088957228115200,1.163115234375,-1.9318187236785889,-0.04014395549893379,1.9571850299835205
1757088957238070000,1.173070068359375,-1.9570339918136597,0.007644870318472385,1.6738361120224
1757088957248024000,1.183024169921875,-2.0733203887939453,0.08353164792060852,1.4358832836151123
1757088957257979000,1.192978759765625,-2.1544620990753174,0.28987497091293335,1.2611346244812012
1757088957267933000,1.202932861328125,-2.2131807804107666,0.632783055305481,1.0922073125839233
1757088957277888000,1.212887939453125,-2.2185006141662598,0.8669585585594177,0.9321945309638977
1757088957287843000,1.222843017578125,-2.1416518688201904,0.8632351756095886,0.8128907680511475
1757088957297796900,1.232796875,-2.171212673187256,0.7547430396080017,0.7263137698173523
1757088957307752000,1.242751953125,-2.3418667316436768,0.6121275424957275,0.7132986783981323
1757088957317706000,1.2527060546875,-2.5422844886779785,0.47284451127052307,0.7967011332511902
1757088957327661000,1.2626611328125,-2.6672232151031494,0.3505460321903229,1.0131032466888428
1757088957337615000,1.272614990234375,-2.6271286010742188,0.2388932704925537,1.318608283996582
1757088957347570000,1.28256982421875,-2.3825292587280273,0.09838489443063736,1.649461269378662
1757088957357524000,1.29252392578125,-2.02407169342041,-0.040699224919080734,2.140594005584717
1757088957367479000,1.30247900390625,-1.7623945474624634,-0.29458102583885193,2.8075413703918457
1757088957377434000,1.31243408203125,-1.6084054708480835,-0.3880353569984436,3.1347885131835938
1757088957387388000,1.322387939453125,-1.4954067468643188,-0.5123445391654968,3.195650339126587
1757088957397343000,1.332343017578125,-1.4821617603302002,-0.896834671497345,3.115993022918701
1757088957407296800,1.342296875,-1.4349958896636963,-1.2146967649459839,2.8861465454101562
1757088957417252000,1.352252197265625,-1.2686452865600586,-1.2752821445465088,2.5799849033355713
1757088957427206100,1.3622060546875,-0.9176265001296997,-0.8015853762626648,1.9751874208450317
1757088957437161000,1.372160888671875,-0.5618178248405457,-0.37711453437805176,1.2058383226394653
1757088957447115000,1.382114990234375,-0.4553254544734955,-0.5319938659667969,0.646081268787384
1757088957457070000,1.392070068359375,-0.5283333659172058,-1.1085906028747559,0.26985490322113037
1757088957467025200,1.402025146484375,-0.4880271852016449,-1.5702106952667236,0.20384527742862701
1757088957476979000,1.41197900390625,-0.35019874572753906,-1.5729790925979614,0.48745834827423096
1757088957486934000,1.42193408203125,-0.2221859246492386,-1.41830313205719,0.9977426528930664
1757088957496887800,1.4318876953125,-0.09547192603349686,-1.2981008291244507,1.6187268495559692
1757088957506843100,1.441843017578125,-0.12456216663122177,-0.947187602519989,1.9667612314224243
1757088957516797200,1.451797119140625,-0.24044695496559143,-0.6101896166801453,1.9314404726028442
1757088957526752000,1.461751953125,-0.32922157645225525,-0.4569675326347351,1.5735423564910889
1757088957536706800,1.471706787109375,-0.42127665877342224,-0.28939560055732727,0.9510193467140198
1757088957546660900,1.481660888671875,-0.45758113265037537,-0.5970836281776428,0.49734026193618774
1757088957556616200,1.4916162109375,-0.16044878959655762,-1.7484198808670044,1.446292519569397
1757088957566570000,1.501570068359375,-0.15356425940990448,-0.997547447681427,2.2184226512908936
1757088957576525000,1.511525146484375,-0.08816288411617279,0.43271681666374207,1.7949819564819336
1757088957586478800,1.521478759765625,0.10274342447519302,-0.48151230812072754,1.9496655464172363
1757088957596434000,1.531433837890625,-0.006917294580489397,0.0004548678989522159,1.0490326881408691
1757088957606388000,1.541387939453125,-0.29566627740859985,0.13780367374420166,-0.07696828246116638
1757088957616343000,1.551343017578125,-0.5851180553436279,-0.04580290988087654,-0.5547603964805603
1757088957626297900,1.5612978515625,-0.7007461190223694,0.017581656575202942,-0.4482528865337372
1757088957636252000,1.571251953125,-1.006977915763855,0.6061319708824158,-0.25081729888916016
1757088957646207000,1.58120703125,-1.396934986114502,1.2117481231689453,-0.027000991627573967
1757088957656161000,1.5911611328125,-1.243425965309143,1.4771281480789185,0.20695078372955322
1757088957666116000,1.6011162109375,-0.8371577858924866,1.6701985597610474,0.3698353171348572
1757088957676070000,1.61106982421875,-0.5472148656845093,1.865691900253296,0.31145188212394714
1757088957686025000,1.62102490234375,-0.4103664755821228,1.78072988986969,0.03898228704929352
1757088957695980000,1.63097998046875,-0.3637672960758209,1.338945746421814,-0.3248220384120941
1757088957705934000,1.64093408203125,-0.396191269159317,0.7250253558158875,-0.6335881352424622
1757088957715889000,1.650888916015625,-0.5430603623390198,0.18216393887996674,-0.7728392481803894
1757088957725843000,1.660843017578125,-0.674776017665863,-0.03433720022439957,-0.7818947434425354
1757088957735797800,1.6707978515625,-0.6703807711601257,-0.08265812695026398,-0.7151996493339539
1757088957745752000,1.680751953125,-0.536237359046936,0.049500174820423126,-0.6427816152572632
1757088957755707100,1.69070703125,-0.3937627375125885,0.4679323136806488,-0.6544654369354248
1757088957765662000,1.700661865234375,-0.2666303515434265,0.6584337949752808,-0.5639153122901917
1757088957775616000,1.710615966796875,-0.2285037487745285,0.6681407690048218,-0.38250795006752014
1757088957785571000,1.720571044921875,-0.22007963061332703,0.4420163035392761,-0.1236143484711647
1757088957795525000,1.730525146484375,-0.23001642525196075,0.2681366503238678,0.07222998887300491
1757088957805480000,1.74047998046875,-0.24123471975326538,0.25969788432121277,0.24430081248283386
1757088957815434000,1.75043408203125,-0.276493102312088,0.11744087934494019,0.38568350672721863
1757088957825388800,1.760388916015625,-0.2820090353488922,-0.08576416969299316,0.5054245591163635
1757088957835344100,1.77034423828125,-0.20121806859970093,-0.060202620923519135,0.5867828130722046
1757088957845298200,1.780298095703125,-0.16211088001728058,0.02063150890171528,0.6084579825401306
1757088957855253000,1.7902529296875,-0.150835320353508,0.08093559741973877,0.5377675890922546
1757088957865207000,1.80020703125,-0.20365352928638458,0.1699536144733429,0.4505282938480377
1757088957875161900,1.810161865234375,-0.4740391969680786,0.20243220031261444,0.3502866327762604
1757088957885117000,1.820116943359375,-0.7311083078384399,0.15035249292850494,0.19228555262088776
1757088957895071000,1.830071044921875,-0.9222028851509094,0.04072372615337372,-0.03002847172319889
1757088957905026000,1.840026123046875,-1.0787652730941772,-0.0038868836127221584,-0.2818987965583801
1757088957914979800,1.849979736328125,-1.2155777215957642,0.047149401158094406,-0.5734520554542542
1757088957924935200,1.85993505859375,-1.3386847972869873,0.07750491052865982,-0.8828431963920593
1757088957934889000,1.869888916015625,-1.4550832509994507,0.09419760853052139,-1.152065396308899
1757088957944844000,1.879843994140625,-1.5560634136199951,0.0099034970626235,-1.3628129959106445
1757088957954798800,1.889798828125,-1.7609723806381226,-0.06924112141132355,-1.2681938409805298
1757088957964753000,1.8997529296875,-1.9150046110153198,0.002615224104374647,-0.8763477802276611
1757088957974708000,1.9097080078125,-1.9287434816360474,0.24447818100452423,-0.4211597442626953
1757088957984662000,1.919662109375,-1.8632800579071045,0.7416717410087585,-0.13954058289527893
1757088957994617000,1.9296171875,-1.870314598083496,1.213545560836792,-0.19445043802261353
1757088958004571000,1.93957080078125,-1.9733259677886963,1.5236639976501465,-0.5634375214576721
1757088958014526000,1.94952587890625,-2.000458002090454,1.6789462566375732,-1.0011041164398193
1757088958024481000,1.95948095703125,-1.8767786026000977,1.5673624277114868,-1.0713332891464233
1757088958034435000,1.96943505859375,-1.5341315269470215,1.416577696800232,-1.049497127532959
1757088958044390000,1.979389892578125,-1.2919294834136963,1.3496180772781372,-1.1122183799743652
1757088958054344000,1.989343994140625,-0.9223653078079224,1.3003851175308228,-1.201008915901184
1757088958064299000,1.999299072265625,-0.5652951002120972,1.2530395984649658,-1.2764331102371216
1757088958074254000,2.009254150390625,-0.4498752951622009,1.124790072441101,-1.3360202312469482
1757088958084208000,2.0192080078125,-0.40995848178863525,0.9874297976493835,-1.305979609489441
1757088958094163000,2.029162841796875,-0.273355633020401,0.7044814825057983,-1.2060966491699219
1757088958104117000,2.039116943359375,-0.06611137837171555,0.5517950057983398,-0.9726860523223877
1757088958114072000,2.049072021484375,0.012916331179440022,0.5219300389289856,-0.7392727136611938
1757088958124027100,2.059027099609375,-0.13450534641742706,0.32938241958618164,-0.5174551010131836
1757088958133981000,2.06898095703125,-0.5067955851554871,0.008553540334105492,-0.27002987265586853
1757088958143936000,2.07893603515625,-0.9723880290985107,-0.42192062735557556,-0.025595640763640404
1757088958153889800,2.088889892578125,-1.3460800647735596,-0.8668254017829895,0.105873703956604
1757088958163845000,2.09884521484375,-1.5911332368850708,-1.2380855083465576,0.12106437236070633
1757088958173799000,2.108798828125,-1.8322592973709106,-1.4384657144546509,0.07182438671588898
1757088958183753500,2.11875341796875,-2.038067102432251,-1.3872443437576294,-0.08860895782709122
1757088958193708500,2.12870849609375,-1.9184740781784058,-0.8170471787452698,-0.4235033392906189
1757088958203662300,2.138662353515625,-1.2767266035079956,0.24061766266822815,-0.7350636124610901
1757088958213617700,2.14861767578125,-0.8735911250114441,1.1826224327087402,-0.6400641202926636
1757088958223571500,2.158571533203125,-0.9072670936584473,1.9661763906478882,-0.30553993582725525
1757088958233526500,2.168526611328125,-1.116122841835022,2.45033597946167,0.034096717834472656
1757088958243481300,2.1784814453125,-1.3055777549743652,2.391509532928467,0.2916443645954132
1757088958253435400,2.188435302734375,-1.5550508499145508,2.091823101043701,0.4182174801826477
1757088958263390500,2.198390380859375,-1.5962876081466675,0.5934984683990479,0.9576817750930786
1757088958273345500,2.208345458984375,-1.763331651687622,0.5469480156898499,0.9270381331443787
1757088958283299300,2.21829931640625,-1.9706097841262817,0.4768962562084198,0.6494302153587341
1757088958293254400,2.22825439453125,-2.2025809288024902,0.12931671738624573,0.3778594136238098
1757088958303208400,2.23820849609375,-2.485273838043213,-0.30261340737342834,0.09349239617586136
1757088958313163500,2.24816357421875,-2.685579538345337,-0.6252647042274475,-0.2440161257982254
1757088958323118300,2.258118408203125,-2.7406046390533447,-0.7327802181243896,-0.5879908204078674
1757088958333072400,2.268072265625,-2.7160627841949463,-0.5661954879760742,-0.917461633682251
1757088958343027500,2.27802734375,-2.569763422012329,-0.318857878446579,-1.1017942428588867
1757088958352981500,2.2879814453125,-2.2761659622192383,0.06820488721132278,-1.2189123630523682
1757088958362936600,2.2979365234375,-1.9446401596069336,0.5511577129364014,-1.2771497964859009
1757088958372891400,2.307891357421875,-1.7031385898590088,1.112398386001587,-1.3161866664886475
1757088958382845400,2.317845458984375,-1.704526424407959,1.3378254175186157,-1.1682379245758057
1757088958392800500,2.327800537109375,-1.890275001525879,1.7538756132125854,-1.204675555229187
1757088958402754600,2.337754638671875,-2.1069390773773193,2.24505352973938,-1.2063394784927368
1757088958412709400,2.34770947265625,-2.305689811706543,2.8402342796325684,-1.097739815711975
1757088958422664400,2.35766455078125,-2.448364496231079,3.5592076778411865,-0.8984437584877014
1757088958432618500,2.367618408203125,-2.4845705032348633,4.001433372497559,-0.6013489365577698
1757088958442573600,2.377573486328125,-3.2184197902679443,4.173835754394531,-0.07075939327478409
1757088958452527600,2.387527587890625,-7.5377397537231445,3.904829978942871,0.12479652464389801
1757088958462482400,2.397482421875,-10.817055702209473,3.135439395904541,0.2502591013908386
1757088958472437500,2.4074375,-9.432892799377441,1.3459216356277466,0.548349916934967
1757088958482391300,2.417391357421875,-6.927745819091797,-0.4475463628768921,0.46652936935424805
1757088958492346600,2.4273466796875,-3.3147404193878174,-1.8367278575897217,0.5335975885391235
1757088958502301400,2.437301513671875,1.9227464199066162,-3.302586793899536,0.9651966691017151
1757088958512255500,2.44725537109375,3.5920321941375732,-2.1021230220794678,0.3461880385875702
1757088958522210300,2.457210205078125,2.7227671146392822,-0.39134538173675537,-0.60856693983078
1757088958532164400,2.467164306640625,0.7688801884651184,1.0231614112854004,-1.260183334350586
1757088958542119400,2.477119384765625,-0.5306289792060852,1.8466905355453491,-0.8428177833557129
1757088958552074500,2.487074462890625,-0.24172846972942352,2.419520378112793,-0.10425449907779694
1757088958562028300,2.4970283203125,0.1723605841398239,2.5935850143432617,0.21985752880573273
1757088958571983400,2.5069833984375,0.29150640964508057,2.205787420272827,0.12532010674476624
1757088958581938400,2.5169384765625,0.39136484265327454,1.2628430128097534,-0.06034163758158684
1757088958591892500,2.526892578125,0.42262768745422363,0.02417963743209839,-0.2646321952342987
1757088958601847300,2.536847412109375,0.2178708165884018,-0.9348422288894653,-0.3816831707954407
1757088958611802400,2.54680224609375,-0.012857208959758282,-1.2947429418563843,-0.35935816168785095
1757088958621756700,2.556756591796875,-0.041187651455402374,-0.973270058631897,-0.19120511412620544
1757088958631711500,2.56671142578125,-0.041855569928884506,-0.32560819387435913,0.026934677734971046
1757088958641665500,2.57666552734375,-0.10454904288053513,-0.21376022696495056,-0.008668855763971806
1757088958651620400,2.586620361328125,0.005646167788654566,-1.1195380687713623,-0.6045559644699097
1757088958661575700,2.59657568359375,0.17446501553058624,-1.3164055347442627,-1.005863904953003
1757088958671529500,2.606529541015625,0.22417211532592773,-0.861189067363739,-1.1944303512573242
1757088958681484500,2.616484619140625,0.2921053469181061,0.07285849750041962,-1.1424044370651245
1757088958691439400,2.626439453125,0.3053295612335205,0.7956462502479553,-0.9382753372192383
1757088958701393400,2.636393310546875,0.3035297989845276,0.989414393901825,-0.625383198261261
1757088958711348500,2.646348388671875,0.25321415066719055,1.0645089149475098,-0.08539612591266632
1757088958721303600,2.656303466796875,0.11879083514213562,0.6950429677963257,0.40929749608039856
1757088958731257300,2.66625732421875,-0.0885479748249054,-0.13226482272148132,0.5260763168334961
1757088958741212400,2.67621240234375,-0.08066874742507935,-0.7017466425895691,0.4714828431606293
1757088958751166500,2.68616650390625,-0.0179987084120512,-0.8134872913360596,0.4151404798030853
1757088958761121500,2.69612158203125,0.01249022502452135,-0.7243832945823669,0.26836249232292175
1757088958771076400,2.706076416015625,0.007903995923697948,-0.64332515001297,-0.01398479100316763
1757088958781030400,2.716030517578125,0.0006077333819121122,-0.6163396239280701,-0.36614763736724854
1757088958790985500,2.7259853515625,0.03298112004995346,-0.4804545044898987,-0.6582945585250854
1757088958800940500,2.7359404296875,0.05928915739059448,-0.17824430763721466,-0.8340207934379578
1757088958810894600,2.74589453125,0.0879620760679245,0.24191568791866302,-0.8362139463424683
1757088958820849400,2.755849365234375,0.11124130338430405,0.9488674998283386,-0.46511656045913696
1757088958830804200,2.76580419921875,0.10365262627601624,1.1804858446121216,-0.015380021184682846
1757088958840758500,2.775758544921875,0.09579070657491684,0.7749007940292358,0.20063243806362152
1757088958850713600,2.785713623046875,0.10284914821386337,0.2767234742641449,0.2682402431964874
1757088958860668400,2.79566845703125,0.10162116587162018,-0.09627460688352585,0.28044524788856506
1757088958870622500,2.80562255859375,0.07168750464916229,-0.3096071183681488,0.27579110860824585
1757088958880577500,2.81557763671875,0.048585645854473114,-0.3464820384979248,0.2630806267261505
1757088958890532600,2.82553271484375,0.029332855716347694,-0.2727369964122772,0.2357795089483261
1757088958900486400,2.835486328125,0.029651636257767677,-0.17891621589660645,0.19088393449783325
1757088958910441500,2.84544140625,0.04718109592795372,-0.07127417623996735,0.1195937767624855
1757088958920396500,2.855396484375,0.02750406228005886,-0.007722900714725256,0.039330627769231796
1757088958930350600,2.8653505859375,-0.01780989021062851,-0.012488627806305885,-0.04620904102921486
1757088958940305400,2.875305419921875,-0.033959563821554184,-0.07720077782869339,-0.12348651885986328
1757088958950259500,2.885259521484375,-0.037032321095466614,-0.14061278104782104,-0.18996860086917877
1757088958960214300,2.89521435546875,-0.057130929082632065,-0.16046157479286194,-0.2224320024251938
1757088958970169600,2.905169677734375,-0.08540970832109451,-0.17823658883571625,-0.21505478024482727
1757088958980123400,2.915123291015625,-0.10175778716802597,-0.22617773711681366,-0.1605617105960846
1757088958990078500,2.925078369140625,-0.10340015590190887,-0.2740291655063629,-0.07561353594064713
1757088959000033300,2.935033203125,-0.11294332891702652,-0.30327412486076355,0.040951427072286606
1757088959009987300,2.9449873046875,-0.10590486228466034,-0.31184735894203186,0.17446847259998322
1757088959019942400,2.9549423828125,-0.09535075724124908,-0.3150671422481537,0.29420047998428345
1757088959029897500,2.9648974609375,-0.07297327369451523,-0.3108324408531189,0.3647359013557434
1757088959039851500,2.9748515625,-0.020651482045650482,-0.2738363444805145,0.3593810796737671
1757088959049806300,2.984806396484375,-0.007772701792418957,-0.19921962916851044,0.29453229904174805
1757088959059761400,2.994761474609375,0.013469469733536243,-0.11388635635375977,0.19827447831630707
1757088959069715500,3.004715576171875,0.025547703728079796,0.032276447862386703,0.04114344343543053
1757088959079670500,3.01467041015625,0.03648583963513374,-0.007165501359850168,-0.0873306468129158
1757088959089625300,3.024625244140625,0.07503802329301834,-0.16088901460170746,-0.13211701810359955
1757088959099579400,3.034579345703125,0.047634098678827286,-0.18380951881408691,-0.12377201020717621
1757088959109534500,3.044534423828125,0.004138285759836435,-0.15605750679969788,-0.039148200303316116
1757088959119489500,3.054489501953125,0.0073564499616622925,-0.14538756012916565,0.0788591280579567
1757088959129443300,3.064443359375,0.003695668652653694,-0.18195036053657532,0.15608574450016022
1757088959139398400,3.0743984375,-0.008694687858223915,-0.22927792370319366,0.13873684406280518
1757088959149353500,3.084353515625,0.002894589677453041,-0.28744882345199585,0.025950640439987183
1757088959159307500,3.0943076171875,-0.009896572679281235,-0.189090296626091,-0.09954656660556793
1757088959169262300,3.104262451171875,-0.03837961331009865,-0.012401541694998741,-0.10958002507686615
1757088959179218200,3.11421826171875,-0.025583390146493912,-0.13048823177814484,-0.12796169519424438
1757088959189172200,3.124172119140625,-0.00427277572453022,-0.12676486372947693,-0.15086089074611664
1757088959199127300,3.134127197265625,-0.018138524144887924,-0.22351831197738647,-0.13346432149410248
1757088959209082000,3.14408203125,0.0018679412314668298,-0.3745611011981964,-0.14438115060329437
1757088959219036200,3.1540361328125,0.03470391780138016,-0.41071003675460815,-0.18109335005283356
1757088959228991200,3.1639912109375,0.04881467670202255,-0.3597102463245392,-0.22063890099525452
1757088959238946300,3.1739462890625,0.06408790498971939,-0.265959769487381,-0.22732236981391907
1757088959248900000,3.183900146484375,0.05209915339946747,-0.14516891539096832,-0.16361317038536072
1757088959258855200,3.193855224609375,0.01369424071162939,-0.02582094445824623,-0.04922693595290184
1757088959268810200,3.203810302734375,-0.011414574459195137,0.05985028296709061,0.07850732654333115
1757088959278764300,3.213764404296875,-0.015126488171517849,0.07960135489702225,0.16828115284442902
1757088959288719000,3.223718994140625,-0.016092417761683464,0.0655108317732811,0.23515498638153076
1757088959298674200,3.233674072265625,-0.021098094061017036,0.032763540744781494,0.29562312364578247
1757088959308628200,3.243628173828125,-0.026440128684043884,0.005667473189532757,0.36273372173309326
1757088959318583300,3.253583251953125,-0.044913943856954575,-0.0020724718924611807,0.4339312016963959
1757088959328538000,3.2635380859375,-0.04385267570614815,0.008298143744468689,0.5018996000289917
1757088959338492200,3.2734921875,-0.03647811710834503,0.02919224090874195,0.5469733476638794
1757088959348447000,3.283447021484375,-0.01805916242301464,0.08170098811388016,0.549472987651825
1757088959358402300,3.29340234375,0.014586132951080799,0.14223544299602509,0.49630215764045715
1757088959368356400,3.3033564453125,0.04867326468229294,0.1989530473947525,0.3928820490837097
1757088959378311200,3.313311279296875,0.06679394096136093,0.26794835925102234,0.24974672496318817
1757088959388266000,3.323265869140625,0.06360560655593872,0.3390129506587982,0.0886281356215477
1757088959398220300,3.33322021484375,0.07561752945184708,0.35206669569015503,-0.04597015306353569
1757088959408175000,3.343175048828125,0.08580092340707779,0.3359878659248352,-0.11438383162021637
1757088959418130200,3.353130126953125,0.08216144889593124,0.3259299099445343,-0.12415843456983566
1757088959428084200,3.363084228515625,0.09188970923423767,0.32682445645332336,-0.09742029756307602
1757088959438039300,3.373039306640625,0.09756943583488464,0.28425276279449463,-0.03410151228308678
1757088959447994000,3.382994140625,0.08602090179920197,0.2078690379858017,0.03286740183830261
1757088959457948200,3.3929482421875,0.07315783202648163,0.15294428169727325,0.08703529834747314
1757088959467903200,3.4029033203125,0.08297903835773468,0.2107982486486435,0.11905980855226517
1757088959477857000,3.41285693359375,0.06969066709280014,0.28930771350860596,0.1372300237417221
1757088959487812400,3.422812255859375,0.0661555826663971,0.3579011559486389,0.13074176013469696
1757088959497767200,3.43276708984375,0.10047654062509537,0.4121851623058319,0.1314517706632614
1757088959507721200,3.44272119140625,0.1271558254957199,0.4015045464038849,0.13562095165252686
1757088959517676000,3.452676025390625,0.1195349171757698,0.2475578635931015,0.1394369900226593
1757088959527631400,3.46263134765625,0.13270637392997742,0.05452795699238777,0.12245986610651016
1757088959537585200,3.472585205078125,0.13301797211170197,-0.04447026178240776,0.09387189894914627
1757088959547540200,3.482540283203125,0.10360308736562729,-0.0999913141131401,0.08474817872047424
1757088959557495000,3.4924951171875,0.06452999264001846,-0.12787620723247528,0.07921705394983292
1757088959567449000,3.502448974609375,0.007526625879108906,-0.14304104447364807,0.07135221362113953
1757088959577404200,3.512404052734375,-0.03577983379364014,-0.1672784686088562,0.06035575270652771
1757088959587359200,3.522359130859375,-0.07506146281957626,-0.20995962619781494,0.035834163427352905
1757088959597313300,3.532313232421875,-0.09826984256505966,-0.22961455583572388,0.0035329493694007397
1757088959607268000,3.54226806640625,-0.11139017343521118,-0.2035941332578659,-0.030858846381306648
1757088959617223200,3.55222314453125,-0.11211828142404556,-0.13782018423080444,-0.056650497019290924
1757088959627177200,3.56217724609375,-0.10383744537830353,-0.06129877641797066,-0.06375927478075027
1757088959637132300,3.57213232421875,-0.10274981707334518,-0.0012476909905672073,-0.054728757590055466
1757088959647087000,3.582087158203125,-0.07734432071447372,0.03586612269282341,-0.034810978919267654
1757088959657041400,3.59204150390625,-0.06831114739179611,0.05229676142334938,-0.010060090571641922
1757088959666996200,3.601996337890625,-0.04674247279763222,0.049253299832344055,0.019270634278655052
1757088959676951300,3.611951416015625,-0.024472054094076157,0.03365010395646095,0.05326002463698387
1757088959686905000,3.621905029296875,-0.006324208807200193,0.03250574320554733,0.06491215527057648
1757088959696860400,3.6318603515625,0.0016519587952643633,0.07470805943012238,0.05386509746313095
1757088959706815200,3.641815185546875,-0.002160090021789074,0.04466467350721359,0.05927823856472969
1757088959716769300,3.651769287109375,-0.00589757040143013,0.0650559663772583,0.06559072434902191
1757088959726724000,3.66172412109375,-0.0038951393216848373,0.13543106615543365,0.07749532163143158
1757088959736679400,3.671679443359375,-0.020662134513258934,0.11172706633806229,0.0892326757311821
1757088959746633200,3.68163330078125,-0.010791927576065063,0.21913261711597443,0.016747022047638893
1757088959756588300,3.69158837890625,-0.005405684467405081,0.20423409342765808,-0.011284345760941505
1757088959766543000,3.701543212890625,0.014701714739203453,0.2180287390947342,0.006864830385893583
1757088959776497200,3.7114970703125,0.03509087488055229,0.22149217128753662,-0.033853039145469666
1757088959786452200,3.7214521484375,0.018502578139305115,0.12662771344184875,-0.03291933238506317
1757088959796406300,3.73140625,-0.012880112044513226,0.016043948009610176,-0.001062334980815649
1757088959806361000,3.741361083984375,-0.004303934518247843,0.011924037709832191,-0.015935556963086128
1757088959816316200,3.751316162109375,-0.0008098672842606902,0.07075513154268265,-0.0232898760586977
1757088959826270200,3.761270263671875,-0.019895676523447037,0.07418981194496155,-0.014030065387487411
1757088959836225300,3.771225341796875,-0.025370603427290916,0.08823079615831375,-0.01381355058401823
1757088959846180000,3.78118017578125,-0.026038525626063347,0.09768341481685638,-0.023575900122523308
1757088959856134100,3.791134033203125,-0.03687785565853119,0.04887166991829872,-0.016691628843545914
1757088959866089200,3.801089111328125,-0.053159624338150024,-0.07105740159749985,0.012231099419295788
1757088959876044300,3.811044189453125,-0.04613766819238663,-0.04487772658467293,0.00884995050728321
1757088959885998300,3.820998291015625,-0.04941841587424278,-0.02532266639173031,0.02232341468334198
1757088959895953200,3.830953125,-0.050879158079624176,-0.010671286843717098,0.033134784549474716
1757088959905908200,3.840908203125,-0.05950886756181717,-0.02311757020652294,0.04368250072002411
1757088959915862000,3.850862060546875,-0.05891338363289833,-0.04892546311020851,0.04807644709944725
1757088959925817300,3.8608173828125,-0.05836770310997963,-0.08230765908956528,0.053778275847435
1757088959935772200,3.870772216796875,-0.06065269559621811,-0.11324506253004074,0.05729631334543228
1757088959945726200,3.880726318359375,-0.05715037137269974,-0.14031477272510529,0.060321398079395294
1757088959955681000,3.890680908203125,-0.06569831818342209,-0.17129425704479218,0.06531774997711182
1757088959965636400,3.90063623046875,-0.0646519660949707,-0.1613188534975052,0.07316821813583374
1757088959975590100,3.910590087890625,-0.06755560636520386,-0.13716185092926025,0.07563084363937378
1757088959985545200,3.920545166015625,-0.07155061513185501,-0.14895139634609222,0.05885878950357437
1757088959995499000,3.9304990234375,-0.06641524285078049,-0.16422036290168762,0.036316994577646255
1757088960005454300,3.940454345703125,-0.05077476426959038,-0.16310690343379974,0.02797464281320572
1757088960015409200,3.9504091796875,-0.040039826184511185,-0.14730609953403473,0.030496656894683838
1757088960025363200,3.96036328125,-0.028682244941592216,-0.1342345029115677,0.03159361332654953
1757088960035318000,3.970318115234375,-0.01890338398516178,-0.13660605251789093,0.024115189909934998
1757088960045273300,3.9802734375,-0.01011175662279129,-0.14223410189151764,0.015105715952813625
1757088960055227400,3.990227294921875,-0.0035654399544000626,-0.1479356735944748,0.010489125736057758
1757088960065182200,4.00018212890625,0.0032629049383103848,-0.14605414867401123,-0.00013555490295402706
1757088960075137000,4.010136962890625,0.005144162103533745,-0.14294810593128204,-0.010832673870027065
1757088960085091000,4.020091064453125,0.0075812204740941525,-0.13635411858558655,-0.025379657745361328
1757088960095046400,4.03004638671875,0.008113586343824863,-0.1352292001247406,-0.03641606494784355
1757088960105001200,4.040001220703125,0.009928797371685505,-0.13824789226055145,-0.04494110867381096
1757088960114955300,4.049955322265625,0.01329876109957695,-0.1362782120704651,-0.05150873214006424
1757088960124910000,4.05991015625,0.013788516633212566,-0.13312236964702606,-0.05464060977101326
1757088960134865400,4.069865478515625,0.012174374423921108,-0.12563009560108185,-0.05543103441596031
1757088960144819200,4.079819091796875,0.008347145281732082,-0.1164105013012886,-0.05510293319821358
1757088960154774300,4.089774169921875,0.002752376953139901,-0.12312459200620651,-0.05588856711983681
1757088960164728000,4.09972802734375,-0.0044136568903923035,-0.12817154824733734,-0.055689096450805664
1757088960174683100,4.10968310546875,-0.006250439211726189,-0.1273062825202942,-0.055213455110788345
1757088960184637400,4.119637451171875,-0.012040683999657631,-0.12020257115364075,-0.05169568583369255
1757088960194591500,4.129591552734375,-0.015606123954057693,-0.10501696169376373,-0.047347541898489
1757088960204546800,4.139546875,-0.023374831303954124,-0.07481511682271957,-0.04165157303214073
1757088960214501600,4.149501708984375,-0.03280055522918701,-0.03923209011554718,-0.03586985170841217
1757088960224455700,4.15945556640625,-0.04284440353512764,-0.0015342470724135637,-0.027947744354605675
1757088960234410500,4.169410400390625,-0.037395041435956955,0.020835507661104202,-0.0198605228215456
1757088960244365600,4.179365478515625,-0.03543016314506531,0.0342881977558136,-0.01007793378084898
1757088960254319600,4.189319580078125,-0.03217924013733864,0.039684031158685684,-0.0012876383261755109
1757088960264274700,4.199274658203125,-0.028566397726535797,0.04843677580356598,0.003934820648282766
1757088960274229500,4.2092294921875,-0.019457854330539703,0.05022615194320679,0.010482202284038067
1757088960284183600,4.21918359375,-0.025477662682533264,0.061166416853666306,0.0076035913079977036
1757088960294138600,4.229138671875,-0.02231595851480961,0.08306985348463058,0.00024101608141791075
1757088960304092700,4.2390927734375,-0.02593679167330265,0.10175272822380066,-0.008755940943956375
1757088960314047500,4.249047607421875,-0.02767876535654068,0.11962786316871643,-0.01642344892024994
1757088960324002600,4.25900244140625,-0.02443769946694374,0.1178177148103714,-0.02309732884168625
1757088960333956600,4.26895654296875,-0.022299978882074356,0.12265827506780624,-0.027460653334856033
1757088960343911700,4.27891162109375,-0.02263207547366619,0.12100019305944443,-0.025673937052488327
1757088960353866500,4.288866455078125,-0.02329440414905548,0.10897389054298401,-0.020268520340323448
1757088960363820500,4.298820556640625,-0.018907910212874413,0.09250436723232269,-0.019931629300117493
1757088960373775600,4.308775634765625,-0.012033493258059025,0.07187605649232864,-0.02046825736761093
1757088960383730700,4.318730712890625,0.002121207769960165,0.04113411903381348,-0.0211297869682312
1757088960393684700,4.328684814453125,0.0038658445701003075,0.01284629013389349,-0.02111620455980301
1757088960403639600,4.3386396484375,0.007988151162862778,0.00039760995423421264,-0.018739599734544754
1757088960413594600,4.3485947265625,0.011931493878364563,-0.04252349212765694,-0.009221461601555347
1757088960423548700,4.358548583984375,0.0048799761570990086,-0.07654537260532379,-0.0046149916015565395
1757088960433503700,4.368503662109375,-0.011929363943636417,-0.0721554160118103,-0.0023060310631990433
1757088960443457500,4.37845751953125,-0.017238374799489975,-0.07387981563806534,0.001544100814498961
1757088960453412600,4.38841259765625,-0.027163444086909294,-0.09369213879108429,-0.00010572749306447804
1757088960463367700,4.39836767578125,-0.03618437051773071,-0.13932806253433228,0.0023284016642719507
1757088960473321700,4.40832177734375,-0.03479925915598869,-0.18591953814029694,0.009610549546778202
1757088960483276500,4.418276611328125,-0.024269387125968933,-0.23388732969760895,0.026218554005026817
1757088960493231600,4.428231689453125,-0.03129640221595764,-0.23704956471920013,0.0386190302670002
1757088960503185400,4.438185302734375,-0.03280455246567726,-0.22707442939281464,0.04439489543437958
1757088960513140700,4.448140625,-0.038116227835416794,-0.21246220171451569,0.038776423782110214
1757088960523095600,4.458095458984375,-0.04686790704727173,-0.19743770360946655,0.03604588657617569
1757088960533049600,4.468049560546875,-0.053349774330854416,-0.18583831191062927,0.040100812911987305
1757088960543004400,4.47800439453125,-0.06018158048391342,-0.1762935370206833,0.04441487044095993
1757088960552958700,4.487958740234375,-0.06554731726646423,-0.15988287329673767,0.0509747676551342
1757088960562913500,4.49791357421875,-0.07038574665784836,-0.14229083061218262,0.05583636835217476
1757088960572868600,4.50786865234375,-0.0738167017698288,-0.13000886142253876,0.051661595702171326
1757088960582822700,4.51782275390625,-0.07558903098106384,-0.11623179912567139,0.04698774963617325
1757088960592777700,4.52777783203125,-0.07549609243869781,-0.09971886873245239,0.04348542541265488
1757088960602732500,4.537732666015625,-0.07589822262525558,-0.0840163379907608,0.037633128464221954
1757088960612686600,4.5476865234375,-0.07398048043251038,-0.05974375829100609,0.032158736139535904
1757088960622641700,4.5576416015625,-0.07258738577365875,-0.03201093152165413,0.030549652874469757
1757088960632596700,4.5675966796875,-0.07158070802688599,-0.00387330143712461,0.02743029221892357
1757088960642550800,4.57755078125,-0.0731157585978508,0.017832526937127113,0.0224379301071167
1757088960652505600,4.587505615234375,-0.07538343966007233,0.03181758522987366,0.015217568725347519
1757088960662459600,4.597459716796875,-0.07552085816860199,0.042888343334198,0.0054999603889882565
1757088960672414500,4.60741455078125,-0.07390165328979492,0.055330898612737656,-0.002572613535448909
1757088960682369800,4.617369873046875,-0.07554961740970612,0.06317710131406784,-0.01176051888614893
1757088960692323600,4.627323486328125,-0.07530620694160461,0.0701199620962143,-0.01769430935382843
1757088960702278700,4.637278564453125,-0.07427982240915298,0.07898616045713425,-0.023002786561846733
1757088960712233500,4.6472333984375,-0.07548144459724426,0.08899006247520447,-0.027706729248166084
1757088960722187500,4.6571875,-0.0791826993227005,0.09489855170249939,-0.030472954735159874
1757088960732142600,4.667142578125,-0.08186370879411697,0.09668233245611191,-0.03209162503480911
1757088960742097700,4.67709765625,-0.08383151888847351,0.09087558090686798,-0.032404012978076935
1757088960752051700,4.6870517578125,-0.0841047540307045,0.08232097327709198,-0.032403212040662766
1757088960762006500,4.697006591796875,-0.08526163548231125,0.07068242877721786,-0.02762417122721672
1757088960771960800,4.7069609375,-0.08398517966270447,0.0601205937564373,-0.02329227328300476
1757088960781915600,4.71691552734375,-0.08348557353019714,0.05059979483485222,-0.015490809455513954
1757088960791870700,4.72687060546875,-0.08496202528476715,0.04097619652748108,-0.006563626695424318
1757088960801824500,4.736824462890625,-0.0877801850438118,0.034440796822309494,-0.00028762139845639467
1757088960811779800,4.74677978515625,-0.0900001972913742,0.030224215239286423,0.007236607372760773
1757088960821734700,4.756734619140625,-0.09471771866083145,0.029218338429927826,0.016584036871790886
1757088960831688700,4.766688720703125,-0.09963764250278473,0.02400173991918564,0.028670527040958405
1757088960841643500,4.7766435546875,-0.10474904626607895,0.011884355917572975,0.04182920604944229
1757088960851598600,4.7865986328125,-0.10893446952104568,0.006433132104575634,0.04728149622678757
1757088960861552600,4.796552734375,-0.11160429567098618,0.012673450633883476,0.04417544975876808
1757088960871507700,4.8065078125,-0.11671276390552521,0.024564465507864952,0.033368341624736786
1757088960881461500,4.81646142578125,-0.1256500631570816,0.04387557879090309,0.006638461723923683
1757088960891416600,4.82641650390625,-0.13063018023967743,0.06791859865188599,-0.029206354171037674
1757088960901371600,4.83637158203125,-0.13769420981407166,0.09400239586830139,-0.07480446249246597
1757088960911325700,4.84632568359375,-0.14678971469402313,0.120249442756176,-0.12546658515930176
1757088960921280500,4.856280517578125,-0.1489543318748474,0.13768090307712555,-0.17563654482364655
1757088960931235600,4.866235595703125,-0.14902862906455994,0.13900528848171234,-0.23004145920276642
1757088960941189600,4.876189697265625,-0.14017415046691895,0.12352033704519272,-0.2926070988178253
1757088960951144700,4.886144775390625,-0.12627698481082916,0.09882590919733047,-0.36220988631248474
1757088960961099500,4.896099609375,-0.10219907015562057,0.0737658366560936,-0.449757844209671
1757088960971053600,4.906053466796875,-0.06850715726613998,0.02761192061007023,-0.5675329566001892
1757088960981008600,4.916008544921875,-0.03307992219924927,-0.03454812243580818,-0.7167972326278687
1757088960990962400,4.92596240234375,0.011156780645251274,-0.10365688800811768,-0.8802133202552795
1757088961000917800,4.935917724609375,0.05842176452279091,-0.15688975155353546,-1.0461666584014893
1757088961010872600,4.94587255859375,0.08889897912740707,-0.20982833206653595,-1.2342031002044678
1757088961020826600,4.95582666015625,0.09460267424583435,-0.20406071841716766,-1.42225980758667
1757088961030781400,4.965781494140625,0.0895242914557457,0.03382907062768936,-1.5531480312347412
1757088961040736800,4.97573681640625,0.07084514200687408,0.3120037019252777,-1.6835052967071533
1757088961050690600,4.985690673828125,0.05311674624681473,0.5226818323135376,-1.767208456993103
1757088961060645600,4.995645751953125,0.012077435851097107,0.5718064904212952,-1.8810524940490723
1757088961070599700,5.005599609375,0.0007877630414441228,0.6571962237358093,-1.9955097436904907
1757088961080554800,5.0155546875,0.02082911506295204,0.8632532954216003,-2.08166766166687
1757088961090509600,5.025509521484375,0.07126379013061523,1.038258671760559,-2.134357213973999
1757088961100463600,5.035463623046875,0.11160935461521149,0.9325056076049805,-2.167107343673706
1757088961110418400,5.04541845703125,0.1533389538526535,0.8442641496658325,-2.1348373889923096
1757088961120373800,5.055373779296875,0.14922304451465607,0.9221149682998657,-2.0263843536376953
1757088961130327800,5.065327880859375,0.10593122988939285,0.9721137285232544,-1.85749089717865
1757088961140282600,5.07528271484375,0.04465828090906143,0.7376615405082703,-1.5835813283920288
1757088961150237400,5.085237548828125,0.04538505896925926,0.45538589358329773,-1.2735060453414917
1757088961160191500,5.09519140625,0.047746747732162476,0.3988070487976074,-1.0122268199920654
1757088961170146800,5.105146728515625,0.04832518845796585,0.3718246817588806,-0.8070067763328552
1757088961180100900,5.115100830078125,0.06680645793676376,0.35601457953453064,-0.6618495583534241
1757088961190056000,5.125055908203125,0.11142878979444504,0.3484322726726532,-0.606175422668457
1757088961200010800,5.1350107421875,0.16747714579105377,0.3802088499069214,-0.6115603446960449
1757088961209964800,5.14496484375,0.1812230497598648,0.36352813243865967,-0.6137606501579285
1757088961219920000,5.154919921875,0.19618788361549377,0.37881600856781006,-0.5893016457557678
1757088961229875000,5.164875,0.20150941610336304,0.4064937233924866,-0.5203936696052551
1757088961239828700,5.174828857421875,0.1500483602285385,0.3281078338623047,-0.3978440463542938
1757088961249783800,5.18478369140625,0.09961394220590591,0.289869099855423,-0.26188674569129944
1757088961259737900,5.19473779296875,0.07833794504404068,0.28532254695892334,-0.1166539117693901
1757088961269693000,5.20469287109375,0.07233704626560211,0.23355576395988464,0.028023911640048027
1757088961279647700,5.214647705078125,0.052740175276994705,0.15133891999721527,0.16382275521755219
1757088961289601800,5.224601806640625,0.034750524908304214,0.1223544105887413,0.26301777362823486
1757088961299556900,5.234556884765625,0.023925039917230606,0.1004142239689827,0.3189505636692047
1757088961309512000,5.244511962890625,-0.002463690238073468,0.13354234397411346,0.33228713274002075
1757088961319466000,5.254466064453125,-0.03778013586997986,0.18579410016536713,0.31407803297042847
1757088961329420800,5.2644208984375,-0.0637427568435669,0.23587776720523834,0.2817467153072357
1757088961339374800,5.274374755859375,-0.08229487389326096,0.24878931045532227,0.2495080977678299
1757088961349330000,5.284329833984375,-0.10243156552314758,0.21997550129890442,0.21207843720912933
1757088961359285000,5.294284912109375,-0.11729759722948074,0.18045365810394287,0.1679019182920456
1757088961369238800,5.30423876953125,-0.12785357236862183,0.1836465299129486,0.12420610338449478
1757088961379193900,5.31419384765625,-0.11796924471855164,0.20511586964130402,0.07466597855091095
1757088961389149000,5.32414892578125,-0.11975516378879547,0.248063862323761,0.02009754441678524
1757088961399103000,5.33410302734375,-0.1084577664732933,0.24296550452709198,-0.06095229834318161
1757088961409057800,5.344057861328125,-0.08574499934911728,0.21684496104717255,-0.12742879986763
1757088961419011800,5.35401171875,-0.04802611470222473,0.17249692976474762,-0.16200701892375946
1757088961428966700,5.363966552734375,-0.008462993428111076,0.13722044229507446,-0.15742796659469604
1757088961438922000,5.373921875,0.016083894297480583,0.12394324690103531,-0.13512693345546722
1757088961448876000,5.3838759765625,0.03779052197933197,0.0991436243057251,-0.13301263749599457
1757088961458830800,5.393830810546875,0.07693339884281158,0.10639355331659317,-0.1535344272851944
1757088961468785700,5.40378564453125,0.0985095277428627,0.17139971256256104,-0.1987418532371521
1757088961478740000,5.413739990234375,0.11573432385921478,0.2171403020620346,-0.2435348927974701
1757088961488694800,5.42369482421875,0.11222454160451889,0.24242594838142395,-0.2729654908180237
1757088961498648800,5.43364892578125,0.10734403133392334,0.2756419777870178,-0.2931594252586365
1757088961508604000,5.44360400390625,0.0987502783536911,0.31068941950798035,-0.2865031361579895
1757088961518559000,5.45355908203125,0.09719552844762802,0.3422923684120178,-0.2503616511821747
1757088961528513000,5.463512939453125,0.11704885959625244,0.3695564866065979,-0.1988832652568817
1757088961538467800,5.4734677734375,0.07955927401781082,0.42932820320129395,-0.16429093480110168
1757088961548423000,5.4834228515625,0.05896078795194626,0.4600815773010254,-0.14974981546401978
1757088961558376700,5.493376708984375,0.041304297745227814,0.44633540511131287,-0.13202621042728424
1757088961568332000,5.50333203125,0.03937457129359245,0.40558984875679016,-0.09799260646104813
1757088961578285800,5.513285888671875,0.04421140253543854,0.35822391510009766,-0.06319441646337509
1757088961588241000,5.523240966796875,0.04740826040506363,0.31698086857795715,-0.04200231283903122
1757088961598195700,5.53319580078125,0.05799911916255951,0.26341378688812256,-0.028859877958893776
1757088961608149800,5.543149658203125,0.06420881301164627,0.2064860612154007,-0.0252773929387331
1757088961618104800,5.553104736328125,0.07009972631931305,0.17165511846542358,-0.019719108939170837
1757088961628060000,5.563059814453125,0.06139065697789192,0.16115985810756683,-0.01155439019203186
1757088961638014000,5.573013916015625,0.05299397557973862,0.15670572221279144,-0.0011310444679111242
1757088961647968800,5.58296875,0.04361139237880707,0.1446450650691986,0.013381851837038994
1757088961657923000,5.592923095703125,0.04333256185054779,0.11691037565469742,0.027031883597373962
1757088961667878000,5.6028779296875,0.05126798152923584,0.08208315074443817,0.039016108959913254
1757088961677833000,5.6128330078125,0.06150437146425247,0.05892297253012657,0.06088252365589142
1757088961687786800,5.622786865234375,0.07016284018754959,0.05727793648838997,0.09049900621175766
1757088961697742000,5.6327421875,0.06897107511758804,0.07197459042072296,0.11203199625015259
1757088961707697000,5.64269677734375,0.06244926154613495,0.0905461460351944,0.11742915958166122
1757088961717651000,5.65265087890625,0.053884536027908325,0.1132085770368576,0.1108628660440445
1757088961727605800,5.662605712890625,0.042575158178806305,0.16227573156356812,0.09760698676109314
1757088961737559800,5.672559814453125,0.03158482536673546,0.2241223156452179,0.08951949328184128
1757088961747515000,5.682514892578125,0.0315515361726284,0.25378406047821045,0.128571555018425
1757088961757470000,5.692469970703125,0.008741825819015503,0.28185033798217773,0.22215689718723297
1757088961767423700,5.702423828125,-0.05595621094107628,0.3427956998348236,0.2917357087135315
1757088961777378800,5.71237890625,-0.10089811682701111,0.37894758582115173,0.3364507257938385
1757088961787332900,5.722332763671875,-0.06748449802398682,0.319263756275177,0.384311705827713
1757088961797288000,5.732287841796875,0.010410296730697155,0.19844171404838562,0.41994455456733704
1757088961807242800,5.74224267578125,0.07548277080059052,0.09673133492469788,0.4277052581310272
1757088961817196800,5.75219677734375,0.10806708037853241,0.05312953144311905,0.4016294479370117
1757088961827152000,5.76215185546875,0.1261342316865921,0.057553306221961975,0.34956225752830505
1757088961837107000,5.77210693359375,0.1377892941236496,0.041069939732551575,0.3138423562049866
1757088961847061000,5.78206103515625,0.14893941581249237,0.03292705863714218,0.31264153122901917
1757088961857015800,5.792015869140625,0.16548696160316467,0.04312589764595032,0.31825947761535645
1757088961866969900,5.801969970703125,0.1787274032831192,-0.008363923989236355,0.30679747462272644
1757088961876924700,5.811924560546875,0.18172825872898102,-0.12113281339406967,0.3006032407283783
1757088961886880000,5.8218798828125,0.173773393034935,-0.23108169436454773,0.3232017457485199
1757088961896833800,5.831833740234375,0.15450382232666016,-0.30436310172080994,0.37664633989334106
1757088961906788900,5.841788818359375,0.1443217545747757,-0.3424620032310486,0.4439537525177002
1757088961916743000,5.851742919921875,0.13892139494419098,-0.35508114099502563,0.5127725005149841
1757088961926698000,5.861697998046875,0.11657481640577316,-0.3489622473716736,0.5817510485649109
1757088961936652800,5.87165283203125,0.08822466433048248,-0.33372604846954346,0.6538598537445068
1757088961946606800,5.88160693359375,0.05740869790315628,-0.3250183165073395,0.7078671455383301
1757088961956562000,5.89156201171875,0.037768151611089706,-0.3320506513118744,0.7328121662139893
1757088961966517000,5.90151708984375,0.04121534526348114,-0.34528496861457825,0.7359507083892822
1757088961976471000,5.911470947265625,0.05457669124007225,-0.33238619565963745,0.7289673686027527
1757088961986425900,5.92142578125,0.05110979080200195,-0.2950263023376465,0.6886071562767029
1757088961996380000,5.9313798828125,0.0304521806538105,-0.25509780645370483,0.6402066349983215
1757088962006334700,5.941334716796875,0.004730572924017906,-0.21870358288288116,0.6058286428451538
1757088962016290000,5.9512900390625,-0.0142905218526721,-0.17928986251354218,0.5993465185165405
1757088962026243800,5.961243896484375,-0.024292556568980217,-0.14135552942752838,0.6393762230873108
1757088962036199000,5.971198974609375,-0.01631745509803295,-0.06981796026229858,0.7454062700271606
1757088962046152700,5.981152587890625,-0.012584500946104527,-0.009011072106659412,0.8786330223083496
1757088962056107800,5.991107666015625,0.0034794199746102095,0.00987313687801361,1.013331413269043
1757088962066062800,6.001062744140625,0.015797872096300125,-0.11775379627943039,1.0690863132476807
1757088962076017000,6.011016845703125,0.06667064130306244,-0.332269549369812,1.0934242010116577
1757088962085971700,6.0209716796875,0.11350871622562408,-0.6127718091011047,1.0681766271591187
1757088962095925800,6.03092578125,0.16141286492347717,-0.9295220375061035,0.9545003771781921
1757088962105881000,6.040881103515625,0.2255774587392807,-1.23110032081604,0.8157749772071838
1757088962115836000,6.0508359375,0.27289438247680664,-1.4011465311050415,0.7301937341690063
1757088962125790000,6.0607900390625,0.3197905123233795,-1.4160650968551636,0.7052761316299438
1757088962135744800,6.070744873046875,0.34057435393333435,-1.3004028797149658,0.7221089601516724
1757088962145700000,6.0807001953125,0.36219683289527893,-1.1336452960968018,0.7810713052749634
1757088962155654000,6.09065380859375,0.38220304250717163,-0.9353823065757751,0.8425285816192627
1757088962165609000,6.10060888671875,0.3849617838859558,-0.7759513854980469,0.8863202333450317
1757088962175562800,6.110562744140625,0.3727453351020813,-0.6855490803718567,0.9183913469314575
1757088962185517600,6.120517578125,0.34831351041793823,-0.6458773016929626,0.9373384118080139
1757088962195472400,6.130472412109375,0.3170815408229828,-0.621426522731781,0.9485135674476624
1757088962205426700,6.1404267578125,0.2639557421207428,-0.5614569187164307,0.9254500865936279
1757088962215381500,6.150381591796875,0.18481352925300598,-0.3940889835357666,0.8516014218330383
1757088962225335600,6.16033544921875,0.12396056205034256,-0.25964969396591187,0.7522394061088562
1757088962235290600,6.17029052734375,0.08122508227825165,-0.23064599931240082,0.6405733227729797
1757088962245245700,6.18024560546875,0.0400661937892437,-0.285719633102417,0.5354423522949219
1757088962255199700,6.19019970703125,0.007297594100236893,-0.37903252243995667,0.50852370262146
1757088962265154600,6.200154541015625,0.006738063879311085,-0.4249659478664398,0.5385473370552063
1757088962275108600,6.210108642578125,0.009178850799798965,-0.4340875446796417,0.5935789346694946
1757088962285063400,6.2200634765625,0.01997876726090908,-0.4413236081600189,0.6306408047676086
1757088962295018800,6.230018798828125,0.007160441018640995,-0.4607692062854767,0.6324427127838135
1757088962304972500,6.23997265625,-0.02425926737487316,-0.47999218106269836,0.6079469323158264
1757088962314927600,6.249927734375,-0.024630777537822723,-0.5005938410758972,0.5847348570823669
1757088962324882400,6.25988232421875,-0.035047467797994614,-0.48787593841552734,0.5703324675559998
1757088962334836500,6.26983642578125,-0.059480104595422745,-0.42942672967910767,0.566806972026825
1757088962344791600,6.27979150390625,-0.08937222510576248,-0.3754255473613739,0.5692594647407532
1757088962354745600,6.28974560546875,-0.14599156379699707,-0.333990216255188,0.5754119157791138
1757088962364700700,6.29970068359375,-0.16925880312919617,-0.28864219784736633,0.5863857269287109
1757088962374655500,6.309655517578125,-0.19158700108528137,-0.27852243185043335,0.6209689974784851
1757088962384609500,6.319609619140625,-0.243633434176445,-0.2725290060043335,0.6545488238334656
1757088962394564600,6.329564697265625,-0.30906784534454346,-0.2691805958747864,0.6870803833007812
1757088962404518700,6.3395185546875,-0.35423344373703003,-0.3100481331348419,0.7188374996185303
1757088962414473500,6.349473388671875,-0.41686245799064636,-0.3843522071838379,0.7418474555015564
1757088962424428500,6.359428466796875,-0.4681994318962097,-0.42100873589515686,0.7533334493637085
1757088962434382600,6.369382568359375,-0.48998621106147766,-0.4374369978904724,0.7608126401901245
1757088962444337700,6.379337646484375,-0.49225202202796936,-0.4545834958553314,0.7474172115325928
1757088962454291500,6.38929150390625,-0.4688050448894501,-0.46441933512687683,0.7261457443237305
1757088962464246500,6.39924658203125,-0.4064052999019623,-0.45932871103286743,0.6861525177955627
1757088962474201600,6.40920166015625,-0.330172061920166,-0.44895169138908386,0.6285507678985596
1757088962484155600,6.41915576171875,-0.24849849939346313,-0.4729712903499603,0.5813880562782288
1757088962494110500,6.4291103515625,-0.18700957298278809,-0.5711593627929688,0.558664858341217
1757088962504064500,6.439064453125,-0.16290928423404694,-0.6875778436660767,0.5172287821769714
1757088962514019600,6.44901953125,-0.12780243158340454,-0.7695619463920593,0.4534042477607727
1757088962523974700,6.458974609375,-0.09322182089090347,-0.7549175024032593,0.4074724316596985
1757088962533928700,6.4689287109375,-0.06108545884490013,-0.6943252682685852,0.41271087527275085
1757088962543883500,6.478883544921875,-0.06230438873171806,-0.642119824886322,0.4450341761112213
1757088962553837600,6.488837646484375,-0.06545624136924744,-0.6560713052749634,0.4922834634780884
1757088962563792400,6.49879248046875,-0.09619683772325516,-0.7336707711219788,0.5262270569801331
1757088962573747700,6.508747802734375,-0.09665650129318237,-0.8997763991355896,0.5729141235351562
1757088962583701500,6.518701416015625,-0.1350691318511963,-1.050279140472412,0.6202297210693359
1757088962593656600,6.528656494140625,-0.17406873404979706,-0.9681799411773682,0.6133393049240112
1757088962603611400,6.538611328125,-0.24061501026153564,-0.7372785806655884,0.5623432397842407
1757088962613565700,6.548565673828125,-0.3293592631816864,-0.5712922811508179,0.46211889386177063
1757088962623520500,6.5585205078125,-0.3603115677833557,-0.6292634010314941,0.28923073410987854
1757088962633474600,6.568474609375,-0.2948870360851288,-0.5935051441192627,0.10149147361516953
1757088962643429600,6.5784296875,-0.18680743873119354,-0.40153971314430237,-0.06108519062399864
1757088962653384700,6.588384765625,-0.05675648897886276,-0.24379348754882812,-0.19624941051006317
1757088962663338800,6.5983388671875,0.06287403404712677,-0.16458788514137268,-0.35877734422683716
1757088962673293600,6.60829345703125,0.12848633527755737,-0.11040613800287247,-0.5795203447341919
1757088962683247600,6.61824755859375,0.20634278655052185,-0.04025634378194809,-0.8354765176773071
1757088962693202400,6.628202392578125,0.3122268617153168,0.08924705535173416,-1.0836820602416992
1757088962703157800,6.63815771484375,0.4300858676433563,0.2796329855918884,-1.277880311012268
1757088962713111600,6.648111572265625,0.5225545167922974,0.5728573799133301,-1.4011952877044678
1757088962723066600,6.658066650390625,0.5465869307518005,0.9406636357307434,-1.496648907661438
1757088962733020700,6.668020751953125,0.4438844919204712,1.3599807024002075,-1.6629188060760498
1757088962742975500,6.6779755859375,0.255868524312973,1.6827473640441895,-1.9419794082641602
1757088962752930600,6.6879306640625,0.09911992400884628,1.7036327123641968,-2.2425973415374756
1757088962762884600,6.697884521484375,0.012329370714724064,1.39002525806427,-2.438406229019165
1757088962772839400,6.70783935546875,-0.07043048739433289,0.8425629138946533,-2.4482786655426025
1757088962782793500,6.71779345703125,-0.1745675504207611,0.22674553096294403,-2.3273253440856934
1757088962792748800,6.727748779296875,-0.2857353389263153,-0.321245938539505,-2.1764819622039795
1757088962802703600,6.73770361328125,-0.3562585115432739,-0.7398794293403625,-2.053081512451172
1757088962812657700,6.74765771484375,-0.3603595197200775,-0.9869824051856995,-1.9302653074264526
1757088962822612500,6.757612548828125,-0.32734137773513794,-1.0633211135864258,-1.8103516101837158
1757088962832566500,6.76756640625,-0.2025754749774933,-1.0661166906356812,-1.6861979961395264
1757088962842521600,6.777521484375,-0.11858044564723969,-1.000754952430725,-1.5942635536193848
1757088962852476700,6.7874765625,-0.08942762017250061,-0.7727558612823486,-1.5916475057601929
1757088962862430500,6.797430419921875,-0.05740709975361824,-0.3913800120353699,-1.6436500549316406
1757088962872385500,6.807385498046875,-0.03614548593759537,0.10328377783298492,-1.7285898923873901
1757088962882339600,6.817339599609375,-0.06173846498131752,0.5856274962425232,-1.8820502758026123
1757088962892294700,6.827294677734375,-0.05211753025650978,0.8673843741416931,-2.15958571434021
1757088962902249500,6.83724951171875,0.007488542702049017,0.8808024525642395,-2.435643434524536
1757088962912203500,6.84720361328125,0.1351833939552307,0.8715479373931885,-2.569122791290283
1757088962922158600,6.85715869140625,0.2812380790710449,0.9363205432891846,-2.628098249435425
1757088962932112600,6.867112548828125,0.3702544867992401,0.8898782134056091,-2.721365213394165
1757088962942067700,6.877067626953125,0.43031808733940125,0.8235154747962952,-2.7923696041107178
1757088962952022500,6.8870224609375,0.5124020576477051,0.8983814120292664,-2.753098249435425
1757088962961976600,6.8969765625,0.6015236377716064,1.0816993713378906,-2.570878028869629
1757088962971931600,6.906931640625,0.6511735320091248,1.2465028762817383,-2.2435879707336426
1757088962981885700,6.9168857421875,0.5786324739456177,1.3349723815917969,-1.7210614681243896
1757088962991840500,6.926840576171875,0.5586419701576233,1.2384058237075806,-1.188621997833252
1757088963001795600,6.936795654296875,0.5299307107925415,1.0114253759384155,-0.7392418384552002
1757088963011749600,6.94674951171875,0.48456427454948425,0.7682939767837524,-0.3717226982116699
1757088963021704700,6.95670458984375,0.4794350266456604,0.6394593119621277,-0.12413126975297928
1757088963031658800,6.96665869140625,0.43169069290161133,0.6144184470176697,0.054065365344285965
1757088963041613600,6.976613525390625,0.40348514914512634,0.7187477350234985,0.16332314908504486
1757088963051568400,6.986568359375,0.3974751830101013,0.7864418625831604,0.22471939027309418
1757088963061522400,6.9965224609375,0.41852134466171265,0.8051548004150391,0.3019515872001648
1757088963071477800,7.006477783203125,0.4235885441303253,0.7435745596885681,0.44571781158447266
1757088963081431600,7.016431640625,0.41615355014801025,0.686199426651001,0.6243573427200317
1757088963091386600,7.02638671875,0.3895125985145569,0.6501513719558716,0.8066996932029724
1757088963101341400,7.036341552734375,0.3740082085132599,0.6466456055641174,0.976858913898468
1757088963111295500,7.04629541015625,0.35746970772743225,0.6485175490379333,1.1283259391784668
1757088963121250600,7.05625048828125,0.33953386545181274,0.655792772769928,1.2708740234375
1757088963131204600,7.06620458984375,0.3004293441772461,0.6529399752616882,1.399290919303894
1757088963141159400,7.076159423828125,0.2665416896343231,0.6520169377326965,1.4817394018173218
1757088963151114500,7.086114501953125,0.24076494574546814,0.6690142750740051,1.4999538660049438
1757088963161068800,7.09606884765625,0.23973190784454346,0.6809407472610474,1.4542603492736816
1757088963171023600,7.106023681640625,0.21934381127357483,0.6741036176681519,1.3321536779403687
1757088963180977700,7.115977783203125,0.22562167048454285,0.6148948669433594,1.1076291799545288
1757088963190932500,7.125932373046875,0.2529132068157196,0.49749740958213806,0.8073066473007202
1757088963200887600,7.135887451171875,0.2803365886211395,0.4856593906879425,0.4357256293296814
1757088963210841300,7.14584130859375,0.23109766840934753,0.6415823698043823,-0.03172437474131584
1757088963220796400,7.15579638671875,0.1824379861354828,0.8288183212280273,-0.5748203992843628
1757088963230750500,7.16575048828125,0.25941798090934753,0.9524654150009155,-1.0732719898223877
1757088963240705500,7.17570556640625,0.33537161350250244,0.9047729969024658,-1.4085177183151245
1757088963250660400,7.185660400390625,0.3378017544746399,0.8007840514183044,-1.5693936347961426
1757088963260614400,7.195614501953125,0.2900416851043701,0.7444767951965332,-1.5665624141693115
1757088963270569500,7.205569580078125,0.21158574521541595,0.7136328816413879,-1.4329516887664795
1757088963280523500,7.2155234375,0.119417205452919,0.8230962753295898,-1.190912127494812
1757088963290478600,7.225478515625,0.035052526742219925,1.0643424987792969,-0.8122606873512268
1757088963300433400,7.235433349609375,-0.010447314940392971,1.268838882446289,-0.4188217520713806
1757088963310387500,7.245387451171875,-0.0070698936469852924,1.244404911994934,-0.15487320721149445
1757088963320342500,7.255342529296875,0.004430967383086681,1.0815813541412354,-0.042763710021972656
1757088963330296600,7.265296630859375,0.034578483551740646,0.9318171739578247,-0.016338227316737175
1757088963340251400,7.27525146484375,0.08602169901132584,0.7240514159202576,-0.013072924688458443
1757088963350205400,7.285205322265625,0.0865468755364418,0.33020588755607605,0.08374975621700287
1757088963360160300,7.29516015625,0.0182889923453331,-0.242531418800354,0.3618791103363037
1757088963370115600,7.305115478515625,-0.07901865243911743,-0.9689117670059204,0.7563800811767578
1757088963380069400,7.3150693359375,-0.13608619570732117,-1.6557834148406982,1.0767152309417725
1757088963390024400,7.3250244140625,-0.08963613957166672,-1.9734734296798706,1.1068403720855713
1757088963399978500,7.334978515625,0.0554099939763546,-1.8800042867660522,0.7706373333930969
1757088963409933600,7.34493359375,0.14609089493751526,-1.476181149482727,0.3553517162799835
1757088963419888400,7.354888427734375,0.12450384348630905,-1.1069875955581665,0.20866826176643372
1757088963429842400,7.364842529296875,0.08595112711191177,-0.783187210559845,0.42056161165237427
1757088963439797500,7.374797607421875,0.14002181589603424,-0.6535937786102295,0.793207585811615
1757088963449751300,7.384751220703125,0.1404804140329361,-0.5871593952178955,1.1895922422409058
1757088963459706600,7.39470654296875,-0.009812682867050171,-0.46153193712234497,1.5590014457702637
1757088963469661400,7.404661376953125,-0.2505009174346924,-0.359129935503006,1.9061192274093628
1757088963479615500,7.414615478515625,-0.5426360964775085,-0.4613681435585022,2.2399134635925293
1757088963489570300,7.4245703125,-0.6279427409172058,-0.7591180801391602,2.519015312194824
1757088963499524400,7.4345244140625,-0.3482469320297241,-1.0684975385665894,2.6178555488586426
1757088963509479400,7.4444794921875,0.04650944471359253,-1.3131202459335327,2.447446584701538
1757088963519434500,7.4544345703125,0.3262540102005005,-1.4760208129882812,2.044543981552124
1757088963529388500,7.464388427734375,0.4859856069087982,-1.5620611906051636,1.5140398740768433
1757088963539343400,7.47434326171875,0.5702586770057678,-1.5407752990722656,1.0478495359420776
1757088963549297400,7.48429736328125,0.6035018563270569,-1.4173284769058228,0.7986031770706177
1757088963559252500,7.49425244140625,0.5189201235771179,-1.0331677198410034,0.8115461468696594
1757088963569206500,7.50420654296875,0.3450261056423187,-0.4699520468711853,1.048364281654358
1757088963579161300,7.514161376953125,0.22670957446098328,-0.04785753786563873,1.3045883178710938
1757088963589116400,7.524116455078125,0.20125481486320496,0.06046999990940094,1.4125776290893555
1757088963599070500,7.534070556640625,0.19593222439289093,-0.10510697960853577,1.3424910306930542
1757088963609025500,7.544025634765625,0.2044793665409088,-0.3353063464164734,1.1982829570770264
1757088963618979300,7.553979248046875,0.14346927404403687,-0.6025010347366333,0.9864034056663513
1757088963628934400,7.563934326171875,0.08645260334014893,-0.7087145447731018,0.7631692886352539
1757088963638889500,7.573889404296875,0.08102215081453323,-0.7216247916221619,0.6389346718788147
1757088963648843500,7.583843505859375,0.017464743927121162,-0.6476381421089172,0.5885098576545715
1757088963658798300,7.59379833984375,-0.045533664524555206,-0.393837571144104,0.663565993309021
1757088963668752400,7.60375244140625,-0.10358098894357681,-0.23965705931186676,0.7206284999847412
1757088963678707500,7.61370751953125,-0.1315753310918808,-0.2461589127779007,0.7412993907928467
1757088963688662500,7.62366259765625,-0.14599768817424774,-0.26266276836395264,0.7043874859809875
1757088963698616600,7.633616455078125,-0.1382303088903427,-0.32997605204582214,0.718115508556366
1757088963708571400,7.6435712890625,-0.1446743607521057,-0.32792434096336365,0.7432451248168945
1757088963718525400,7.653525390625,-0.16518868505954742,-0.2325701266527176,0.7620015144348145
1757088963728480300,7.663480224609375,-0.1797013133764267,-0.12139646708965302,0.8026725053787231
1757088963738435600,7.673435546875,-0.17911942303180695,-0.06456194818019867,0.8432513475418091
1757088963748389400,7.683389404296875,-0.1892077475786209,-0.019943613559007645,0.8441898226737976
1757088963758344400,7.693344482421875,-0.24307923018932343,0.09504368901252747,0.8217726945877075
1757088963768298500,7.703298583984375,-0.29130855202674866,0.21241691708564758,0.8110427856445312
1757088963778253600,7.713253662109375,-0.3693580627441406,0.2927967309951782,0.7960297465324402
1757088963788207600,7.72320751953125,-0.47321149706840515,0.30331647396087646,0.7852455377578735
1757088963798162400,7.733162353515625,-0.5747541189193726,0.2570216655731201,0.7876424193382263
1757088963808117500,7.743117431640625,-0.6282578110694885,0.1058201715350151,0.7842167615890503
1757088963818071300,7.7530712890625,-0.6846326589584351,-0.019417639821767807,0.7631197571754456
1757088963828026600,7.763026611328125,-0.6871261596679688,-0.13800154626369476,0.7449801564216614
1757088963837980400,7.77298046875,-0.6248452067375183,-0.24554531276226044,0.7084953784942627
1757088963847935500,7.782935546875,-0.5293855667114258,-0.304362028837204,0.6387109756469727
1757088963857890300,7.792890380859375,-0.4170694053173065,-0.3380190432071686,0.5582478046417236
1757088963867844400,7.80284423828125,-0.3096761107444763,-0.4174688756465912,0.48585617542266846
1757088963877799400,7.81279931640625,-0.24628274142742157,-0.5354591608047485,0.42274272441864014
1757088963887753500,7.82275341796875,-0.2095063477754593,-0.5817148089408875,0.3648035228252411
1757088963897708300,7.832708251953125,-0.15223054587841034,-0.5248374342918396,0.31843310594558716
1757088963907663400,7.842663330078125,-0.0961339920759201,-0.3830251395702362,0.36638811230659485
1757088963917617700,7.85261767578125,-0.04321937635540962,-0.3601573705673218,0.48918408155441284
1757088963927572500,7.862572509765625,-0.025850770995020866,-0.5182892084121704,0.5667246580123901
1757088963937526500,7.872526611328125,-0.012781308963894844,-0.643092930316925,0.5914092659950256
1757088963947481300,7.8824814453125,0.002929743379354477,-0.6927233338356018,0.5548706650733948
1757088963957435400,7.892435302734375,-0.03588156774640083,-0.7506359219551086,0.44891655445098877
1757088963967390500,7.902390380859375,-0.08662091195583344,-0.9031511545181274,0.28975537419319153
1757088963977345500,7.912345458984375,-0.044259339570999146,-1.0344908237457275,0.09089767932891846
1757088963987299300,7.92229931640625,0.03359337896108627,-0.9671037793159485,-0.1533285677433014
1757088963997254400,7.93225439453125,0.11015579849481583,-0.7944939136505127,-0.40878698229789734
1757088964007208400,7.94220849609375,0.14649249613285065,-0.6769222617149353,-0.6616658568382263
1757088964017163500,7.95216357421875,0.20263352990150452,-0.6289896368980408,-0.9271957874298096
1757088964027118300,7.962118408203125,0.29097217321395874,-0.5064645409584045,-1.1843823194503784
1757088964037072400,7.972072265625,0.3917432725429535,-0.3005169630050659,-1.368532419204712
1757088964047027500,7.98202734375,0.48503008484840393,0.014688132330775261,-1.5238138437271118
1757088964056981500,7.9919814453125,0.5128915309906006,0.28826668858528137,-1.71183443069458
1757088964066936600,8.0019365234375,0.4772041141986847,0.457229346036911,-1.9935917854309082
1757088964076891400,8.011891357421876,0.4044579863548279,0.6244404315948486,-2.2682816982269287
1757088964086845400,8.021845458984375,0.2634630501270294,0.7937713861465454,-2.4441375732421875
1757088964096800500,8.031800537109374,0.09986374527215958,0.8270958065986633,-2.478961706161499
1757088964106754600,8.041754638671875,-0.03371668606996536,0.6353247761726379,-2.4278903007507324
1757088964116709400,8.05170947265625,-0.13472452759742737,0.24017824232578278,-2.3303043842315674
1757088964126663400,8.061663330078124,-0.18170295655727386,-0.1677360087633133,-2.2264509201049805
1757088964136618500,8.071618408203125,-0.17780567705631256,-0.42528897523880005,-2.141582489013672
1757088964146573600,8.081573486328125,-0.13121287524700165,-0.4989812970161438,-2.0796642303466797
1757088964156527600,8.091527587890624,-0.11384933441877365,-0.4119052588939667,-2.0346570014953613
1757088964166482400,8.101482421875,-0.1272202730178833,-0.2548906207084656,-1.9687654972076416
1757088964176436500,8.1114365234375,-0.09981820732355118,-0.07486359030008316,-1.8548637628555298
1757088964186392600,8.121392578125,-0.03954527899622917,0.09590708464384079,-1.7304831743240356
1757088964196347400,8.131347412109376,-0.0033457293175160885,0.32220759987831116,-1.6020357608795166
1757088964206301400,8.141301513671875,0.03928428888320923,0.551337718963623,-1.50465726852417
1757088964216256300,8.15125634765625,0.1111595407128334,0.6776293516159058,-1.4968448877334595
1757088964226210600,8.16121044921875,0.13744814693927765,0.6980888247489929,-1.6092808246612549
1757088964236165600,8.17116552734375,0.14108388125896454,0.6983945369720459,-1.7928743362426758
1757088964246120400,8.181120361328125,0.14092862606048584,0.6599776744842529,-1.9618088006973267
1757088964256074500,8.191074462890626,0.1884937435388565,0.7859134674072266,-2.034064292907715
1757088964266029600,8.201029541015625,0.2578222155570984,1.0247012376785278,-2.097100257873535
1757088964275983600,8.210983642578125,0.32428938150405884,1.231337308883667,-2.1599607467651367
1757088964285938400,8.2209384765625,0.437172532081604,1.3191020488739014,-2.2300000190734863
1757088964295892500,8.230892578125,0.511064350605011,1.2159367799758911,-2.3301329612731934
1757088964305847300,8.240847412109375,0.5708810687065125,1.1450066566467285,-2.383197784423828
1757088964315802600,8.250802734375,0.6047791242599487,1.1278338432312012,-2.317641019821167
1757088964325756700,8.260756591796875,0.6573663949966431,1.2164973020553589,-1.9499478340148926
1757088964335711500,8.27071142578125,0.6040355563163757,1.1984329223632812,-1.3542304039001465
1757088964345665500,8.28066552734375,0.46596822142601013,1.0049350261688232,-0.7642321586608887
1757088964355620400,8.290620361328125,0.34132272005081177,0.6270058751106262,-0.3063644468784332
1757088964365574700,8.30057470703125,0.24198520183563232,0.41665446758270264,0.01992630399763584
1757088964375529500,8.310529541015624,0.21632298827171326,0.39493560791015625,0.2507057189941406
1757088964385484500,8.320484619140625,0.23395682871341705,0.43248751759529114,0.4094221293926239
1757088964395438300,8.330438232421875,0.272903174161911,0.4608592092990875,0.5324758887290955
1757088964405393700,8.3403935546875,0.2996349036693573,0.5055995583534241,0.6399149894714355
1757088964415347500,8.350347412109375,0.3019776940345764,0.5865103602409363,0.7762227654457092
1757088964425302500,8.360302490234375,0.30998289585113525,0.6439827084541321,0.9471737146377563
1757088964435257300,8.37025732421875,0.3107759952545166,0.6536664962768555,1.137706995010376
1757088964445211400,8.38021142578125,0.29928603768348694,0.6450492739677429,1.329672932624817
1757088964455166500,8.39016650390625,0.2745162546634674,0.6373921632766724,1.5127471685409546
1757088964465120500,8.40012060546875,0.24198199808597565,0.6276141405105591,1.6760257482528687
1757088964475075600,8.41007568359375,0.20864908397197723,0.5956396460533142,1.7765952348709106
1757088964485030400,8.420030517578125,0.23264922201633453,0.5800143480300903,1.7699017524719238
1757088964494984400,8.429984375,0.2877766489982605,0.6302831172943115,1.6296864748001099
1757088964504939500,8.439939453125,0.32715949416160583,0.7368412613868713,1.3671046495437622
1757088964514893600,8.4498935546875,0.3096068501472473,0.8770950436592102,0.9911028742790222
1757088964524848400,8.459848388671874,0.26688867807388306,1.0587468147277832,0.5110449194908142
1757088964534802400,8.469802490234375,0.18348993360996246,1.2645370960235596,-0.038663238286972046
1757088964544757500,8.479757568359375,0.10257937014102936,1.3200410604476929,-0.6775771379470825
1757088964554712600,8.489712646484374,0.18167392909526825,1.0738615989685059,-1.3185187578201294
1757088964564666600,8.49966650390625,0.31807729601860046,0.5990924835205078,-1.697343349456787
1757088964574621400,8.509621337890625,0.38206881284713745,0.23015277087688446,-1.7122035026550293
1757088964584575500,8.519575439453124,0.3894670605659485,0.12852442264556885,-1.5274232625961304
1757088964594530600,8.529530517578126,0.3693394362926483,0.3204435110092163,-1.3005001544952393
1757088964604485600,8.539485595703125,0.2809983789920807,0.8281251192092896,-1.003813624382019
1757088964614439400,8.549439453125,0.16453808546066284,1.3469501733779907,-0.6572021245956421
1757088964624394500,8.55939453125,0.06379895657300949,1.5386042594909668,-0.3658592104911804
1757088964634348300,8.569348388671875,0.01414351537823677,1.4102354049682617,-0.17375341057777405
1757088964644303600,8.5793037109375,-0.019471701234579086,1.184349775314331,-0.08788617700338364
1757088964654257400,8.58925732421875,-0.012749883346259594,0.9043642282485962,-0.05431410297751427
1757088964664212500,8.59921240234375,0.011713913641870022,0.4583457410335541,0.06362984329462051
1757088964674167300,8.609167236328124,-0.008530104532837868,-0.1790270060300827,0.33457106351852417
1757088964684121600,8.61912158203125,-0.04831107333302498,-0.8500192165374756,0.6768519878387451
1757088964694076400,8.629076416015625,-0.07781996577978134,-1.3937523365020752,0.9434484839439392
1757088964704030500,8.639030517578124,-0.0561588779091835,-1.6228365898132324,0.9539392590522766
1757088964713985500,8.648985595703126,-0.0032807481475174427,-1.4950333833694458,0.6392297744750977
1757088964723940600,8.658940673828125,0.029335517436265945,-1.126956820487976,0.13593120872974396
1757088964733894700,8.668894775390624,0.012859339825809002,-0.8315355777740479,-0.23063774406909943
1757088964743849500,8.678849365234376,0.021767079830169678,-0.7673429846763611,-0.2136606127023697
1757088964753803500,8.688803466796875,0.09148917347192764,-0.7381845712661743,0.15767697989940643
1757088964763758300,8.69875830078125,0.17055709660053253,-0.6985911130905151,0.6360526084899902
1757088964773712400,8.70871240234375,0.10939440131187439,-0.4996849298477173,1.0523762702941895
1757088964783667500,8.71866748046875,-0.046786148101091385,-0.3049556314945221,1.4381266832351685
1757088964793622500,8.72862255859375,-0.1791630983352661,-0.44992536306381226,1.80291748046875
1757088964803576600,8.73857666015625,-0.18549981713294983,-0.9572322368621826,2.1388230323791504
1757088964813531400,8.748531494140625,-0.02870328351855278,-1.4323902130126953,2.3509559631347656
1757088964823485400,8.7584853515625,0.24071833491325378,-1.724998950958252,2.378959894180298
1757088964833440500,8.7684404296875,0.4521927535533905,-1.7484960556030273,2.179166793823242
1757088964843395600,8.7783955078125,0.5771991610527039,-1.4988254308700562,1.7636568546295166
1757088964853349400,8.788349365234374,0.6355154514312744,-1.1306694746017456,1.242409586906433
1757088964863304400,8.798304443359376,0.6678361296653748,-0.8511489629745483,0.8118601441383362
1757088964873258500,8.808258544921875,0.6084593534469604,-0.7561257481575012,0.5970807075500488
1757088964883213600,8.818213623046875,0.4970691502094269,-0.7185655832290649,0.6273893713951111
1757088964893168400,8.82816845703125,0.3804685175418854,-0.6820304989814758,0.8642746210098267
1757088964903122400,8.838122314453125,0.3203742802143097,-0.649444580078125,1.2295231819152832
1757088964913077500,8.848077392578125,0.3018732964992523,-0.46906042098999023,1.5715748071670532
1757088964923031600,8.858031494140626,0.2954756021499634,-0.09668952226638794,1.7363752126693726
1757088964932986600,8.867986572265625,0.2684655487537384,-0.04782691225409508,1.6463634967803955
1757088964942940400,8.8779404296875,0.20629431307315826,-0.1066121980547905,1.3582433462142944
1757088964952895500,8.8878955078125,0.12887409329414368,-0.135106161236763,1.0304526090621948
1757088964962850600,8.8978505859375,0.06414303183555603,-0.10341747105121613,0.779979407787323
1757088964972804600,8.9078046875,-0.011564510874450207,-0.04025314748287201,0.6604428887367249
1757088964982759400,8.917759521484374,-0.1004355251789093,0.038605447858572006,0.6686776876449585
1757088964992713500,8.92771337890625,-0.16011829674243927,0.055504538118839264,0.7801575660705566
1757088965002668300,8.937668212890625,-0.19619694352149963,-0.11977140605449677,0.9042862057685852
1757088965012623600,8.94762353515625,-0.2106962502002716,-0.4104868769645691,1.0262418985366821
1757088965022577400,8.957577392578125,-0.21669742465019226,-0.7267857193946838,1.1084401607513428
1757088965032532500,8.967532470703125,-0.23619629442691803,-0.920063853263855,1.173973560333252
1757088965042486500,8.977486572265626,-0.2928007245063782,-0.8678591847419739,1.1829124689102173
1757088965052441600,8.987441650390625,-0.335148423910141,-0.6444159746170044,1.1284329891204834
1757088965062395600,8.997395751953125,-0.3601672351360321,-0.5336937308311462,1.1027004718780518
1757088965072350500,9.0073505859375,-0.43526384234428406,-0.46698370575904846,1.0522037744522095
1757088965082305500,9.017305419921875,-0.5214719772338867,-0.43478235602378845,1.0164875984191895
1757088965092259300,9.02725927734375,-0.5787339210510254,-0.4451761245727539,1.0124843120574951
1757088965102214700,9.037214599609374,-0.6390547752380371,-0.4753691852092743,1.0248973369598389
1757088965112168400,9.04716845703125,-0.6864867806434631,-0.4982590675354004,1.0272003412246704
1757088965122123500,9.05712353515625,-0.7092336416244507,-0.4934326112270355,1.011592149734497
1757088965132077600,9.06707763671875,-0.7133495211601257,-0.5012063980102539,0.9793825149536133
1757088965142032400,9.077032470703125,-0.6947654485702515,-0.5602688789367676,0.926340639591217
1757088965151987500,9.086987548828125,-0.631446123123169,-0.6637910604476929,0.8434910178184509
1757088965161941500,9.09694140625,-0.5288422703742981,-0.7422890067100525,0.7365214228630066
1757088965171896600,9.106896484375,-0.41248422861099243,-0.7622987031936646,0.6483625173568726
1757088965181850400,9.116850341796875,-0.3048275411128998,-0.7206766605377197,0.5897085666656494
1757088965191805200,9.12680517578125,-0.20463304221630096,-0.689645528793335,0.5443115234375
1757088965201760000,9.136760009765625,-0.1319018453359604,-0.6622661352157593,0.5348120331764221
1757088965211714000,9.146714111328125,-0.06931968778371811,-0.6744535565376282,0.523833692073822
1757088965221668900,9.1566689453125,0.0017744642682373524,-0.617542564868927,0.5237588286399841
1757088965231623200,9.166623046875,0.03720995411276817,-0.5432981848716736,0.5495978593826294
1757088965241578000,9.176577880859375,0.08112574368715286,-0.568306565284729,0.5591990947723389
1757088965251532000,9.186531982421876,0.1541016846895218,-0.6361860632896423,0.541473925113678
1757088965261487000,9.196487060546875,0.12221325933933258,-0.6185010671615601,0.4494667649269104
1757088965271442200,9.206442138671875,0.07176952809095383,-0.6539645195007324,0.31716251373291016
1757088965281396200,9.216396240234374,0.07555653899908066,-0.7122334241867065,0.1630062311887741
1757088965291351000,9.22635107421875,0.12614062428474426,-0.6207138895988464,-0.04121534526348114
1757088965301305000,9.23630517578125,0.18144090473651886,-0.4020478427410126,-0.259341299533844
1757088965311260000,9.246260009765624,0.1832670271396637,-0.1152472272515297,-0.5442390441894531
1757088965321215200,9.25621533203125,0.22261789441108704,0.11341923475265503,-0.8401415348052979
1757088965331169000,9.2661689453125,0.3066347539424896,0.2809443175792694,-1.0722531080245972
1757088965341124000,9.2761240234375,0.40327873826026917,0.4267321527004242,-1.2572107315063477
1757088965351078100,9.286078125,0.49249356985092163,0.5820226669311523,-1.3961163759231567
1757088965361033000,9.296032958984375,0.5671995282173157,0.6964924931526184,-1.5308656692504883
1757088965370987300,9.3059873046875,0.5729527473449707,0.7488385438919067,-1.726271390914917
1757088965380942000,9.315942138671875,0.44740065932273865,0.7128787040710449,-2.0073776245117188
1757088965390897200,9.325897216796875,0.30967235565185547,0.5668501257896423,-2.3329553604125977
1757088965400851000,9.335850830078124,0.2500191628932953,0.4248306453227997,-2.5875298976898193
1757088965410806300,9.34580615234375,0.1648067981004715,0.3043244779109955,-2.7146921157836914
1757088965420760000,9.355760009765625,0.024348748847842216,0.17426900565624237,-2.7594029903411865
1757088965430715100,9.365715087890624,-0.07925967127084732,0.033128127455711365,-2.7518422603607178
1757088965440669200,9.375669189453125,-0.12199035286903381,-0.20412863790988922,-2.6934077739715576
1757088965450624000,9.3856240234375,-0.16228531301021576,-0.6130887269973755,-2.5851969718933105
1757088965460579000,9.3955791015625,-0.20957879722118378,-1.0837715864181519,-2.407616138458252
1757088965470533000,9.405533203125,-0.2046242505311966,-1.2563343048095703,-2.181889533996582
1757088965480488000,9.415488037109375,-0.19844917953014374,-1.204909086227417,-2.0028302669525146
1757088965490442000,9.42544189453125,-0.15710972249507904,-1.084884762763977,-1.9007110595703125
1757088965500397000,9.43539697265625,-0.1296815574169159,-0.8268079161643982,-1.7887341976165771
1757088965510352100,9.44535205078125,-0.07785884290933609,-0.40387797355651855,-1.6376981735229492
1757088965520306200,9.45530615234375,-0.015089470893144608,0.06861208379268646,-1.5514247417449951
1757088965530261000,9.465260986328126,0.010371946729719639,0.6537700891494751,-1.57301926612854
1757088965540215000,9.475215087890625,0.12359543889760971,1.4313974380493164,-1.601504921913147
1757088965550170000,9.485170166015624,0.1212497279047966,1.718791127204895,-1.7767268419265747
1757088965560125200,9.495125244140626,0.04705193266272545,1.738013744354248,-1.9957749843597412
1757088965570079000,9.505078857421875,0.057325609028339386,1.6832293272018433,-2.1768057346343994
1757088965580034000,9.515033935546874,0.1616022139787674,1.5385675430297852,-2.2994887828826904
1757088965589988000,9.524988037109376,0.2759980261325836,1.345352292060852,-2.3571486473083496
1757088965599943200,9.534943115234375,0.3338562548160553,1.1713075637817383,-2.3380677700042725
1757088965609897200,9.544897216796874,0.393800288438797,1.127266526222229,-2.2079687118530273
1757088965619852000,9.55485205078125,0.4801069498062134,1.1808134317398071,-1.9482251405715942
1757088965629807000,9.56480712890625,0.5531289577484131,1.2457798719406128,-1.5191900730133057
1757088965639761000,9.574760986328124,0.5210184454917908,1.1591379642486572,-1.0400214195251465
1757088965649716200,9.58471630859375,0.4426248371601105,1.021599292755127,-0.6024022698402405
1757088965659670000,9.594669921875,0.35737383365631104,0.8406374454498291,-0.2490905076265335
1757088965669625000,9.604625,0.3069940209388733,0.7256022095680237,0.007258711848407984
1757088965679579100,9.6145791015625,0.2754470109939575,0.6724247336387634,0.1919819563627243
1757088965689534200,9.6245341796875,0.25281786918640137,0.7039949297904968,0.3282495141029358
1757088965699489000,9.634489013671875,0.23312300443649292,0.7086977958679199,0.4438866376876831
1757088965709443000,9.644443115234376,0.2472153902053833,0.6797345876693726,0.5695270895957947
1757088965719398100,9.654398193359375,0.27053001523017883,0.6493359208106995,0.7311444878578186
1757088965729352000,9.66435205078125,0.2859710454940796,0.6370648741722107,0.9340347647666931
1757088965739307300,9.674307373046876,0.31640031933784485,0.5886089205741882,1.1665595769882202
1757088965749261000,9.684260986328125,0.3588119447231293,0.533926784992218,1.4027003049850464
1757088965759216000,9.694216064453125,0.3825010359287262,0.45981287956237793,1.6163928508758545
1757088965769171000,9.7041708984375,0.4052439033985138,0.37433311343193054,1.7923716306686401
1757088965779125000,9.714125,0.39558249711990356,0.28188174962997437,1.9470711946487427
1757088965789080000,9.724080078125,0.3666323125362396,0.2146284133195877,2.0445168018341064
1757088965799034000,9.7340341796875,0.29078948497772217,0.17847147583961487,2.062049627304077
1757088965808989000,9.743989013671875,0.2348330169916153,0.16875173151493073,1.9497958421707153
1757088965818944000,9.753944091796875,0.2047608643770218,0.10707105696201324,1.7082029581069946
1757088965828898300,9.763898193359376,0.1215091198682785,-0.02352689765393734,1.3178982734680176
1757088965838853000,9.77385302734375,0.01908261515200138,-0.1332768350839615,0.8288567066192627
1757088965848807200,9.78380712890625,-0.07779812812805176,-0.14485278725624084,0.2655632197856903
1757088965858762000,9.793761962890626,-0.13466939330101013,0.1281004399061203,-0.4364713132381439
1757088965868716000,9.803716064453125,-0.11603925377130508,0.5684634447097778,-1.1911896467208862
1757088965878671000,9.813671142578125,0.07614190876483917,0.6887935996055603,-1.7217482328414917
1757088965888626200,9.823626220703124,0.21726201474666595,0.5849217772483826,-1.8410536050796509
1757088965898580000,9.833580078125,0.23648230731487274,0.5455490946769714,-1.7309545278549194
1757088965908535000,9.84353515625,0.18693393468856812,0.571810245513916,-1.4814715385437012
1757088965918489000,9.853489013671876,0.07817629724740982,0.6486179232597351,-1.0742595195770264
1757088965928444200,9.863444091796875,-0.07004859298467636,0.7422674894332886,-0.6503583192825317
1757088965938398200,9.873398193359375,-0.15376479923725128,0.8015217185020447,-0.28829970955848694
1757088965948353000,9.88335302734375,-0.20681603252887726,0.7925553917884827,-0.02690724842250347
1757088965958308000,9.89330810546875,-0.2278161197900772,0.706603467464447,0.07837843149900436
1757088965968262100,9.90326220703125,-0.248229518532753,0.4977962076663971,0.08471781760454178
1757088965978217200,9.91321728515625,-0.2740086615085602,0.19710054993629456,0.13617461919784546
1757088965988171000,9.9231708984375,-0.2454899251461029,-0.19937755167484283,0.3156873881816864
1757088965998126000,9.9331259765625,-0.1821136176586151,-0.6515940427780151,0.5624303221702576
1757088966008081000,9.943080810546874,-0.12337679415941238,-1.0438438653945923,0.7567009925842285
1757088966018035200,9.95303515625,-0.011947473511099815,-1.263319492340088,0.713991105556488
1757088966027990000,9.962989990234375,0.13501614332199097,-1.2799240350723267,0.3830406069755554
1757088966037944000,9.972944091796874,0.2573327422142029,-1.1963236331939697,0.08576923608779907
1757088966047899000,9.98289892578125,0.28121650218963623,-1.3058754205703735,0.10274768620729446
1757088966057853000,9.99285302734375,0.2517890930175781,-1.289396047592163,0.36223411560058594
1757088966067808300,10.002808349609374,0.17815455794334412,-1.0025802850723267,0.7055704593658447
1757088966077763000,10.01276318359375,0.085056833922863,-0.6726457476615906,1.0143184661865234
1757088966087717000,10.022717041015625,-0.04511101916432381,-0.4362497627735138,1.2411012649536133
1757088966097672000,10.032671875,-0.23587697744369507,-0.27383872866630554,1.5302445888519287
1757088966107626000,10.0426259765625,-0.3647066056728363,-0.37633687257766724,1.9460722208023071
1757088966117581000,10.0525810546875,-0.3268955647945404,-0.6596117615699768,2.3191821575164795
1757088966127535000,10.06253515625,-0.15779948234558105,-1.0349928140640259,2.496953248977661
1757088966137490000,10.072489990234375,0.14255954325199127,-1.3141645193099976,2.4258034229278564
1757088966147445000,10.082445068359375,0.40672993659973145,-1.3580811023712158,2.06711745262146
1757088966157399300,10.0923994140625,0.5744947195053101,-1.3029738664627075,1.4998023509979248
1757088966167354000,10.10235400390625,0.6762807369232178,-1.2450581789016724,0.946973979473114
1757088966177308200,10.11230810546875,0.6488733291625977,-1.123879313468933,0.5841431021690369
1757088966187262500,10.122262451171874,0.5435013771057129,-0.9048808813095093,0.5159001350402832
1757088966197217500,10.132217529296875,0.40125182271003723,-0.6504315733909607,0.7668130397796631
1757088966207171600,10.142171630859375,0.34890952706336975,-0.6316823363304138,1.1146514415740967
1757088966217126700,10.152126708984374,0.36380138993263245,-0.7978113889694214,1.3580424785614014
1757088966227080700,10.162080810546875,0.3322589099407196,-1.0150630474090576,1.3691438436508179
1757088966237035500,10.172035400390625,0.3075016140937805,-1.0968742370605469,1.2932525873184204
1757088966246989600,10.181989501953124,0.26656457781791687,-1.057625651359558,1.1546800136566162
1757088966256944600,10.191944580078125,0.20381811261177063,-0.9166107773780823,1.004652500152588
1757088966266899700,10.201899658203125,0.13107146322727203,-0.7734932899475098,0.8859878778457642
1757088966276853500,10.211853515625,0.07570274919271469,-0.5005760192871094,0.8894774317741394
1757088966286808600,10.22180859375,-0.017248494550585747,-0.2558906376361847,0.9235852956771851
1757088966296762400,10.231762451171875,-0.11015819758176804,-0.20174244046211243,0.9156696200370789
1757088966306717700,10.2417177734375,-0.15926022827625275,-0.41804569959640503,0.9045064449310303
1757088966316671500,10.25167138671875,-0.21265554428100586,-0.7472976446151733,0.9437332153320312
1757088966326626600,10.26162646484375,-0.2749149203300476,-0.9853869080543518,1.0340311527252197
1757088966336581400,10.271581298828124,-0.325879842042923,-1.0108160972595215,1.0799992084503174
1757088966346535700,10.28153564453125,-0.3826850652694702,-0.7604938745498657,1.0290145874023438
1757088966356490500,10.291490478515625,-0.3479641079902649,-0.570022702217102,1.0570787191390991
1757088966366444500,10.301444580078124,-0.35148853063583374,-0.3899243175983429,1.0819305181503296
1757088966376399600,10.311399658203126,-0.3969356417655945,-0.21147070825099945,1.0401241779327393
1757088966386353400,10.321353515625,-0.4546396732330322,-0.10326593369245529,1.0009664297103882
1757088966396308700,10.331308837890624,-0.5100411772727966,-0.06096241995692253,0.981560468673706
1757088966406263600,10.341263671875,-0.5444697141647339,-0.14889520406723022,0.9715059995651245
1757088966416217600,10.351217529296875,-0.592510461807251,-0.3335987329483032,0.960412859916687
1757088966426172400,10.36117236328125,-0.6370781660079956,-0.5262909531593323,0.9114900231361389
1757088966436126500,10.37112646484375,-0.6314786076545715,-0.7143130898475647,0.8351872563362122
1757088966446081500,10.38108154296875,-0.5999342799186707,-0.8482533097267151,0.7593165040016174
1757088966456036600,10.39103662109375,-0.5071761012077332,-0.9856870174407959,0.7039206027984619
1757088966465990700,10.40099072265625,-0.48591476678848267,-1.0167450904846191,0.6435507535934448
1757088966475945500,10.410945556640625,-0.40368354320526123,-1.0250225067138672,0.5483584403991699
1757088966485899800,10.420899658203124,-0.28169745206832886,-1.0265018939971924,0.45621174573898315
1757088966495854600,10.4308544921875,-0.17653003334999084,-0.9749054908752441,0.36810851097106934
1757088966505808600,10.44080859375,-0.10978268831968307,-0.8769083619117737,0.2372056245803833
1757088966515763500,10.450763427734374,-0.05221819877624512,-0.7574376463890076,0.15446414053440094
1757088966525718800,10.46071875,-0.0027238810434937477,-0.626658022403717,0.18503616750240326
1757088966535672600,10.470672607421875,0.0432574599981308,-0.5439698100090027,0.2298361212015152
1757088966545627600,10.480627685546875,0.11247914284467697,-0.4854729473590851,0.2974969148635864
1757088966555581700,10.490581787109376,0.17392359673976898,-0.5162007808685303,0.3363244831562042
1757088966565536500,10.50053662109375,0.2111939936876297,-0.607907772064209,0.31311583518981934
1757088966575490600,10.510490478515624,0.18068988621234894,-0.6975886821746826,0.21437035501003265
1757088966585445600,10.520445556640626,0.1736018806695938,-0.8415588736534119,0.05453221872448921
1757088966595400400,10.530400390625,0.23155465722084045,-0.929408073425293,-0.13126374781131744
1757088966605354500,10.5403544921875,0.34577977657318115,-0.7949330806732178,-0.33321845531463623
1757088966615309600,10.5503095703125,0.39769330620765686,-0.4866473972797394,-0.5585575699806213
1757088966625263600,10.560263671875,0.4343069791793823,-0.13475115597248077,-0.8200448155403137
1757088966635218700,10.57021875,0.4947812259197235,0.1097416803240776,-1.1013089418411255
1757088966645172500,10.58017236328125,0.5718579292297363,0.19903826713562012,-1.390560507774353
1757088966655127600,10.59012744140625,0.6113715171813965,0.21872861683368683,-1.7118514776229858
1757088966665082600,10.60008251953125,0.5876054763793945,0.18030479550361633,-2.036113977432251
1757088966675036700,10.61003662109375,0.5338444709777832,0.08901535719633102,-2.3199753761291504
1757088966684991500,10.619991455078125,0.4687829315662384,-0.06447779387235641,-2.538137674331665
1757088966694945500,10.629945556640624,0.3217458128929138,-0.21224647760391235,-2.6428780555725098
1757088966704900600,10.639900634765626,0.13117507100105286,-0.33721956610679626,-2.6474454402923584
1757088966714855700,10.649855712890625,-0.040349554270505905,-0.4713755249977112,-2.612781286239624
1757088966724809700,10.659809814453125,-0.13384728133678436,-0.6952877044677734,-2.5233676433563232
1757088966734764500,10.6697646484375,-0.1307268589735031,-0.9194380044937134,-2.343501091003418
1757088966744718600,10.679718505859375,-0.22936926782131195,-1.0079880952835083,-2.163048028945923
1757088966754673400,10.68967333984375,-0.3341987431049347,-0.9523828625679016,-2.0241236686706543
1757088966764627700,10.699627685546876,-0.3637484014034271,-0.8661878108978271,-1.9134820699691772
1757088966774582500,10.70958251953125,-0.36678120493888855,-0.7459157109260559,-1.8397340774536133
1757088966784537600,10.71953759765625,-0.3650110065937042,-0.5500373244285583,-1.755046010017395
1757088966794491600,10.72949169921875,-0.3038261830806732,-0.15802346169948578,-1.6160486936569214
1757088966804446500,10.739446533203125,-0.26867246627807617,0.14848294854164124,-1.6046128273010254
1757088966814400800,10.74940087890625,-0.20792922377586365,0.4420871436595917,-1.7314128875732422
1757088966824355600,10.75935546875,-0.1606069952249527,0.8395724296569824,-1.8682972192764282
1757088966834309600,10.7693095703125,-0.2270675003528595,1.1413005590438843,-1.9711003303527832
1757088966844264400,10.779264404296875,-0.2920560836791992,1.3799917697906494,-2.001514434814453
1757088966854219800,10.7892197265625,-0.3077804744243622,1.5538614988327026,-1.9473611116409302
1757088966864173600,10.799173583984375,-0.29204490780830383,1.604539394378662,-1.873388648033142
1757088966874128600,10.809128662109375,-0.2352181077003479,1.4630203247070312,-1.8354157209396362
1757088966884082400,10.81908251953125,-0.10238442569971085,1.1696428060531616,-1.8403550386428833
1757088966894037500,10.82903759765625,0.05667686089873314,0.9393677711486816,-1.7877696752548218
1757088966903991600,10.838991455078125,0.1671205461025238,0.819568395614624,-1.5703667402267456
1757088966913946600,10.848946533203126,0.2149844765663147,0.8207769393920898,-1.1681485176086426
1757088966923901400,10.8589013671875,0.20331184566020966,0.8235870599746704,-0.6847855448722839
1757088966933855500,10.86885546875,0.15876194834709167,0.6896553635597229,-0.257405161857605
1757088966943810600,10.878810546875,0.11358941346406937,0.43951424956321716,0.08003491163253784
1757088966953764600,10.8887646484375,0.08588987588882446,0.22868883609771729,0.33326610922813416
1757088966963719700,10.8987197265625,0.0558994859457016,0.10567689687013626,0.5087606906890869
1757088966973673500,10.908673583984376,0.03732500225305557,0.1085674911737442,0.6262596249580383
1757088966983628500,10.918628662109375,0.027997279539704323,0.21494346857070923,0.7061299681663513
1757088966993583600,10.92858349609375,0.04844103381037712,0.28584960103034973,0.7716777920722961
1757088967003537700,10.93853759765625,0.08123360574245453,0.3287792205810547,0.8761834502220154
1757088967013492500,10.948492431640625,0.12032774090766907,0.38780418038368225,1.0355451107025146
1757088967023446500,10.958446533203125,0.1668315976858139,0.4379134178161621,1.2225326299667358
1757088967033401600,10.968401611328124,0.2188418060541153,0.4482206702232361,1.433011770248413
1757088967043356700,10.978356689453125,0.271110862493515,0.37507399916648865,1.6514054536819458
1757088967053310700,10.988310791015625,0.31717929244041443,0.2357664555311203,1.8560701608657837
1757088967063265500,10.998265625,0.35667237639427185,0.014633270911872387,2.019422769546509
1757088967073219600,11.008219482421875,0.38240063190460205,-0.24425208568572998,2.146606683731079
1757088967083174400,11.01817431640625,0.3591112792491913,-0.44231322407722473,2.258967876434326
1757088967093128700,11.028128662109374,0.3107967674732208,-0.5654647350311279,2.324026107788086
1757088967103083500,11.03808349609375,0.2985387444496155,-0.6564399003982544,2.2901482582092285
1757088967113038600,11.04803857421875,0.2914568781852722,-0.737912654876709,2.148200511932373
1757088967122992600,11.05799267578125,0.22497212886810303,-0.8810626268386841,1.8891165256500244
1757088967132947700,11.06794775390625,0.11797910183668137,-1.0207915306091309,1.4357646703720093
1757088967142901800,11.07790185546875,-0.006875216495245695,-1.1859256029129028,0.7394950985908508
1757088967152856600,11.087856689453124,-0.14384372532367706,-1.2538796663284302,-0.14349564909934998
1757088967162810600,11.097810546875,-0.16612718999385834,-0.9940682649612427,-0.9887304902076721
1757088967172765400,11.107765380859375,-0.12619228661060333,-0.514358401298523,-1.6304138898849487
1757088967182720800,11.117720703125,0.007993478327989578,-0.056711483746767044,-1.9345319271087646
1757088967192674600,11.127674560546875,0.0022306637838482857,0.23199515044689178,-1.863008975982666
1757088967202630000,11.1376298828125,-0.13817651569843292,0.4323596656322479,-1.6290972232818604
1757088967212583700,11.147583740234374,-0.2881825268268585,0.6564974188804626,-1.320408821105957
1757088967222538800,11.157538818359376,-0.35835975408554077,0.9115736484527588,-0.9514079093933105
1757088967232492800,11.167492919921875,-0.33183544874191284,1.1235525608062744,-0.584888756275177
1757088967242447600,11.177447509765624,-0.279705673456192,1.2275835275650024,-0.24113565683364868
1757088967252402700,11.187402587890626,-0.23558881878852844,1.200020432472229,0.04760320484638214
1757088967262356700,11.197356689453125,-0.18713606894016266,1.0331318378448486,0.24864070117473602
1757088967272311800,11.207311767578124,-0.14642246067523956,0.7715108394622803,0.4026148319244385
1757088967282265600,11.217265625,-0.1353418529033661,0.37245240807533264,0.5562357902526855
1757088967292220700,11.227220703125,-0.144335076212883,-0.23955532908439636,0.7094354629516602
1757088967302175700,11.23717578125,-0.18458768725395203,-0.953095555305481,0.8305078744888306
1757088967312129800,11.2471298828125,-0.20191287994384766,-1.6329596042633057,0.8842299580574036
1757088967322084600,11.257084716796875,-0.0701412707567215,-2.107525587081909,0.7176220417022705
1757088967332038700,11.26703857421875,0.10572882741689682,-2.361640214920044,0.22514842450618744
1757088967341993700,11.27699365234375,0.19961804151535034,-2.4614529609680176,-0.27633118629455566
1757088967351947800,11.28694775390625,0.23989887535572052,-2.4373111724853516,-0.35031408071517944
1757088967361902600,11.296902587890624,0.24894005060195923,-2.2821810245513916,0.07619277387857437
1757088967371857700,11.306857666015626,0.19309276342391968,-2.03786301612854,0.688001275062561
1757088967381811700,11.316811767578125,0.057136788964271545,-1.5866115093231201,1.2198110818862915
1757088967391766800,11.326766845703125,-0.05398653447628021,-1.1746803522109985,1.57786226272583
1757088967401720800,11.336720947265626,-0.1745675504207611,-0.8577908873558044,1.7274564504623413
1757088967411675600,11.346675537109375,-0.3605200946331024,-0.6649963855743408,1.7923753261566162
1757088967421629700,11.356629638671874,-0.4850465953350067,-0.7975251078605652,1.8905197381973267
1757088967431584500,11.36658447265625,-0.4299795925617218,-1.151767611503601,1.9843205213546753
1757088967441539800,11.376539794921875,-0.17566503584384918,-1.620082139968872,2.0376009941101074
1757088967451493600,11.38649365234375,0.16297639906406403,-2.032457113265991,2.000631093978882
1757088967461448700,11.39644873046875,0.38881540298461914,-2.2760088443756104,1.8307535648345947
1757088967471402800,11.40640283203125,0.4869779050350189,-2.306766986846924,1.5580166578292847
1757088967481357800,11.41635791015625,0.5665467977523804,-2.25421404838562,1.341694712638855
1757088967491311900,11.426311767578126,0.5747940540313721,-2.1650352478027344,1.2523049116134644
1757088967501266700,11.4362666015625,0.4968625009059906,-1.9194447994232178,1.252623438835144
1757088967511221800,11.4462216796875,0.36392921209335327,-1.609479546546936,1.3146284818649292
1757088967521175600,11.456175537109376,0.2657235562801361,-1.4408074617385864,1.3999912738800049
1757088967531131000,11.466130859375,0.2127239853143692,-1.4534201622009277,1.4299720525741577
1757088967541084700,11.476084716796874,0.19547788798809052,-1.5604581832885742,1.4504363536834717
1757088967551039700,11.486039794921876,0.16827848553657532,-1.6124411821365356,1.4131603240966797
1757088967560993800,11.495993896484375,0.14432522654533386,-1.4749302864074707,1.3311882019042969
1757088967570948600,11.505948486328125,0.07498049736022949,-1.268701434135437,1.2139556407928467
1757088967580903700,11.515903564453126,0.014146445319056511,-1.1449589729309082,1.0478785037994385
1757088967590857700,11.525857666015625,-0.033125463873147964,-1.0556613206863403,0.888173520565033
1757088967600812800,11.535812744140625,-0.10107601433992386,-0.972373366355896,0.7811583876609802
1757088967610766600,11.5457666015625,-0.16113802790641785,-0.8977680802345276,0.73431795835495
1757088967620722000,11.555721923828125,-0.21017427742481232,-0.9178837537765503,0.7075536847114563
1757088967630675700,11.56567578125,-0.2150486558675766,-1.0571061372756958,0.7251505255699158
1757088967640630800,11.575630859375,-0.2006385624408722,-1.2068761587142944,0.7877601385116577
1757088967650585600,11.585585693359375,-0.2028828114271164,-1.2757588624954224,0.86717289686203
1757088967660539600,11.59553955078125,-0.2047768533229828,-1.2369376420974731,0.9204398393630981
1757088967670494700,11.60549462890625,-0.22501499950885773,-1.117995023727417,0.9239128828048706
1757088967680448800,11.61544873046875,-0.2538256049156189,-0.9869176745414734,0.8830575942993164
1757088967690403600,11.625403564453125,-0.29514721035957336,-0.8568862080574036,0.8405452966690063
1757088967700357600,11.635357666015626,-0.34670788049697876,-0.7607380747795105,0.8504429459571838
1757088967710312700,11.645312744140625,-0.4054103493690491,-0.6966671943664551,0.8833281993865967
1757088967720267800,11.655267822265625,-0.44332149624824524,-0.6964139342308044,0.9174249172210693
1757088967730221800,11.665221923828126,-0.5172162652015686,-0.7070966958999634,0.9490020275115967
1757088967740176600,11.6751767578125,-0.5836253762245178,-0.7470712661743164,0.9794051647186279
1757088967750130700,11.685130615234375,-0.6508139967918396,-0.8712179660797119,0.9943649768829346
1757088967760085500,11.69508544921875,-0.7329530715942383,-1.032802939414978,0.9820654392242432
1757088967770040800,11.705040771484375,-0.7829200625419617,-1.1612132787704468,0.94307941198349
1757088967779994600,11.71499462890625,-0.7839667201042175,-1.2039499282836914,0.8843540549278259
1757088967789949700,11.72494970703125,-0.7517461776733398,-1.1027170419692993,0.8076168894767761
1757088967799903700,11.73490380859375,-0.7001756429672241,-0.9485995769500732,0.7268504500389099
1757088967809858800,11.74485888671875,-0.6538939476013184,-0.829733669757843,0.659379780292511
1757088967819812900,11.754812744140626,-0.6179529428482056,-0.7989850640296936,0.6292109489440918
1757088967829767700,11.764767578125,-0.5754801034927368,-0.9041882157325745,0.5979145765304565
1757088967839722800,11.77472265625,-0.49552586674690247,-1.0477389097213745,0.6172440648078918
1757088967849676500,11.784676513671876,-0.3954072594642639,-1.0792899131774902,0.6843231916427612
1757088967859631900,11.7946318359375,-0.2626183032989502,-1.0220335721969604,0.7203025221824646
1757088967869585700,11.804585693359375,-0.13884443044662476,-0.9026563167572021,0.740666389465332
1757088967879540700,11.814540771484374,-0.057072073221206665,-0.8890388011932373,0.7139593958854675
1757088967889494800,11.824494873046875,0.0038719698786735535,-0.9907694458961487,0.6508880257606506
1757088967899449600,11.83444970703125,0.09387429803609848,-1.075419545173645,0.5740368962287903
1757088967909404700,11.84440478515625,0.1356571614742279,-1.076662540435791,0.537729799747467
1757088967919358700,11.854358642578125,0.1391853243112564,-1.0292414426803589,0.4655061662197113
1757088967929313500,11.8643134765625,0.11820520460605621,-1.047168254852295,0.35299426317214966
1757088967939267600,11.874267578125,0.14498674869537354,-0.9659522175788879,0.15527667105197906
1757088967949223000,11.884222900390625,0.15822479128837585,-0.7363626956939697,-0.09116799384355545
1757088967959177700,11.894177734375,0.2194354236125946,-0.4971037805080414,-0.3130601644515991
1757088967969131800,11.9041318359375,0.30108100175857544,-0.3134830892086029,-0.5106097459793091
1757088967979086600,11.914086669921875,0.3909693658351898,-0.1674337387084961,-0.711315929889679
1757088967989040600,11.92404052734375,0.4729827344417572,-0.009853961877524853,-0.913199782371521
1757088967998995700,11.93399560546875,0.542599618434906,0.12574274837970734,-1.1172243356704712
1757088968008949800,11.94394970703125,0.5907032489776611,0.19532981514930725,-1.3570462465286255
1757088968018904600,11.953904541015625,0.5721293091773987,0.19606325030326843,-1.637141466140747
1757088968028859600,11.963859619140624,0.5558121204376221,0.1358257383108139,-1.890727162361145
1757088968038813700,11.973813720703125,0.5239382982254028,0.038728754967451096,-2.1673378944396973
1757088968048768800,11.983768798828125,0.365364134311676,-0.0941813588142395,-2.4243693351745605
1757088968058722800,11.993722900390624,0.1061759740114212,-0.27666914463043213,-2.640270233154297
1757088968068677600,12.003677734375,-0.15363696217536926,-0.5801235437393188,-2.8029778003692627
1757088968078632700,12.0136328125,-0.36889973282814026,-1.0310523509979248,-2.8843302726745605
1757088968088586800,12.023586669921874,-0.5201299786567688,-1.5905487537384033,-2.837822198867798
1757088968098541800,12.033541748046876,-0.6078763604164124,-1.9358216524124146,-2.6472325325012207
1757088968108495600,12.04349560546875,-0.6186850666999817,-1.9796885251998901,-2.3702657222747803
1757088968118450700,12.05345068359375,-0.628678560256958,-1.749138593673706,-2.074500560760498
1757088968128404700,12.06340478515625,-0.709963858127594,-1.4034792184829712,-1.8834469318389893
1757088968138359800,12.07335986328125,-0.7795631885528564,-1.1342405080795288,-1.8246935606002808
1757088968148314600,12.083314697265624,-0.6732479333877563,-0.8061828017234802,-1.770643949508667
1757088968158268700,12.0932685546875,-0.5279216170310974,-0.4377879798412323,-1.7030822038650513
1757088968168223700,12.1032236328125,-0.4634251892566681,-0.24097320437431335,-1.7317180633544922
1757088968178177500,12.113177490234374,-0.3039447069168091,0.16757328808307648,-1.745186448097229
1757088968188133000,12.123133056640626,-0.20200848579406738,0.5253085494041443,-1.775495171546936
1757088968198088200,12.133088134765625,-0.21151597797870636,0.7540876269340515,-1.8109798431396484
1757088968208042200,12.143042236328125,-0.20564423501491547,0.9426935315132141,-1.8233702182769775
1757088968217997300,12.152997314453126,-0.160213902592659,0.9695557355880737,-1.8268057107925415
1757088968227951400,12.162951416015625,-0.10527821630239487,0.8245823383331299,-1.8195606470108032
1757088968237906200,12.17290625,-0.019578494131565094,0.6348634958267212,-1.8201606273651123
1757088968247861200,12.182861328125,0.11036112904548645,0.4658481180667877,-1.8095433712005615
1757088968257815000,12.19281494140625,0.25688424706459045,0.41597509384155273,-1.616051197052002
1757088968267770400,12.202770263671875,0.338130384683609,0.42922112345695496,-1.235511302947998
1757088968277724200,12.21272412109375,0.3095477223396301,0.42675718665122986,-0.7639495730400085
1757088968287679200,12.22267919921875,0.23604342341423035,0.3527836203575134,-0.30957624316215515
1757088968297633300,12.23263330078125,0.15106594562530518,0.1392977088689804,0.051002997905015945
1757088968307588000,12.242588134765626,0.08218621462583542,-0.10528034716844559,0.27539268136024475
1757088968317543200,12.252543212890625,0.03140506148338318,-0.20979318022727966,0.3918988108634949
1757088968327497200,12.262497314453125,-0.025412149727344513,-0.1636267453432083,0.46261292695999146
1757088968337452300,12.272452392578124,-0.05675622448325157,0.06930823624134064,0.4897313416004181
1757088968347406000,12.282406005859375,-0.0808413177728653,0.2978953421115875,0.4960009753704071
1757088968357361400,12.292361328125,-0.07837630063295364,0.4291106164455414,0.5531651973724365
1757088968367316200,12.302316162109374,-0.06644213944673538,0.486857533454895,0.6998717784881592
1757088968377270300,12.312270263671875,-0.04422924667596817,0.487826406955719,0.9066228270530701
1757088968387225000,12.32222509765625,-0.015050854533910751,0.44285786151885986,1.135027527809143
1757088968397179100,12.33217919921875,0.02208825759589672,0.38970860838890076,1.3555974960327148
1757088968407134200,12.34213427734375,0.05889900401234627,0.3694872260093689,1.5723305940628052
