time,seconds_elapsed,z,y,x
1757088897622730800,0.016730712890625,-0.842315673828125,-0.1111602783203125,0.235382080078125
1757088897632684800,0.026684814453125,-0.8631591796875,-0.109832763671875,0.2540740966796875
1757088897642639600,0.0366396484375,-0.8686065673828125,-0.1202850341796875,0.2749176025390625
1757088897652594700,0.0465947265625,-0.8606719970703125,-0.152099609375,0.2986907958984375
1757088897662548700,0.056548828125,-0.8190155029296875,-0.217254638671875,0.3022308349609375
1757088897672503800,0.06650390625,-0.7292327880859375,-0.19580078125,0.266021728515625
1757088897682458600,0.076458740234375,-0.760894775390625,-0.16259765625,0.2722930908203125
1757088897692412700,0.08641259765625,-0.7869415283203125,-0.1444854736328125,0.2083892822265625
1757088897702367700,0.09636767578125,-0.792938232421875,-0.09954833984375,0.169281005859375
1757088897712321800,0.10632177734375,-0.8679046630859375,-0.0583038330078125,0.1640777587890625
1757088897722276600,0.116276611328125,-0.9274139404296875,-0.0534210205078125,0.1868133544921875
1757088897732231700,0.126231689453125,-0.948089599609375,-0.052886962890625,0.2162322998046875
1757088897742185500,0.136185546875,-0.9258880615234375,-0.0356292724609375,0.234405517578125
1757088897752140800,0.146140869140625,-0.8769683837890625,-0.0189056396484375,0.24017333984375
1757088897762095600,0.156095703125,-0.7910003662109375,-0.0131072998046875,0.1672210693359375
1757088897772049700,0.166049560546875,-0.6656494140625,0.0189361572265625,0.13458251953125
1757088897782004500,0.17600439453125,-0.5672760009765625,0.0147857666015625,0.1773681640625
1757088897791959800,0.185959716796875,-0.5449676513671875,-0.0027008056640625,0.2279052734375
1757088897801913900,0.195913818359375,-0.5420684814453125,-0.0221710205078125,0.2685394287109375
1757088897811868700,0.20586865234375,-0.4728240966796875,0.01043701171875,0.248291015625
1757088897821823500,0.215823486328125,-0.4310455322265625,0.0790557861328125,0.2648773193359375
1757088897831777800,0.22577783203125,-0.3964691162109375,0.104095458984375,0.316497802734375
1757088897841732900,0.23573291015625,-0.3510894775390625,0.0952301025390625,0.38226318359375
1757088897851687700,0.245687744140625,-0.319793701171875,0.088470458984375,0.3993682861328125
1757088897861641700,0.255641845703125,-0.28448486328125,0.083251953125,0.359222412109375
1757088897871596800,0.2655966796875,-0.26202392578125,0.105010986328125,0.34808349609375
1757088897881551600,0.275551513671875,-0.199462890625,0.1397857666015625,0.377899169921875
1757088897891505700,0.285505615234375,-0.1986846923828125,0.130279541015625,0.3827056884765625
1757088897901460700,0.295460693359375,-0.275177001953125,0.11956787109375,0.3950347900390625
1757088897911414500,0.30541455078125,-0.26092529296875,0.104949951171875,0.559326171875
1757088897921369900,0.315369873046875,-0.3845672607421875,0.1537322998046875,0.66497802734375
1757088897931324700,0.32532470703125,-0.5734100341796875,0.2083282470703125,0.72442626953125
1757088897941278700,0.33527880859375,-0.7626800537109375,0.2273712158203125,0.7472076416015625
1757088897951233500,0.345233642578125,-0.8974761962890625,0.2113494873046875,0.7399444580078125
1757088897961188900,0.35518896484375,-0.98779296875,0.1985015869140625,0.7587738037109375
1757088897971142700,0.365142578125,-1.05145263671875,0.20318603515625,0.7884368896484375
1757088897981097700,0.37509765625,-1.0850372314453125,0.2107086181640625,0.815277099609375
1757088897991052500,0.385052490234375,-1.0877838134765625,0.1910858154296875,0.8244171142578125
1757088898001006600,0.395006591796875,-1.0825653076171875,0.184234619140625,0.835357666015625
1757088898010961700,0.404961669921875,-1.0217742919921875,0.1855010986328125,0.851470947265625
1757088898020916700,0.414916748046875,-0.9390869140625,0.1966552734375,0.8660888671875
1757088898030870800,0.424870849609375,-0.8767852783203125,0.2110595703125,0.89044189453125
1757088898040825600,0.43482568359375,-0.8450469970703125,0.2379913330078125,0.913604736328125
1757088898050780700,0.44478076171875,-0.8516845703125,0.2774810791015625,0.9363555908203125
1757088898060734700,0.454734619140625,-0.884185791015625,0.3069915771484375,0.9666290283203125
1757088898070689800,0.464689697265625,-0.94427490234375,0.3328399658203125,1.00079345703125
1757088898080644600,0.47464453125,-0.975799560546875,0.339691162109375,1.0516815185546875
1757088898090598700,0.4845986328125,-0.9556732177734375,0.3426361083984375,1.1157684326171875
1757088898100553700,0.4945537109375,-0.894622802734375,0.303802490234375,1.1284332275390625
1757088898110508800,0.5045087890625,-0.8427886962890625,0.3098602294921875,1.149871826171875
1757088898120462300,0.51446240234375,-0.745635986328125,0.3126678466796875,1.1806640625
1757088898130417700,0.524417724609375,-0.66485595703125,0.3115234375,1.1498870849609375
1757088898140372500,0.53437255859375,-0.6589508056640625,0.3072509765625,1.1320953369140625
1757088898150326500,0.544326416015625,-0.653900146484375,0.267852783203125,1.132568359375
1757088898160281300,0.55428125,-0.6195220947265625,0.27587890625,1.0754852294921875
1757088898170235600,0.564235595703125,-0.5867156982421875,0.3092498779296875,1.0009613037109375
1757088898180190500,0.5741904296875,-0.4874114990234375,0.3905029296875,0.9108123779296875
1757088898190145500,0.5841455078125,-0.3693695068359375,0.4023284912109375,0.80224609375
1757088898200099600,0.594099609375,-0.29638671875,0.378448486328125,0.8175201416015625
1757088898210054700,0.6040546875,-0.4217376708984375,0.3676910400390625,1.0756072998046875
1757088898220009500,0.614009521484375,-0.5722808837890625,0.3353729248046875,1.17498779296875
1757088898229963500,0.623963623046875,-0.6091156005859375,0.2916717529296875,1.1914825439453125
1757088898239918600,0.633918701171875,-0.6118011474609375,0.315826416015625,1.19573974609375
1757088898249873700,0.643873779296875,-0.6040802001953125,0.3819580078125,1.131317138671875
1757088898259827700,0.65382763671875,-0.559478759765625,0.382049560546875,1.040985107421875
1757088898269782500,0.663782470703125,-0.450592041015625,0.33953857421875,0.9703521728515625
1757088898279737600,0.673737548828125,-0.3235931396484375,0.3231658935546875,0.991119384765625
1757088898289691400,0.68369140625,-0.232086181640625,0.36737060546875,1.0650787353515625
1757088898299646700,0.693646728515625,-0.19561767578125,0.39141845703125,1.0970458984375
1757088898309601500,0.7036015625,-0.207794189453125,0.38580322265625,1.0775604248046875
1757088898319555600,0.7135556640625,-0.2515716552734375,0.3943939208984375,1.0766448974609375
1757088898329510400,0.723510498046875,-0.2999725341796875,0.3924407958984375,1.0996551513671875
1757088898339465700,0.7334658203125,-0.35858154296875,0.3929595947265625,1.1457672119140625
1757088898349419500,0.74341943359375,-0.4246063232421875,0.4029693603515625,1.2046966552734375
1757088898359374600,0.75337451171875,-0.4803314208984375,0.4176788330078125,1.2003631591796875
1757088898369329400,0.763329345703125,-0.493499755859375,0.4389495849609375,1.1469268798828125
1757088898379283500,0.773283447265625,-0.4446868896484375,0.457977294921875,1.063323974609375
1757088898389238500,0.783238525390625,-0.3548126220703125,0.4542388916015625,0.98138427734375
1757088898399193600,0.793193603515625,-0.2418670654296875,0.4391326904296875,0.94476318359375
1757088898409147400,0.8031474609375,-0.114013671875,0.437652587890625,0.9604949951171875
1757088898419102500,0.8131025390625,0.0070037841796875,0.4527130126953125,0.9923553466796875
1757088898429057500,0.8230576171875,0.1053466796875,0.454803466796875,1.010467529296875
1757088898439011600,0.833011474609375,0.1922607421875,0.4119720458984375,1.05841064453125
1757088898448966400,0.84296630859375,0.2211456298828125,0.3988189697265625,1.103118896484375
1757088898458920400,0.85292041015625,0.1622161865234375,0.4456787109375,1.0918731689453125
1757088898468875500,0.86287548828125,0.041290283203125,0.4949188232421875,1.0548095703125
1757088898478830600,0.87283056640625,-0.0863189697265625,0.493621826171875,1.0424957275390625
1757088898488784600,0.88278466796875,-0.2035980224609375,0.4650115966796875,1.0579833984375
1757088898498739500,0.892739501953125,-0.3081817626953125,0.465911865234375,1.0889739990234375
1757088898508694500,0.902694580078125,-0.40460205078125,0.5204620361328125,1.0866546630859375
1757088898518648600,0.912648681640625,-0.510284423828125,0.5597381591796875,1.07110595703125
1757088898528603600,0.922603759765625,-0.60504150390625,0.5819549560546875,1.0433349609375
1757088898538558500,0.932558349609375,-0.599273681640625,0.6660614013671875,1.029296875
1757088898548512500,0.942512451171875,-0.5157623291015625,0.7636871337890625,0.99566650390625
1757088898558467600,0.952467529296875,-0.4584503173828125,0.7329864501953125,0.993743896484375
1757088898568422700,0.962422607421875,-0.422332763671875,0.6855621337890625,1.02081298828125
1757088898578376400,0.97237646484375,-0.40887451171875,0.690673828125,0.99359130859375
1757088898588331500,0.98233154296875,-0.3724365234375,0.698150634765625,0.957794189453125
1757088898598286600,0.99228662109375,-0.3179168701171875,0.673736572265625,0.9252471923828125
1757088898608240600,1.00224072265625,-0.1236572265625,0.662689208984375,0.94091796875
1757088898618195500,1.012195556640625,0.02130126953125,0.6602783203125,0.911346435546875
1757088898628150500,1.022150634765625,-0.0709228515625,0.56561279296875,0.9056243896484375
1757088898638104300,1.032104248046875,-0.2733306884765625,0.46435546875,0.8846893310546875
1757088898648059600,1.0420595703125,-0.3162994384765625,0.48077392578125,0.8896331787109375
1757088898658014500,1.052014404296875,-0.218048095703125,0.56201171875,0.8893280029296875
1757088898667968500,1.061968505859375,-0.3360443115234375,0.5095672607421875,0.7652740478515625
1757088898677923300,1.07192333984375,-0.2905731201171875,0.403656005859375,0.5692596435546875
1757088898687878700,1.081878662109375,-0.2884368896484375,0.4608306884765625,0.5489349365234375
1757088898697832700,1.091832763671875,-0.3837890625,0.50518798828125,0.5500640869140625
1757088898707787500,1.10178759765625,-0.0739593505859375,0.4600677490234375,0.4335174560546875
1757088898717742300,1.111742431640625,0.0996246337890625,0.455291748046875,0.3286590576171875
1757088898727696400,1.1216962890625,0.043975830078125,0.49560546875,0.36651611328125
1757088898737651700,1.131651611328125,-0.075225830078125,0.44573974609375,0.4394073486328125
1757088898747605500,1.14160546875,-0.0392303466796875,0.3345184326171875,0.4634552001953125
1757088898757560600,1.151560546875,0.05078125,0.284271240234375,0.527435302734375
1757088898767515400,1.161515380859375,-0.1043243408203125,0.3379669189453125,0.6505279541015625
1757088898777469700,1.1714697265625,-0.2240447998046875,0.3417510986328125,0.6955413818359375
1757088898787424500,1.181424560546875,-0.4449615478515625,0.444793701171875,0.724517822265625
1757088898797379600,1.191379638671875,-0.7064056396484375,0.419281005859375,0.7080841064453125
1757088898807333400,1.20133349609375,-0.6982421875,0.2574615478515625,0.6239013671875
1757088898817288700,1.211288818359375,-0.5124664306640625,0.3214263916015625,0.5562591552734375
1757088898827243500,1.221243408203125,-0.3865203857421875,0.4291839599609375,0.6553192138671875
1757088898837197600,1.231197509765625,-0.4844970703125,0.3746490478515625,0.947967529296875
1757088898847152400,1.24115234375,-0.22308349609375,0.3498077392578125,0.9695281982421875
1757088898857107700,1.251107666015625,0.147705078125,0.3858642578125,0.8387451171875
1757088898867061500,1.2610615234375,0.15911865234375,0.37786865234375,0.5256805419921875
1757088898877016600,1.2710166015625,-0.0904388427734375,0.383758544921875,0.335601806640625
1757088898886971400,1.280971435546875,-0.41314697265625,0.3914794921875,0.351654052734375
1757088898896925400,1.290925537109375,-0.5070953369140625,0.3934173583984375,0.3443756103515625
1757088898906880500,1.300880615234375,-0.5205230712890625,0.4690399169921875,0.383758544921875
1757088898916835600,1.310835693359375,-0.60107421875,0.5861663818359375,0.52099609375
1757088898926789600,1.32078955078125,-0.728607177734375,0.574127197265625,0.6244354248046875
1757088898936744400,1.330744384765625,-0.8276214599609375,0.47222900390625,0.7376251220703125
1757088898946699500,1.340699462890625,-0.8637847900390625,0.4639129638671875,0.798187255859375
1757088898956653600,1.350653564453125,-0.807891845703125,0.4904327392578125,0.7528839111328125
1757088898966608600,1.360608642578125,-0.7964935302734375,0.46612548828125,0.7239990234375
1757088898976563500,1.3705634765625,-0.7700347900390625,0.4918060302734375,0.6559600830078125
1757088898986517500,1.380517578125,-0.6553192138671875,0.452239990234375,0.601806640625
1757088898996472600,1.39047265625,-0.65069580078125,0.4348602294921875,0.6512298583984375
1757088899006426600,1.400426513671875,-0.6564483642578125,0.41009521484375,0.7270050048828125
1757088899016381400,1.41038134765625,-0.679229736328125,0.310699462890625,0.7669219970703125
1757088899026336500,1.42033642578125,-0.612152099609375,0.3662567138671875,0.749176025390625
1757088899036290600,1.43029052734375,-0.4853515625,0.5150146484375,0.760498046875
1757088899046245600,1.44024560546875,-0.4164886474609375,0.54461669921875,0.7382354736328125
1757088899056200400,1.450200439453125,-0.3945770263671875,0.4134674072265625,0.7843780517578125
1757088899066154500,1.460154541015625,-0.5100555419921875,0.274322509765625,1.0705718994140625
1757088899076109600,1.470109619140625,-0.6969757080078125,0.2593536376953125,1.175994873046875
1757088899086064600,1.480064697265625,-0.7291259765625,0.346038818359375,0.7342071533203125
1757088899096018400,1.490018310546875,-0.6133575439453125,0.511566162109375,0.42626953125
1757088899105973500,1.499973388671875,-0.654815673828125,0.5448150634765625,0.3740692138671875
1757088899115928600,1.509928466796875,-0.7632293701171875,0.3695068359375,0.3903656005859375
1757088899125883400,1.51988330078125,-0.67523193359375,0.3451690673828125,0.4402008056640625
1757088899135838200,1.529838134765625,-0.4361114501953125,0.4323272705078125,0.175567626953125
1757088899145793300,1.539793212890625,-0.205169677734375,0.467681884765625,-0.0678558349609375
1757088899155747000,1.5497470703125,-0.17791748046875,0.562286376953125,0.1549072265625
1757088899165702400,1.559702392578125,-0.362945556640625,0.4972381591796875,0.4112396240234375
1757088899175657200,1.5696572265625,-0.545166015625,0.4316253662109375,0.47265625
1757088899185611300,1.579611328125,-0.69049072265625,0.48388671875,0.5432281494140625
1757088899195566000,1.589566162109375,-0.7570648193359375,0.5292205810546875,0.60589599609375
1757088899205521400,1.599521484375,-0.746185302734375,0.4837646484375,0.61956787109375
1757088899215475200,1.60947509765625,-0.69952392578125,0.4119720458984375,0.5702667236328125
1757088899225430300,1.61943017578125,-0.625701904296875,0.4239044189453125,0.55657958984375
1757088899235385000,1.629385009765625,-0.64300537109375,0.5392913818359375,0.607696533203125
1757088899245339400,1.63933935546875,-0.6634979248046875,0.6005096435546875,0.6906890869140625
1757088899255294200,1.649294189453125,-0.6372222900390625,0.520050048828125,0.7055816650390625
1757088899265249300,1.659249267578125,-0.6436004638671875,0.4985809326171875,0.646942138671875
1757088899275203300,1.669203369140625,-0.6375579833984375,0.5749053955078125,0.631072998046875
1757088899285158400,1.679158447265625,-0.61572265625,0.5966339111328125,0.5927886962890625
1757088899295113200,1.68911328125,-0.596343994140625,0.5667877197265625,0.5334320068359375
1757088899305067300,1.6990673828125,-0.6168670654296875,0.508544921875,0.5595855712890625
1757088899315022300,1.709022216796875,-0.6005096435546875,0.4584808349609375,0.667144775390625
1757088899324976000,1.71897607421875,-0.5312957763671875,0.483062744140625,0.5265655517578125
1757088899334931500,1.728931396484375,-0.4273681640625,0.6300506591796875,0.125457763671875
1757088899344886300,1.73888623046875,-0.3784637451171875,0.8153533935546875,-0.1995086669921875
1757088899354841300,1.74884130859375,-0.422271728515625,0.901397705078125,-0.1816558837890625
1757088899364795100,1.758795166015625,-0.6268463134765625,0.84649658203125,0.1932373046875
1757088899374750500,1.76875048828125,-0.527069091796875,0.8188018798828125,0.5232086181640625
1757088899384704300,1.778704345703125,-0.487152099609375,0.7404632568359375,0.7371063232421875
1757088899394659300,1.788659423828125,-0.3836669921875,0.5967864990234375,0.7885894775390625
1757088899404614100,1.7986142578125,-0.199798583984375,0.606658935546875,0.9838104248046875
1757088899414568200,1.808568115234375,-0.09075927734375,0.4769744873046875,1.0997772216796875
1757088899424523300,1.818523193359375,0.18035888671875,0.6296539306640625,0.574432373046875
1757088899434478300,1.828478271484375,0.224517822265625,0.7517547607421875,0.3467559814453125
1757088899444432400,1.838432373046875,0.7654876708984375,0.6512908935546875,0.420501708984375
1757088899454387200,1.84838720703125,0.4510345458984375,0.44000244140625,0.9775543212890625
1757088899464342300,1.85834228515625,-0.074432373046875,0.63043212890625,1.7010040283203125
1757088899474296300,1.86829638671875,-0.2140960693359375,0.7706298828125,1.5634918212890625
1757088899484251100,1.878251220703125,-0.10858154296875,0.7459716796875,1.2973480224609375
1757088899494206200,1.888206298828125,-0.1214599609375,0.7079620361328125,0.9839019775390625
1757088899504160300,1.89816015625,-0.160125732421875,0.7455291748046875,0.773834228515625
1757088899514115300,1.908115234375,-0.2088470458984375,0.792327880859375,0.73284912109375
1757088899524070100,1.918070068359375,-0.167633056640625,0.7490234375,0.656036376953125
1757088899534024200,1.928024169921875,-0.0833282470703125,0.6609039306640625,0.637847900390625
1757088899543979300,1.937979248046875,-0.012115478515625,0.5977783203125,0.707916259765625
1757088899553934300,1.947934326171875,0.0121612548828125,0.578277587890625,0.70489501953125
1757088899563888400,1.957888427734375,-0.0001678466796875,0.5820770263671875,0.7100830078125
1757088899573843200,1.96784326171875,-0.088836669921875,0.5872650146484375,0.5788116455078125
1757088899583798300,1.97779833984375,-0.1212310791015625,0.6248779296875,0.4686279296875
1757088899593752300,1.98775244140625,-0.134796142578125,0.5774688720703125,0.3712921142578125
1757088899603707400,1.997707275390625,-0.2534027099609375,0.6025848388671875,0.243255615234375
1757088899613662200,2.007662109375,-0.5342864990234375,0.845367431640625,0.1977691650390625
1757088899623616300,2.0176162109375,-0.26336669921875,0.67822265625,0.19720458984375
1757088899633571300,2.0275712890625,-0.060394287109375,0.589202880859375,0.2117767333984375
1757088899643526400,2.0375263671875,0.2184906005859375,0.5883636474609375,0.2169036865234375
1757088899653480200,2.047480224609375,0.6732940673828125,0.84844970703125,0.2003936767578125
1757088899663435300,2.057435302734375,-0.13726806640625,0.9761810302734375,0.154571533203125
1757088899673390300,2.067390380859375,-0.27716064453125,1.4505615234375,0.138031005859375
1757088899683344400,2.077344482421875,-0.0930633544921875,1.873992919921875,0.181549072265625
1757088899693299200,2.08729931640625,-0.0614166259765625,1.706634521484375,0.1513671875
1757088899703254300,2.097254150390625,-0.424072265625,1.3920745849609375,0.088775634765625
1757088899713208300,2.107208251953125,-0.4530487060546875,1.2218780517578125,0.07763671875
1757088899723163400,2.117163330078125,0.0574951171875,1.21990966796875,0.186248779296875
1757088899733118200,2.1271181640625,0.1347503662109375,1.2209014892578125,0.264678955078125
1757088899743072300,2.137072265625,0.018157958984375,1.1925201416015625,0.3144683837890625
1757088899753027300,2.14702734375,0.0034027099609375,1.129150390625,0.3551025390625
1757088899762982400,2.156982421875,0.000640869140625,1.022186279296875,0.38592529296875
1757088899772936400,2.1669365234375,-0.039215087890625,0.9267730712890625,0.298583984375
1757088899782891300,2.176891357421875,-0.0781402587890625,0.9084014892578125,0.2392425537109375
1757088899792846000,2.18684619140625,-0.0991058349609375,0.88763427734375,0.1943359375
1757088899802800000,2.196800048828125,-0.077392578125,0.837066650390625,0.1614227294921875
1757088899812755500,2.20675537109375,-0.057525634765625,0.7372589111328125,0.1552581787109375
1757088899822709200,2.216709228515625,-0.0839996337890625,0.557403564453125,0.20538330078125
1757088899832664300,2.226664306640625,-0.0595550537109375,0.5939483642578125,0.16339111328125
1757088899842619100,2.236619140625,-0.0274505615234375,0.6215057373046875,0.1606903076171875
1757088899852573400,2.246573486328125,-0.0181121826171875,0.5579071044921875,0.17523193359375
1757088899862528300,2.2565283203125,-0.0208282470703125,0.587127685546875,0.1595916748046875
1757088899872483300,2.2664833984375,-0.0123138427734375,0.6100311279296875,0.1591033935546875
1757088899882437000,2.27643701171875,-0.007537841796875,0.59912109375,0.2006378173828125
1757088899892392400,2.286392333984375,0.0017242431640625,0.598480224609375,0.1999053955078125
1757088899902347300,2.29634716796875,-0.0049285888671875,0.5911712646484375,0.1996307373046875
1757088899912301300,2.30630126953125,-0.0252227783203125,0.5821533203125,0.2247467041015625
1757088899922256100,2.316256103515625,-0.01556396484375,0.566925048828125,0.27783203125
1757088899932211500,2.32621142578125,0.0229644775390625,0.5086212158203125,0.320831298828125
1757088899942165200,2.336165283203125,0.0967254638671875,0.4954833984375,0.316802978515625
1757088899952120300,2.346120361328125,0.1564788818359375,0.5182647705078125,0.2845916748046875
1757088899962075100,2.3560751953125,0.0598907470703125,0.45819091796875,0.2120361328125
1757088899972029200,2.366029296875,0.0072479248046875,0.4082183837890625,0.1044158935546875
1757088899981984300,2.375984375,0.0426483154296875,0.342529296875,-0.0053253173828125
1757088899991939300,2.385939208984375,-0.098388671875,0.27166748046875,-0.027008056640625
1757088900001893400,2.395893310546875,-0.140228271484375,0.3228759765625,0.0258331298828125
1757088900011848200,2.40584814453125,-0.169525146484375,0.7527313232421875,0.413482666015625
1757088900021803300,2.41580322265625,-0.30535888671875,1.3292388916015625,0.850311279296875
1757088900031757300,2.42575732421875,0.01611328125,2.2225341796875,0.6678314208984375
1757088900041712400,2.43571240234375,0.381927490234375,4.893463134765625,-0.79840087890625
1757088900051667200,2.445667236328125,0.511474609375,5.086883544921875,-0.602630615234375
1757088900061621200,2.455621337890625,0.0594940185546875,1.8380584716796875,0.767333984375
1757088900071576300,2.465576416015625,-0.0281982421875,0.707733154296875,0.6028594970703125
1757088900081531400,2.475531494140625,-0.0494384765625,0.349395751953125,0.0977630615234375
1757088900091485200,2.485485107421875,-0.059173583984375,0.2687225341796875,-0.1435699462890625
1757088900101440300,2.495440185546875,-0.077972412109375,0.488739013671875,-0.266937255859375
1757088900111395300,2.505395263671875,-0.0664520263671875,1.0404510498046875,-0.335845947265625
1757088900121349600,2.515349609375,0.00030517578125,1.53424072265625,-0.669525146484375
1757088900131304400,2.525304443359375,0.0327911376953125,1.3232269287109375,-1.27288818359375
1757088900141259500,2.535259521484375,0.0447540283203125,0.81243896484375,-1.2364044189453125
1757088900151213600,2.545213623046875,0.0012054443359375,0.7118072509765625,-0.400482177734375
1757088900161168600,2.555168701171875,-0.0579681396484375,0.863861083984375,-0.1076812744140625
1757088900171123500,2.56512353515625,0.0231475830078125,1.067962646484375,-0.1589202880859375
1757088900181077500,2.575077392578125,0.118621826171875,1.09161376953125,-0.10662841796875
1757088900191032600,2.585032470703125,0.1381683349609375,1.0052337646484375,-0.112335205078125
1757088900200987600,2.594987548828125,0.1191558837890625,0.937713623046875,-0.150726318359375
1757088900210941400,2.60494140625,0.098907470703125,0.9666900634765625,-0.223114013671875
1757088900220896500,2.614896484375,0.0754852294921875,0.98236083984375,-0.23345947265625
1757088900230851600,2.6248515625,0.0556640625,0.95599365234375,-0.23931884765625
1757088900240805600,2.6348056640625,0.05181884765625,0.929107666015625,-0.25604248046875
1757088900250760400,2.644760498046875,0.053619384765625,0.903076171875,-0.2620697021484375
1757088900260715500,2.654715576171875,0.05413818359375,0.903045654296875,-0.2662200927734375
1757088900270669600,2.664669677734375,0.0562286376953125,0.941375732421875,-0.290863037109375
1757088900280624600,2.674624755859375,0.05401611328125,0.970947265625,-0.294189453125
1757088900290578700,2.68457861328125,0.0431365966796875,0.991485595703125,-0.291717529296875
1757088900300533500,2.694533447265625,0.03192138671875,1.007110595703125,-0.301849365234375
1757088900310488600,2.704488525390625,0.0302276611328125,1.0030059814453125,-0.3217315673828125
1757088900320442400,2.7144423828125,0.029083251953125,0.9987640380859375,-0.354766845703125
1757088900330397700,2.724397705078125,0.0250091552734375,0.9900665283203125,-0.3706817626953125
1757088900340352500,2.7343525390625,0.01641845703125,0.9685211181640625,-0.3477325439453125
1757088900350306600,2.744306640625,0.0041351318359375,0.9676055908203125,-0.3447723388671875
1757088900360261400,2.754261474609375,-0.00994873046875,0.9712371826171875,-0.361907958984375
1757088900370216700,2.764216796875,-0.013519287109375,0.9744873046875,-0.329620361328125
1757088900380170500,2.77417041015625,-0.004791259765625,0.9822845458984375,-0.29278564453125
1757088900390125600,2.78412548828125,0.0124053955078125,0.9362640380859375,-0.28948974609375
1757088900400080400,2.794080322265625,0.0289764404296875,0.93975830078125,-0.2813568115234375
1757088900410034400,2.804034423828125,0.0384368896484375,0.9859161376953125,-0.28863525390625
1757088900419989500,2.813989501953125,0.0390472412109375,1.010650634765625,-0.294891357421875
1757088900429944600,2.823944580078125,0.0381011962890625,0.8794097900390625,-0.278961181640625
1757088900439898400,2.8338984375,0.039794921875,0.9477691650390625,-0.2559967041015625
1757088900449853400,2.843853515625,0.052703857421875,1.02899169921875,-0.2478179931640625
1757088900459808500,2.85380859375,0.0598297119140625,1.032440185546875,-0.2590789794921875
1757088900469762600,2.863762451171875,0.04693603515625,0.9485321044921875,-0.2491912841796875
1757088900479717400,2.87371728515625,0.034759521484375,0.954986572265625,-0.2259979248046875
1757088900489672400,2.88367236328125,0.030670166015625,0.97088623046875,-0.2355499267578125
1757088900499626800,2.893626708984375,0.02227783203125,0.9524383544921875,-0.2437744140625
1757088900509581600,2.90358154296875,0.0035552978515625,0.9534454345703125,-0.2627716064453125
1757088900519536400,2.913536376953125,-0.001434326171875,0.9399871826171875,-0.280731201171875
1757088900529490400,2.923490478515625,-0.004791259765625,0.9392547607421875,-0.30419921875
1757088900539445800,2.93344580078125,-0.005889892578125,0.9299468994140625,-0.335357666015625
1757088900549400600,2.943400634765625,0.010345458984375,0.9188690185546875,-0.3410186767578125
1757088900559354600,2.953354736328125,0.0331573486328125,0.9192962646484375,-0.3349761962890625
1757088900569309400,2.963309326171875,0.0547637939453125,0.9238433837890625,-0.32830810546875
1757088900579264800,2.9732646484375,0.073577880859375,0.925445556640625,-0.329925537109375
1757088900589218600,2.983218505859375,0.09222412109375,0.9230194091796875,-0.328643798828125
1757088900599173600,2.993173583984375,0.103668212890625,0.925201416015625,-0.321258544921875
1757088900609127400,3.00312744140625,0.1051177978515625,0.931121826171875,-0.320770263671875
1757088900619082500,3.01308251953125,0.09283447265625,0.9358978271484375,-0.32171630859375
1757088900629037600,3.02303759765625,0.0878143310546875,0.944000244140625,-0.309356689453125
1757088900638991600,3.03299169921875,0.0800933837890625,0.960662841796875,-0.2915802001953125
1757088900648946400,3.042946533203125,0.067626953125,0.982940673828125,-0.286041259765625
1757088900658901500,3.052901611328125,0.046234130859375,0.9915618896484375,-0.2849273681640625
1757088900668855600,3.06285546875,0.0172882080078125,0.9932861328125,-0.2795257568359375
1757088900678810600,3.072810546875,0.009918212890625,0.9906768798828125,-0.266021728515625
1757088900688765400,3.082765380859375,0.0041046142578125,0.992279052734375,-0.2729949951171875
1757088900698719500,3.092719482421875,0.015777587890625,0.996124267578125,-0.253631591796875
1757088900708674300,3.10267431640625,0.0254974365234375,0.9958038330078125,-0.247802734375
1757088900718629600,3.112629638671875,0.0229949951171875,1.00384521484375,-0.2540130615234375
1757088900728583700,3.122583740234375,0.0285491943359375,1.0047454833984375,-0.2498321533203125
1757088900738538500,3.13253857421875,0.04241943359375,0.9845123291015625,-0.2740478515625
1757088900748493300,3.142493408203125,0.0645294189453125,0.9388427734375,-0.3120880126953125
1757088900758447600,3.152447509765625,0.07501220703125,0.92596435546875,-0.345550537109375
1757088900768402700,3.162402587890625,0.060882568359375,0.935455322265625,-0.2969207763671875
1757088900778357500,3.172357421875,0.053466796875,0.9397735595703125,-0.261932373046875
1757088900788311600,3.1823115234375,0.045379638671875,0.9498443603515625,-0.237152099609375
1757088900798266600,3.1922666015625,0.0319671630859375,0.967193603515625,-0.2069091796875
1757088900808221700,3.2022216796875,0.0151214599609375,0.97564697265625,-0.184234619140625
1757088900818175500,3.212175537109375,0.0163116455078125,0.980499267578125,-0.172943115234375
1757088900828130600,3.222130615234375,0.02716064453125,0.97125244140625,-0.1709747314453125
1757088900838085600,3.232085693359375,0.01641845703125,0.9628143310546875,-0.1907958984375
1757088900848039700,3.242039794921875,0.0033111572265625,0.9651031494140625,-0.211181640625
1757088900857994500,3.251994384765625,-0.002838134765625,0.984344482421875,-0.2282562255859375
1757088900867948500,3.261948486328125,-0.0000762939453125,0.9892425537109375,-0.2229156494140625
1757088900877903400,3.2719033203125,0.0048675537109375,0.9898681640625,-0.2259521484375
1757088900887858700,3.281858642578125,0.0267333984375,0.9915771484375,-0.228729248046875
1757088900897812500,3.2918125,0.04998779296875,0.9884033203125,-0.21099853515625
1757088900907767600,3.301767578125,0.0508575439453125,0.9874725341796875,-0.1985015869140625
1757088900917722400,3.311722412109375,0.04827880859375,1.008026123046875,-0.17864990234375
1757088900927676400,3.321676513671875,0.0449066162109375,1.0001373291015625,-0.181549072265625
1757088900937631500,3.331631591796875,0.0384521484375,0.99102783203125,-0.2201995849609375
1757088900947586600,3.341586669921875,0.0379180908203125,0.988677978515625,-0.2311859130859375
1757088900957540600,3.35154052734375,0.0479736328125,0.9773101806640625,-0.2536773681640625
1757088900967495400,3.361495361328125,0.0653839111328125,0.957122802734375,-0.292572021484375
1757088900977450500,3.371450439453125,0.0663909912109375,0.9434356689453125,-0.318572998046875
1757088900987404500,3.381404541015625,0.0656585693359375,0.947418212890625,-0.31695556640625
1757088900997359600,3.391359619140625,0.071258544921875,0.952117919921875,-0.3116607666015625
1757088901007314400,3.401314453125,0.0819549560546875,0.960662841796875,-0.3202667236328125
1757088901017268500,3.4112685546875,0.0780029296875,0.9500885009765625,-0.31634521484375
1757088901027223600,3.4212236328125,0.0653076171875,0.9517822265625,-0.3131866455078125
1757088901037178600,3.4311787109375,0.0530242919921875,0.956634521484375,-0.3187713623046875
1757088901047132400,3.44113232421875,0.0520477294921875,0.9333648681640625,-0.3363800048828125
1757088901057087500,3.45108740234375,0.0483856201171875,0.923797607421875,-0.33905029296875
1757088901067042600,3.46104248046875,0.0393524169921875,0.932769775390625,-0.3388214111328125
1757088901076996600,3.47099658203125,0.0372161865234375,0.9499359130859375,-0.3374176025390625
1757088901086951400,3.480951416015625,0.0387725830078125,0.9527587890625,-0.3280181884765625
1757088901096905500,3.490905517578125,0.039947509765625,0.9564666748046875,-0.3229827880859375
1757088901106860500,3.500860595703125,0.053802490234375,0.95623779296875,-0.2974853515625
1757088901116815600,3.510815673828125,0.0607757568359375,0.9598236083984375,-0.2792510986328125
1757088901126769400,3.520769287109375,0.0556640625,0.961822509765625,-0.2739715576171875
1757088901136724500,3.530724365234375,0.0500030517578125,0.96209716796875,-0.2774200439453125
1757088901146679300,3.54067919921875,0.040130615234375,0.9605712890625,-0.2686767578125
1757088901156633300,3.55063330078125,0.0329742431640625,0.960479736328125,-0.251312255859375
1757088901166588400,3.56058837890625,0.0286407470703125,0.961334228515625,-0.2277069091796875
1757088901176543500,3.57054345703125,0.03155517578125,0.96710205078125,-0.2088165283203125
1757088901186497500,3.58049755859375,0.038330078125,0.972320556640625,-0.2039031982421875
1757088901196452400,3.590452392578125,0.0384063720703125,0.970306396484375,-0.2161865234375
1757088901206407400,3.600407470703125,0.0432586669921875,0.9631805419921875,-0.2329559326171875
1757088901216361500,3.610361572265625,0.0452117919921875,0.964385986328125,-0.2519073486328125
1757088901226316500,3.620316650390625,0.04571533203125,0.970458984375,-0.2646484375
1757088901236271400,3.630271240234375,0.050567626953125,0.9768218994140625,-0.2716827392578125
1757088901246225400,3.640225341796875,0.0557403564453125,0.983367919921875,-0.2771759033203125
1757088901256180500,3.650180419921875,0.0561676025390625,0.984832763671875,-0.2852630615234375
1757088901266135600,3.660135498046875,0.05328369140625,0.979278564453125,-0.299468994140625
1757088901276089300,3.67008935546875,0.0514984130859375,0.97027587890625,-0.316192626953125
1757088901286044400,3.68004443359375,0.0467529296875,0.9625091552734375,-0.3288421630859375
1757088901295999500,3.68999951171875,0.044158935546875,0.95697021484375,-0.3253326416015625
1757088901305953500,3.69995361328125,0.0426025390625,0.9538421630859375,-0.317901611328125
1757088901315908400,3.709908447265625,0.045501708984375,0.947296142578125,-0.3060302734375
1757088901325863400,3.719863525390625,0.0526123046875,0.93798828125,-0.294830322265625
1757088901335817200,3.729817138671875,0.06243896484375,0.933685302734375,-0.28326416015625
1757088901345772500,3.7397724609375,0.074737548828125,0.932708740234375,-0.271881103515625
1757088901355726600,3.7497265625,0.0857391357421875,0.9343414306640625,-0.2606201171875
1757088901365681400,3.759681396484375,0.0933074951171875,0.9397125244140625,-0.2488250732421875
1757088901375636200,3.76963623046875,0.0975799560546875,0.9495849609375,-0.236236572265625
1757088901385590300,3.77959033203125,0.1043243408203125,0.9589385986328125,-0.227630615234375
1757088901395545600,3.789545654296875,0.109161376953125,0.9691925048828125,-0.21771240234375
1757088901405500400,3.79950048828125,0.1149139404296875,0.9734039306640625,-0.2072601318359375
1757088901415454500,3.809454345703125,0.1231842041015625,0.9765167236328125,-0.199859619140625
1757088901425409300,3.8194091796875,0.124908447265625,0.9772491455078125,-0.1971282958984375
1757088901435364600,3.829364501953125,0.124298095703125,0.9780120849609375,-0.2041473388671875
1757088901445318400,3.839318359375,0.12353515625,0.9771575927734375,-0.2155914306640625
1757088901455273500,3.8492734375,0.120361328125,0.9752960205078125,-0.228424072265625
1757088901465228300,3.859228271484375,0.1138916015625,0.9701080322265625,-0.2423095703125
1757088901475182300,3.869182373046875,0.106170654296875,0.9632415771484375,-0.2541961669921875
1757088901485137400,3.879137451171875,0.0971221923828125,0.958465576171875,-0.2658843994140625
1757088901495092500,3.889092529296875,0.091339111328125,0.9544677734375,-0.27569580078125
1757088901505046300,3.89904638671875,0.093597412109375,0.9539794921875,-0.280914306640625
1757088901515001300,3.90900146484375,0.0970611572265625,0.95623779296875,-0.282867431640625
1757088901524956400,3.918956298828125,0.1004486083984375,0.956024169921875,-0.282958984375
1757088901534910500,3.928910400390625,0.099395751953125,0.9576873779296875,-0.2852325439453125
1757088901544865300,3.938865234375,0.0994415283203125,0.958404541015625,-0.2841949462890625
1757088901554820400,3.9488203125,0.101898193359375,0.9545135498046875,-0.280853271484375
1757088901564774400,3.9587744140625,0.104583740234375,0.9582672119140625,-0.27301025390625
1757088901574729500,3.9687294921875,0.1071624755859375,0.96063232421875,-0.2664031982421875
1757088901584683500,3.97868359375,0.11090087890625,0.961090087890625,-0.25848388671875
1757088901594638300,3.988638427734375,0.1103668212890625,0.9640655517578125,-0.24774169921875
1757088901604593400,3.998593505859375,0.11090087890625,0.9677734375,-0.2398529052734375
1757088901614547500,4.00854736328125,0.113189697265625,0.972442626953125,-0.2358551025390625
1757088901624502500,4.01850244140625,0.11517333984375,0.971160888671875,-0.233612060546875
1757088901634457300,4.028457275390625,0.1133575439453125,0.9694976806640625,-0.2320404052734375
1757088901644411400,4.038411376953125,0.109588623046875,0.9698638916015625,-0.23492431640625
1757088901654366500,4.048366455078125,0.108642578125,0.968780517578125,-0.2413330078125
1757088901664321500,4.058321533203125,0.107086181640625,0.9666748046875,-0.2470703125
1757088901674275300,4.068275390625,0.10498046875,0.960662841796875,-0.2518310546875
1757088901684230400,4.07823046875,0.10394287109375,0.9573211669921875,-0.259368896484375
1757088901694185500,4.088185546875,0.1045989990234375,0.957611083984375,-0.26605224609375
1757088901704139500,4.098139404296875,0.101470947265625,0.95916748046875,-0.2711181640625
1757088901714094300,4.10809423828125,0.09783935546875,0.9627838134765625,-0.2753753662109375
1757088901724049400,4.11804931640625,0.0947723388671875,0.9638519287109375,-0.2791900634765625
1757088901734003200,4.128003173828125,0.09423828125,0.962554931640625,-0.2819061279296875
1757088901743958500,4.13795849609375,0.096435546875,0.9634857177734375,-0.282012939453125
1757088901753913300,4.147913330078125,0.102294921875,0.96478271484375,-0.2774200439453125
1757088901763867400,4.157867431640625,0.105682373046875,0.966522216796875,-0.2731170654296875
1757088901773822200,4.167822265625,0.1035919189453125,0.9656829833984375,-0.267181396484375
1757088901783776500,4.177776611328125,0.1016693115234375,0.9663238525390625,-0.2618408203125
1757088901793731300,4.1877314453125,0.099884033203125,0.9633941650390625,-0.2544403076171875
1757088901803686400,4.197686279296875,0.0970458984375,0.9613800048828125,-0.249359130859375
1757088901813640400,4.207640380859375,0.0990142822265625,0.9643402099609375,-0.2464447021484375
1757088901823595500,4.217595458984375,0.1020355224609375,0.967803955078125,-0.2423858642578125
1757088901833550300,4.22755029296875,0.106781005859375,0.9736480712890625,-0.23992919921875
1757088901843504400,4.23750439453125,0.1095428466796875,0.971099853515625,-0.235870361328125
1757088901853459500,4.24745947265625,0.1126708984375,0.9679718017578125,-0.234771728515625
1757088901863414500,4.25741455078125,0.1136627197265625,0.96307373046875,-0.2303924560546875
1757088901873368600,4.26736865234375,0.11456298828125,0.959503173828125,-0.2311859130859375
1757088901883323400,4.277323486328125,0.1054840087890625,0.956695556640625,-0.2481536865234375
1757088901893278500,4.287278564453125,0.1060333251953125,0.954681396484375,-0.240386962890625
1757088901903232300,4.297232177734375,0.107940673828125,0.9568634033203125,-0.24169921875
1757088901913187600,4.3071875,0.107391357421875,0.960540771484375,-0.230499267578125
1757088901923142400,4.317142333984375,0.1036834716796875,0.967498779296875,-0.2336883544921875
1757088901933096400,4.327096435546875,0.1035614013671875,0.967987060546875,-0.2381744384765625
1757088901943051300,4.33705126953125,0.1052703857421875,0.969635009765625,-0.23358154296875
1757088901953005300,4.34700537109375,0.10400390625,0.9684600830078125,-0.2356414794921875
1757088901962960400,4.35696044921875,0.1015167236328125,0.9675445556640625,-0.23834228515625
1757088901972915500,4.36691552734375,0.1005706787109375,0.96392822265625,-0.243621826171875
1757088901982869500,4.376869384765625,0.103057861328125,0.96002197265625,-0.248626708984375
1757088901992824300,4.38682421875,0.1094207763671875,0.95965576171875,-0.2534332275390625
1757088902002779400,4.396779296875,0.111785888671875,0.9602203369140625,-0.255889892578125
1757088902012733400,4.4067333984375,0.112060546875,0.9629364013671875,-0.259185791015625
1757088902022688500,4.4166884765625,0.1093902587890625,0.9650115966796875,-0.2623138427734375
1757088902032643300,4.426643310546875,0.10418701171875,0.9672698974609375,-0.265289306640625
1757088902042597400,4.436597412109375,0.0999298095703125,0.96563720703125,-0.2663421630859375
1757088902052552400,4.446552490234375,0.093719482421875,0.96099853515625,-0.266082763671875
1757088902062507300,4.45650732421875,0.09356689453125,0.9575958251953125,-0.26434326171875
1757088902072461300,4.46646142578125,0.097503662109375,0.953826904296875,-0.2659912109375
1757088902082416400,4.47641650390625,0.098052978515625,0.950927734375,-0.2675018310546875
1757088902092371500,4.486371337890625,0.0995025634765625,0.952056884765625,-0.267181396484375
1757088902102325500,4.496325439453125,0.1028900146484375,0.9569854736328125,-0.2671966552734375
1757088902112280300,4.5062802734375,0.107208251953125,0.9625701904296875,-0.2691497802734375
1757088902122235600,4.516235595703125,0.1083221435546875,0.9668426513671875,-0.269287109375
1757088902132189400,4.526189453125,0.10784912109375,0.9695892333984375,-0.263275146484375
1757088902142144500,4.53614453125,0.1075286865234375,0.9669189453125,-0.2564849853515625
1757088902152098300,4.546098388671875,0.1060333251953125,0.964141845703125,-0.252044677734375
1757088902162053600,4.5560537109375,0.110504150390625,0.9605865478515625,-0.2495880126953125
1757088902172008400,4.566008544921875,0.11297607421875,0.9565582275390625,-0.24603271484375
1757088902181962500,4.57596240234375,0.1114501953125,0.954498291015625,-0.2426605224609375
1757088902191917300,4.585917236328125,0.11102294921875,0.95562744140625,-0.2400054931640625
1757088902201872600,4.59587255859375,0.1141510009765625,0.9578857421875,-0.2411041259765625
1757088902211826700,4.60582666015625,0.11383056640625,0.9600677490234375,-0.2425384521484375
1757088902221781500,4.615781494140625,0.1103363037109375,0.9625701904296875,-0.2457275390625
1757088902231736300,4.625736328125,0.1078338623046875,0.9638824462890625,-0.2483367919921875
1757088902241690600,4.635690673828125,0.1047821044921875,0.966949462890625,-0.2498321533203125
1757088902251645400,4.6456455078125,0.1005859375,0.9660491943359375,-0.2478790283203125
1757088902261600500,4.6556005859375,0.096466064453125,0.9659423828125,-0.245880126953125
1757088902271554600,4.665554443359375,0.0938720703125,0.9646759033203125,-0.2457122802734375
1757088902281509600,4.675509521484375,0.0917816162109375,0.9615325927734375,-0.2491302490234375
1757088902291464400,4.68546435546875,0.092498779296875,0.9593658447265625,-0.2547149658203125
1757088902301418500,4.69541845703125,0.0957183837890625,0.9560394287109375,-0.25775146484375
1757088902311373600,4.70537353515625,0.098419189453125,0.956634521484375,-0.2609405517578125
1757088902321327400,4.715327392578125,0.1030731201171875,0.95782470703125,-0.26409912109375
1757088902331282700,4.72528271484375,0.1083221435546875,0.9594879150390625,-0.2662506103515625
1757088902341237500,4.735237548828125,0.1132049560546875,0.9636993408203125,-0.26318359375
1757088902351191600,4.745191650390625,0.114288330078125,0.9658355712890625,-0.259613037109375
1757088902361146400,4.755146484375,0.113800048828125,0.9671783447265625,-0.2583770751953125
1757088902371101700,4.765101806640625,0.1074981689453125,0.965972900390625,-0.261016845703125
1757088902381055500,4.775055419921875,0.101287841796875,0.9613800048828125,-0.264801025390625
1757088902391010600,4.785010498046875,0.101776123046875,0.9583740234375,-0.265380859375
1757088902400965400,4.79496533203125,0.1022796630859375,0.9612884521484375,-0.2623138427734375
1757088902410919400,4.80491943359375,0.104736328125,0.962982177734375,-0.258941650390625
1757088902420874500,4.81487451171875,0.1064910888671875,0.961273193359375,-0.2537994384765625
1757088902430829600,4.82482958984375,0.107635498046875,0.9620361328125,-0.2465667724609375
1757088902440783600,4.83478369140625,0.10760498046875,0.965667724609375,-0.2418670654296875
1757088902450738400,4.844738525390625,0.1078643798828125,0.9658203125,-0.2410736083984375
1757088902460692700,4.854692626953125,0.1114654541015625,0.96636962890625,-0.240386962890625
1757088902470647600,4.8646474609375,0.111236572265625,0.96575927734375,-0.24017333984375
1757088902480602600,4.8746025390625,0.113494873046875,0.9666290283203125,-0.240234375
1757088902490556400,4.884556396484375,0.113739013671875,0.9662322998046875,-0.240997314453125
1757088902500511700,4.89451171875,0.1128997802734375,0.9654083251953125,-0.242767333984375
1757088902510466600,4.904466552734375,0.111083984375,0.9656829833984375,-0.245391845703125
1757088902520420600,4.914420654296875,0.1090240478515625,0.96246337890625,-0.24932861328125
1757088902530375400,4.92437548828125,0.1067352294921875,0.961700439453125,-0.253082275390625
1757088902540330800,4.934330810546875,0.1021881103515625,0.958831787109375,-0.2552642822265625
1757088902550284500,4.944284423828125,0.1013336181640625,0.9598541259765625,-0.25494384765625
1757088902560239600,4.954239501953125,0.1011810302734375,0.9613494873046875,-0.254852294921875
1757088902570194400,4.9641943359375,0.1036834716796875,0.9634857177734375,-0.2535247802734375
1757088902580148500,4.9741484375,0.1058807373046875,0.9629974365234375,-0.2523651123046875
1757088902590103600,4.984103515625,0.108184814453125,0.9657135009765625,-0.2534942626953125
1757088902600058600,4.99405859375,0.1061248779296875,0.9686279296875,-0.25555419921875
1757088902610012400,5.004012451171875,0.1011810302734375,0.969879150390625,-0.2577362060546875
1757088902619967500,5.013967529296875,0.0952301025390625,0.97113037109375,-0.2560577392578125
1757088902629921500,5.023921630859375,0.0921478271484375,0.97235107421875,-0.255828857421875
1757088902639876600,5.033876708984375,0.08984375,0.97161865234375,-0.2566375732421875
1757088902649831400,5.04383154296875,0.09051513671875,0.96966552734375,-0.258697509765625
1757088902659785500,5.053785400390625,0.09539794921875,0.9648895263671875,-0.25653076171875
1757088902669740500,5.063740478515625,0.0994110107421875,0.9616851806640625,-0.25750732421875
1757088902679695600,5.073695556640625,0.102630615234375,0.9589691162109375,-0.2578582763671875
1757088902689649700,5.083649658203125,0.10443115234375,0.9586944580078125,-0.2586517333984375
1757088902699604500,5.0936044921875,0.1024932861328125,0.9596405029296875,-0.2608642578125
1757088902709559600,5.1035595703125,0.0958251953125,0.9607391357421875,-0.261199951171875
1757088902719513300,5.113513427734375,0.0929718017578125,0.9614105224609375,-0.2613983154296875
1757088902729468700,5.12346875,0.0919952392578125,0.96209716796875,-0.26263427734375
1757088902739423500,5.133423583984375,0.094451904296875,0.963165283203125,-0.262298583984375
1757088902749377500,5.14337744140625,0.0966949462890625,0.9655303955078125,-0.259368896484375
1757088902759332400,5.153332275390625,0.102142333984375,0.966217041015625,-0.25408935546875
1757088902769287700,5.16328759765625,0.1045684814453125,0.9658355712890625,-0.251495361328125
1757088902779241500,5.173241455078125,0.104522705078125,0.965087890625,-0.251007080078125
1757088902789196500,5.183196533203125,0.1016998291015625,0.963226318359375,-0.2514801025390625
1757088902799150600,5.193150634765625,0.1002655029296875,0.9626922607421875,-0.256591796875
1757088902809105700,5.203105712890625,0.1019744873046875,0.96099853515625,-0.2638092041015625
1757088902819060500,5.213060546875,0.107421875,0.96142578125,-0.2674713134765625
1757088902829014500,5.2230146484375,0.11138916015625,0.96173095703125,-0.268951416015625
1757088902838969300,5.23296923828125,0.1156463623046875,0.96246337890625,-0.270721435546875
1757088902848924700,5.242924560546875,0.118621826171875,0.9616241455078125,-0.2678070068359375
1757088902858878700,5.252878662109375,0.1199188232421875,0.9597625732421875,-0.2639007568359375
1757088902868833500,5.26283349609375,0.11871337890625,0.9607391357421875,-0.2628021240234375
1757088902878788400,5.272788330078125,0.1156158447265625,0.961700439453125,-0.2667083740234375
1757088902888742400,5.282742431640625,0.11395263671875,0.9600830078125,-0.271148681640625
1757088902898697700,5.29269775390625,0.1124267578125,0.957733154296875,-0.273193359375
1757088902908652500,5.302652587890625,0.111602783203125,0.9598388671875,-0.27374267578125
1757088902918606600,5.312606689453125,0.1123809814453125,0.960845947265625,-0.27105712890625
1757088902928561400,5.3225615234375,0.1081390380859375,0.959716796875,-0.26593017578125
1757088902938515500,5.332515380859375,0.1055145263671875,0.959136962890625,-0.262725830078125
1757088902948470500,5.342470458984375,0.10003662109375,0.95806884765625,-0.2596282958984375
1757088902958425600,5.352425537109375,0.100372314453125,0.9582061767578125,-0.2564544677734375
1757088902968379400,5.36237939453125,0.10113525390625,0.958984375,-0.253814697265625
1757088902978334500,5.37233447265625,0.10113525390625,0.9603424072265625,-0.25067138671875
1757088902988289500,5.38228955078125,0.0996551513671875,0.9583587646484375,-0.2520904541015625
1757088902998243600,5.39224365234375,0.1003265380859375,0.957489013671875,-0.254364013671875
1757088903008198400,5.402198486328125,0.1046142578125,0.95849609375,-0.257568359375
1757088903018153500,5.412153564453125,0.1085968017578125,0.963287353515625,-0.2564239501953125
1757088903028107500,5.422107421875,0.1155548095703125,0.9645233154296875,-0.24810791015625
1757088903038062600,5.4320625,0.1113128662109375,0.9650726318359375,-0.2652130126953125
1757088903048017400,5.442017333984375,0.10626220703125,0.96063232421875,-0.2548675537109375
1757088903057971500,5.451971435546875,0.1114349365234375,0.96563720703125,-0.2532958984375
1757088903067926500,5.461926513671875,0.11138916015625,0.962982177734375,-0.2538909912109375
1757088903077880600,5.471880615234375,0.109039306640625,0.96240234375,-0.2526397705078125
1757088903087835600,5.481835693359375,0.10980224609375,0.960906982421875,-0.2518157958984375
1757088903097790500,5.49179052734375,0.1092987060546875,0.9621734619140625,-0.250579833984375
1757088903107744500,5.50174462890625,0.1096954345703125,0.9630279541015625,-0.250518798828125
1757088903117699600,5.511699462890625,0.1096954345703125,0.962646484375,-0.2491912841796875
1757088903127653600,5.521653564453125,0.1085968017578125,0.9614715576171875,-0.2485809326171875
1757088903137607700,5.531607666015625,0.1092376708984375,0.959930419921875,-0.2483062744140625
1757088903147562500,5.5415625,0.1068267822265625,0.962432861328125,-0.2500152587890625
1757088903157517300,5.551517333984375,0.10333251953125,0.96551513671875,-0.2508392333984375
1757088903167471600,5.5614716796875,0.1065216064453125,0.962677001953125,-0.249420166015625
1757088903177426700,5.5714267578125,0.10516357421875,0.9645843505859375,-0.2526397705078125
1757088903187381500,5.581381591796875,0.1044769287109375,0.964141845703125,-0.253631591796875
1757088903197335600,5.59133544921875,0.1049652099609375,0.9642333984375,-0.254241943359375
1757088903207290600,5.60129052734375,0.1044769287109375,0.9624176025390625,-0.256439208984375
1757088903217244700,5.61124462890625,0.1029052734375,0.9589996337890625,-0.2574920654296875
1757088903227199500,5.621199462890625,0.09893798828125,0.95831298828125,-0.261138916015625
1757088903237154600,5.631154541015625,0.099822998046875,0.953033447265625,-0.264007568359375
1757088903247108400,5.6411083984375,0.101409912109375,0.9535980224609375,-0.2659759521484375
1757088903257063700,5.651063720703125,0.0998077392578125,0.9564208984375,-0.2654571533203125
1757088903267018500,5.6610185546875,0.1031646728515625,0.9597015380859375,-0.263885498046875
1757088903276972500,5.67097265625,0.104034423828125,0.959075927734375,-0.2617645263671875
1757088903286927400,5.68092724609375,0.10113525390625,0.96099853515625,-0.2581634521484375
1757088903296882700,5.690882568359375,0.101409912109375,0.9613189697265625,-0.2590789794921875
1757088903306836500,5.70083642578125,0.103118896484375,0.9635772705078125,-0.2618560791015625
1757088903316791600,5.71079150390625,0.1028900146484375,0.963287353515625,-0.260955810546875
1757088903326746400,5.720746337890625,0.1024017333984375,0.96075439453125,-0.2634735107421875
1757088903336700400,5.730700439453125,0.1002349853515625,0.9588623046875,-0.261962890625
1757088903346655500,5.740655517578125,0.1014251708984375,0.959503173828125,-0.2596588134765625
1757088903356609500,5.750609619140625,0.1080780029296875,0.9608306884765625,-0.257659912109375
1757088903366564600,5.760564697265625,0.1115875244140625,0.9616546630859375,-0.257232666015625
1757088903376519400,5.77051953125,0.1100616455078125,0.961761474609375,-0.2572479248046875
1757088903386473500,5.780473388671875,0.1088104248046875,0.9628753662109375,-0.258148193359375
1757088903396428500,5.790428466796875,0.1068267822265625,0.963653564453125,-0.2600250244140625
1757088903406383600,5.800383544921875,0.1049041748046875,0.963348388671875,-0.261383056640625
1757088903416337400,5.81033740234375,0.1043701171875,0.9622650146484375,-0.2629852294921875
1757088903426292500,5.82029248046875,0.1045379638671875,0.9630126953125,-0.2619781494140625
1757088903436247600,5.83024755859375,0.1065826416015625,0.962554931640625,-0.2615509033203125
1757088903446201600,5.84020166015625,0.107574462890625,0.9629364013671875,-0.260284423828125
1757088903456156400,5.850156494140625,0.1031646728515625,0.9601593017578125,-0.2599334716796875
1757088903466111500,5.860111572265625,0.0993499755859375,0.9581298828125,-0.2614288330078125
1757088903476065500,5.8700654296875,0.0987396240234375,0.957733154296875,-0.2655181884765625
1757088903486020600,5.8800205078125,0.09735107421875,0.956512451171875,-0.2659454345703125
1757088903495974700,5.889974609375,0.097412109375,0.95611572265625,-0.2637939453125
1757088903505929500,5.899929443359375,0.101348876953125,0.956268310546875,-0.2582244873046875
1757088903515884500,5.909884521484375,0.106658935546875,0.95849609375,-0.255157470703125
1757088903525838600,5.919838623046875,0.110992431640625,0.9637298583984375,-0.251922607421875
1757088903535793700,5.929793701171875,0.1135101318359375,0.966278076171875,-0.2505035400390625
1757088903545748500,5.93974853515625,0.11346435546875,0.9658203125,-0.2534027099609375
1757088903555702500,5.94970263671875,0.1118927001953125,0.9643707275390625,-0.2568817138671875
1757088903565657600,5.95965771484375,0.109161376953125,0.9616851806640625,-0.2566070556640625
1757088903575612700,5.96961279296875,0.1085052490234375,0.9595489501953125,-0.2579498291015625
1757088903585566500,5.97956640625,0.109771728515625,0.957427978515625,-0.25872802734375
1757088903595521500,5.989521484375,0.114044189453125,0.9553070068359375,-0.261688232421875
1757088903605476600,5.9994765625,0.1145782470703125,0.9588165283203125,-0.260498046875
1757088903615430700,6.0094306640625,0.1165313720703125,0.9570159912109375,-0.26068115234375
1757088903625385500,6.019385498046875,0.1176300048828125,0.9570159912109375,-0.2612762451171875
1757088903635339500,6.029339599609375,0.114654541015625,0.9563446044921875,-0.2606658935546875
1757088903645294300,6.03929443359375,0.111328125,0.95697021484375,-0.2602691650390625
1757088903655249700,6.049249755859375,0.110382080078125,0.95587158203125,-0.2604827880859375
1757088903665203500,6.059203369140625,0.110321044921875,0.9597625732421875,-0.257965087890625
1757088903675158500,6.069158447265625,0.114349365234375,0.9637298583984375,-0.2559356689453125
1757088903685113300,6.07911328125,0.11492919921875,0.9666900634765625,-0.2551727294921875
1757088903695067600,6.089067626953125,0.1152496337890625,0.96832275390625,-0.25531005859375
1757088903705022500,6.0990224609375,0.114105224609375,0.967376708984375,-0.25396728515625
1757088903714977500,6.1089775390625,0.1120147705078125,0.962554931640625,-0.251373291015625
1757088903724931600,6.118931640625,0.1082305908203125,0.9593963623046875,-0.2484283447265625
1757088903734886700,6.12888671875,0.1012725830078125,0.9570465087890625,-0.252685546875
1757088903744840700,6.1388408203125,0.097259521484375,0.957611083984375,-0.2566070556640625
1757088903754795500,6.14879541015625,0.0980377197265625,0.9608001708984375,-0.25653076171875
1757088903764750600,6.15875048828125,0.0999603271484375,0.9613189697265625,-0.2543487548828125
1757088903774704400,6.168704345703125,0.1014556884765625,0.96240234375,-0.2535858154296875
1757088903784659700,6.17865966796875,0.1027984619140625,0.96453857421875,-0.25244140625
1757088903794614500,6.188614501953125,0.100860595703125,0.96563720703125,-0.25592041015625
1757088903804568600,6.198568603515625,0.098419189453125,0.9667510986328125,-0.2590789794921875
1757088903814523400,6.2085234375,0.09478759765625,0.9667816162109375,-0.2617340087890625
1757088903824478700,6.218478759765625,0.092864990234375,0.9662322998046875,-0.2666168212890625
1757088903834432500,6.2284326171875,0.09490966796875,0.9666748046875,-0.2690887451171875
1757088903844387600,6.2383876953125,0.09442138671875,0.967926025390625,-0.2663421630859375
1757088903854342400,6.24834228515625,0.0924835205078125,0.96881103515625,-0.2608642578125
1757088903864296400,6.25829638671875,0.08697509765625,0.96527099609375,-0.258148193359375
1757088903874251500,6.26825146484375,0.0784454345703125,0.96240234375,-0.256072998046875
1757088903884205600,6.27820556640625,0.074493408203125,0.95721435546875,-0.25506591796875
1757088903894160400,6.288160400390625,0.0756683349609375,0.95556640625,-0.2563323974609375
1757088903904115500,6.298115478515625,0.0793609619140625,0.9556884765625,-0.255859375
1757088903914069500,6.308069580078125,0.0866241455078125,0.9554290771484375,-0.2520294189453125
1757088903924024600,6.318024658203125,0.0948028564453125,0.9550933837890625,-0.242919921875
1757088903933979400,6.3279794921875,0.0988006591796875,0.9582672119140625,-0.2362213134765625
1757088903943933400,6.337933349609375,0.0998992919921875,0.9615631103515625,-0.233245849609375
1757088903953888500,6.347888427734375,0.0994720458984375,0.9648284912109375,-0.2320709228515625
1757088903963843600,6.357843505859375,0.0937347412109375,0.9658966064453125,-0.2373504638671875
1757088903973797600,6.367797607421875,0.0914764404296875,0.9680328369140625,-0.2385406494140625
1757088903983752400,6.37775244140625,0.0973052978515625,0.9707794189453125,-0.2418212890625
1757088903993707500,6.38770751953125,0.101287841796875,0.974212646484375,-0.2467803955078125
1757088904003661600,6.39766162109375,0.104583740234375,0.9749908447265625,-0.2454681396484375
1757088904013616600,6.40761669921875,0.1046905517578125,0.9720458984375,-0.2436981201171875
1757088904023570400,6.4175703125,0.0978546142578125,0.968292236328125,-0.2439727783203125
1757088904033525500,6.427525390625,0.089691162109375,0.9635162353515625,-0.24871826171875
1757088904043480600,6.43748046875,0.0896453857421875,0.961273193359375,-0.2561187744140625
1757088904053434600,6.4474345703125,0.0918731689453125,0.9580230712890625,-0.2648468017578125
1757088904063389400,6.457389404296875,0.0945281982421875,0.9536285400390625,-0.2742767333984375
1757088904073344500,6.467344482421875,0.0997314453125,0.94891357421875,-0.2823028564453125
1757088904083298600,6.477298583984375,0.1023712158203125,0.948883056640625,-0.2919921875
1757088904093253600,6.487253662109375,0.1029510498046875,0.9493560791015625,-0.2904052734375
1757088904103208400,6.49720849609375,0.1038970947265625,0.9511871337890625,-0.285614013671875
1757088904113162500,6.50716259765625,0.09912109375,0.9420928955078125,-0.27392578125
1757088904123118600,6.51711865234375,0.0938873291015625,0.926788330078125,-0.258575439453125
1757088904133073700,6.52707373046875,0.09527587890625,0.9140777587890625,-0.2487945556640625
1757088904143027500,6.53702734375,0.1002349853515625,0.9031219482421875,-0.2375946044921875
1757088904152982500,6.546982421875,0.10931396484375,0.89691162109375,-0.2230377197265625
1757088904162936600,6.5569365234375,0.1238861083984375,0.9071044921875,-0.2100982666015625
1757088904172891600,6.5668916015625,0.14208984375,0.9365234375,-0.20587158203125
1757088904182846500,6.576846435546875,0.147796630859375,0.976165771484375,-0.19696044921875
1757088904192800500,6.586800537109375,0.13885498046875,1.0169677734375,-0.1802215576171875
1757088904202755300,6.59675537109375,0.13226318359375,1.05029296875,-0.159576416015625
1757088904212710700,6.606710693359375,0.128082275390625,1.0685577392578125,-0.1540679931640625
1757088904222664700,6.616664794921875,0.12213134765625,1.061309814453125,-0.1421661376953125
1757088904232619500,6.62661962890625,0.11376953125,1.052154541015625,-0.1401214599609375
1757088904242574300,6.63657421875,0.1219635009765625,1.0272064208984375,-0.1732330322265625
1757088904252528400,6.6465283203125,0.145538330078125,0.991180419921875,-0.2100830078125
1757088904262483700,6.656483642578125,0.1641693115234375,0.9609832763671875,-0.2541046142578125
1757088904272437500,6.6664375,0.1749114990234375,0.938720703125,-0.2851104736328125
1757088904282392600,6.676392578125,0.1922454833984375,0.9207305908203125,-0.2826385498046875
1757088904292347400,6.686347412109375,0.192108154296875,0.92218017578125,-0.274078369140625
1757088904302301700,6.6963017578125,0.164398193359375,0.9267425537109375,-0.25213623046875
1757088904312256500,6.706256591796875,0.12811279296875,0.933319091796875,-0.22918701171875
1757088904322211600,6.716211669921875,0.095977783203125,0.9372406005859375,-0.1958160400390625
1757088904332165400,6.726165283203125,0.07415771484375,0.9459075927734375,-0.1707916259765625
1757088904342120700,6.73612060546875,0.0733184814453125,0.951080322265625,-0.1451416015625
1757088904352075500,6.746075439453125,0.095947265625,0.954376220703125,-0.1237945556640625
1757088904362029600,6.756029541015625,0.1292572021484375,0.969024658203125,-0.1124114990234375
1757088904371984400,6.765984375,0.155914306640625,0.9864959716796875,-0.1132354736328125
1757088904381939700,6.775939697265625,0.17425537109375,1.0016326904296875,-0.1176910400390625
1757088904391893500,6.7858935546875,0.1816558837890625,1.0111236572265625,-0.13031005859375
1757088904401848600,6.7958486328125,0.1858367919921875,1.008514404296875,-0.141204833984375
1757088904411802600,6.805802734375,0.190826416015625,0.9834136962890625,-0.1596832275390625
1757088904421757400,6.81575732421875,0.15667724609375,0.9849090576171875,-0.1687164306640625
1757088904431712500,6.82571240234375,0.1348114013671875,0.9850311279296875,-0.175140380859375
1757088904441666600,6.83566650390625,0.1337127685546875,0.974273681640625,-0.2121429443359375
1757088904451621600,6.84562158203125,0.1389312744140625,0.9495697021484375,-0.231903076171875
1757088904461576400,6.855576416015625,0.13751220703125,0.9437408447265625,-0.2421875
1757088904471530500,6.865530517578125,0.141510009765625,0.9379425048828125,-0.2586212158203125
1757088904481485600,6.875485595703125,0.141143798828125,0.937286376953125,-0.258056640625
1757088904491440600,6.885440673828125,0.1361083984375,0.94049072265625,-0.257354736328125
1757088904501394400,6.89539453125,0.132843017578125,0.94403076171875,-0.2429962158203125
1757088904511349500,6.905349609375,0.123046875,0.94366455078125,-0.2318572998046875
1757088904521303300,6.91530322265625,0.1228179931640625,0.9408721923828125,-0.2091827392578125
1757088904531258600,6.925258544921875,0.12066650390625,0.9427490234375,-0.2025604248046875
1757088904541213400,6.93521337890625,0.1302642822265625,0.938446044921875,-0.1940155029296875
1757088904551167500,6.94516748046875,0.1347198486328125,0.9416046142578125,-0.187469482421875
1757088904561122300,6.955122314453125,0.133148193359375,0.9536590576171875,-0.194732666015625
1757088904571077600,6.96507763671875,0.144805908203125,0.9604949951171875,-0.1900634765625
1757088904581031700,6.97503173828125,0.161590576171875,0.969818115234375,-0.20166015625
1757088904590986500,6.984986572265625,0.181640625,0.9649658203125,-0.2128448486328125
1757088904600941300,6.99494140625,0.1952056884765625,0.9630279541015625,-0.2000579833984375
1757088904610895600,7.0048955078125,0.1980743408203125,0.9571075439453125,-0.193511962890625
1757088904620850700,7.0148505859375,0.1924285888671875,0.9488372802734375,-0.1814422607421875
1757088904630805500,7.024805419921875,0.1785430908203125,0.9406890869140625,-0.1749725341796875
1757088904640759600,7.034759521484375,0.1655731201171875,0.929840087890625,-0.172821044921875
1757088904650714600,7.044714599609375,0.1552734375,0.9240875244140625,-0.1532440185546875
1757088904660668700,7.054668701171875,0.142974853515625,0.92755126953125,-0.1473541259765625
1757088904670623500,7.06462353515625,0.1403350830078125,0.93316650390625,-0.1492767333984375
1757088904680578600,7.07457861328125,0.1469573974609375,0.9326324462890625,-0.1407470703125
1757088904690532400,7.084532470703125,0.144866943359375,0.93756103515625,-0.1251068115234375
1757088904700487700,7.09448779296875,0.1395416259765625,0.9445953369140625,-0.1159210205078125
1757088904710442500,7.1044423828125,0.136993408203125,0.9566192626953125,-0.0961456298828125
1757088904720396500,7.114396484375,0.129150390625,0.9746856689453125,-0.09466552734375
1757088904730351400,7.124351318359375,0.1258544921875,0.9781036376953125,-0.1077117919921875
1757088904740306700,7.134306640625,0.1234588623046875,0.9874725341796875,-0.11041259765625
1757088904750260500,7.144260498046875,0.1196136474609375,0.9974517822265625,-0.116455078125
1757088904760215600,7.154215576171875,0.1214447021484375,1.0076751708984375,-0.12799072265625
1757088904770169600,7.164169677734375,0.1246337890625,1.0411529541015625,-0.129608154296875
1757088904780124400,7.17412451171875,0.121185302734375,1.06939697265625,-0.1329193115234375
1757088904790079500,7.18407958984375,0.1164093017578125,1.07891845703125,-0.1257476806640625
1757088904800033500,7.194033447265625,0.111297607421875,1.0888519287109375,-0.0958251953125
1757088904809988600,7.203988525390625,0.1162872314453125,1.0899658203125,-0.0836334228515625
1757088904819943400,7.213943359375,0.1134033203125,1.0984344482421875,-0.0796051025390625
1757088904829897700,7.223897705078125,0.09881591796875,1.1168365478515625,-0.074005126953125
1757088904839852500,7.2338525390625,0.079681396484375,1.1424102783203125,-0.0773162841796875
1757088904849807600,7.2438076171875,0.0581512451171875,1.1646728515625,-0.0932464599609375
1757088904859761400,7.253761474609375,0.045318603515625,1.1793670654296875,-0.1262359619140625
1757088904869716700,7.263716796875,0.0466461181640625,1.1931915283203125,-0.154327392578125
1757088904879671600,7.273671630859375,0.0621490478515625,1.208221435546875,-0.1885833740234375
1757088904889625600,7.28362548828125,0.0810089111328125,1.2158355712890625,-0.2235870361328125
1757088904899580400,7.293580322265625,0.0995330810546875,1.2100677490234375,-0.26806640625
1757088904909534500,7.303534423828125,0.128082275390625,1.1915435791015625,-0.3307342529296875
1757088904919489500,7.313489501953125,0.1600189208984375,1.1722564697265625,-0.381744384765625
1757088904929444600,7.323444580078125,0.1784515380859375,1.1609649658203125,-0.401458740234375
1757088904939398400,7.3333984375,0.1800689697265625,1.1447601318359375,-0.3986358642578125
1757088904949353500,7.343353515625,0.162750244140625,1.13360595703125,-0.372344970703125
1757088904959308500,7.35330859375,0.1341552734375,1.109100341796875,-0.35113525390625
1757088904969262600,7.3632626953125,0.1097869873046875,1.0697021484375,-0.3319549560546875
1757088904979217400,7.373217529296875,0.0782470703125,1.0197296142578125,-0.30548095703125
1757088904989172500,7.38317236328125,0.0427093505859375,0.9597930908203125,-0.2777862548828125
1757088904999126500,7.39312646484375,0.037445068359375,0.912353515625,-0.253143310546875
1757088905009081600,7.40308154296875,0.086700439453125,0.8693084716796875,-0.2537384033203125
1757088905019036400,7.413036376953125,0.1362152099609375,0.83740234375,-0.2625732421875
1757088905028990500,7.422990478515625,0.1604766845703125,0.8268585205078125,-0.2899017333984375
1757088905038945500,7.432945556640625,0.156829833984375,0.816162109375,-0.325531005859375
1757088905048899600,7.442899658203125,0.141204833984375,0.8222503662109375,-0.3600616455078125
1757088905058854700,7.452854736328125,0.0757598876953125,0.8635711669921875,-0.3828887939453125
1757088905068809500,7.4628095703125,-0.035888671875,0.925048828125,-0.375579833984375
1757088905078763500,7.472763427734375,-0.134796142578125,0.9922027587890625,-0.300079345703125
1757088905088718300,7.48271826171875,-0.1846160888671875,1.0333099365234375,-0.2395782470703125
1757088905098673700,7.492673583984375,-0.1639556884765625,1.03472900390625,-0.2221221923828125
1757088905108627500,7.50262744140625,-0.01025390625,1.034576416015625,-0.2250213623046875
1757088905118582500,7.51258251953125,0.2279510498046875,1.078521728515625,-0.22955322265625
1757088905128537000,7.522537109375,0.3959503173828125,1.160614013671875,-0.2009429931640625
1757088905138491400,7.532491455078125,0.4013671875,1.18768310546875,-0.232757568359375
1757088905148446200,7.5424462890625,0.3123321533203125,1.18829345703125,-0.2280731201171875
1757088905158400300,7.552400146484375,0.2210540771484375,1.1760101318359375,-0.2314605712890625
1757088905168355300,7.562355224609375,0.15338134765625,1.1603851318359375,-0.2430572509765625
1757088905178310400,7.572310302734375,0.148193359375,1.116180419921875,-0.3166351318359375
1757088905188264400,7.582264404296875,0.167510986328125,1.0508575439453125,-0.3602447509765625
1757088905198219300,7.59221923828125,0.195404052734375,0.9584503173828125,-0.3863067626953125
1757088905208174300,7.60217431640625,0.22515869140625,0.8511199951171875,-0.387054443359375
1757088905218128100,7.612128173828125,0.32574462890625,0.704071044921875,-0.40069580078125
1757088905228083500,7.62208349609375,0.3264923095703125,0.61260986328125,-0.3253326416015625
1757088905238038300,7.632038330078125,0.3570709228515625,0.5422821044921875,-0.29473876953125
1757088905247992300,7.641992431640625,0.3653411865234375,0.559844970703125,-0.27880859375
1757088905257947100,7.651947021484375,0.319091796875,0.618896484375,-0.2602996826171875
1757088905267902500,7.66190234375,0.2647857666015625,0.668243408203125,-0.2776947021484375
1757088905277856300,7.671856201171875,0.212127685546875,0.690582275390625,-0.2855987548828125
1757088905287811300,7.681811279296875,0.20318603515625,0.680694580078125,-0.28143310546875
1757088905297766100,7.69176611328125,0.193084716796875,0.65155029296875,-0.2757720947265625
1757088905307720200,7.70172021484375,0.19140625,0.619140625,-0.2560882568359375
1757088905317675300,7.71167529296875,0.1932830810546875,0.5818023681640625,-0.235382080078125
1757088905327629300,7.72162939453125,0.2011566162109375,0.5145263671875,-0.237030029296875
1757088905337584400,7.73158447265625,0.2122344970703125,0.4716796875,-0.2539215087890625
1757088905347539200,7.741539306640625,0.2266845703125,0.4716796875,-0.2590179443359375
1757088905357493500,7.751493408203125,0.2440948486328125,0.479736328125,-0.2646636962890625
1757088905367448300,7.7614482421875,0.263092041015625,0.49114990234375,-0.271484375
1757088905377403100,7.771403076171875,0.2910614013671875,0.4857177734375,-0.274505615234375
1757088905387357200,7.781357177734375,0.3118743896484375,0.485595703125,-0.279205322265625
1757088905397312300,7.791312255859375,0.340484619140625,0.51171875,-0.2798614501953125
1757088905407267300,7.801267333984375,0.3780670166015625,0.561553955078125,-0.278900146484375
1757088905417221400,7.811221435546875,0.420166015625,0.6277313232421875,-0.29302978515625
1757088905427176200,7.82117626953125,0.4766693115234375,0.7030181884765625,-0.3070831298828125
1757088905437130200,7.831130126953125,0.5405426025390625,0.7971954345703125,-0.306610107421875
1757088905447085300,7.841085205078125,0.61114501953125,0.897552490234375,-0.31927490234375
1757088905457040400,7.851040283203125,0.6826934814453125,0.9984130859375,-0.3591156005859375
1757088905466994200,7.860994140625,0.7460174560546875,1.1230926513671875,-0.41351318359375
1757088905476949200,7.87094921875,0.7914581298828125,1.2557830810546875,-0.456329345703125
1757088905486904300,7.880904296875,0.8035125732421875,1.37109375,-0.47515869140625
1757088905496858400,7.8908583984375,0.80328369140625,1.4011993408203125,-0.5071563720703125
1757088905506813200,7.900813232421875,0.76348876953125,1.3243408203125,-0.50567626953125
1757088905516768300,7.910768310546875,0.7192840576171875,1.204742431640625,-0.480926513671875
1757088905526722300,7.920722412109375,0.7010345458984375,1.0963592529296875,-0.4304962158203125
1757088905536677400,7.930677490234375,0.665985107421875,0.9771881103515625,-0.3788909912109375
1757088905546632200,7.940632080078125,0.6259613037109375,0.849334716796875,-0.33831787109375
1757088905556586200,7.950586181640625,0.577301025390625,0.7544403076171875,-0.331695556640625
1757088905566541300,7.960541259765625,0.483642578125,0.7405548095703125,-0.4076995849609375
1757088905576495000,7.9704951171875,0.3742523193359375,0.7968902587890625,-0.46466064453125
1757088905586450400,7.980450439453125,0.380401611328125,0.842437744140625,-0.42510986328125
1757088905596405200,7.9904052734375,0.454132080078125,0.86041259765625,-0.44775390625
1757088905606359300,8.000359375,0.4610748291015625,0.920867919921875,-0.56353759765625
1757088905616314000,8.010314208984376,0.41729736328125,0.988372802734375,-0.642791748046875
1757088905626269400,8.02026953125,0.3324432373046875,1.0266571044921875,-0.662689208984375
1757088905636223200,8.03022314453125,0.20367431640625,1.0495758056640625,-0.653533935546875
1757088905646178300,8.04017822265625,0.0916290283203125,1.046478271484375,-0.63873291015625
1757088905656133000,8.050133056640625,0.060516357421875,1.0499267578125,-0.638397216796875
1757088905666087400,8.06008740234375,0.111846923828125,1.094970703125,-0.6422119140625
1757088905676042200,8.070042236328124,0.2098388671875,1.169403076171875,-0.640289306640625
1757088905685997300,8.079997314453125,0.279510498046875,1.17681884765625,-0.630462646484375
1757088905695951000,8.089951171875,0.2489471435546875,1.05670166015625,-0.5135650634765625
1757088905705906400,8.099906494140624,0.1451568603515625,0.861907958984375,-0.342742919921875
1757088905715860500,8.109860595703125,-0.006561279296875,0.6984710693359375,-0.2154693603515625
1757088905725815300,8.119815185546875,-0.152099609375,0.6115570068359375,-0.1445159912109375
1757088905735770000,8.12977001953125,-0.1735992431640625,0.5967559814453125,-0.126861572265625
1757088905745724200,8.13972412109375,-0.086700439453125,0.636749267578125,-0.113067626953125
1757088905755679500,8.149679443359375,-0.0265350341796875,0.7375640869140625,-0.098358154296875
1757088905765634300,8.15963427734375,-0.020751953125,0.8829193115234375,-0.060821533203125
1757088905775588400,8.16958837890625,-0.008026123046875,1.048675537109375,0.0342254638671875
1757088905785543200,8.179543212890625,0.015838623046875,1.159393310546875,0.03277587890625
1757088905795498500,8.18949853515625,0.025787353515625,1.1939697265625,-0.044342041015625
1757088905805452300,8.199452392578126,0.0349578857421875,1.202911376953125,-0.1129302978515625
1757088905815407400,8.209407470703125,0.0729827880859375,1.2079315185546875,-0.1534881591796875
1757088905825361200,8.219361083984374,0.18109130859375,1.136627197265625,-0.2507476806640625
1757088905835316200,8.229316162109376,0.2877044677734375,0.993865966796875,-0.3558349609375
1757088905845271300,8.239271240234375,0.3189697265625,0.8621673583984375,-0.4678955078125
1757088905855225300,8.249225341796874,0.2959136962890625,0.7980499267578125,-0.56280517578125
1757088905865180200,8.25918017578125,0.2484283447265625,0.77789306640625,-0.5453643798828125
1757088905875135200,8.26913525390625,0.18115234375,0.8013763427734375,-0.4391632080078125
1757088905885089300,8.27908935546875,0.1288299560546875,0.8436279296875,-0.306915283203125
1757088905895044400,8.28904443359375,0.114044189453125,0.8776092529296875,-0.2115020751953125
1757088905904999200,8.298999267578125,0.126068115234375,0.8878631591796875,-0.1672515869140625
1757088905914953200,8.308953125,0.1256103515625,0.868743896484375,-0.138916015625
1757088905924908300,8.318908203125,0.0806427001953125,0.8432159423828125,-0.1157684326171875
1757088905934862300,8.3288623046875,0.0339508056640625,0.8430938720703125,-0.1059722900390625
1757088905944817400,8.3388173828125,0.034393310546875,0.8561553955078125,-0.13665771484375
1757088905954772200,8.348772216796876,0.0776214599609375,0.868255615234375,-0.18548583984375
1757088905964726300,8.358726318359375,0.107666015625,0.85760498046875,-0.2401580810546875
1757088905974681300,8.368681396484375,0.14434814453125,0.87255859375,-0.242279052734375
1757088905984636400,8.378636474609374,0.1558837890625,0.926788330078125,-0.226226806640625
1757088905994590200,8.388590087890625,0.2294921875,0.93585205078125,-0.24078369140625
1757088906004545300,8.398545166015625,0.3018341064453125,0.9235992431640625,-0.23321533203125
1757088906014500400,8.408500244140624,0.2856292724609375,0.90875244140625,-0.2097015380859375
1757088906024454400,8.418454345703125,0.241119384765625,0.877899169921875,-0.1974945068359375
1757088906034409200,8.4284091796875,0.1658935546875,0.8359375,-0.173583984375
1757088906044363300,8.43836328125,0.0935516357421875,0.7980804443359375,-0.1534576416015625
1757088906054318000,8.448318115234375,0.03411865234375,0.77716064453125,-0.1490478515625
1757088906064273400,8.4582734375,-0.01629638671875,0.7612457275390625,-0.167388916015625
1757088906074227500,8.4682275390625,-0.036529541015625,0.7552490234375,-0.2041168212890625
1757088906084182300,8.478182373046875,-0.023468017578125,0.7650299072265625,-0.243988037109375
1757088906094137000,8.48813720703125,0.02410888671875,0.78546142578125,-0.2609710693359375
1757088906104091100,8.498091064453124,0.0897674560546875,0.8301239013671875,-0.23614501953125
1757088906114046200,8.508046142578126,0.12091064453125,0.8952484130859375,-0.186767578125
1757088906124000500,8.51800048828125,0.1100921630859375,0.9686737060546875,-0.1516265869140625
1757088906133954800,8.527954833984374,0.094818115234375,1.0429534912109375,-0.1484527587890625
1757088906143909600,8.53790966796875,0.0999298095703125,1.118316650390625,-0.1569976806640625
1757088906153864700,8.54786474609375,0.121826171875,1.1743621826171875,-0.1636810302734375
1757088906163818500,8.557818603515624,0.1492156982421875,1.2171173095703125,-0.1643218994140625
1757088906173773800,8.56777392578125,0.17230224609375,1.2325897216796875,-0.1534576416015625
1757088906183727600,8.5777275390625,0.1789398193359375,1.211090087890625,-0.121002197265625
1757088906193682700,8.5876826171875,0.181243896484375,1.1937255859375,-0.081695556640625
1757088906203637500,8.597637451171876,0.165618896484375,1.184539794921875,-0.070343017578125
1757088906213591600,8.607591552734375,0.14031982421875,1.193328857421875,-0.0695343017578125
1757088906223546600,8.617546630859374,0.1298065185546875,1.166290283203125,-0.1147308349609375
1757088906233501700,8.627501708984376,0.1463623046875,1.105987548828125,-0.183258056640625
1757088906243455700,8.637455810546875,0.1943817138671875,1.06231689453125,-0.2731170654296875
1757088906253410600,8.64741064453125,0.229949951171875,1.051361083984375,-0.341156005859375
1757088906263364600,8.657364501953126,0.2498779296875,1.0806427001953125,-0.368377685546875
1757088906273319700,8.667319580078125,0.2313385009765625,1.110198974609375,-0.3902740478515625
1757088906283274800,8.677274658203125,0.1677703857421875,1.1205902099609375,-0.34326171875
1757088906293228500,8.687228515625,0.1340484619140625,1.0797271728515625,-0.2809295654296875
1757088906303183600,8.69718359375,0.1361846923828125,1.0648651123046875,-0.2099151611328125
1757088906313138700,8.707138671875,0.11199951171875,1.1093902587890625,-0.1470489501953125
1757088906323092700,8.7170927734375,0.0727081298828125,1.179046630859375,-0.0929718017578125
1757088906333047600,8.727047607421875,0.050262451171875,1.249114990234375,-0.051239013671875
1757088906343002600,8.737002685546875,0.040679931640625,1.2875213623046875,-0.0433807373046875
1757088906352956700,8.746956787109376,0.035491943359375,1.3242645263671875,-0.061126708984375
1757088906362911700,8.756911865234375,0.0065155029296875,1.3494720458984375,-0.0740966796875
1757088906372866600,8.766866455078125,-0.064208984375,1.295928955078125,-0.0776824951171875
1757088906382820600,8.776820556640626,-0.0892181396484375,1.2008209228515625,-0.1110687255859375
1757088906392775700,8.786775634765625,-0.0613250732421875,1.092498779296875,-0.1919403076171875
1757088906402729700,8.796729736328125,-0.01068115234375,0.9763641357421875,-0.344879150390625
1757088906412684800,8.806684814453124,0.058135986328125,0.91925048828125,-0.493988037109375
1757088906422639600,8.8166396484375,0.098297119140625,0.89373779296875,-0.6162872314453125
1757088906432593700,8.82659375,0.07049560546875,0.88299560546875,-0.69451904296875
1757088906442548700,8.836548828125,0.0266571044921875,0.8995208740234375,-0.7256011962890625
1757088906452503800,8.84650390625,0.0576171875,0.9631805419921875,-0.74554443359375
1757088906462457600,8.85645751953125,0.1171875,0.998443603515625,-0.7368316650390625
1757088906472412700,8.86641259765625,0.1634674072265625,1.0254669189453125,-0.6706390380859375
1757088906482367700,8.87636767578125,0.2003173828125,1.045501708984375,-0.599395751953125
1757088906492321800,8.88632177734375,0.2376708984375,1.0648345947265625,-0.5489044189453125
1757088906502276600,8.896276611328124,0.2360687255859375,1.080535888671875,-0.453277587890625
1757088906512230700,8.906230712890626,0.1896514892578125,1.0815582275390625,-0.32147216796875
1757088906522185500,8.916185546875,0.122314453125,1.0818634033203125,-0.161895751953125
1757088906532140800,8.926140869140625,0.00933837890625,1.0479888916015625,-0.17218017578125
1757088906542094600,8.936094482421876,-0.117950439453125,1.0072174072265625,-0.2342376708984375
1757088906552049700,8.946049560546875,-0.0294342041015625,1.00982666015625,-0.21881103515625
1757088906562004500,8.95600439453125,0.1393585205078125,1.0234832763671875,-0.1847991943359375
1757088906571958500,8.96595849609375,0.1996917724609375,1.0169525146484375,-0.1704559326171875
1757088906581913600,8.97591357421875,0.1762542724609375,0.9736328125,-0.1696929931640625
1757088906591868700,8.98586865234375,0.145721435546875,0.897796630859375,-0.174468994140625
1757088906601822700,8.99582275390625,0.146636962890625,0.822021484375,-0.2167205810546875
1757088906611777500,9.005777587890625,0.137847900390625,0.7543182373046875,-0.27105712890625
1757088906621731800,9.01573193359375,0.086761474609375,0.6653289794921875,-0.311126708984375
1757088906631686700,9.025686767578126,0.0972747802734375,0.6107940673828125,-0.336151123046875
1757088906641641700,9.035641845703125,0.1522979736328125,0.6138458251953125,-0.351226806640625
1757088906651595500,9.045595458984375,0.188262939453125,0.5988006591796875,-0.3649444580078125
1757088906661550800,9.05555078125,0.2151641845703125,0.5707855224609375,-0.3669586181640625
1757088906671505700,9.065505615234375,0.2201690673828125,0.5318756103515625,-0.379974365234375
1757088906681459700,9.075459716796875,0.185546875,0.5044097900390625,-0.3746337890625
1757088906691414500,9.08541455078125,0.163909912109375,0.4839935302734375,-0.3580322265625
1757088906701369900,9.095369873046875,0.16998291015625,0.484619140625,-0.3538055419921875
1757088906711323600,9.10532373046875,0.166595458984375,0.5108489990234375,-0.335296630859375
1757088906721278700,9.11527880859375,0.1690826416015625,0.5369720458984375,-0.321319580078125
1757088906731232800,9.125232666015625,0.1871337890625,0.543701171875,-0.3050537109375
1757088906741187600,9.1351875,0.2165069580078125,0.53997802734375,-0.2956695556640625
1757088906751142700,9.145142578125,0.247955322265625,0.5198211669921875,-0.301788330078125
1757088906761096700,9.1550966796875,0.2714080810546875,0.4919891357421875,-0.3112030029296875
1757088906771051500,9.165051513671875,0.2976531982421875,0.4843902587890625,-0.314666748046875
1757088906781006600,9.175006591796874,0.322998046875,0.501312255859375,-0.31512451171875
1757088906790960600,9.184960693359375,0.3375701904296875,0.53082275390625,-0.3139801025390625
1757088906800915700,9.194915771484375,0.3688507080078125,0.57330322265625,-0.32427978515625
1757088906810870500,9.20487060546875,0.4368896484375,0.642852783203125,-0.3519134521484375
1757088906820824600,9.214824462890626,0.515380859375,0.741241455078125,-0.37603759765625
1757088906830779600,9.224779541015625,0.5941314697265625,0.883941650390625,-0.36962890625
1757088906840733700,9.234733642578124,0.66619873046875,1.0581817626953125,-0.3624725341796875
1757088906850688800,9.244688720703126,0.7494049072265625,1.25152587890625,-0.3433074951171875
1757088906860643600,9.2546435546875,0.8323211669921875,1.4425811767578125,-0.333343505859375
1757088906870597600,9.26459765625,0.85302734375,1.60040283203125,-0.3639373779296875
1757088906880552700,9.274552734375,0.8304901123046875,1.6196746826171875,-0.43780517578125
1757088906890507800,9.2845078125,0.8094940185546875,1.5194091796875,-0.452056884765625
1757088906900461600,9.294461669921875,0.8390655517578125,1.3691253662109375,-0.4124755859375
1757088906910416600,9.304416748046876,0.85931396484375,1.1130523681640625,-0.3928070068359375
1757088906920371700,9.314371826171875,0.8327178955078125,0.82000732421875,-0.40118408203125
1757088906930325800,9.32432568359375,0.7503509521484375,0.593597412109375,-0.4687957763671875
1757088906940280600,9.334280517578126,0.585235595703125,0.512481689453125,-0.5769805908203125
1757088906950234600,9.344234619140625,0.3683013916015625,0.5714111328125,-0.6014251708984375
1757088906960189700,9.354189697265625,0.2363739013671875,0.7126617431640625,-0.51300048828125
1757088906970144800,9.364144775390624,0.2662200927734375,0.8055572509765625,-0.479644775390625
1757088906980098800,9.374098876953125,0.301361083984375,0.875457763671875,-0.5256195068359375
1757088906990053600,9.3840537109375,0.282379150390625,0.962890625,-0.533721923828125
1757088907000008700,9.3940087890625,0.2462921142578125,1.0500030517578125,-0.5056915283203125
1757088907009962500,9.40396240234375,0.1500091552734375,1.108489990234375,-0.4622039794921875
1757088907019917800,9.413917724609375,0.060943603515625,1.152313232421875,-0.4420166015625
1757088907029872600,9.42387255859375,0.05389404296875,1.2309722900390625,-0.4602813720703125
1757088907039826700,9.43382666015625,0.118377685546875,1.3624420166015625,-0.5053863525390625
1757088907049781500,9.443781494140625,0.32110595703125,1.47821044921875,-0.5854034423828125
1757088907059735800,9.45373583984375,0.478363037109375,1.422760009765625,-0.614532470703125
1757088907069690600,9.463690673828125,0.4037322998046875,1.127410888671875,-0.5456390380859375
1757088907079645700,9.473645751953125,0.130340576171875,0.7543487548828125,-0.4402313232421875
1757088907089599500,9.483599609375,-0.1829986572265625,0.4816741943359375,-0.31365966796875
1757088907099554600,9.493554443359375,-0.36285400390625,0.3541717529296875,-0.2442779541015625
1757088907109509600,9.503509521484375,-0.3755645751953125,0.3355560302734375,-0.199310302734375
1757088907119463700,9.513463623046874,-0.229095458984375,0.417633056640625,-0.23321533203125
1757088907129419300,9.523419189453126,-0.0984039306640625,0.565155029296875,-0.2618865966796875
1757088907139373300,9.533373291015625,-0.0814208984375,0.743438720703125,-0.2816009521484375
1757088907149328400,9.543328369140625,-0.1157684326171875,1.001617431640625,-0.1380157470703125
1757088907159283500,9.553283447265626,-0.0410308837890625,1.2655487060546875,-0.0496063232421875
1757088907169237200,9.5632373046875,-0.0087127685546875,1.37353515625,-0.1197509765625
1757088907179192300,9.5731923828125,0.0053863525390625,1.35723876953125,-0.0964813232421875
1757088907189147400,9.5831474609375,0.0950164794921875,1.288360595703125,-0.07452392578125
1757088907199101400,9.593101318359375,0.25115966796875,1.156982421875,-0.1483917236328125
1757088907209056300,9.60305615234375,0.35205078125,0.987091064453125,-0.2669830322265625
1757088907219011300,9.61301123046875,0.3620452880859375,0.8574981689453125,-0.43304443359375
1757088907228965600,9.622965576171875,0.3264617919921875,0.81256103515625,-0.507720947265625
1757088907238920400,9.63292041015625,0.2516632080078125,0.7969512939453125,-0.441497802734375
1757088907248875300,9.642875244140624,0.1822662353515625,0.8229522705078125,-0.2736358642578125
1757088907258829300,9.652829345703125,0.17474365234375,0.846282958984375,-0.17242431640625
1757088907268784600,9.66278466796875,0.186187744140625,0.8375701904296875,-0.10552978515625
1757088907278738400,9.672738525390624,0.1549072265625,0.808441162109375,-0.0735931396484375
1757088907288693500,9.682693603515625,0.02728271484375,0.7848968505859375,-0.04498291015625
1757088907298648300,9.6926484375,0.0112152099609375,0.805572509765625,-0.0439910888671875
1757088907308602400,9.702602294921874,0.0329132080078125,0.828460693359375,-0.078704833984375
1757088907318557400,9.712557373046875,0.05072021484375,0.84765625,-0.1057281494140625
1757088907328512500,9.722512451171875,0.073516845703125,0.8780975341796875,-0.12310791015625
1757088907338466300,9.73246630859375,0.11346435546875,0.884063720703125,-0.149810791015625
1757088907348421400,9.74242138671875,0.155303955078125,0.88641357421875,-0.1401214599609375
1757088907358376400,9.75237646484375,0.193115234375,0.8870391845703125,-0.147735595703125
1757088907368330500,9.76233056640625,0.1900177001953125,0.8975372314453125,-0.1288909912109375
1757088907378285300,9.772285400390626,0.1673736572265625,0.9097137451171875,-0.1413421630859375
1757088907388240400,9.782240478515625,0.134735107421875,0.9105224609375,-0.164886474609375
1757088907398194400,9.7921943359375,0.09808349609375,0.8971099853515625,-0.184051513671875
1757088907408149500,9.8021494140625,0.0668487548828125,0.8868865966796875,-0.201568603515625
1757088907418103600,9.812103515625,0.0495452880859375,0.8587188720703125,-0.2207183837890625
1757088907428058400,9.822058349609375,0.0643310546875,0.8404083251953125,-0.2480926513671875
1757088907438013400,9.832013427734376,0.0809173583984375,0.83648681640625,-0.268218994140625
1757088907447967200,9.84196728515625,0.106201171875,0.8381195068359375,-0.282989501953125
1757088907457922600,9.851922607421875,0.154937744140625,0.874969482421875,-0.3015899658203125
1757088907467877400,9.86187744140625,0.20721435546875,0.9172821044921875,-0.3287811279296875
1757088907477831400,9.87183154296875,0.2425079345703125,0.9647216796875,-0.344757080078125
1757088907487786200,9.8817861328125,0.2459716796875,1.0226287841796875,-0.332244873046875
1757088907497741600,9.891741455078124,0.2052764892578125,1.0928802490234375,-0.2894287109375
1757088907507695400,9.9016953125,0.1441497802734375,1.1581268310546875,-0.2523956298828125
1757088907517650400,9.911650390625,0.1221923828125,1.18975830078125,-0.242218017578125
1757088907527604200,9.921604248046876,0.1628570556640625,1.1481781005859375,-0.209075927734375
1757088907537559600,9.9315595703125,0.2142791748046875,1.098876953125,-0.1158905029296875
1757088907547514400,9.941514404296875,0.2278900146484375,1.090179443359375,-0.0083160400390625
1757088907557468400,9.951468505859374,0.1704254150390625,1.129852294921875,0.0576019287109375
1757088907567423200,9.96142333984375,0.07940673828125,1.1920928955078125,0.077850341796875
1757088907577378600,9.971378662109375,0.0198822021484375,1.2242431640625,0.028045654296875
1757088907587332600,9.98133251953125,-0.019866943359375,1.2091827392578125,-0.0646209716796875
1757088907597287400,9.991287353515625,0.0093994140625,1.1612701416015625,-0.1783294677734375
1757088907607242200,10.0012421875,0.0864410400390625,1.12017822265625,-0.2775115966796875
1757088907617196300,10.0111962890625,0.13629150390625,1.088165283203125,-0.365203857421875
1757088907627151600,10.021151611328126,0.163970947265625,1.106536865234375,-0.4097900390625
1757088907637106400,10.0311064453125,0.1657257080078125,1.172760009765625,-0.4180145263671875
1757088907647060500,10.041060546875,0.1500091552734375,1.203460693359375,-0.3945159912109375
1757088907657015300,10.051015380859376,0.1343536376953125,1.2001953125,-0.322418212890625
1757088907666969300,10.06096923828125,0.1129302978515625,1.215362548828125,-0.26751708984375
1757088907676924400,10.07092431640625,0.110015869140625,1.2315216064453125,-0.2661590576171875
1757088907686879500,10.08087939453125,0.082855224609375,1.2674407958984375,-0.2525634765625
1757088907696833300,10.090833251953125,0.002044677734375,1.2168121337890625,-0.23773193359375
1757088907706788400,10.100788330078124,-0.1023712158203125,1.1289825439453125,-0.2095489501953125
1757088907716743400,10.110743408203126,-0.0956878662109375,1.0477142333984375,-0.217742919921875
1757088907726697500,10.120697509765625,-0.057464599609375,0.952850341796875,-0.290557861328125
1757088907736652300,10.13065234375,0.0101470947265625,0.8867950439453125,-0.430206298828125
1757088907746607400,10.140607421875,0.1036834716796875,0.8966827392578125,-0.5511474609375
1757088907756561400,10.1505615234375,0.1206207275390625,0.9462127685546875,-0.6958160400390625
1757088907766516500,10.1605166015625,0.091827392578125,1.014373779296875,-0.8131103515625
1757088907776471300,10.17047119140625,0.077789306640625,1.08172607421875,-0.8787994384765625
1757088907786425300,10.18042529296875,0.1088714599609375,1.1058807373046875,-0.8607025146484375
1757088907796380400,10.19038037109375,0.140655517578125,1.0848541259765625,-0.7472991943359375
1757088907806334500,10.20033447265625,0.16351318359375,1.068572998046875,-0.60528564453125
1757088907816289500,10.21028955078125,0.1494293212890625,1.072265625,-0.43585205078125
1757088907826244400,10.220244384765625,0.16339111328125,1.06658935546875,-0.2943878173828125
1757088907836198400,10.230198486328124,0.2023162841796875,1.0874786376953125,-0.121337890625
1757088907846153500,10.240153564453125,0.1763763427734375,1.064971923828125,-0.1197509765625
1757088907856108500,10.250108642578125,0.0515289306640625,1.0157470703125,-0.1490325927734375
1757088907866062300,10.260062255859374,0.0206756591796875,0.994964599609375,-0.134765625
1757088907876017400,10.270017333984375,0.1451873779296875,0.9633636474609375,-0.118804931640625
1757088907885971200,10.27997119140625,0.1368865966796875,0.950469970703125,-0.090087890625
1757088907895926500,10.289926513671874,0.0997161865234375,0.9407196044921875,-0.09332275390625
1757088907905881300,10.29988134765625,0.100128173828125,0.91632080078125,-0.1503448486328125
1757088907915835400,10.30983544921875,0.10467529296875,0.891204833984375,-0.1857452392578125
1757088907925790200,10.319790283203124,0.0998687744140625,0.8523101806640625,-0.211212158203125
1757088907935745500,10.32974560546875,0.105072021484375,0.8051300048828125,-0.2685699462890625
1757088907945699300,10.33969921875,0.098663330078125,0.748809814453125,-0.343505859375
1757088907955654400,10.349654296875,0.0979766845703125,0.692169189453125,-0.3952789306640625
1757088907965609200,10.359609130859376,0.09454345703125,0.6263580322265625,-0.4375762939453125
1757088907975563500,10.3695634765625,0.1575164794921875,0.5732269287109375,-0.427825927734375
1757088907985518300,10.379518310546874,0.23651123046875,0.5161590576171875,-0.420318603515625
1757088907995472400,10.389472412109376,0.272186279296875,0.438934326171875,-0.4047088623046875
1757088908005427500,10.399427490234375,0.2555084228515625,0.4156341552734375,-0.3579254150390625
1757088908015382300,10.40938232421875,0.22119140625,0.431304931640625,-0.331390380859375
1757088908025336600,10.419336669921876,0.1623992919921875,0.4749298095703125,-0.305419921875
1757088908035291400,10.42929150390625,0.107208251953125,0.51629638671875,-0.2960662841796875
1757088908045246500,10.43924658203125,0.09454345703125,0.5374298095703125,-0.3046417236328125
1757088908055200300,10.4492001953125,0.1209259033203125,0.56378173828125,-0.2983245849609375
1757088908065155600,10.459155517578125,0.142578125,0.5751495361328125,-0.2913665771484375
1757088908075110400,10.4691103515625,0.17547607421875,0.5658416748046875,-0.298828125
1757088908085064400,10.479064453125,0.2090606689453125,0.5381011962890625,-0.2991180419921875
1757088908095019300,10.489019287109375,0.2290496826171875,0.5260467529296875,-0.292724609375
1757088908104973300,10.498973388671875,0.2495269775390625,0.53607177734375,-0.287078857421875
1757088908114928400,10.508928466796876,0.282440185546875,0.553192138671875,-0.2916717529296875
1757088908124882400,10.51888232421875,0.3012847900390625,0.582763671875,-0.3246307373046875
1757088908134836500,10.52883642578125,0.3504638671875,0.62445068359375,-0.3594818115234375
1757088908144791300,10.538791259765626,0.4242095947265625,0.680755615234375,-0.3809661865234375
1757088908154746400,10.548746337890625,0.51129150390625,0.758392333984375,-0.41241455078125
1757088908164700400,10.558700439453125,0.6312408447265625,0.8817291259765625,-0.4219970703125
1757088908174655500,10.568655517578126,0.7453155517578125,1.0525054931640625,-0.449005126953125
1757088908184610300,10.5786103515625,0.8672027587890625,1.2620086669921875,-0.4635162353515625
1757088908194564400,10.588564453125,0.971832275390625,1.492767333984375,-0.4493408203125
1757088908204519400,10.59851953125,1.0164947509765625,1.6798095703125,-0.471954345703125
1757088908214473500,10.608473388671875,0.9869232177734375,1.7208404541015625,-0.4825439453125
1757088908224428300,10.61842822265625,0.9224700927734375,1.6060791015625,-0.423919677734375
1757088908234383400,10.62838330078125,0.8528594970703125,1.4629058837890625,-0.3572540283203125
1757088908244337400,10.63833740234375,0.7792205810546875,1.189453125,-0.31207275390625
1757088908254292500,10.64829248046875,0.7117919921875,0.8547515869140625,-0.3520050048828125
1757088908264247300,10.658247314453124,0.619232177734375,0.5862884521484375,-0.4106903076171875
1757088908274201300,10.668201416015625,0.494415283203125,0.4582672119140625,-0.4709014892578125
1757088908284156400,10.678156494140625,0.34808349609375,0.4920806884765625,-0.4645843505859375
1757088908294110200,10.688110107421876,0.2952880859375,0.615020751953125,-0.356353759765625
1757088908304065500,10.6980654296875,0.3395233154296875,0.716552734375,-0.3113861083984375
1757088908314020400,10.708020263671875,0.400146484375,0.79351806640625,-0.36328125
1757088908323974400,10.717974365234374,0.4155731201171875,0.9149627685546875,-0.40570068359375
1757088908333929200,10.72792919921875,0.3953704833984375,1.069366455078125,-0.4340057373046875
1757088908343884500,10.737884521484375,0.3237457275390625,1.2019805908203125,-0.47796630859375
1757088908353838300,10.74783837890625,0.17633056640625,1.3187103271484375,-0.5492095947265625
1757088908363793400,10.75779345703125,-0.011993408203125,1.445770263671875,-0.63427734375
1757088908373747500,10.76774755859375,-0.125885009765625,1.5573883056640625,-0.679840087890625
1757088908383702500,10.77770263671875,0.0247802734375,1.528167724609375,-0.69024658203125
1757088908393657300,10.7876572265625,0.2867889404296875,1.292633056640625,-0.58404541015625
1757088908403611400,10.797611328125,0.259552001953125,0.9616851806640625,-0.4456787109375
1757088908413566500,10.80756640625,-0.0944366455078125,0.652740478515625,-0.24993896484375
1757088908423521500,10.817521484375,-0.5005340576171875,0.4560699462890625,-0.0698089599609375
1757088908433475600,10.8274755859375,-0.6196136474609375,0.322418212890625,-0.07061767578125
1757088908443430400,10.837430419921875,-0.4505615234375,0.321258544921875,-0.2805633544921875
1757088908453384400,10.847384521484376,-0.23883056640625,0.4014129638671875,-0.436676025390625
1757088908463339300,10.85733935546875,-0.1473846435546875,0.4835205078125,-0.479949951171875
1757088908473294600,10.867294677734375,-0.0608978271484375,0.6766357421875,-0.557220458984375
1757088908483248400,10.877248291015626,0.019012451171875,1.0491485595703125,-0.5052947998046875
1757088908493203500,10.887203369140625,0.06201171875,1.44366455078125,-0.3218994140625
1757088908503158300,10.897158203125,0.138275146484375,1.5916900634765625,-0.147064208984375
1757088908513112300,10.9071123046875,0.180419921875,1.4168853759765625,-0.0556793212890625
1757088908523067400,10.9170673828125,0.1787872314453125,1.1516265869140625,-0.0809326171875
1757088908533021400,10.927021484375,0.1352996826171875,1.0026702880859375,-0.176544189453125
1757088908542976300,10.936976318359376,0.015411376953125,0.9495849609375,-0.2935028076171875
1757088908552931300,10.946931396484375,-0.018218994140625,0.9067535400390625,-0.39178466796875
1757088908562885600,10.9568857421875,0.0030059814453125,0.8517303466796875,-0.3733367919921875
1757088908572840400,10.96684033203125,0.0862884521484375,0.8591461181640625,-0.2853546142578125
1757088908582795300,10.976795166015625,0.1577606201171875,0.8692779541015625,-0.2067413330078125
1757088908592749300,10.986749267578125,0.0643157958984375,0.848297119140625,-0.121673583984375
1757088908602704600,10.99670458984375,0.0217132568359375,0.8329315185546875,-0.0692596435546875
1757088908612658400,11.006658447265625,0.070953369140625,0.82769775390625,-0.0995635986328125
1757088908622613500,11.016613525390625,0.100128173828125,0.87237548828125,-0.09857177734375
1757088908632568300,11.026568359375,0.120361328125,0.8999176025390625,-0.1174163818359375
1757088908642522400,11.0365224609375,0.1318511962890625,0.9187774658203125,-0.1355438232421875
1757088908652477400,11.0464775390625,0.1368255615234375,0.925567626953125,-0.1614227294921875
1757088908662432500,11.0564326171875,0.140228271484375,0.93487548828125,-0.1810150146484375
1757088908672386300,11.06638623046875,0.1645050048828125,0.950286865234375,-0.2047271728515625
1757088908682341400,11.07634130859375,0.188232421875,0.949127197265625,-0.2154388427734375
1757088908692295400,11.08629541015625,0.1962890625,0.9390106201171875,-0.2235107421875
1757088908702250500,11.09625048828125,0.1963958740234375,0.92242431640625,-0.221527099609375
1757088908712205300,11.106205322265625,0.185943603515625,0.9140167236328125,-0.217376708984375
1757088908722159400,11.116159423828124,0.1641082763671875,0.9100799560546875,-0.209716796875
1757088908732114400,11.126114501953126,0.1418304443359375,0.9084625244140625,-0.1981964111328125
1757088908742069500,11.136069580078125,0.1278839111328125,0.90081787109375,-0.188690185546875
1757088908752023600,11.1460234375,0.1265106201171875,0.882354736328125,-0.1752777099609375
1757088908761978400,11.155978271484376,0.146881103515625,0.88507080078125,-0.1676788330078125
1757088908771932400,11.165932373046875,0.1868743896484375,0.905731201171875,-0.166534423828125
1757088908781887200,11.17588720703125,0.23828125,0.926177978515625,-0.184967041015625
1757088908791842600,11.185842529296876,0.2766571044921875,0.94647216796875,-0.202880859375
1757088908801796400,11.19579638671875,0.265228271484375,0.950714111328125,-0.21893310546875
1757088908811751400,11.20575146484375,0.2125396728515625,0.9434814453125,-0.23223876953125
1757088908821706200,11.215706298828126,0.1291656494140625,0.9240570068359375,-0.2167816162109375
1757088908831660500,11.22566064453125,0.03936767578125,0.9017333984375,-0.1852874755859375
1757088908841615400,11.235615478515625,-0.0060577392578125,0.87603759765625,-0.1582183837890625
1757088908851569400,11.2455693359375,0.0047607421875,0.8627777099609375,-0.1182098388671875
1757088908861524200,11.255524169921875,0.030364990234375,0.8618621826171875,-0.0652618408203125
1757088908871479600,11.2654794921875,0.042449951171875,0.9015960693359375,-0.0137176513671875
1757088908881433600,11.27543359375,0.028594970703125,0.950714111328125,-0.0047454833984375
1757088908891388400,11.285388427734375,0.039886474609375,1.0309906005859375,-0.0170745849609375
1757088908901343200,11.29534326171875,0.0453948974609375,1.1091766357421875,-0.050567626953125
1757088908911297300,11.30529736328125,0.040191650390625,1.1448822021484375,-0.1390228271484375
1757088908921252600,11.315252685546875,0.0933074951171875,1.1700439453125,-0.2448577880859375
1757088908931206400,11.325206298828125,0.15057373046875,1.1863555908203125,-0.33746337890625
1757088908941161500,11.335161376953126,0.175140380859375,1.1759033203125,-0.40814208984375
1757088908951116300,11.3451162109375,0.1800384521484375,1.152008056640625,-0.453826904296875
1757088908961070300,11.3550703125,0.15423583984375,1.1350860595703125,-0.4613037109375
1757088908971025400,11.365025390625,0.0891571044921875,1.149932861328125,-0.436614990234375
1757088908980980500,11.37498046875,-0.0041351318359375,1.180633544921875,-0.413818359375
1757088908990934300,11.384934326171875,-0.0811614990234375,1.2502899169921875,-0.407684326171875
1757088909000889300,11.394889404296874,-0.1255035400390625,1.27362060546875,-0.446075439453125
1757088909010843400,11.404843505859375,-0.135101318359375,1.23095703125,-0.464141845703125
1757088909020798500,11.414798583984375,-0.0562896728515625,1.1788177490234375,-0.424835205078125
1757088909030753300,11.424753173828124,0.06182861328125,1.150146484375,-0.41796875
1757088909040707300,11.434707275390625,0.1189422607421875,1.0881195068359375,-0.4276275634765625
1757088909050662400,11.444662353515625,0.0927276611328125,1.0025482177734375,-0.462005615234375
1757088909060617500,11.454617431640624,0.0207672119140625,0.9305572509765625,-0.526123046875
1757088909070571500,11.464571533203125,-0.020904541015625,0.886962890625,-0.5762176513671875
1757088909080526300,11.4745263671875,-0.0115814208984375,0.86431884765625,-0.6410064697265625
1757088909090480400,11.48448046875,0.020904541015625,0.8672943115234375,-0.726959228515625
1757088909100435500,11.494435546875,0.027740478515625,0.8902435302734375,-0.790130615234375
1757088909110390500,11.504390625,-0.002166748046875,0.9229278564453125,-0.78582763671875
1757088909120344300,11.51434423828125,-0.0450439453125,0.9500885009765625,-0.7257232666015625
1757088909130300200,11.524300048828126,-0.0626983642578125,0.95306396484375,-0.641357421875
1757088909140254200,11.534254150390625,-0.059539794921875,0.9412994384765625,-0.579315185546875
1757088909150209300,11.544209228515625,-0.0662689208984375,0.927032470703125,-0.55291748046875
1757088909160164000,11.5541640625,-0.0855865478515625,0.9092559814453125,-0.5521392822265625
1757088909170118100,11.5641181640625,-0.10113525390625,0.8944854736328125,-0.5740966796875
1757088909180073200,11.5740732421875,-0.109161376953125,0.895263671875,-0.6112823486328125
1757088909190028300,11.5840283203125,-0.1103515625,0.8991241455078125,-0.637939453125
1757088909199982000,11.593982177734375,-0.1002197265625,0.9027557373046875,-0.6455230712890625
1757088909209937200,11.603937255859375,-0.0773468017578125,0.918426513671875,-0.6406402587890625
1757088909219891200,11.61389111328125,-0.0539093017578125,0.924652099609375,-0.6235504150390625
1757088909229846300,11.62384619140625,-0.0347747802734375,0.9240264892578125,-0.595367431640625
1757088909239801000,11.633801025390625,-0.0249481201171875,0.918212890625,-0.56414794921875
1757088909249755100,11.643755126953126,-0.028656005859375,0.9022369384765625,-0.5316619873046875
1757088909259710200,11.653710205078125,-0.02691650390625,0.8839111328125,-0.4959716796875
1757088909269665300,11.663665283203125,-0.0078277587890625,0.871734619140625,-0.4680633544921875
1757088909279619300,11.673619384765624,0.028228759765625,0.8607330322265625,-0.4526214599609375
1757088909289574100,11.68357421875,0.0578460693359375,0.8515625,-0.4455108642578125
1757088909299528200,11.693528076171875,0.0736846923828125,0.8406524658203125,-0.4483489990234375
1757088909309483300,11.703483154296874,0.0911712646484375,0.846710205078125,-0.449462890625
1757088909319438300,11.713438232421876,0.1123809814453125,0.8651123046875,-0.4208221435546875
1757088909329392000,11.72339208984375,0.125335693359375,0.864593505859375,-0.418548583984375
1757088909339347200,11.73334716796875,0.135589599609375,0.86859130859375,-0.3889923095703125
1757088909349302300,11.74330224609375,0.1385040283203125,0.8765411376953125,-0.3448333740234375
1757088909359256300,11.75325634765625,0.1382293701171875,0.886474609375,-0.3058319091796875
1757088909369211100,11.763211181640624,0.139404296875,0.88616943359375,-0.2624664306640625
1757088909379165200,11.773165283203125,0.1478424072265625,0.8831787109375,-0.2320556640625
1757088909389120000,11.7831201171875,0.1680755615234375,0.864959716796875,-0.2005767822265625
1757088909399075300,11.793075439453125,0.1939544677734375,0.841278076171875,-0.1801910400390625
1757088909409029000,11.803029052734376,0.2199554443359375,0.8088531494140625,-0.1707305908203125
1757088909418984200,11.812984130859375,0.2413177490234375,0.7802886962890625,-0.170501708984375
1757088909428938200,11.822938232421874,0.2530517578125,0.749786376953125,-0.1811065673828125
1757088909438893300,11.832893310546876,0.2723846435546875,0.7162322998046875,-0.1971282958984375
1757088909448848100,11.84284814453125,0.286712646484375,0.694793701171875,-0.2148284912109375
1757088909458802200,11.85280224609375,0.294677734375,0.6917877197265625,-0.2348175048828125
1757088909468757200,11.86275732421875,0.3028564453125,0.706390380859375,-0.240020751953125
1757088909478712000,11.872712158203125,0.3132781982421875,0.72601318359375,-0.2427520751953125
1757088909488666400,11.882666259765625,0.339813232421875,0.7551422119140625,-0.257904052734375
1757088909498621200,11.89262109375,0.3746185302734375,0.7868194580078125,-0.2660369873046875
1757088909508575200,11.9025751953125,0.3979644775390625,0.802490234375,-0.2687835693359375
1757088909518530000,11.912530029296875,0.410400390625,0.8139190673828125,-0.272979736328125
1757088909528485400,11.9224853515625,0.423248291015625,0.80682373046875,-0.280426025390625
1757088909538439200,11.932439208984375,0.4354248046875,0.8081512451171875,-0.2888336181640625
1757088909548394200,11.942394287109375,0.4671173095703125,0.839324951171875,-0.28887939453125
1757088909558349000,11.95234912109375,0.4930572509765625,0.89398193359375,-0.2958831787109375
1757088909568303000,11.96230322265625,0.5034942626953125,0.95074462890625,-0.2670440673828125
1757088909578258200,11.972258056640625,0.5168609619140625,0.9987030029296875,-0.2142791748046875
1757088909588212200,11.982212158203126,0.5456390380859375,1.06439208984375,-0.1485595703125
1757088909598167300,11.992167236328125,0.590576171875,1.153350830078125,-0.1121826171875
1757088909608122000,12.0021220703125,0.6070709228515625,1.2066497802734375,-0.1154022216796875
1757088909618076200,12.012076171875,0.539337158203125,1.2053375244140625,-0.1550140380859375
1757088909628031200,12.02203125,0.4101409912109375,1.1659088134765625,-0.2371673583984375
1757088909637986300,12.031986328125,0.2649688720703125,1.11578369140625,-0.32733154296875
1757088909647940000,12.041940185546874,0.1479644775390625,1.05938720703125,-0.41522216796875
1757088909657895200,12.051895263671875,0.0586395263671875,0.9858245849609375,-0.50250244140625
1757088909667849200,12.06184912109375,0.011077880859375,0.8903656005859375,-0.5886688232421875
1757088909677804300,12.07180419921875,0.011688232421875,0.7719879150390625,-0.666168212890625
1757088909687759000,12.081759033203125,0.05242919921875,0.6519927978515625,-0.7628021240234375
1757088909697713200,12.091713134765625,0.1204681396484375,0.6132354736328125,-0.8341217041015625
1757088909707668200,12.101668212890624,0.16717529296875,0.7019500732421875,-0.837860107421875
1757088909717622300,12.111622314453125,0.187103271484375,0.8242950439453125,-0.7567291259765625
1757088909727577000,12.1215771484375,0.1709136962890625,0.9307403564453125,-0.6126251220703125
1757088909737532200,12.1315322265625,0.1504364013671875,0.97869873046875,-0.5086212158203125
1757088909747486200,12.141486328125,0.151214599609375,0.9501953125,-0.45831298828125
1757088909757441300,12.151441162109375,0.138031005859375,0.9112701416015625,-0.4523468017578125
1757088909767396000,12.16139599609375,0.097930908203125,0.9004364013671875,-0.4275970458984375
1757088909777350100,12.17135009765625,0.0418548583984375,0.9082183837890625,-0.36956787109375
1757088909787305200,12.18130517578125,-0.01068115234375,0.938079833984375,-0.3043975830078125
1757088909797259000,12.191259033203124,-0.03631591796875,0.9892425537109375,-0.22406005859375
1757088909807214300,12.20121435546875,-0.1056671142578125,1.0370330810546875,-0.1415863037109375
1757088909817169200,12.211169189453125,-0.1441802978515625,1.0893402099609375,-0.0569915771484375
1757088909827123200,12.221123291015624,-0.09527587890625,1.1159210205078125,-0.031219482421875
1757088909837078000,12.231078125,-0.0413665771484375,1.13140869140625,-0.0360107421875
1757088909847033300,12.241033447265625,0.019744873046875,1.1290740966796875,-0.0664520263671875
1757088909856987100,12.250987060546874,0.02838134765625,1.075714111328125,-0.1260528564453125
1757088909866942200,12.260942138671876,0.026397705078125,1.0261688232421875,-0.1612091064453125
1757088909876896300,12.270896240234375,0.0349578857421875,0.9804534912109375,-0.2292022705078125
1757088909886851300,12.280851318359375,0.1104888916015625,0.9278564453125,-0.285736083984375
1757088909896806100,12.29080615234375,0.1270294189453125,0.9033660888671875,-0.315399169921875
1757088909906760200,12.30076025390625,0.0937957763671875,0.8982391357421875,-0.3348846435546875
1757088909916715300,12.31071533203125,0.10113525390625,0.88153076171875,-0.3485107421875
1757088909926669000,12.3206689453125,0.083526611328125,0.8805999755859375,-0.35809326171875
1757088909936624400,12.330624267578125,0.0507659912109375,0.88916015625,-0.3673553466796875
1757088909946579200,12.3405791015625,0.02972412109375,0.900665283203125,-0.362762451171875
1757088909956533200,12.350533203125,-0.0040740966796875,0.9153594970703125,-0.356658935546875
1757088909966488000,12.360488037109375,-0.054840087890625,0.929351806640625,-0.3292083740234375
1757088909976443400,12.370443359375,-0.085174560546875,0.93670654296875,-0.28961181640625
1757088909986397200,12.380397216796876,-0.09222412109375,0.9504547119140625,-0.2611846923828125
1757088909996352300,12.390352294921875,-0.0724639892578125,0.9668121337890625,-0.251678466796875
1757088910006306000,12.40030615234375,-0.03375244140625,0.9823455810546875,-0.239532470703125
1757088910016261000,12.41026123046875,-0.039093017578125,1.00628662109375,-0.2017974853515625
1757088910026216200,12.42021630859375,-0.053680419921875,1.035003662109375,-0.1790771484375
1757088910036170200,12.430170166015625,-0.0372314453125,1.0594024658203125,-0.163909912109375
1757088910046125000,12.440125,-0.007843017578125,1.0725555419921875,-0.16162109375
1757088910056080100,12.450080078125,0.0053558349609375,1.069671630859375,-0.174285888671875
1757088910066034400,12.460034423828125,-0.0136566162109375,1.0577392578125,-0.211334228515625
1757088910075989200,12.4699892578125,-0.04632568359375,1.037384033203125,-0.263214111328125
1757088910085943300,12.479943359375,-0.0697479248046875,1.0032806396484375,-0.30255126953125
1757088910095898000,12.489898193359375,-0.073089599609375,0.96484375,-0.3140869140625
1757088910105853200,12.499853271484374,-0.069610595703125,0.9417572021484375,-0.2899627685546875
1757088910115807200,12.50980712890625,-0.046630859375,0.9351043701171875,-0.2371368408203125
1757088910125762300,12.51976220703125,-0.0279541015625,0.944976806640625,-0.18682861328125
1757088910135715800,12.5297158203125,-0.013153076171875,0.9599609375,-0.1400146484375
1757088910145670700,12.539670654296875,0.0008087158203125,0.9866485595703125,-0.0915069580078125
1757088910155625500,12.54962548828125,0.0141143798828125,1.006072998046875,-0.0536651611328125
1757088910165579500,12.55957958984375,0.01361083984375,0.990478515625,-0.0266265869140625
1757088910175534800,12.569534912109376,-0.00653076171875,0.983612060546875,-0.0050506591796875
1757088910185489700,12.57948974609375,-0.00543212890625,1.0021209716796875,0.025421142578125
1757088910195443700,12.589443603515624,0.0236663818359375,1.018218994140625,0.0592803955078125
1757088910205398500,12.5993984375,0.0380706787109375,1.0148162841796875,0.070587158203125
1757088910215352800,12.609352783203125,0.0489349365234375,1.0092926025390625,0.053619384765625
1757088910225307600,12.6193076171875,0.0739593505859375,1.0162506103515625,0.028411865234375
1757088910235262700,12.6292626953125,0.0844879150390625,1.0181884765625,0.0038909912109375
1757088910245216500,12.639216552734375,0.103240966796875,1.0063934326171875,-0.0298004150390625
1757088910255171800,12.649171875,0.128204345703125,0.988311767578125,-0.072021484375
1757088910265126700,12.659126708984376,0.14093017578125,0.9700469970703125,-0.107574462890625
1757088910275080700,12.669080810546875,0.1407470703125,0.9678802490234375,-0.13970947265625
1757088910285035500,12.679035400390624,0.1428985595703125,0.9649810791015625,-0.1501922607421875
1757088910294989600,12.688989501953126,0.13714599609375,0.95391845703125,-0.1580352783203125
1757088910304944600,12.698944580078125,0.1123504638671875,0.935760498046875,-0.165313720703125
1757088910314899700,12.708899658203125,0.086151123046875,0.922760009765625,-0.175872802734375
1757088910324853800,12.718853759765626,0.088592529296875,0.92486572265625,-0.19378662109375
1757088910334808600,12.72880859375,0.10565185546875,0.933197021484375,-0.219512939453125
1757088910344762600,12.7387626953125,0.1244659423828125,0.9414215087890625,-0.2476959228515625
1757088910354717700,12.7487177734375,0.1428680419921875,0.9361572265625,-0.2810821533203125
1757088910364672800,12.7586728515625,0.160369873046875,0.9226531982421875,-0.3060455322265625
1757088910374626600,12.76862646484375,0.1737060546875,0.908233642578125,-0.3199310302734375
1757088910384581600,12.77858154296875,0.1744384765625,0.8959503173828125,-0.3183746337890625
1757088910394536700,12.78853662109375,0.1625823974609375,0.8829345703125,-0.3041534423828125
1757088910404490800,12.79849072265625,0.1414031982421875,0.869659423828125,-0.277496337890625
1757088910414445600,12.808445556640624,0.1257781982421875,0.850372314453125,-0.2561798095703125
1757088910424399600,12.818399658203125,0.139404296875,0.8393402099609375,-0.2399139404296875
1757088910434354400,12.8283544921875,0.165740966796875,0.84552001953125,-0.213531494140625
1757088910444309800,12.838309814453124,0.1761016845703125,0.9044342041015625,-0.2015533447265625
1757088910454263800,12.848263916015625,0.163116455078125,1.00775146484375,-0.2181396484375
1757088910464218600,12.858218505859375,0.139312744140625,1.101409912109375,-0.196380615234375
1757088910474173400,12.86817333984375,0.1262359619140625,1.1739349365234375,-0.13531494140625
1757088910484127700,12.878127685546875,0.0974884033203125,1.227691650390625,-0.0644989013671875
1757088910494082800,12.888082763671875,0.0555572509765625,1.2693634033203125,-0.0166778564453125
1757088910504036600,12.89803662109375,0.03326416015625,1.2972412109375,-0.02203369140625
1757088910513991700,12.90799169921875,0.052001953125,1.3073883056640625,-0.0471343994140625
1757088910523946800,12.91794677734375,0.0743255615234375,1.30841064453125,-0.0722198486328125
1757088910533900800,12.92790087890625,0.0606536865234375,1.3136444091796875,-0.0986480712890625
1757088910543855600,12.937855712890626,0.0170440673828125,1.3186492919921875,-0.10400390625
1757088910553809700,12.9478095703125,-0.008209228515625,1.301971435546875,-0.127288818359375
