time,seconds_elapsed,z,y,x
1757088897623975000,0.017974853515625,1.2967512908756733,-0.09736329970844089,0.3467518289655447
1757088897633928700,0.0279287109375,1.0812702188521623,-0.06441584661342203,0.4867893913395703
1757088897643883800,0.0378837890625,1.014729415974021,-0.1443361363507807,0.6409298594765365
1757088897653838600,0.047838623046875,1.0761650046676396,-0.4285166505910456,0.8132650327347218
1757088897663792600,0.057792724609375,1.4653554609119892,-1.0330798231136054,0.7798312574274837
1757088897673747700,0.067747802734375,2.3302643177747724,-0.7973262167815118,0.37070056756883857
1757088897683702800,0.077702880859375,2.008712396517396,-0.47203803160525853,0.3857201497852802
1757088897693656600,0.087656494140625,1.7475433400303124,-0.33323227604851124,-0.2830928651340306
1757088897703611600,0.097611572265625,1.6880349200069904,0.028334041015431282,-0.70465998884812
1757088897713565700,0.107565673828125,0.9530956743597984,0.32691154859438537,-0.7970145935490727
1757088897723520800,0.117520751953125,0.3661643854439258,0.2636315741430968,-0.6256102714002132
1757088897733475600,0.1274755859375,0.15402502506375312,0.17226145043484867,-0.40141836191564795
1757088897743429600,0.1374296875,0.35552374896407124,0.2734522725421935,-0.3004913053110242
1757088897753384700,0.147384765625,0.8099766587138175,0.4050768478905782,-0.3413248354807496
1757088897763339800,0.15733984375,1.6141437543660402,0.4647669446237385,-1.1883449844315648
1757088897773293800,0.1672939453125,2.7854361894488333,0.8133118675511329,-1.6869038701504468
1757088897783248600,0.17724853515625,3.6697593563556667,0.8333123069200664,-1.493465118587017
1757088897793203700,0.18720361328125,3.787814657893777,0.7382697783093899,-1.2564146043121813
1757088897803157800,0.19715771484375,3.6956782259881495,0.6307900851909071,-1.1404928076714276
1757088897813112800,0.20711279296875,4.235320524984598,1.0354045397341252,-1.6375547328308224
1757088897823067600,0.217067626953125,4.49151179305911,1.788014466628432,-1.7762641153410077
1757088897833021700,0.227021728515625,4.672531208032369,2.1035659784272314,-1.556130833597481
1757088897842976800,0.236976806640625,4.969174898004532,2.0708282225601375,-1.1617653128027916
1757088897852931800,0.246931884765625,5.144951736149191,2.0333666530415413,-1.2055933486133814
1757088897862885600,0.2568857421875,5.378784457421302,1.9767367110639809,-1.7779460770785807
1757088897872840700,0.2668408203125,5.504541419377922,2.149190250004828,-2.0386200435251
1757088897882795800,0.276795654296875,6.057858023461699,2.397484481219202,-1.8522621901333332
1757088897892749800,0.286749755859375,6.026662090209126,2.1523770633473993,-1.8863591055244207
1757088897902704600,0.29670458984375,5.244115290212631,1.861950932715833,-1.8364578872799873
1757088897912658700,0.30665869140625,5.359613308483362,1.5121074213452637,-0.2799409769743681
1757088897922613500,0.316613525390625,4.124631952822208,1.775607843389362,0.7115121928304433
1757088897932568800,0.32656884765625,2.2381290549129247,2.0935330985821783,1.2418705306529998
1757088897942523000,0.33652294921875,0.32414427583813665,2.0654948987081645,1.390509186503291
1757088897952477700,0.346477783203125,-1.0779226619899271,1.7053870368242263,1.2242986336052417
1757088897962432500,0.3564326171875,-2.0600123756438493,1.3994463800661265,1.3009195164710283
1757088897972386600,0.366386474609375,-2.7900702789902687,1.295006200774014,1.477647956252098
1757088897982342000,0.376341796875,-3.2290947334617375,1.2485165445387363,1.6255664811342954
1757088897992296700,0.386296630859375,-3.370248001992702,0.9614133477848023,1.5972726990640163
1757088898002250800,0.396250732421875,-3.446317096194625,0.8199209104273468,1.574855700072646
1757088898012205600,0.40620556640625,-2.9953648880422112,0.7712896390534937,1.5881015506148337
1757088898022161000,0.416160888671875,-2.34703541983366,0.8245522234898061,1.5752666189610958
1757088898032114700,0.42611474609375,-1.9164684125840663,0.9081159112308174,1.6489140389740466
1757088898042069800,0.43606982421875,-1.8074580027669667,1.109512562996149,1.7009055074959993
1757088898052024600,0.446024658203125,-2.103942702785134,1.4290681958697735,1.7353297551453113
1757088898061979000,0.455978759765625,-2.6866777090549467,1.6472713863335549,1.8308032225191593
1757088898071933700,0.46593359375,-3.56447410454154,1.8274059812963008,1.9616946247547864
1757088898081888800,0.475888671875,-4.166645632687211,1.8182957692541182,2.27030932302773
1757088898091842600,0.485842529296875,-4.2469905045121905,1.7659294760704038,2.7344091820448635
1757088898101797600,0.495797607421875,-3.902713541227579,1.2928028455108402,2.7232471520394084
1757088898111752700,0.505752685546875,-3.627358138477802,1.2466666788883507,2.8234657681137323
1757088898121706500,0.51570654296875,-2.879836474633217,1.1566792417101561,3.0414830806165933
1757088898131661300,0.525661376953125,-2.26600081217885,1.0158112198613582,2.6791274398058653
1757088898141616600,0.53561669921875,-2.368523613542318,0.8380947919562458,2.4601672934949397
1757088898151570400,0.5455703125,-2.471388360211253,0.320646789111197,2.4280256038248536
1757088898161525500,0.555525390625,-2.2817700437188146,0.2756466407813132,1.8363076651543377
1757088898171479600,0.5654794921875,-2.106550254935026,0.4778846387416124,1.0787164427161215
1757088898181434600,0.5754345703125,-1.2875640680745244,1.1216256101161242,0.17750819198191164
1757088898191389400,0.585389404296875,-0.28233605541735884,1.035695339374244,-0.8818389488756656
1757088898201343500,0.595343505859375,0.28450960006415843,0.5646282716929912,-0.705585725390911
1757088898211298600,0.605298583984375,-1.1001046831816435,0.232817991271615,1.854565790900588
1757088898221253600,0.615253662109375,-2.7370339775905013,-0.26968203328847884,2.8485569547504186
1757088898231207700,0.625207763671875,-3.2380019702777263,-0.83792849547863,3.0235622240006923
1757088898241162500,0.63516259765625,-3.366249580006301,-0.7011039038017391,3.077032532903552
1757088898251117600,0.64511767578125,-3.3615321960955855,-0.12271861717402935,2.455030515128374
1757088898261071400,0.6550712890625,-2.983351209643483,-0.17264409307688475,1.5747253516912458
1757088898271026700,0.665026611328125,-1.9739678308725357,-0.6334545551598072,0.8853589396953582
1757088898280981500,0.6749814453125,-0.7894733843892813,-0.8409148178130388,1.0936328568190337
1757088898290935600,0.684935546875,0.04078165385201573,-0.4587938615635037,1.8246780176371336
1757088898300890400,0.694890380859375,0.3219413589663803,-0.278324189427495,2.1442174300283194
1757088898310845700,0.704845703125,0.12001476504281162,-0.3950099561780691,1.9617396329402923
1757088898320799500,0.714799560546875,-0.39723347744643683,-0.37816929601430893,1.9641613071292638
1757088898330754600,0.724754638671875,-0.971414298121631,-0.46603959490805863,2.2006506803900003
1757088898340709400,0.73470947265625,-1.6637063883058725,-0.5240425788044929,2.6586265035688874
1757088898350663400,0.744663330078125,-2.4480285274118185,-0.4708399809271097,3.231125362506509
1757088898360618500,0.754618408203125,-3.1469425199538468,-0.34686814882159234,3.170000739458203
1757088898370573600,0.764573486328125,-3.4324083978295326,-0.13775485826432704,2.6187492512106894
1757088898380527600,0.774527587890625,-3.0922616662174462,0.05985358019918203,1.7717846318393944
1757088898390482400,0.784482421875,-2.305455455210805,0.031951135534048075,0.9504267474114895
1757088898400437500,0.7944375,-1.2316209393173456,-0.1191416354700923,0.5882955630064011
1757088898410391600,0.8043916015625,0.05525609634108841,-0.152730893599987,0.7567419121325015
1757088898420346600,0.8143466796875,1.3360605340875684,-0.03928016324788332,1.1001233878821135
1757088898430301400,0.824301513671875,2.430900867000222,-0.06396189230084419,1.3215537236988544
1757088898440255700,0.834255859375,3.4298265646427866,-0.5387865589499473,1.846037032008171
1757088898450210600,0.84421044921875,3.8667029011696576,-0.7345578451141714,2.350006544598937
1757088898460164600,0.85416455078125,3.4461329717993734,-0.35583676043599843,2.3178169241338966
1757088898470119400,0.864119384765625,2.411338965179026,0.034250644648075104,2.0423685824036597
1757088898480074800,0.87407470703125,1.290832129959762,-0.07447101135551928,2.0110504840761423
1757088898490028500,0.884028564453125,0.2432271570831537,-0.44339317107498644,2.2440058379918337
1757088898499983600,0.893983642578125,-0.7106278112113475,-0.5077455239981412,2.6136311775445935
1757088898509938400,0.9039384765625,-1.6083172401696442,-0.02786065135002136,2.6397470310539006
1757088898519892500,0.913892578125,-2.600310800461471,0.3203641727775335,2.5242759007900952
1757088898529847600,0.92384765625,-3.474138876838982,0.5128308644384145,2.2853905723035335
1757088898539802600,0.933802734375,-3.3506966215655205,1.3167775953382252,2.1824399009168145
1757088898549756400,0.94375634765625,-2.4531083148941395,2.249133848530054,1.8947803123891354
1757088898559711500,0.95371142578125,-1.8011685472339392,1.9163842414319514,1.9275240596055983
1757088898569666600,0.96366650390625,-1.3519032692551611,1.4188129054456948,2.248508994629979
1757088898579620600,0.97362060546875,-1.120167520262301,1.4412217211306095,2.037240571865439
1757088898589575400,0.983575439453125,-0.6625324733451008,1.4915005405157804,1.740619678246975
1757088898599530500,0.993530517578125,-0.036219022111594674,1.2285042686015366,1.4745236867517233
1757088898609484500,1.003484619140625,1.923572691631317,1.0902280168116092,1.6719781036972998
1757088898619439600,1.013439697265625,3.3730250654906033,1.0265168844014405,1.4225094218760728
1757088898629394400,1.02339453125,2.512421796867251,0.05254208814203739,1.4183657462000847
1757088898639348500,1.033348388671875,0.5900552661553025,-0.9862404035925865,1.2743255240559577
1757088898649303600,1.043303466796875,0.22367139274179934,-0.8635288006812334,1.3762708177924154
1757088898659258600,1.053258544921875,1.2332622767835855,-0.09044891721010208,1.4123252969920634
1757088898669212700,1.063212646484375,0.1474190509274602,-0.6115513509094714,0.2343266422688961
1757088898679167500,1.07316748046875,0.6789709824487566,-1.655446655613184,-1.6426608237981795
1757088898689122600,1.08312255859375,0.7932119863957167,-1.0995371124267577,-1.791925502592325
1757088898699076400,1.093076416015625,-0.06066869597434997,-0.6575234130114317,-1.7448036859333513
1757088898709031700,1.10303173828125,3.0272505571246144,-1.0833294894695282,-2.8749487025916576
1757088898718986500,1.112986572265625,4.760824993035197,-1.1092729090213775,-3.9030817900180814
1757088898728940500,1.1229404296875,4.24669356739223,-0.6977654070287942,-3.5276088934808967
1757088898738895400,1.132895263671875,3.124823627126217,-1.1819336560845375,-2.7911498909205195
1757088898748849700,1.142849609375,3.500931606696546,-2.2830630061388013,-2.534521984994411
1757088898758804500,1.152804443359375,4.394211402519047,-2.7960820866256952,-1.8852976137727497
1757088898768759600,1.162759521484375,2.9034219328820705,-2.2843261579424143,-0.6495932045340538
1757088898778713300,1.17271337890625,1.7644202405512333,-2.254853979742527,-0.18235855462253092
1757088898788668700,1.182668701171875,-0.34573359183371066,-1.2420260134756564,0.13208148880302906
1757088898798623500,1.19262353515625,-2.811037371434271,-1.4673977803945542,0.00862169787287712
1757088898808577500,1.20257763671875,-2.6251439206838607,-3.010367226862907,-0.78844988656044
1757088898818532400,1.212532470703125,-0.72220485175848,-2.3350369390040635,-1.4400690439641475
1757088898828487700,1.22248779296875,0.5955675998359918,-1.2377362073272467,-0.4486632204324007
1757088898838441700,1.232441650390625,-0.24648791244477034,-1.7428250793367623,2.4747610515147445
1757088898848396500,1.242396484375,2.4686992672577497,-1.9720079289764165,2.777158190447092
1757088898858351400,1.252351318359375,6.256673207366466,-1.6088316194325685,1.5943851609289645
1757088898868305400,1.262305419921875,6.491386803126335,-1.6795996846169232,-1.3912322400808335
1757088898878260700,1.2722607421875,4.164703266447782,-1.6047960803061723,-3.1768145111262798
1757088898888215600,1.282215576171875,1.1156143870025872,-1.4948428366810083,-2.956093784883618
1757088898898169600,1.292169677734375,0.2727110257208347,-1.4321499414026737,-2.9999037005156275
1757088898908124400,1.30212451171875,0.18887071299552916,-0.641500498971343,-2.614654090851545
1757088898918079500,1.31207958984375,-0.5563502726912498,0.5644079069405794,-1.2783598941385745
1757088898928033500,1.322033447265625,-1.758965482276678,0.5085474880307913,-0.2737970673918724
1757088898937988600,1.331988525390625,-2.6833172927111386,-0.4248936377882957,0.8233008351892233
1757088898947943400,1.341943359375,-2.9942887832432983,-0.44345805300474167,1.405013512673974
1757088898957897500,1.3518974609375,-2.3965520226746797,-0.13487842604517936,0.9657114103049039
1757088898967852500,1.3618525390625,-2.2185616001337767,-0.33657822547554966,0.7117214516669511
1757088898977807600,1.3718076171875,-1.8857517872810363,-0.05638327374011278,0.08753390654623508
1757088898987761400,1.381761474609375,-0.6922907750099897,-0.42375294332057234,-0.39768297477960585
1757088898997716500,1.391716552734375,-0.5770470237612724,-0.5688301072970032,0.13166297113001346
1757088899007670500,1.40167041015625,-0.5644014771997928,-0.769195735514164,0.9066139091700315
1757088899017625600,1.41162548828125,-0.716725543564558,-1.6756766659542917,1.3134049040347338
1757088899027580400,1.421580322265625,0.0048848494321107865,-1.0455120922505854,1.136467205417156
1757088899037534500,1.431534423828125,1.296324589896202,0.49865124017745255,1.230954584363103
1757088899047489500,1.441489501953125,2.0065420667409897,0.857889625750482,0.996681718108058
1757088899057444600,1.451444580078125,2.251160970443487,-0.3784109958156943,1.4426877020299433
1757088899067398700,1.461398681640625,1.1657383080869912,-1.685605354772508,4.255116527822613
1757088899077353500,1.471353515625,-0.586719691991806,-1.7479402303934097,5.310520484012365
1757088899087308500,1.48130859375,-0.7953110045015811,-0.8062491626232862,1.0237889207422732
1757088899097262600,1.4912626953125,0.4486404240787029,0.8994275047972797,-1.9385159937411545
1757088899107217700,1.5012177734375,0.12857085033357143,1.3078192128568886,-2.413178163304925
1757088899117172500,1.51117236328125,-0.868926860332489,-0.3094315676137805,-2.24904850833416
1757088899127127300,1.521127197265625,0.02681494168937206,-0.42590164578706025,-1.802270955517888
1757088899137082400,1.531082275390625,2.357501868790388,0.5389405804678797,-4.479965732172131
1757088899147037200,1.541037109375,4.576733915531635,0.9455959662541746,-6.950596552014351
1757088899156991200,1.5509912109375,4.765288986706733,1.8690639795914292,-4.845063365167379
1757088899166946000,1.560946044921875,2.8526263961464164,1.1857181430593133,-2.404343114942312
1757088899176901400,1.5709013671875,0.9739017310231923,0.47939504330456256,-1.856204790279269
1757088899186855400,1.58085546875,-0.5336345830142498,0.9266282309338449,-1.2056178985327481
1757088899196810200,1.590810302734375,-1.2599912937551736,1.31743079854995,-0.6290495981991291
1757088899206765000,1.60076513671875,-1.2149404381513595,0.8363669452503323,-0.5315151066422462
1757088899216719400,1.61071923828125,-0.8114835561454296,0.10621522614061832,-1.0491922420680522
1757088899226674400,1.62067431640625,-0.13138766131997107,0.18606033174991607,-1.201062134924531
1757088899236629200,1.630629150390625,-0.34025136103034015,1.2557991027623414,-0.6978337960898876
1757088899246583300,1.640583251953125,-0.5736521206259727,1.774456189136207,0.1370773973941803
1757088899256538400,1.650538330078125,-0.32735330101251603,0.8929650307849049,0.331100086325407
1757088899266493400,1.660493408203125,-0.39171500628590583,0.5830956562757492,-0.18111060038805007
1757088899276447200,1.670447265625,-0.3510848897337913,1.2334449398741125,-0.28792028529047964
1757088899286402300,1.68040234375,-0.18859131153225897,1.3566615696981548,-0.6484498797178269
1757088899296357400,1.690357421875,-0.09115911130607128,0.9811281751453876,-1.255512687036395
1757088899306311400,1.7003115234375,-0.43644729745984073,0.33173312353193757,-1.0692080251365899
1757088899316266200,1.710266357421875,-0.46237493492066856,-0.23663170434087513,-0.11509236007928847
1757088899326220300,1.72022021484375,-0.006309913799166679,-0.09569441664814948,-1.598733419266343
1757088899336175000,1.730175048828125,0.746181355151534,1.1812386595577,-5.612167681360244
1757088899346130400,1.74013037109375,0.9118725603505968,2.7459143263995647,-8.829137092742323
1757088899356085200,1.750085205078125,0.11825082411020993,3.268894828930497,-8.636710148569941
1757088899366039300,1.760039306640625,-2.316451480999589,2.3880571660518646,-4.9261973415434355
1757088899375994000,1.769994140625,-1.8402374058187008,1.780493423473835,-1.6542478012174366
1757088899385948200,1.7799482421875,-1.9224299513369798,0.7101391509115695,0.5128852249741553
1757088899395903200,1.7899033203125,-1.3159677402600645,-0.9599866029173135,1.117132974871993
1757088899405858300,1.7998583984375,0.12951952936053276,-1.082940197890997,3.1398359028190375
1757088899415812400,1.809812255859375,0.867820944917202,-2.536494161850214,4.379018217301368
1757088899425767200,1.81976708984375,3.225245656818151,-1.203233049222827,-0.6606769086062908
1757088899435722200,1.82972216796875,3.5167180816322565,-0.13437749078571795,-2.7714094176620243
1757088899445676300,1.83967626953125,8.759126567927002,-1.2426672339886426,-1.9087579843372104
1757088899455631400,1.84963134765625,5.649768220958113,-3.4419051249712704,3.713120359176397
1757088899465586200,1.859586181640625,0.5042313783973456,-1.6768220365971327,10.947091954267025
1757088899475540500,1.86954052734375,-0.8355722877413034,-0.373389076000452,9.70439198705256
1757088899485495300,1.879495361328125,0.24308278017640111,-0.6662754592657089,7.177250759959221
1757088899495450400,1.889450439453125,0.15604162558317183,-1.0900707804232834,4.187136632052064
1757088899505404200,1.899404052734375,-0.20442732469812033,-0.7825947307914495,2.222514721673727
1757088899515359500,1.909359375,-0.6823920429386198,-0.38847324788570403,1.919611386784911
1757088899525314300,1.919314208984375,-0.2927192100048065,-0.8768494700253009,1.2625333794534206
1757088899535268400,1.929268310546875,0.5026245277225971,-1.7986778994619845,1.1687702231287955
1757088899545223200,1.93922314453125,1.1548254305370151,-2.464821841302514,1.9214397712558506
1757088899555178200,1.94917822265625,1.3461702785611152,-2.693383928695321,1.942474375978112
1757088899565132300,1.95913232421875,1.1895559676565228,-2.686397138547897,2.0358856501251457
1757088899575087400,1.96908740234375,0.29372940996065733,-2.667855519685149,0.7977060829445719
1757088899585042200,1.979042236328125,-0.04702756250426173,-2.3401994363337755,-0.2164882032394409
1757088899594996200,1.988996337890625,-0.204993507213518,-2.8612182834029194,-1.0769202069491148
1757088899604951300,1.998951416015625,-1.4049819484919308,-2.6881781767457724,-2.2064912231117484
1757088899614906400,2.00890625,-4.231171004089713,-0.39019115771949286,-2.5107111935570834
1757088899624860200,2.018860107421875,-1.6963555891066788,-2.1204250510305167,-2.3608707607015966
1757088899634815200,2.028815185546875,0.1375876850038767,-3.0949481288224456,-2.0349448621436954
1757088899644770300,2.038770263671875,2.7424206390649077,-3.2106285179227587,-1.7666408392101525
1757088899654724400,2.048724365234375,7.161195697215199,-0.7586305023580789,-1.699348925703764
1757088899664679200,2.05867919921875,-0.8301484360616653,0.4016729211986065,-1.9177830023139715
1757088899674634200,2.06863427734375,-2.223697209456563,4.970865335309505,-1.8532883183106779
1757088899684588300,2.07858837890625,-0.43539815373308954,9.054335256659984,-1.222858371669054
1757088899694543400,2.08854345703125,-0.14280457940194755,7.363035197377204,-1.3616270831510424
1757088899704498200,2.098498291015625,-3.6829584451466797,4.246481385946273,-1.8658298199757932
1757088899714452200,2.1084521484375,-3.9183950944840906,2.5597382593154907,-1.9044038807809351
1757088899724407300,2.1184072265625,1.1334680236011743,2.5321751296073196,-0.8005304927155376
1757088899734362400,2.1283623046875,1.9242437227606772,2.5380162568509577,-0.009954407781362532
1757088899744316400,2.13831640625,0.8017022399086504,2.2566671666443345,0.494215303556621
1757088899754271200,2.148271240234375,0.6639292614657432,1.6324258455097673,0.9045964318677783
1757088899764226300,2.158226318359375,0.6325193932015448,0.5813882678359746,1.2134291568055748
1757088899774180000,2.16818017578125,0.23437406160719693,-0.35619945626854893,0.362135568319261
1757088899784135400,2.178135498046875,-0.15071714262478053,-0.5380629208505153,-0.21435031442791222
1757088899794090200,2.18809033203125,-0.3576619300365448,-0.7425543968260288,-0.6519754234954714
1757088899804044300,2.198044189453125,-0.14549210145287214,-1.239898938319087,-0.969581237475574
1757088899813999000,2.2079990234375,0.04473525031600147,-2.2217694562643766,-1.0196741788998245
1757088899823953400,2.217953369140625,-0.2197873178500682,-3.987884225773811,-0.5205836705222725
1757088899833908200,2.227908203125,0.011827727372571826,-3.6374212673306463,-0.9046016925647854
1757088899843863300,2.23786328125,0.3103360421728343,-3.3797143339961764,-0.8871744646847247
1757088899853817300,2.2478173828125,0.38013672362975776,-4.017601318645477,-0.6944315864309668
1757088899863772400,2.2577724609375,0.3285346197515726,-3.7478082261979577,-0.7867012893274427
1757088899873727200,2.267727294921875,0.38295002748481927,-3.5423078654408453,-0.7194935469731688
1757088899883681300,2.277681396484375,0.3959112889319658,-3.6676895643442866,-0.24140695591866967
1757088899893636400,2.28763623046875,0.44760289772450923,-3.6900364207088945,-0.18623963383957742
1757088899903591400,2.29759130859375,0.33708500595390795,-3.77372709583044,-0.14352613514214754
1757088899913545500,2.30754541015625,0.08259118944704533,-3.8696529831469055,0.12761106539070605
1757088899923500300,2.317500244140625,0.11185293976664543,-4.023644105941057,0.6603343787789344
1757088899933455000,2.327455078125,0.4174836537927389,-4.599875137144327,1.0948011699460447
1757088899943409200,2.3374091796875,1.0568208372503518,-4.736772501796484,1.0870724753901362
1757088899953364500,2.347364501953125,1.549010480198264,-4.527734030041098,0.8377636603057383
1757088899963319300,2.3573193359375,0.5038602069973945,-5.137740489596128,0.23379034343510866
1757088899973273300,2.3672734375,-0.1330968215917237,-5.653754075723886,-0.6703986766755581
1757088899983228200,2.377228271484375,0.03956855173520744,-6.324624461564421,-1.5532761748187243
1757088899993183500,2.38718359375,-1.5251111336946486,-7.042576916575431,-1.5439195868000388
1757088900003137300,2.39713720703125,-2.0776713664531705,-6.558516219547391,-0.7974800191037357
1757088900013092400,2.40709228515625,-2.4329238972604275,-2.35690098028779,3.197539026986062
1757088900023047200,2.417047119140625,-3.7380420344650744,3.2843647852629423,7.607070748233795
1757088900033001200,2.427001220703125,-0.5017208568811417,12.029704819899797,5.947414365971088
1757088900042956300,2.436956298828125,3.170556619775295,38.201014258968826,-8.042794407594203
1757088900052911400,2.446911376953125,4.487967252320051,40.10027317807674,-5.528684511509537
1757088900062865200,2.456865234375,0.09700834879092872,8.275976556003092,8.466513156384229
1757088900072820200,2.4668203125,-0.7202221535086631,-2.754097632855177,7.3221619197189804
1757088900082775300,2.476775390625,-0.8853367278635501,-6.2014803124547,2.779130951824784
1757088900092729300,2.486729248046875,-0.9362836557686328,-6.915052360424399,0.7909351275049149
1757088900102684200,2.49668408203125,-1.0709095683574676,-4.670667167726159,-0.06479483599364758
1757088900112639200,2.50663916015625,-0.9031038552224635,0.8050631677091121,-0.5043339619889855
1757088900122593500,2.516593505859375,-0.2057248354290612,5.645570184746385,-3.7795419195890423
1757088900132548600,2.526548583984375,0.12552956467522308,3.5463679544866085,-9.79836790934503
1757088900142503400,2.53650341796875,0.2294353448296897,-1.4732219565033913,-9.47867067604363
1757088900152457500,2.54645751953125,-0.22163199586868285,-2.459147887319326,-1.2797528098016977
1757088900162412500,2.55641259765625,-0.8218740172564983,-0.9655062431216239,1.5987231901332735
1757088900172367600,2.56636767578125,-0.04341127170324325,1.039108654949069,1.1054311389014124
1757088900182321700,2.57632177734375,0.8747042746901512,1.2732710465669632,1.624202207043767
1757088900192276500,2.5862763671875,1.0485574512958526,0.4273994831293821,1.570581091493368
1757088900202231600,2.5962314453125,0.8503706284224987,-0.23435411479771137,1.1941089547857642
1757088900212185600,2.606185546875,0.6482382827937603,0.05091945537626743,0.4877227266669273
1757088900222140700,2.616140625,0.4230897667041048,0.20615210266411305,0.39228316156268117
1757088900232095500,2.626095458984375,0.24000231328513472,-0.05062193373441696,0.34244799429178235
1757088900242049500,2.636049560546875,0.2179623491789214,-0.3122767279118299,0.18720248752236365
1757088900252004600,2.646004638671875,0.2534545365869999,-0.5652431887209415,0.1380199389412999
1757088900261959700,2.655959716796875,0.27739421510100365,-0.5629442641288042,0.10816431438177823
1757088900271913500,2.66591357421875,0.3164776867330074,-0.1836760669618845,-0.12016045712381601
1757088900281868500,2.67586865234375,0.3132335902452469,0.11003449216783046,-0.13850100045651195
1757088900291822300,2.685822265625,0.22591537227630615,0.314606047642231,-0.10200228462070227
1757088900301777700,2.695777587890625,0.13712299010157583,0.46980946883559227,-0.1932096189826727
1757088900311732500,2.705732421875,0.14299626604914664,0.4303700233727693,-0.3840890414521098
1757088900321686500,2.7156865234375,0.15419336736798286,0.3891629837155342,-0.7055722813874483
1757088900331641300,2.725641357421875,0.1351987349075731,0.3044020490139723,-0.8589315360188484
1757088900341596700,2.7355966796875,0.06675707597732544,0.09347732512056826,-0.6320625162795186
1757088900351550500,2.745550537109375,-0.04345453545623459,0.08363046936690807,-0.6056470953017473
1757088900361505500,2.755505615234375,-0.17687164764404295,0.1182066927075386,-0.7770692453682422
1757088900371460400,2.76546044921875,-0.21283961760401723,0.14947686024010182,-0.46250995947718615
1757088900381414700,2.77541455078125,-0.13364977016621268,0.22540976084172723,-0.10328501790761947
1757088900391369500,2.785369384765625,0.022784654126828535,-0.22658815697133539,-0.0737210697710514
1757088900401324500,2.795324462890625,0.16689502803087233,-0.19338088389635086,0.0017085574835538863
1757088900411278600,2.805278564453125,0.2371580663025379,0.257467863881588,-0.07687836475819348
1757088900421233400,2.8152333984375,0.22291326785087584,0.49788580876290794,-0.14667495456188917
1757088900431188500,2.8251884765625,0.19817279434800147,-0.7897428489804268,0.006558043341338634
1757088900441142500,2.835142578125,0.2016156100119464,-0.11873334693014621,0.2330608601167798
1757088900451097600,2.84509765625,0.3159913645207882,0.6774591165810823,0.3112719347834587
1757088900461052400,2.855052490234375,0.37552258089780804,0.7101116783827542,0.19605624058544635
1757088900471006700,2.8650068359375,0.24137712703598663,-0.11342179651856421,0.29008740019649265
1757088900480961500,2.87496142578125,0.11473581999288872,-0.050666357398033136,0.5150821504965424
1757088900490916600,2.88491650390625,0.06548983252048492,0.10469371566176414,0.41869653671383855
1757088900500870400,2.894870361328125,-0.028959570768941192,-0.07683832500874996,0.33482553658932446
1757088900510825700,2.90482568359375,-0.22704817569851873,-0.06759235775768757,0.14499240830242632
1757088900520780500,2.914780517578125,-0.2920505352293141,-0.20033143368661402,-0.035352760671079154
1757088900530734600,2.924734619140625,-0.34085341857671736,-0.2088245367437601,-0.2717138313770294
1757088900540689400,2.934689453125,-0.36570498777125027,-0.30137247205972667,-0.58325260040313
1757088900550644700,2.944644775390625,-0.2182043229749426,-0.41121114939451214,-0.6443152641311287
1757088900560598500,2.9545986328125,-0.004236578123830259,-0.4082873709022999,-0.5906555701360107
1757088900570553600,2.9645537109375,0.19991350053548812,-0.36488311346173286,-0.5303811341762542
1757088900580508400,2.97450830078125,0.3798070898165926,-0.35039632294774054,-0.5511226011708379
1757088900590462500,2.98446240234375,0.56141928305123,-0.37527766622602937,-0.5425418198302387
1757088900600417500,2.99441748046875,0.6749731449842452,-0.35500527804791926,-0.47390609049946064
1757088900610371600,3.00437158203125,0.6925111397624015,-0.2980769376456737,-0.47268356296718117
1757088900620326400,3.014326416015625,0.5763152023553848,-0.25216858842968937,-0.4847025020629167
1757088900630281500,3.024281494140625,0.5317874938428402,-0.17324293575286864,-0.36478812865465876
1757088900640235500,3.034235595703125,0.46082883798982943,-0.009811199918389319,-0.18978169036060571
1757088900650190600,3.044190673828125,0.3421358230700716,0.2088987710237503,-0.13418810569345951
1757088900660145400,3.0541455078125,0.13354100342895836,0.2940525044351816,-0.12097294255048036
1757088900670099500,3.064099365234375,-0.1513981836915016,0.3120692226409912,-0.06422784976065159
1757088900680054500,3.074054443359375,-0.2297287565520033,0.2876204255610704,0.07148001284599304
1757088900690009600,3.084009521484375,-0.2998796396860853,0.3047217824876308,0.0063464464172720905
1757088900699963600,3.093963623046875,-0.2107809680411592,0.3446721000820398,0.20076865606009958
1757088900709918500,3.10391845703125,-0.15141455030441284,0.3437807042002678,0.2606920866250992
1757088900719873500,3.11387353515625,-0.21750640383865683,0.4256739745110273,0.20388795712441204
1757088900729827600,3.12382763671875,-0.20788871719837188,0.43764439828991886,0.24811843625605104
1757088900739782700,3.13378271484375,-0.11664127002172171,0.24142975227236746,0.009870821151137351
1757088900749737500,3.143737548828125,0.05894782699849456,-0.2055126357167959,-0.36841859411150213
1757088900759691500,3.15369140625,0.12687047615647315,-0.3313204510778189,-0.7025394895628094
1757088900769646600,3.163646484375,-0.037707507103681565,-0.23783435812890527,-0.23022797477841375
1757088900779601700,3.1736015625,-0.12738828948549927,-0.1955482910633087,0.10860124449431896
1757088900789555500,3.183555419921875,-0.21640410515256225,-0.09708207161426544,0.3481961825549602
1757088900799510500,3.193510498046875,-0.3507376837313175,0.07216857963204383,0.6409568936139345
1757088900809465600,3.203465576171875,-0.5109668241322041,0.15367431192994116,0.8596361771568656
1757088900819419600,3.213419677734375,-0.4905986474294215,0.1998918732255697,0.9676736502885818
1757088900829374500,3.22337451171875,-0.3775509449202567,0.10789864918291568,0.9839525849163532
1757088900839329500,3.23332958984375,-0.48010516433529554,0.024003975921869276,0.7861889558911324
1757088900849283600,3.24328369140625,-0.6084872871637343,0.04559913713634014,0.5832952705010771
1757088900859238700,3.25323876953125,-0.6707517278969287,0.2337339370727539,0.4133955076962709
1757088900869192700,3.263192626953125,-0.6486966210205107,0.2817524103105068,0.464490904161334
1757088900879147500,3.2731474609375,-0.607221139685437,0.2882633996397257,0.43432635978311296
1757088900889102300,3.283102294921875,-0.39958734709620475,0.30534780543148515,0.4065586474135518
1757088900899056400,3.293056396484375,-0.17619710938334465,0.2738800695002079,0.5780515246286988
1757088900909011700,3.30301171875,-0.16870580377988517,0.2644458862006664,0.6992527229771017
1757088900918966500,3.312966552734375,-0.19194887833185492,0.4654711473703384,0.8925345304131508
1757088900928920600,3.322920654296875,-0.2216823378164321,0.3868891935646534,0.8605942085340619
1757088900938875400,3.33287548828125,-0.28178046736121176,0.29604338599145413,0.47696401676535605
1757088900948830700,3.342830810546875,-0.2843617160260677,0.2710001301497221,0.3627320729076862
1757088900958784500,3.352784423828125,-0.18365202849917112,0.15732991182804107,0.13482903394550083
1757088900968739600,3.362739501953125,-0.01040332059264183,-0.04301730394959449,-0.25452567294985057
1757088900978694400,3.3726943359375,0.0058768561441451305,-0.1797106704622507,-0.5168351316437125
1757088900988648400,3.3826484375,0.011119944429397583,-0.14319558801352977,-0.5071244694903493
1757088900998603500,3.392603515625,0.08127535760812461,-0.09976444256603717,-0.46118397157043217
1757088901008558600,3.40255859375,0.19981296277046204,-0.018408347871899603,-0.5512541185960174
1757088901018512400,3.412512451171875,0.17178864529132842,-0.12417115406990051,-0.5178448932081461
1757088901028467500,3.422467529296875,0.05579140879418701,-0.10953940212726593,-0.4921659698113799
1757088901038422500,3.432422607421875,-0.05786415994763374,-0.06378419764637946,-0.5521043056845665
1757088901048376600,3.44237646484375,-0.06168580059502273,-0.293467982545495,-0.7289581254109739
1757088901058331400,3.452331298828125,-0.09308511093258857,-0.388365111336112,-0.758096833872795
1757088901068286500,3.462286376953125,-0.1799286971271038,-0.3010527385860681,-0.7579483653128146
1757088901078240500,3.472240478515625,-0.20344985796809195,-0.1328372756063938,-0.7452206934258341
1757088901088195600,3.482195556640625,-0.193844994276762,-0.1047042370557785,-0.6526452855810523
1757088901098149600,3.492149658203125,-0.1893441757261753,-0.06748597477376461,-0.6016895898476242
1757088901108104400,3.5021044921875,-0.06155600020289421,-0.0684141955345869,-0.34864509536623955
1757088901118059500,3.5120595703125,-0.0018155980546027421,-0.03184475255012512,-0.16666238831877708
1757088901128013300,3.522013427734375,-0.06150682729892432,-0.01053659158349037,-0.11086948168724775
1757088901137968400,3.531968505859375,-0.12618066726140678,-0.00620703794658184,-0.14087094445824622
1757088901147923500,3.54192333984375,-0.23071546603441237,-0.019832243195176125,-0.05208586880713701
1757088901157877500,3.55187744140625,-0.30699783766083416,-0.01955927147269249,0.12099778473079204
1757088901167832300,3.561832275390625,-0.35480244895219804,-0.01002338136434555,0.3554056755423546
1757088901177787400,3.571787353515625,-0.3319838103573769,0.0477443324714899,0.5436272769793867
1757088901187741400,3.581741455078125,-0.27285591408424076,0.10012801518142223,0.5943830662265419
1757088901197696500,3.591696533203125,-0.280872193409875,0.08161445336937904,0.4762245965749025
1757088901207651300,3.6016513671875,-0.24286299994587895,0.012873510098457336,0.3134714906543493
1757088901217605400,3.61160546875,-0.2329833379011601,0.02569265966117382,0.1288441143169999
1757088901227560400,3.621560546875,-0.23557167389392852,0.08602174841761588,0.004733750523626804
1757088901237515500,3.631515625,-0.19369535667300222,0.14877484945058822,-0.06447276443243026
1757088901247469300,3.64146923828125,-0.14747837989926338,0.21288813292086123,-0.11983721651881933
1757088901257424400,3.65142431640625,-0.14716858329772947,0.22669804708659647,-0.20220219599455594
1757088901267379500,3.66137939453125,-0.17933708790950476,0.1713970156252384,-0.34559506014585495
1757088901277333500,3.67133349609375,-0.20117957494854927,0.08230360467731952,-0.5137132002308964
1757088901287288300,3.681288330078125,-0.2531763041675091,0.005443652358651161,-0.641793344438076
1757088901297243400,3.691243408203125,-0.2854010690111667,-0.04938333185017109,-0.6111190969720482
1757088901307197400,3.701197509765625,-0.30934542370028795,-0.08031564573049545,-0.5416173984616994
1757088901317152500,3.711152587890625,-0.2915630987722426,-0.1445148539185524,-0.4282479166522622
1757088901327107300,3.721107421875,-0.23402985127940773,-0.23545126238465308,-0.3206847830340266
1757088901337061400,3.731061279296875,-0.15079503016658127,-0.27685762400627134,-0.2082198488488793
1757088901347016400,3.741016357421875,-0.04378302762508392,-0.2851695252776146,-0.09602028760164975
1757088901356970200,3.75097021484375,0.05030037362985312,-0.2673947991341352,0.016671148815751075
1757088901366925600,3.760925537109375,0.11118994581326842,-0.21261749928593635,0.13592559701055287
1757088901376880400,3.77088037109375,0.14095628465414045,-0.11376841799914836,0.26300007130652664
1757088901386834400,3.78083447265625,0.19674422284960746,-0.02029284644424915,0.35048575479686256
1757088901396789200,3.790789306640625,0.2356242808640003,0.081681673386693,0.4501736249953508
1757088901406744600,3.80074462890625,0.2850117774326354,0.12408698291778564,0.5544213504552841
1757088901416698400,3.810698486328125,0.36039858845882117,0.15534546001255511,0.6277969677895308
1757088901426653400,3.8206533203125,0.37308030231222505,0.16290332804620264,0.6545601792916655
1757088901436608300,3.830608154296875,0.36429734946303066,0.17054419818818567,0.5853823059082031
1757088901446562300,3.840562255859375,0.3551776389401406,0.16220307082235813,0.47275341333299875
1757088901456517400,3.850517333984375,0.3228477332215756,0.14385668227076528,0.34617841299176216
1757088901466472400,3.860472412109375,0.2581787155646831,0.09281564634144306,0.20900398496389389
1757088901476426200,3.87042626953125,0.18099727620668707,0.0251227508187294,0.09065408439338207
1757088901486381300,3.88038134765625,0.09053425740599631,-0.02225274834036827,-0.026513620655238625
1757088901496336400,3.89033642578125,0.03168232853002846,-0.06206219615936279,-0.1256535015821457
1757088901506290400,3.90029052734375,0.05107691096030175,-0.0674339523255825,-0.1798895341604948
1757088901516245200,3.910245361328125,0.0816506937265396,-0.04579904362261295,-0.2020575268268585
1757088901526200300,3.920200439453125,0.11121705301590264,-0.048345220974087715,-0.20585195067375897
1757088901536154600,3.930154541015625,0.09718611651062965,-0.032384850776195524,-0.23069559229016304
1757088901546109400,3.940109375,0.09370580011419952,-0.02551964118182659,-0.22248305974006652
1757088901556064300,3.950064208984375,0.11346380902938544,-0.06361059464514256,-0.19096154779493807
1757088901566018300,3.960018310546875,0.13526530647091567,-0.026465397599339482,-0.11438918024599551
1757088901575973600,3.9699736328125,0.156069755699113,-0.0027069208711385725,-0.04908288759887218
1757088901585927400,3.979927490234375,0.18861118527650833,0.0025309797823429105,0.029893910743296146
1757088901595882500,3.989882568359375,0.17998839142508805,0.03253974907696247,0.13709201044142244
1757088901605837300,3.99983740234375,0.18272146965079009,0.06967384020686149,0.21640753921866415
1757088901615791400,4.009791259765625,0.20328144259862602,0.1161591125279665,0.2574997203245759
1757088901625746400,4.019746337890625,0.22100538840293882,0.10413432821333407,0.2808838107824325
1757088901635701500,4.029701416015625,0.201338564902544,0.08821487454771995,0.2970686373859644
1757088901645655300,4.0396552734375,0.1622819082122296,0.09193126472234725,0.26850276037603615
1757088901655610400,4.0496103515625,0.1507925459485501,0.08115385012030601,0.20430939740687606
1757088901665565400,4.0595654296875,0.13308394384384153,0.06005436346828937,0.145526369048655
1757088901675519500,4.06951953125,0.11023154910989105,0.000384030881524086,0.09543255084156989
1757088901685474300,4.079474365234375,0.09806984054259955,-0.03326981691718101,0.01755494591295719
1757088901695429400,4.089429443359375,0.102469025349617,-0.031332126852869985,-0.05205342784225941
1757088901705383400,4.099383544921875,0.06936871978044509,-0.016879823130369186,-0.10560089363455771
1757088901715338500,4.10933837890625,0.031039281386137006,0.01788344721496105,-0.15092589000463486
1757088901725293300,4.119293212890625,-0.0018237082958221435,0.027788170635700223,-0.1914607294887304
1757088901735247400,4.129247314453125,-0.009839841490983962,0.01472118379175663,-0.22039953146427868
1757088901745202200,4.1392021484375,0.008751607862859964,0.023726912546157837,-0.22298984021842477
1757088901755157500,4.149157470703125,0.06278714943304657,0.03648001113533973,-0.17908669334501026
1757088901765111600,4.159111572265625,0.09195011555328965,0.0537093783557415,-0.13776099574416875
1757088901775066400,4.16906640625,0.06708923054113984,0.04562836323082447,-0.08062573459297419
1757088901785020400,4.1790205078125,0.04422258808612823,0.051880993884801864,-0.029870237606763838
1757088901794975500,4.1889755859375,0.023333090922981498,0.022927286601066587,0.04060264402329922
1757088901804930600,4.1989306640625,-0.007195537527278065,0.0027881694138050077,0.08797229796350002
1757088901814884400,4.20888427734375,0.009864318345114588,0.03132978876531124,0.11388444559425115
1757088901824839400,4.21883935546875,0.03727496090531349,0.06474748972058296,0.15079495710134505
1757088901834794500,4.22879443359375,0.08115048911944031,0.12143033092916011,0.17152327235341072
1757088901844748500,4.23874853515625,0.10499430604353546,0.0957376712679863,0.2074582168266177
1757088901854703400,4.248703369140625,0.13221899757757782,0.06443067885637282,0.214539114998281
1757088901864658400,4.258658447265625,0.13822539838552475,0.016104747104644775,0.25494711323231456
1757088901874612200,4.2686123046875,0.1432606160737574,-0.019365210205316542,0.24398235936462878
1757088901884567600,4.278567626953125,0.05061272751465439,-0.047103696480393406,0.0754012779429555
1757088901894522400,4.2885224609375,0.05130713951960206,-0.06693184802234173,0.14943535918593406
1757088901904476400,4.298476318359375,0.06399243356958031,-0.045374096208810805,0.1347869483694434
1757088901914431200,4.30843115234375,0.05200257443785667,-0.008858429238200188,0.24369798946529625
1757088901924386600,4.318386474609375,0.010168342792987823,0.05971066459715366,0.21148849525600671
1757088901934340400,4.32834033203125,0.0044109483100473875,0.0648375060915947,0.16692893030047415
1757088901944295400,4.33829541015625,0.01679324082545936,0.08126198666989803,0.21119155813604593
1757088901954249500,4.34824951171875,-0.00038001229353249073,0.06997077732682228,0.18992519048452375
1757088901964204300,4.358204345703125,-0.029020488909631968,0.0612163929849863,0.16254735421538352
1757088901974159400,4.368159423828125,-0.0421802686035633,0.025782091510295868,0.10929010354131459
1757088901984113400,4.378113525390625,-0.021621464699506758,-0.01250818391740322,0.05869359650909901
1757088901994068500,4.388068359375,0.03687061788812279,-0.016152093377709387,0.00973842694312334
1757088902004023300,4.398023193359375,0.05614230459108949,-0.010613163951039313,-0.015978490376472473
1757088902013977300,4.407977294921875,0.05460267393365502,0.016115268498659133,-0.049718847414851185
1757088902023932400,4.417932373046875,0.02380173134803772,0.036601007166504856,-0.08181962055265903
1757088902033887500,4.427887451171875,-0.031805151192098854,0.05893500404953956,-0.11222352664470672
1757088902043841300,4.43784130859375,-0.07826412002816796,0.04315057494044303,-0.12368746220618486
1757088902053796400,4.44779638671875,-0.1439059282399714,-0.0020171850413084028,-0.12194383340924977
1757088902063751400,4.45775146484375,-0.1504326996602118,-0.0349696065723896,-0.10546060838103294
1757088902073705500,4.46770556640625,-0.11748897289223968,-0.0713508335083723,-0.12186492295414209
1757088902083660300,4.477660400390625,-0.11757087902203202,-0.0991793361544609,-0.1367629246175289
1757088902093615400,4.487615478515625,-0.10810863867178559,-0.08754735054969787,-0.13356938927322626
1757088902103569400,4.4975693359375,-0.07868607176728547,-0.038731004932522774,-0.13354425483196972
1757088902113524500,4.5075244140625,-0.03938260070905089,0.016480010157823563,-0.1523527079373598
1757088902123479600,4.5174794921875,-0.03103796621188521,0.058768999832868575,-0.1533504868030548
1757088902133433600,4.52743359375,-0.03791545076593757,0.08604337572753429,-0.09409078084379434
1757088902143388400,4.537388427734375,-0.04302066495046019,0.06008125147521495,-0.02751695247888565
1757088902153342500,4.547342529296875,-0.05932181141003966,0.03300678206682205,0.015908932271599768
1757088902163297500,4.557297607421875,-0.017153233244270084,-0.001689268261194229,0.03990151001662016
1757088902173252600,4.567252685546875,0.005067950914055108,-0.041053310400247574,0.07440116098970175
1757088902183206700,4.57720654296875,-0.012062047585099935,-0.06112579209208488,0.10699643964618444
1757088902193161500,4.587161376953125,-0.01828369857892394,-0.04994856451749801,0.1325260177001357
1757088902203116500,4.597116455078125,0.010844050097465514,-0.027734394621849057,0.12132102533578872
1757088902213070600,4.607070556640625,0.006689195440337061,-0.006358429116010665,0.10671762270480394
1757088902223025700,4.617025634765625,-0.027910774102061987,0.018045359778404234,0.07477671630382537
1757088902232980500,4.62698046875,-0.05199424500092864,0.03072247052192688,0.04866232409924268
1757088902242934500,4.6369345703125,-0.08073299435973166,0.0606195961356163,0.033845863239467144
1757088902252889600,4.6468896484375,-0.1201638181246817,0.051591655549407,0.053012336002290245
1757088902262844700,4.6568447265625,-0.1583374814353883,0.050315059742331504,0.07273556586503982
1757088902272798500,4.666798583984375,-0.18085457980036734,0.037600539597868916,0.07456307355314493
1757088902282753500,4.67675341796875,-0.19808029375895855,0.0064770870596170425,0.04136076891422272
1757088902292708600,4.68670849609375,-0.18740341692194343,-0.015031564915180205,-0.012782616944611072
1757088902302662700,4.69666259765625,-0.15166925571784376,-0.04792494973540306,-0.04176584258377552
1757088902312617500,4.706617431640625,-0.12061243867501616,-0.042346857342123984,-0.07201426585316657
1757088902322571500,4.716571533203125,-0.07029810958504676,-0.030898996132612228,-0.10180120909065007
1757088902332526300,4.7265263671875,-0.014095014717429875,-0.014742811101675033,-0.12143676066994666
1757088902342481700,4.736481689453125,0.038397389063984155,0.02643383341729641,-0.08983838409632444
1757088902352435700,4.746435791015625,0.05339607462286949,0.047296004182100296,-0.05327653989642858
1757088902362390500,4.756390625,0.052770563135668636,0.06042611939013004,-0.03952157078832388
1757088902372345300,4.766345458984375,-0.005267857400327921,0.0486550175756216,-0.06361673212498425
1757088902382299400,4.77629931640625,-0.06305011121816932,0.003738602006435394,-0.0989350060045719
1757088902392254500,4.78625439453125,-0.055921428382024164,-0.02555062084197998,-0.10291823042184114
1757088902402209500,4.79620947265625,-0.04930909757018089,0.003288520151376724,-0.07116232519894838
1757088902412163600,4.80616357421875,-0.023899931025505066,0.020201661029458046,-0.03639613224416971
1757088902422118400,4.816118408203125,-0.005502835199981928,0.003655599898099899,0.015332301427423953
1757088902432073500,4.826073486328125,0.006968523838371038,0.011299392649531365,0.0873936212927103
1757088902442027500,4.836027587890625,0.00805346953086555,0.0470300467222929,0.13449877907782792
1757088902451982600,4.845982666015625,0.012283069924637674,0.04865209496617317,0.14345774608105422
1757088902461936400,4.855936279296875,0.0494131424665451,0.05425473727881908,0.1517579569146037
1757088902471891700,4.8658916015625,0.048825113445520395,0.048559155985713004,0.1556274918243289
1757088902481846500,4.875846435546875,0.07237447746768594,0.05735913303494453,0.15662848556041717
1757088902491800600,4.885800537109375,0.0760487820662558,0.053661447560787195,0.15039777447730301
1757088902501755400,4.89575537109375,0.06946684639267622,0.045613750183582304,0.1338444068223238
1757088902511710700,4.905710693359375,0.05383797317147255,0.048179216757416723,0.10852437986582517
1757088902521664500,4.91566455078125,0.036000703185796734,0.016436755537986753,0.07025573174804449
1757088902531619600,4.92561962890625,0.015981997507810593,0.008815759140253067,0.03392038978040218
1757088902541574400,4.935574462890625,-0.026363179333880542,-0.019407880303263663,0.013098843286931514
1757088902551528400,4.945528564453125,-0.032294980535656215,-0.00947743791937828,0.016883330261707304
1757088902561483500,4.9554833984375,-0.03142491970285773,0.005097615399956703,0.018410101437568663
1757088902571438600,4.9654384765625,-0.0047369653940200806,0.02597323016822338,0.03202566207498312
1757088902581392600,4.975392578125,0.018758476483821868,0.021093641433119772,0.04384674051105976
1757088902591347500,4.985347412109375,0.04306757283210754,0.04764905540347099,0.033165479759871955
1757088902601302500,4.995302490234375,0.024280016384273767,0.07620762588977813,0.013451309986412524
1757088902611256600,5.005256591796875,-0.02313523026332259,0.08851414975523948,-0.007380757901072501
1757088902621211600,5.015211669921875,-0.08069792304635047,0.10083411762416362,0.009588204817473888
1757088902631165400,5.02516552734375,-0.11077625044584273,0.1128688388109207,0.012127660167217254
1757088902641120500,5.03512060546875,-0.13374080031737684,0.10574702410697936,0.004276069884002209
1757088902651075600,5.04507568359375,-0.12814108061417936,0.08667232128083706,-0.016024959866702555
1757088902661029600,5.055029541015625,-0.08197809905000031,0.0399497330725193,0.00495440753698349
1757088902670984400,5.064984375,-0.04482354965396225,0.008676642930507659,-0.0049491468399763105
1757088902680939500,5.074939453125,-0.015418591471388935,-0.017760113096237182,-0.008524667239189147
1757088902690893600,5.0848935546875,0.00030504736118018626,-0.020220950251817704,-0.016221943743526934
1757088902700848600,5.0948486328125,-0.020255875434726477,-0.010725976675748825,-0.037737902241945266
1757088902710803500,5.104803466796875,-0.08682005918845534,0.00028232407271862027,-0.04063333142250776
1757088902720757500,5.114757568359375,-0.11533902831673622,0.00708148269355297,-0.04199146803319454
1757088902730712300,5.12471240234375,-0.12500935845971106,0.014043722921609878,-0.05329466007500887
1757088902740667600,5.134667724609375,-0.10105667433366179,0.024767946031689643,-0.0491322796985507
1757088902750621400,5.144621337890625,-0.07919336370229721,0.04821604163646698,-0.019503157371282578
1757088902760576500,5.154576416015625,-0.02598324010558426,0.05519464847743511,0.03309942878633737
1757088902770531300,5.16453125,-0.0023639526523649692,0.05166939696073532,0.05927198091894388
1757088902780485600,5.174485595703125,-0.002947013237327337,0.04448913006782532,0.06456921054422855
1757088902790440400,5.1844404296875,-0.030383301695436238,0.026373043140769003,0.06055559098869562
1757088902800394500,5.19439453125,-0.04418737064227461,0.021336802539229392,0.011280980210006236
1757088902810349600,5.204349609375,-0.02752966582998633,0.005029226338863373,-0.058412441480159755
1757088902820304600,5.2143046875,0.025340046831220386,0.009605448213219642,-0.09311053763478994
1757088902830258700,5.2242587890625,0.06330956587195397,0.013040098837018012,-0.1063622333958745
1757088902840213500,5.234213623046875,0.10366744135394691,0.02063186914026737,-0.12276011822819709
1757088902850168600,5.24416845703125,0.13150690378546714,0.012692892834544181,-0.09364508290290832
1757088902860122400,5.254122314453125,0.14300328031182288,-0.00535655859708786,-0.05506956079304218
1757088902870077700,5.26407763671875,0.12997304528169334,0.004372808256745338,-0.04421937321573496
1757088902880032500,5.274032470703125,0.09794482592344284,0.01397825646996498,-0.08254150508642197
1757088902889986600,5.283986572265625,0.07938961692675947,-0.001592237627506256,-0.12592179712951182
1757088902899941400,5.29394140625,0.06157696992568671,-0.024292145213484762,-0.1458630536571145
1757088902909896700,5.303896728515625,0.050253611878678196,-0.003257540491223335,-0.15115414580255745
1757088902919850500,5.3138505859375,0.0544891305565834,0.007015431720018387,-0.12474603134840725
1757088902929805600,5.3238056640625,0.010014978862181305,-0.003760813838243484,-0.07455372120290994
1757088902939759600,5.333759521484375,-0.017526158209890126,-0.009257657688856124,-0.04317629390358925
1757088902949714400,5.34371435546875,-0.07176642857193946,-0.01963993549346924,-0.012669511958956717
1757088902959669500,5.35366943359375,-0.06812135006785393,-0.01814882015287876,0.019135785363614558
1757088902969623600,5.36362353515625,-0.060057286077737804,-0.010308628046512603,0.04604045116305351
1757088902979578400,5.373578369140625,-0.0599134936928749,0.0033037177205085754,0.0780193514868617
1757088902989533400,5.383533447265625,-0.07444938404560089,-0.01579728859066963,0.06540186197608709
1757088902999487700,5.39348779296875,-0.06789579768367111,-0.023968320086598396,0.04442191005051136
1757088903009442600,5.403442626953125,-0.025863778444379565,-0.013733926320075989,0.014318740470707416
1757088903019397400,5.4133974609375,0.012806728472560643,0.033708792856335636,0.027073884886503218
1757088903029351400,5.423351318359375,0.08032594792880117,0.045907764694094653,0.10861965693384408
1757088903039306800,5.433306640625,0.03868241655044257,0.05137947410345077,-0.05883037463128567
1757088903049261600,5.443261474609375,-0.010372925454378127,0.007860065850615501,0.042917350706458086
1757088903059215600,5.453215576171875,0.04034370082616806,0.05692249518334865,0.058253743787109846
1757088903069170400,5.46317041015625,0.03935951209440827,0.030889059260487555,0.05221037196964025
1757088903079124500,5.47312451171875,0.015466595331579446,0.025216274321079254,0.06417845766097306
1757088903089079600,5.48307958984375,0.021789807003736495,0.010599719947576523,0.07195552140325308
1757088903099034600,5.49303466796875,0.015661825642734765,0.0230400993257761,0.08365940320044755
1757088903108988400,5.502988525390625,0.01805471212863922,0.03139934687018394,0.08355681960880756
1757088903118943500,5.512943603515625,0.01675955775156617,0.027771804022789,0.09645575640946626
1757088903128897500,5.5228974609375,0.004912321960926056,0.016220482438802718,0.10188538024276494
1757088903138851600,5.5328515625,0.009957914912700653,0.0010614917516708372,0.10389116710722446
1757088903148806700,5.542806640625,-0.014858619501069188,0.02548749247789383,0.08621668646782636
1757088903158761500,5.552761474609375,-0.04964125213399529,0.055496846294403074,0.07711392707973719
1757088903168715500,5.562715576171875,-0.01878171122893691,0.02738017435669899,0.08980068243443966
1757088903178670600,5.572670654296875,-0.032495909935235975,0.04574760569632053,0.05680851341485977
1757088903188625700,5.582625732421875,-0.03971358622908592,0.04104688065946102,0.045540100425481796
1757088903198579500,5.592579345703125,-0.035506051536649465,0.041562428966164584,0.0378846172362566
1757088903208534500,5.602534423828125,-0.04095379554852843,0.023396657678484915,0.014724690923094749
1757088903218488600,5.612488525390625,-0.05697554054483771,-0.010460019215941429,0.0028860768303275107
1757088903228443600,5.622443603515625,-0.09582534955143927,-0.017559622088074683,-0.03421440429091453
1757088903238398500,5.6323984375,-0.08673026201315223,-0.06966624142229556,-0.06340981137603521
1757088903248352500,5.6423525390625,-0.07095745027661324,-0.06436521240472794,-0.08350333585590124
1757088903258307600,5.6523076171875,-0.08642514158673584,-0.036870471757650375,-0.07901391548216342
1757088903268262700,5.6622626953125,-0.05324176084399223,-0.004883680388331413,-0.06418050348758697
1757088903278216700,5.672216796875,-0.04451733324900269,-0.011211714366078375,-0.04401858994662761
1757088903288171500,5.682171630859375,-0.07190086860656737,0.007374328160285949,-0.00926525647342205
1757088903298126300,5.692126220703125,-0.06732179718799888,0.010175941577553749,-0.018721651604771614
1757088903308080400,5.702080322265625,-0.04827332478165626,0.03196516405940056,-0.04632599010616541
1757088903318035700,5.71203564453125,-0.04854110887236893,0.028876550394296645,-0.03758388072401285
1757088903327990500,5.721990478515625,-0.05161342898979783,0.003846738556027412,-0.06226560977697372
1757088903337944600,5.731944580078125,-0.07116320198178291,-0.014900047490000724,-0.04745645544081926
1757088903347899400,5.7418994140625,-0.05794950014352798,-0.008797638961672783,-0.024896833108365535
1757088903357853700,5.751853759765625,0.008558423378318547,0.004043137910962105,-0.005429916094243526
1757088903367808500,5.76180859375,0.044341830551624294,0.011882745495438576,-0.0015697335347533226
1757088903377763600,5.771763671875,0.03101473146677017,0.01262976447045803,-0.002160977426171303
1757088903387717400,5.78171728515625,0.020627777487039565,0.02322130111157894,-0.01144903025329113
1757088903397672400,5.79167236328125,0.0030113106451928615,0.030501521247625347,-0.03040565965771675
1757088903407627500,5.80162744140625,-0.014286884027719497,0.027227029621601104,-0.044130818149447436
1757088903417581600,5.81158154296875,-0.018207710733264684,0.016346154645085334,-0.06025982291251421
1757088903427536400,5.821536376953125,-0.0154980133831501,0.023404840984940528,-0.05096563260555267
1757088903437491500,5.831491455078125,0.005168488679081202,0.01866027680635452,-0.04747779048979282
1757088903447445500,5.841445556640625,0.01538344709277153,0.022148118922114372,-0.03580225800424814
1757088903457400600,5.851400634765625,-0.026869302225112912,-0.005385200169682502,-0.03307020269185305
1757088903467355400,5.86135546875,-0.06254618028402328,-0.02558276954591274,-0.048128363353013986
1757088903477309400,5.871309326171875,-0.0662437196277082,-0.029693711996078488,-0.08811609034836292
1757088903487264500,5.881264404296875,-0.07720489329881966,-0.04173310935795307,-0.0914718305170536
1757088903497218600,5.891218505859375,-0.07370126909203827,-0.04554126946926117,-0.06887684461027384
1757088903507173600,5.901173583984375,-0.03208557556867599,-0.04385843094885349,-0.012330489262938499
1757088903517128400,5.91112841796875,0.023039514803886413,-0.02179214509129524,0.01980447840541601
1757088903527082500,5.92108251953125,0.06873612096533178,0.02966097877025604,0.05329875172823667
1757088903537037600,5.93103759765625,0.09693111883625388,0.05466974782049656,0.06869885769486427
1757088903546992600,5.94099267578125,0.10032616810202598,0.05005144037008285,0.04133066603690386
1757088903556946400,5.950946533203125,0.08921309180483221,0.0355798474252224,0.007979308316111565
1757088903566901500,5.960901611328125,0.06711005413345993,0.008821019837260245,0.010959785431623459
1757088903576856600,5.970856689453125,0.0659689943395555,-0.01274959145784378,-0.0024310265392065047
1757088903586810600,5.980810546875,0.08353855329975485,-0.034330724146962165,-0.010947218210995197
1757088903596765400,5.990765380859375,0.1297602062486112,-0.056012979122996326,-0.04157499618679285
1757088903606720500,6.000720458984375,0.1384182906091213,-0.02258767938315868,-0.03226765413731336
1757088903616674300,6.01067431640625,0.16047347055077552,-0.04131400716304779,-0.03692892394661903
1757088903626629600,6.020629638671875,0.17387056613191962,-0.04241816901266575,-0.04587415468543768
1757088903636583700,6.030583740234375,0.14732976520881055,-0.05014788648188114,-0.043158465985953805
1757088903646538500,6.04053857421875,0.11720701414570212,-0.0451782813757658,-0.042675358644127845
1757088903656493300,6.050493408203125,0.10999284498319029,-0.057034723386168475,-0.04803834698200225
1757088903666447600,6.060447509765625,0.1106990204911679,-0.019885434687137604,-0.02663812381774187
1757088903676402700,6.070402587890625,0.15069661129340528,0.018104981011152266,-0.009997370140254497
1757088903686357500,6.080357421875,0.15646832656264303,0.04622749816775322,-0.0059063014343380925
1757088903696311600,6.0903115234375,0.15969956356883047,0.06132569857835769,-0.010672785183787345
1757088903706266600,6.1002666015625,0.14891886103115975,0.051067339414358134,-0.0010498013138771057
1757088903716221700,6.1102216796875,0.12947152550034224,0.002686462604999542,0.020647066709399222
1757088903726175500,6.120175537109375,0.09433949490785598,-0.02952420064806938,0.04560264426767826
1757088903736130600,6.130130615234375,0.02888239561319351,-0.053875382572412485,-0.00003653261810541153
1757088903746084400,6.14008447265625,-0.007032821246236562,-0.04973930568099021,-0.04249795625060797
1757088903756039700,6.150039794921875,0.00402852486371994,-0.01990647747516632,-0.04592442356795072
1757088903765994500,6.159994384765625,0.026265052721649407,-0.016299977415800092,-0.028884441439807413
1757088903775948500,6.169948486328125,0.04437339473366737,-0.007204232290387153,-0.02593231363594532
1757088903785903400,6.1799033203125,0.06129866444095969,0.012159224349260329,-0.019352935245633123
1757088903795858700,6.189858642578125,0.04625431310944259,0.021298224094510078,-0.05824000752270221
1757088903805812500,6.1998125,0.026199440139532088,0.03055237465202808,-0.09416282316669822
1757088903815767600,6.209767578125,-0.005854644312337041,0.029290976414084433,-0.12486805029287934
1757088903825722400,6.219722412109375,-0.021988690576702354,0.02251636771261692,-0.17708719009086488
1757088903835676400,6.229676513671875,-0.0005962123274803161,0.025717209580540655,-0.20523396490588783
1757088903845631500,6.239631591796875,-0.00517988685593009,0.03704407475888729,-0.18189137550219892
1757088903855586600,6.249586669921875,-0.0244436094481498,0.04487842164635658,-0.13155878010317681
1757088903865540600,6.25954052734375,-0.07844985185861587,0.009274608823657035,-0.10837971069812774
1757088903875495400,6.269495361328125,-0.16146138560958206,-0.019843933632969855,-0.09163885764703154
1757088903885449700,6.27944970703125,-0.1991396666187793,-0.07175006195902824,-0.08537658238187432
1757088903895404500,6.289404541015625,-0.1864939008615911,-0.08894318882226944,-0.10140563390180468
1757088903905359600,6.299359619140625,-0.1493336523771286,-0.08870996458828449,-0.10018500606566667
1757088903915313400,6.3093134765625,-0.07718268146701157,-0.09220131383538245,-0.06599573621600865
1757088903925268700,6.319268798828125,0.0043536651648581025,-0.09652969842851161,0.019770137744396923
1757088903935223600,6.3292236328125,0.0459330452658236,-0.0666805036097765,0.08134659621343016
1757088903945177600,6.339177490234375,0.060329673278331754,-0.035815409746766086,0.10616685695424675
1757088903955132400,6.34913232421875,0.06085223584771156,-0.005343114593625069,0.11335706071928142
1757088903965087500,6.35908740234375,0.010253682988882065,0.003596563187241554,0.05765855437293648
1757088903975041500,6.36904150390625,-0.005842661613598465,0.02297989357113838,0.0420627797037363
1757088903984996600,6.37899658203125,0.056987450178340074,0.048404842206835746,0.006027443595975637
1757088903994951400,6.388951416015625,0.10060914976187049,0.08061667450368404,-0.04669073176532983
1757088904004905500,6.398905517578125,0.1359562113445252,0.08680617679357529,-0.038448534729331726
1757088904014860500,6.408860595703125,0.13858305271677673,0.05637830530405044,-0.026696868267655372
1757088904024814600,6.418814697265625,0.0723614718556404,0.017892799565196037,-0.03580854161456227
1757088904034769400,6.428769287109375,-0.007121887769177555,-0.030780922710895536,-0.08952902588620781
1757088904044724500,6.438724365234375,-0.006973346143960953,-0.05465104312002658,-0.16944705060124396
1757088904054678500,6.448678466796875,0.014729878554865718,-0.08831716587841511,-0.26236761862188573
1757088904064633600,6.458633544921875,0.039025019443035124,-0.13306523914337157,-0.36222879956066606
1757088904074588400,6.46858837890625,0.08669745572209357,-0.1807084493279457,-0.44795697185918687
1757088904084542500,6.47854248046875,0.10808503860048949,-0.18220190275609494,-0.5496029903881251
1757088904094497500,6.48849755859375,0.10862754797935485,-0.17864274896979332,-0.5404708587750792
1757088904104452600,6.49845263671875,0.11236614998579024,-0.16157412526905535,-0.49931379573941226
1757088904114406700,6.50840673828125,0.060086439106985925,-0.2513011579453945,-0.38908714200034733
1757088904124362500,6.518362548828125,0.003833294552564621,-0.4015840738713741,-0.24132526898458598
1757088904134317600,6.528317626953125,0.012668927437067032,-0.5259855295658111,-0.14630232185721395
1757088904144271600,6.538271728515625,0.05641469179168343,-0.6324521001189947,-0.03441299560293555
1757088904154226400,6.548226318359375,0.13984101688861847,-0.6916665056318044,0.11304419537782669
1757088904164180500,6.558180419921875,0.2757036316655576,-0.5892962644815445,0.24701032888367772
1757088904174135600,6.568135498046875,0.444933532384783,-0.2976256867468357,0.297668064583838
1757088904184090600,6.578090576171875,0.49007718083858487,0.09491115731596945,0.39603652274683115
1757088904194044700,6.588044677734375,0.39234395183920856,0.49873979524374007,0.5710571356967091
1757088904203999500,6.59799951171875,0.3210895644426346,0.828448719471693,0.7825010611586273
1757088904213954600,6.60795458984375,0.2792553327977657,1.009084103563428,0.8422926820375025
1757088904223908400,6.617908447265625,0.22673589487895368,0.9377186570078134,0.9602698037728666
1757088904233863700,6.62786376953125,0.156365377644822,0.8457493983626365,0.9762893568120896
1757088904243818500,6.637818603515625,0.2510742173217237,0.5975532206952572,0.6431102722555398
1757088904253772500,6.6477724609375,0.49526642004474997,0.24034897129833696,0.27109847595766184
1757088904263727400,6.657727294921875,0.6894130276165902,-0.059680853980779644,-0.17193784450367092
1757088904273681700,6.667681640625,0.8056780116718262,-0.2813461675971746,-0.48538580815196036
1757088904283636500,6.677636474609375,0.9858616334080695,-0.4605477194935083,-0.4685759815178811
1757088904293591600,6.687591552734375,0.9946153601627796,-0.44852059709131714,-0.38973303868845105
1757088904303545600,6.697545654296875,0.7347638160150498,-0.40569501632153987,-0.17790113682225345
1757088904313500700,6.707500732421875,0.393607688164711,-0.3429401617228985,0.045525925769656896
1757088904323455500,6.71745556640625,0.09514372396282851,-0.30611060649752614,0.3722574416220188
1757088904333409500,6.727409423828125,-0.1023732368249446,-0.22262042238414287,0.6174496151678264
1757088904343364400,6.7373642578125,-0.09636318275518715,-0.17312193972170353,0.8690076704837382
1757088904353319700,6.747319580078125,0.13609065137915313,-0.14153437680304048,1.0790322306670248
1757088904363273700,6.757273681640625,0.4700117134094238,0.0018050035953521728,1.1919048688702285
1757088904373228500,6.767228515625,0.7369068193931132,0.17299392942786215,1.1851156471215187
1757088904383183400,6.777183349609375,0.9223428086996078,0.3212532305717468,1.1425902183420955
1757088904393137400,6.787137451171875,1.0016378792107106,0.4138964429557323,1.0193462621197105
1757088904403092700,6.7970927734375,1.0497942996144294,0.38755437947511673,0.911803294506669
1757088904413046500,6.807046630859375,1.1054583191692828,0.14070260215401648,0.7299575117118656
1757088904423001600,6.817001708984375,0.7794318097811191,0.15429448965489864,0.6398707058124243
1757088904432956400,6.826956298828125,0.5771100790601223,0.15388415528833865,0.5741757061086594
1757088904442910500,6.836910400390625,0.5812146648347377,0.04639233334064483,0.2078051305681467
1757088904452865500,6.846865478515625,0.6475473779201507,-0.19753449644446372,0.01189560497701168
1757088904462820600,6.856820556640625,0.6479214719295502,-0.2561836692899465,-0.0907224734544754
1757088904472774400,6.8667744140625,0.6997871951799839,-0.31388416310846806,-0.25152722178623077
1757088904482729500,6.8767294921875,0.708064025137946,-0.32076398575007914,-0.24430223896875977
1757088904492684500,6.8866845703125,0.6713152069985866,-0.28942016845941543,-0.23405381667688488
1757088904502638600,6.896638671875,0.6552350098133086,-0.25477847866714,-0.08899433448761701
1757088904512593400,6.906593505859375,0.5800748471498489,-0.2583919929891825,0.02594663442224264
1757088904522547500,6.91654736328125,0.603773775710538,-0.28580665413737294,0.25509134400859473
1757088904532502500,6.92650244140625,0.6126970138132571,-0.2674982595086098,0.3272476486809551
1757088904542457600,6.93645751953125,0.7378665312707424,-0.30950843224227426,0.4192538783356547
1757088904552411600,6.94641162109375,0.8119757966417819,-0.278236511144042,0.4915165659919381
1757088904562366500,6.956366455078125,0.8264952473163604,-0.15966098512411117,0.4281017861798405
1757088904572321500,6.966321533203125,0.9705961866717785,-0.09219605313837528,0.4815333705075085
1757088904582275600,6.976275634765625,1.165097087574005,-0.0006108253747224808,0.3739728672377765
1757088904592230700,6.986230712890625,1.39299165096879,-0.04812134909033775,0.2699552972719073
1757088904602185500,6.996185546875,1.55698160520792,-0.06705225953161716,0.4005371951669454
1757088904612139500,7.006139404296875,1.616391241031885,-0.12502864768207073,0.4695858892127871
1757088904622094600,7.016094482421875,1.5934113474607468,-0.20598200679421425,0.5927867369458079
1757088904632049700,7.026049560546875,1.491450856155157,-0.28564591061770916,0.6611877807378769
1757088904642003500,7.03600341796875,1.399278768414259,-0.39134675749540326,0.6886074103221297
1757088904651958500,7.04595849609375,1.3333937990963458,-0.4464794466525316,0.8887376223482191
1757088904661912300,7.055912353515625,1.2481202386975287,-0.41077100441157816,0.9559364507436752
1757088904671867600,7.06586767578125,1.2574760960638522,-0.35349779609441756,0.9477974218212067
1757088904681822500,7.075822509765625,1.3567127153635024,-0.3558452360033989,1.044242072314769
1757088904691776500,7.085776611328125,1.36977210342288,-0.30440263353586194,1.2107048464082182
1757088904701731300,7.0957314453125,1.351015965026617,-0.23220190519988534,1.313758539777994
1757088904711686700,7.105686767578125,1.3597539827555418,-0.11103577816486358,1.5202660317510366
1757088904721640700,7.115640625,1.3170593348890542,0.0691682287722826,1.5459741812422871
1757088904731595500,7.125595458984375,1.3187217151433228,0.10578735611736774,1.428973064932227
1757088904741550300,7.13555029296875,1.3278992933332918,0.2007289085716009,1.4128323697313665
1757088904751504400,7.14550439453125,1.3213871349602937,0.30117431913912296,1.3617147614344953
1757088904761459700,7.155459716796875,1.369507315006852,0.4038280534058809,1.2556819061234592
1757088904771413500,7.16541357421875,1.4297294362574815,0.7339139942526817,1.2443150011956692
1757088904781368600,7.17536865234375,1.4225602752804756,1.0117594602525233,1.2127657244607806
1757088904791323400,7.185323486328125,1.3993237765997648,1.1053308933973311,1.2815320944339037
1757088904801277700,7.195277587890625,1.3700380608826874,1.2020967386692762,1.5703037358567118
1757088904811232500,7.205232421875,1.437345171958208,1.2117583009839057,1.6829843586191533
1757088904821187600,7.2151875,1.4249918863415718,1.2933558032184838,1.715040708093345
1757088904831141400,7.225141357421875,1.2956985669523478,1.472439281693101,1.7629457840844989
1757088904841096700,7.2350966796875,1.1206401062101126,1.7219330979555845,1.7238333786189555
1757088904851051500,7.245051513671875,0.9219318898111581,1.9387451263219118,1.5601020753160117
1757088904861005600,7.255005615234375,0.808394357958436,2.0813310580044986,1.2289873759433627
1757088904870960400,7.26496044921875,0.8323989184021949,2.2155121494352814,0.9465051900535821
1757088904880915700,7.274915771484375,0.9923942500472068,2.3620424348294735,0.6060077453076839
1757088904890869500,7.284869384765625,1.1816086619138717,2.4363456884026524,0.26065759983360764
1757088904900824600,7.294824462890625,1.3641186077058314,2.379639466318488,-0.17622341286838053
1757088904910778600,7.304778564453125,1.6403958014756441,2.1982740143865347,-0.7890648035883903
1757088904920733400,7.3147333984375,1.9429870016753672,2.0100871920019387,-1.28398182567358
1757088904930688500,7.3246884765625,2.1031272947490214,1.9007588022768496,-1.4688678529471157
1757088904940642600,7.334642578125,2.086089066186547,1.7438772187381981,-1.4289146127432584
1757088904950597600,7.34459765625,1.8706722915709018,1.636781702631712,-1.1569088126823306
1757088904960552400,7.354552490234375,1.5331705215096474,1.3989508516341447,-0.9338795172363519
1757088904970506500,7.364506591796875,1.2260089446544646,1.015445455288887,-0.7300529349103569
1757088904980461600,7.374461669921875,0.8387316285550593,0.5285048189103603,-0.45535599606931204
1757088904990416600,7.384416748046875,0.40381227131485936,-0.056176060730218885,-0.17129326298981903
1757088905000370400,7.394370361328125,0.25531214715242384,-0.5183814843028783,0.07913666507899761
1757088905010325500,7.404325439453125,0.6231938579082489,-0.9366384605556726,0.0799757462516427
1757088905020280600,7.414280517578125,0.9690846861302852,-1.243237142831087,0.0003562660917639732
1757088905030234600,7.424234619140625,1.0415373434007167,-1.3359563430607317,-0.25735388211309906
1757088905040189400,7.434189453125,0.8182288656871766,-1.4241723866522311,-0.5913339077889919
1757088905050143500,7.4441435546875,0.4621382035553455,-1.3407020762830972,-0.9080681996315717
1757088905060098600,7.4540986328125,-0.3864543823439628,-0.9049404229998588,-1.103639579309523
1757088905070053600,7.4640537109375,-1.6754396423280238,-0.2677273920893669,-1.000801428386569
1757088905080007700,7.474007568359375,-2.810427715103328,0.42338498679101466,-0.23387393006533383
1757088905089962500,7.48396240234375,-3.4263621034026146,0.853620570129156,0.37939445389509197
1757088905099917600,7.49391748046875,-3.3173709828078746,0.8896206887930631,0.5684875774696468
1757088905109871600,7.50387158203125,-1.8914343629620969,0.9095330114871263,0.5602125010773539
1757088905119826400,7.513826416015625,0.3422105322740972,1.3679080631166696,0.5389256751596927
1757088905129781200,7.52378125,1.842860740059614,2.212216615021229,0.8451575699493289
1757088905139735300,7.5337353515625,1.7017404970154166,2.5322575471937654,0.5627987181782722
1757088905149690400,7.5436904296875,0.5999553134009241,2.607026664713025,0.6393512119829654
1757088905159644400,7.55364453125,-0.5400190233543515,2.565945881783962,0.6344660702899098
1757088905169599200,7.56359912109375,-1.4478037298694253,2.498563951906562,0.5465168609410525
1757088905179554300,7.57355419921875,-1.7334385345712302,2.1557868717908857,-0.14750877503752707
1757088905189508000,7.583508056640625,-1.7662179376229643,1.6086849044382572,-0.5466922175079584
1757088905199463400,7.59346337890625,-1.7003440742209552,0.796489985153079,-0.7743775220662354
1757088905209418200,7.603418212890625,-1.5954852311253547,-0.1658721147239208,-0.7558572382524609
1757088905219372300,7.613372314453125,-0.7693412814646959,-1.5244365954339503,-0.8618561912938952
1757088905229327000,7.6233271484375,-0.8846005225434899,-2.3503169257223604,-0.08943360268771648
1757088905239282400,7.633282470703125,-0.6761389738932252,-2.98121185952723,0.24645693278461694
1757088905249236200,7.643236328125,-0.6661065324395895,-2.7599656481057404,0.43632980856001374
1757088905259191300,7.65319140625,-1.1789543480128049,-2.1398060433268546,0.6442942213431
1757088905269146000,7.66314599609375,-1.762676611754298,-1.6207482671976088,0.4942994747087359
1757088905279100200,7.67310009765625,-2.3211276561170817,-1.3715057953476906,0.4359893245592713
1757088905289055200,7.68305517578125,-2.441444472846389,-1.4427251114308832,0.49692105538398024
1757088905299010300,7.69301025390625,-2.5616893933832645,-1.7081985871136187,0.57407677577883
1757088905308964400,7.70296435546875,-2.5857389620125293,-2.012955440914631,0.7889785866096616
1757088905318919200,7.712919189453125,-2.558521869263053,-2.375312835291028,1.0131927079260348
1757088905328873500,7.72287353515625,-2.455726680698991,-3.040610389435291,1.0176786211684345
1757088905338828300,7.732828369140625,-2.30689980880022,-3.474440197873115,0.8719318873673677
1757088905348783400,7.742783447265625,-2.1108780550062654,-3.4958629251301288,0.8406751638382672
1757088905358737200,7.752737060546875,-1.8717729462891817,-3.4465187562465665,0.8008321060106158
1757088905368692500,7.7626923828125,-1.6024246749997137,-3.3729292039006946,0.7449857156261801
1757088905378647300,7.772647216796875,-1.2323951385602354,-3.4724539924919604,0.7200488427683711
1757088905388601300,7.782601318359375,-0.9216548264354467,-3.5266894405484197,0.6715826257631182
1757088905398556200,7.79255615234375,-0.5251230675175785,-3.329077202692628,0.6556468054845929
1757088905408511500,7.802511474609375,-0.0333507731989026,-2.903278725019097,0.647781771197915
1757088905418465300,7.81246533203125,0.5068444835051894,-2.3194401414215564,0.48498424161374565
1757088905428420400,7.82242041015625,1.1885770396217703,-1.646580043068528,0.31610856115967034
1757088905438374400,7.83237451171875,1.9382874456822872,-0.7872790892153978,0.281871360515058
1757088905448329200,7.8423291015625,2.74496243250221,0.13598726406991482,0.11233049415051936
1757088905458284300,7.8522841796875,3.546357725353539,1.0715385139107703,-0.3238625362873077
1757088905468238300,7.86223828125,4.247700990869105,2.25173321737349,-0.8956003477245569
1757088905478193400,7.872193359375,4.749068796528875,3.524038633778691,-1.3423513047948479
1757088905488148200,7.882148193359375,4.896120475448668,4.639807334560156,-1.541686713181436
1757088905498102300,7.892102294921875,4.893994277074933,4.933775083321333,-1.8589453211590647
1757088905508057300,7.902057373046875,4.478177971972525,4.191324731391668,-1.8371677891150116
1757088905518012200,7.91201220703125,4.000256508351862,3.038592035350203,-1.5809744752138852
1757088905527966200,7.92196630859375,3.7667175093293186,1.9994646757006644,-1.0736872163772582
1757088905537921300,7.93192138671875,3.366360639165342,0.8544809863507747,-0.5582958538010716
1757088905547876400,7.94187646484375,2.920727580209076,-0.3768196349710226,-0.15196984609961509
1757088905557830400,7.951830322265625,2.3961995559751985,-1.2859136705189942,-0.07645224830061197
1757088905567785200,7.96178515625,1.4433312606304882,-1.4021493554145097,-0.8029518746435642
1757088905577739300,7.9717392578125,0.3570037583887577,-0.8332038050442934,-1.331088444763422
1757088905587694000,7.981694091796875,0.41761721704453225,-0.3739221599638462,-0.9092962801218032
1757088905597649400,7.9916494140625,1.1412366117760537,-0.18683716134130954,-1.1022811504378913
1757088905607603200,8.001603271484376,1.2026534957692026,0.4168693212866783,-2.216110407589376
1757088905617558300,8.011558349609375,0.7576195717498659,1.0906856974512338,-2.978429243071377
1757088905627513000,8.02151318359375,-0.09639730422049761,1.4782126043975352,-3.1643413985222577
1757088905637467400,8.03146728515625,-1.37781044844985,1.711747219505906,-3.0707530142426487
1757088905647422200,8.041422119140625,-2.484334935545921,1.683389724549651,-2.9282468697980044
1757088905657377300,8.051377197265625,-2.7858392172917723,1.7126058821618555,-2.933148962625861
1757088905667331300,8.061331298828126,-2.2756012919560074,2.147882382276654,-2.980270194762945
1757088905677286400,8.071286376953125,-1.3172636252894996,2.875057423663139,-2.9712504374831914
1757088905687241200,8.0812412109375,-0.6542728867828845,2.9519530318170784,-2.8847917589530345
1757088905697195300,8.0911953125,-0.9898749607026577,1.7831939146041869,-1.7516624657869337
1757088905707150300,8.101150390625,-2.046316735507548,-0.11865326743125915,-0.09508008414208888
1757088905717104000,8.111104248046875,-3.5553967718556523,-1.7207424268662928,1.1321364827364682
1757088905727059500,8.1210595703125,-4.96582208044529,-2.5848802993565796,1.8147820620447397
1757088905737014300,8.13101416015625,-5.1176335211128,-2.7531770108789204,1.9892764591634273
1757088905746968300,8.14096826171875,-4.175647562049329,-2.3907845451891423,2.1386510280728337
1757088905756923100,8.150923095703124,-3.4741736558914185,-1.4356483049124478,2.305736610239744
1757088905766878500,8.16087841796875,-3.2870483252584934,-0.04909223994910717,2.6960101855456826
1757088905776832300,8.170832275390625,-3.021996289858222,1.5287334158450365,3.630006314899027
1757088905786787300,8.180787353515624,-2.645051567202806,2.5595073731690645,3.5936768181502816
1757088905796742100,8.1907421875,-2.4046537883266805,2.8395342748612165,2.796749610623717
1757088905806696200,8.2006962890625,-2.173851228530705,2.8651106146663428,2.0653049290940166
1757088905816651300,8.2106513671875,-1.6677110939025879,2.8514468309730288,1.591885160806775
1757088905826605300,8.220605224609375,-0.4947667999595403,2.0949527561217547,0.5549477124169468
1757088905836560100,8.23056005859375,0.6319277839839458,0.648641602897644,-0.556023524954915
1757088905846515200,8.24051513671875,0.9884218392848968,-0.6776064160972833,-1.7269345595046877
1757088905856469500,8.250469482421876,0.791155930648744,-1.3313859664052725,-2.716780294112861
1757088905866424300,8.26042431640625,0.3494211943052709,-1.5483067158430814,-2.591153096015751
1757088905876379100,8.270379150390625,-0.272186417324841,-1.3368985923469066,-1.5842048354372382
1757088905886333200,8.280333251953126,-0.724140788257122,-0.9443132329672574,-0.3157014416635036
1757088905896288500,8.29028857421875,-0.7889744949564337,-0.6364052216589451,0.5909753036096692
1757088905906243300,8.300243408203125,-0.584442394709587,-0.5627542945146561,0.9918553208649158
1757088905916197400,8.310197265625,-0.5062940100155771,-0.7768062105178832,1.2316633171543478
1757088905926152200,8.320152099609375,-0.8701604937806725,-1.0525894832909106,1.4175713809520005
1757088905936106200,8.330106201171875,-1.253133098423481,-1.0778490122318267,1.472982010267675
1757088905946061300,8.340061279296876,-1.1732616893291472,-0.9717612118631601,1.1364145984470844
1757088905956016400,8.350016357421875,-0.6746690474711358,-0.8713210619926453,0.632872955879569
1757088905965970200,8.35997021484375,-0.30581352324709293,-0.9894815774708986,0.08650646319463849
1757088905975925200,8.36992529296875,0.12766308783888816,-0.8531979608029127,0.06581000438556074
1757088905985880300,8.37988037109375,0.3166390147745609,-0.32968729691803456,0.23004341199174522
1757088905995834400,8.38983447265625,1.1130398603394627,-0.24688860220015046,0.09960574487298726
1757088906005789200,8.3997890625,1.8919652549684047,-0.37166707451343534,0.18723638979196547
1757088906015744300,8.409744140625,1.8006290335297583,-0.5212848045289517,0.43071927520185704
1757088906025698300,8.4196982421875,1.4348176993072033,-0.8274895190507173,0.564020661188662
1757088906035653400,8.4296533203125,0.7751719603795558,-1.242215398567915,0.8140937386438251
1757088906045607400,8.439607421875,0.15122041597180066,-1.61556121994853,1.031012734515965
1757088906055562200,8.449562255859375,-0.34166363898105917,-1.8206547534704207,1.0999328337460756
1757088906065517300,8.459517333984374,-0.7441688462853431,-1.9736878448873758,0.9536582766786217
1757088906075471400,8.469471435546875,-0.8492693891823291,-2.026300660178065,0.6350082143425941
1757088906085426400,8.479426513671875,-0.6257797827482223,-1.9211784899711608,0.29251170473396776
1757088906095381200,8.48938134765625,-0.06196516552567482,-1.7088550051957367,0.17993454234600065
1757088906105335300,8.499335205078125,0.679464611184597,-1.2567460282236338,0.48017158063501114
1757088906115290000,8.5092900390625,1.082216559791565,-0.6027455286413431,1.0206722500264644
1757088906125244700,8.51924462890625,1.074006365329027,0.13312252228856086,1.4186264429628848
1757088906135198700,8.52919873046875,1.0216881490707397,0.8772656496107578,1.4984890842288732
1757088906145153800,8.53915380859375,1.1661094794869422,1.631121192651987,1.4567495451301335
1757088906155108600,8.549108642578124,1.4674375278830527,2.1934791813254355,1.4240613274931906
1757088906165062700,8.559062744140626,1.8100714001357554,2.622151753130555,1.4390098903000355
1757088906175017500,8.569017578125,2.0945663871526716,2.779360668927431,1.555093891765177
1757088906184971500,8.578971435546874,2.2002736637711524,2.570000710132718,1.8722306269288063
1757088906194926800,8.5889267578125,2.245200600734353,2.3973171618282794,2.247055873212218
1757088906204881700,8.598881591796875,2.0984797612041235,2.3012673558712002,2.3390873834386468
1757088906214835700,8.608835693359374,1.847296092158556,2.378067102435231,2.3184674969971177
1757088906224790500,8.61879052734375,1.7386749739199876,2.10146959066987,1.840326253145933
1757088906234745900,8.628745849609375,1.8968050962150096,1.497758431866765,1.1298273290112615
1757088906244699600,8.63869970703125,2.3642460823535916,1.057853687429428,0.21171821235865354
1757088906254654700,8.64865478515625,2.708703078380227,0.940475846761465,-0.4872054247945547
1757088906264608500,8.6586083984375,2.8959873989671467,1.2194915255844592,-0.7796829349979758
1757088906274563600,8.6685634765625,2.703688465088606,1.5040566552281378,-1.0103215364038944
1757088906284518700,8.6785185546875,2.073651609417796,1.6041080980420113,-0.5544429777652025
1757088906294472700,8.68847265625,1.7357921119600535,1.204743453785777,0.06245645617395639
1757088906304427500,8.698427490234375,1.741324027124047,1.062273841959238,0.7720160536319017
1757088906314382600,8.708382568359376,1.4779542457222938,1.5032178663164377,1.406354405888915
1757088906324336600,8.718336669921875,1.0557675288051367,2.1908628613471985,1.956249218830466
1757088906334291700,8.728291748046875,0.7863245649695396,2.881678887629509,2.382949321518838
1757088906344246500,8.73824658203125,0.628107933434844,3.259845261034369,2.470772566400468
1757088906354200600,8.74820068359375,0.494178186416626,3.618868542551994,2.2979063550055026
1757088906364155600,8.75815576171875,0.1076584106862545,3.861416485199332,2.1589976505309343
1757088906374110700,8.76811083984375,-0.6977917105138302,3.3284868355840445,2.0977298196196554
1757088906384064800,8.778064697265625,-1.0589537576258181,2.3856489358663557,1.73164872854501
1757088906394019600,8.78801953125,-0.9065081107079982,1.31255384016335,0.8916475184455513
1757088906403973600,8.7979736328125,-0.539555826289393,0.1660679295569658,-0.6515528141692281
1757088906413928700,8.8079287109375,-0.008722272170521319,-0.3948854530155658,-2.143671778844297
1757088906423883800,8.8178837890625,0.2249848864931613,-0.638048312690854,-3.3576401570931074
1757088906433837600,8.827837646484374,-0.21581951019763945,-0.7302122171252966,-4.130258268271386
1757088906443792600,8.837792724609375,-0.8130160264097154,-0.5500935503840446,-4.433701116864383
1757088906453747700,8.847747802734375,-0.676012424904108,0.09821136790513992,-4.617408748008311
1757088906463701800,8.85770166015625,-0.26169848718866706,0.4748953937977552,-4.508737653148174
1757088906473656600,8.867656494140626,0.014851532173156738,0.7767828296422958,-3.831406839121878
1757088906483611600,8.877611572265625,0.18591186318993566,1.01579441485703,-3.106119511178136
1757088906493565400,8.8875654296875,0.34520021560937164,1.2545295212179421,-2.5882959530189633
1757088906503520800,8.897520751953126,0.10873743809461593,1.4642378550589084,-1.63345606534034
1757088906513474800,8.907474853515625,-0.572392768214643,1.5346441011935472,-0.33180034354925153
1757088906523429600,8.9174296875,-1.4519485745891927,1.599251890182495,1.2330647083848714
1757088906533384400,8.927384521484376,-2.7527602467715737,1.3279004623770714,1.137985501025617
1757088906543338800,8.9373388671875,-4.149236817246675,0.98612174564898,0.5594429780095815
1757088906553293800,8.9472939453125,-3.3967806196093555,1.0696060845434665,0.7663754173964261
1757088906563248600,8.95724853515625,-1.8536174041345714,1.2671388274222612,1.1694964915767312
1757088906573202700,8.96720263671875,-1.389285782188177,1.275395783635974,1.3808517158418894
1757088906583157500,8.977157470703125,-1.7627213276788591,0.9303910905987024,1.453171686643362
1757088906593112800,8.98711279296875,-2.2161796734333037,0.27133330762684343,1.462358324922621
1757088906603066600,8.997066650390625,-2.3670251916781067,-0.38308980128169057,1.097227666440606
1757088906613021700,9.007021728515625,-2.61227684032619,-0.9562304652541875,0.6089788700729608
1757088906622975500,9.0169755859375,-3.258216198527813,-1.7418249623835085,0.2581882871106267
1757088906632930800,9.026930908203125,-3.2781723603636026,-2.1986153751701116,0.05143120429068804
1757088906642885600,9.0368857421875,-2.840605118963122,-2.10199273776114,-0.06462883177697658
1757088906652839700,9.046839599609376,-2.571192550265789,-2.1956033338725565,-0.17787322590202093
1757088906662794500,9.05679443359375,-2.3707553181171415,-2.4304975468963383,-0.1862704673692584
1757088906672749800,9.066749755859375,-2.3631816679924724,-2.78656139408648,-0.30874767700284717
1757088906682703600,9.07670361328125,-2.718930457884073,-3.0457272940576074,-0.25405308700203894
1757088906692658700,9.08665869140625,-2.923680000273883,-3.2495214354187247,-0.08975362842231989
1757088906702613500,9.096613525390625,-2.8397274593457578,-3.2571792566955087,-0.048342882886528965
1757088906712567600,9.106567626953124,-2.8368507348656653,-3.0210154621273277,0.1311494686499238
1757088906722522600,9.116522705078125,-2.768084657153487,-2.790996161663532,0.264403800624609
1757088906732476700,9.1264765625,-2.5403666193693875,-2.7555063306093213,0.41714843048900363
1757088906742431700,9.136431640625,-2.1940835769593714,-2.8281214849650858,0.49755672293901443
1757088906752386600,9.146386474609375,-1.8163900817632674,-3.0693180130034685,0.42050183257013557
1757088906762340600,9.156340576171875,-1.5026757222637532,-3.3942385339111087,0.30628537854254245
1757088906772295700,9.166295654296874,-1.1460434275358915,-3.528944525998831,0.24598639266341923
1757088906782250800,9.176250732421876,-0.7826765638560056,-3.4306174227595325,0.2107458601951599
1757088906792204500,9.18620458984375,-0.5079816708415746,-3.2146856843590736,0.19031097493171692
1757088906802159600,9.19615966796875,-0.05416968934386968,-2.8745787002354857,0.059737260343134396
1757088906812114700,9.20611474609375,0.76989307012856,-2.268333639040589,-0.23712591759860513
1757088906822068700,9.21606884765625,1.6985381938427686,-1.3747528144448995,-0.4948521401554346
1757088906832023600,9.2260234375,2.624011409522593,-0.03926058176457882,-0.44840193914771076
1757088906841977600,9.2359775390625,3.468379290398955,1.615813148882985,-0.38996348644345996
1757088906851932700,9.2459326171875,4.393555568958819,3.4720863282233476,-0.20855039597749708
1757088906861887700,9.2558876953125,5.275443325412273,5.322995934703946,-0.11058686535358428
1757088906871841800,9.265841796875,5.501798258149623,6.866427737987041,-0.4013485115498304
1757088906881796600,9.275796630859375,5.259124643296003,7.069029454693198,-1.1075497384905815
1757088906891751700,9.285751708984375,4.992711256414651,6.1142760762542485,-1.2240025732681155
1757088906901705700,9.295705810546876,5.193320337998867,4.679909043323994,-0.8115677272975445
1757088906911660500,9.30566064453125,5.285761305809021,2.213788394382596,-0.5984302957907319
1757088906921615600,9.31561572265625,4.91774164788723,-0.6138473528921604,-0.6627873248890042
1757088906931569700,9.325569580078126,4.016487512184679,-2.78960149243474,-1.3024898345276712
1757088906941524700,9.335524658203125,2.3293802284166216,-3.5445717187196015,-2.327560611774027
1757088906951478800,9.345478759765625,0.16819821958392858,-2.9347353550344706,-2.520347036908567
1757088906961433600,9.35543359375,-1.1273600621148943,-1.5278157164782284,-1.600587230439484
1757088906971388700,9.365388671875,-0.8201441247239708,-0.6032943946957587,-1.2256927183121442
1757088906981342500,9.375342529296875,-0.4620715680599212,0.09053834905922413,-1.6430775879055262
1757088906991297800,9.3852978515625,-0.6409133467331528,0.9524047694861888,-1.7047306187421083
1757088907001252600,9.395252685546875,-0.9892100670531392,1.8059388303756714,-1.426242763185501
1757088907011206700,9.40520654296875,-1.9183856443822382,2.369389290460944,-1.009643491011858
1757088907021161500,9.415161376953124,-2.760956120447814,2.776802216616273,-0.8361930499881506
1757088907031116800,9.42511669921875,-2.7863658715143798,3.515463113135099,-1.0536904302701353
1757088907041070600,9.435070556640625,-2.1110195093035697,4.768015196800231,-1.5464920676365495
1757088907051025700,9.445025634765624,-0.10704261687546968,5.874668863233923,-2.3887805118903516
1757088907060979700,9.454979736328125,1.4091060426846145,5.317893643128872,-2.733777898404002
1757088907070934800,9.464934814453125,0.6195616388857365,2.4209189866900442,-2.1182392314240337
1757088907080889600,9.4748896484375,-2.125540202087164,-1.2313076355844736,-1.1350132072165608
1757088907090843600,9.48484375,-5.234651880818605,-3.9023663352251052,0.07507949864268303
1757088907100798700,9.494798828125,-6.984884606063366,-5.160535089728236,0.7488803849771618
1757088907110753800,9.50475390625,-7.045517061680555,-5.365107229724526,1.1984332477256654
1757088907120707800,9.514707763671876,-5.508639502346515,-4.591560313263535,0.8852312216624617
1757088907130663400,9.524663330078125,-4.1016164034157985,-3.1791531832069158,0.6362596757084131
1757088907140617500,9.534617431640624,-3.7901536222353576,-1.4652724588036536,0.48715135651975866
1757088907150572300,9.544572265625,-3.966529887577891,1.0261018738597631,1.9294693484544754
1757088907160527400,9.55452734375,-3.0701497876524924,3.565198327162862,2.801203667423129
1757088907170481400,9.5644814453125,-2.597229493319988,4.568654653972387,2.086214446131885
1757088907180436500,9.5744365234375,-2.3163608801066875,4.350079123064876,2.2597429208278657
1757088907190391300,9.584391357421875,-1.3184963819548488,3.6170945186167955,2.3985408584043384
1757088907200345600,9.594345703125,0.2974447772219777,2.279177104616165,1.5896271527469157
1757088907210300400,9.604300537109374,1.3380077226325868,0.5754413421303034,0.3492047750756144
1757088907220255500,9.61425537109375,1.466515444602072,-0.7226894204050303,-1.342155489961803
1757088907230209300,9.624209228515625,1.1446480276547373,-1.18427875790596,-2.1213553176179527
1757088907240164600,9.63416455078125,0.4512909385874867,-1.3573130193442104,-1.5075015349850058
1757088907250119400,9.644119384765625,-0.16659019986540077,-1.126476557278633,0.10394845025241374
1757088907260073500,9.654073486328125,-0.1617068117380142,-0.9252420372724532,1.0592007181242107
1757088907270028300,9.6640283203125,0.030647505589574575,-1.0384691880017518,1.675057072751224
1757088907279982300,9.673982421875,-0.20227862223163245,-1.349721833562851,1.9483540816664695
1757088907289937400,9.6839375,-1.3788814386822283,-1.6049585773915052,2.1912296488329766
1757088907299892500,9.693892578125,-1.4597652396894991,-1.4246113625913857,2.168306161624193
1757088907309846500,9.703846435546875,-1.1708652957119048,-1.2186352010160684,1.8062872054219246
1757088907319801300,9.71380126953125,-0.9221160142064094,-1.0443705210000276,1.5324430840179324
1757088907329756400,9.72375634765625,-0.6250140590727329,-0.7558984470456838,1.3649445371359585
1757088907339710500,9.73371044921875,-0.15954627270326016,-0.7041361111044884,1.1159878964900969
1757088907349665300,9.743665283203125,0.3259178613819182,-0.6862818899840116,1.2280211612597107
1757088907359620400,9.753620361328124,0.7736967001952231,-0.6842974381685256,1.1725912427216767
1757088907369574400,9.763574462890626,0.825258545128256,-0.5858470008105039,1.374955351279676
1757088907379529500,9.773529541015625,0.6938533481515944,-0.4716472056567669,1.268369830521941
1757088907389484300,9.783484375,0.47303493368811905,-0.468716997423768,1.0533075684323907
1757088907399438300,9.793438232421876,0.2185457202911377,-0.6041431204795837,0.8828723835766314
1757088907409393400,9.803393310546875,0.020495602474734188,-0.7069494149595499,0.7298620885133743
1757088907419347500,9.813347412109374,-0.04001286143660545,-0.9834066414713859,0.5646040140345693
1757088907429302500,9.823302490234376,0.21055530605912207,-1.1599375128537415,0.32475685477852817
1757088907439257300,9.83325732421875,0.47275542262699455,-1.192123041665554,0.16191899318397043
1757088907449211400,9.84321142578125,0.8140963689923286,-1.166811490276456,0.057225569783151145
1757088907459166500,9.85316650390625,1.379542971330881,-0.7935784816205501,-0.08059066327959298
1757088907469121500,9.86312158203125,1.973746881598234,-0.36454292172193525,-0.29896541091799733
1757088907479075300,9.873075439453125,2.3951795652776955,0.11671090119183063,-0.4043047310069203
1757088907489030400,9.883030517578124,2.4961943001657723,0.7021031439721583,-0.22827625618875025
1757088907498985200,9.892985107421875,2.1532307575672864,1.4082032486259937,0.24190847570002078
1757088907508939500,9.902939453125,1.59950381911695,2.0621061330527066,0.6448425028756261
1757088907518894300,9.912894287109374,1.4227438151538372,2.3822364970743655,0.7715715247347951
1757088907528848400,9.922848388671875,1.8514970509797333,1.9818582918614147,1.116022967803478
1757088907538803500,9.932803466796875,2.373699554875493,1.503815832209587,2.04426038749963
1757088907548758500,9.942758544921874,2.5114929915845394,1.4213199198305606,3.10697846609503
1757088907558712600,9.952712646484375,1.942817490327358,1.8112533033967018,3.7563989444106816
1757088907568667400,9.96266748046875,1.0421236188560723,2.4211013575196265,3.954126333078742
1757088907578622500,9.97262255859375,0.4512211247542873,2.734074251002073,3.4595641157805916
1757088907588576300,9.982576171875,0.06039223538683727,2.5816321112155913,2.5370354291200634
1757088907598531600,9.992531494140625,0.35463995186686514,2.1057155576765534,1.4035712049111724
1757088907608486400,10.002486328125,1.1214537606805561,1.6963275320559739,0.41101182743012904
1757088907618440400,10.0124404296875,1.623043684658408,1.3768231909781694,-0.4666498357608914
1757088907628395300,10.022395263671875,1.9028554822951553,1.552279711127281,-0.9187570591673254
1757088907638350600,10.0323505859375,1.9188047465771436,2.1973083842247725,-1.0125196309700608
1757088907648304400,10.042304443359376,1.7509996179640293,2.4942355673134324,-0.7933174925968051
1757088907658259500,10.052259521484375,1.5679361299425363,2.4577093789488074,-0.09738514621406794
1757088907668213200,10.062213134765624,1.308838619032502,2.6013077025443314,0.4289698011860251
1757088907678168300,10.072168212890626,1.2064625326633454,2.753769131553173,0.42789603447467084
1757088907688123400,10.082123291015625,0.8396183482617139,3.09859612993598,0.5409314620241522
1757088907698077400,10.092077392578124,-0.07026771444678306,2.5935879219472406,0.6586980097487568
1757088907708032300,10.1020322265625,-1.214631810593605,1.7217179939001797,0.895769859072566
1757088907717987300,10.1119873046875,-1.2703192110240458,0.9127391140520572,0.7657718985453248
1757088907727941600,10.121941650390625,-1.0213397740244865,-0.02721533918380737,0.0029819384202361106
1757088907737896400,10.131896484375,-0.496728966877982,-0.6782780317485332,-1.4030992034852503
1757088907747851300,10.141851318359375,0.2602770760834217,-0.5771417163074016,-2.6138494964703916
1757088907757805300,10.151805419921875,0.2454724517919123,-0.07907762836813927,-4.046089454244077
1757088907767760600,10.1617607421875,-0.23006664673686025,0.6106137777984142,-5.196716410177946
1757088907777715500,10.171715576171875,-0.5670492152296006,1.301826694443822,-5.82614945473671
1757088907787669500,10.18166943359375,-0.4665571890413761,1.5784388192564247,-5.62144638183713
1757088907797624300,10.191624267578124,-0.36510640082359314,1.4192869526982306,-4.477518923541903
1757088907807578400,10.201578369140625,-0.3552385022819042,1.3126684064537286,-3.053149260751903
1757088907817533400,10.211533447265625,-0.7039663074955343,1.4063175810098647,-1.3604782053768634
1757088907827488500,10.221488525390624,-0.7705243537694215,1.4109282896757125,0.055880292654037475
1757088907837442300,10.2314423828125,-0.5874059206902981,1.6775135259926317,1.7751611225351691
1757088907847397400,10.2413974609375,-1.0321236183673144,1.5211983441650867,1.813953210005164
1757088907857352400,10.2513525390625,-2.4271882762178776,1.1037678818643093,1.5582336510956287
1757088907867306500,10.261306396484375,-2.8783915365219115,0.9647405194461345,1.7391726943090557
1757088907877261300,10.27126123046875,-1.798324555979669,0.7222241409808396,1.9429943081989882
1757088907887215400,10.28121533203125,-2.0171631217375396,0.665389324080944,2.2733447452008724
1757088907897170400,10.29117041015625,-2.5140520284175873,0.6402326709926128,2.2900115101024507
1757088907907125500,10.30112548828125,-2.6397502459242936,0.4728279398739338,1.7781793013125657
1757088907917079600,10.31107958984375,-2.724592721429467,0.2995668839424848,1.4743945074141025
1757088907927034400,10.321034423828126,-2.9005682970166204,-0.00869534763097763,1.2618319531857967
1757088907936989200,10.3309892578125,-2.9773002390414476,-0.39826398953795433,0.7307564070045948
1757088907946943500,10.340943603515624,-3.1638118216902016,-0.8780570922493934,0.024175825357437133
1757088907956898600,10.350898681640626,-3.2847780422389508,-1.363714703080058,-0.4562637585639953
1757088907966853400,10.360853271484375,-3.413739937716722,-1.9475509485900402,-0.8446329615533351
1757088907976807400,10.370807373046874,-2.8643443064689635,-2.423245383810997,-0.7294532154515385
1757088907986762500,10.380762451171876,-2.131614553564787,-2.954930001801252,-0.6446791290074586
1757088907996716500,10.390716552734375,-1.8000974108710883,-3.6997891684383153,-0.4864247958108783
1757088908006671400,10.40067138671875,-1.9614058709412812,-3.9298125605553387,-0.028265140497684478
1757088908016626400,10.41062646484375,-2.2797896835565568,-3.788494456851482,0.22675036179572342
1757088908026580200,10.420580322265625,-2.824732427048683,-3.381259225350618,0.47421267223060126
1757088908036535600,10.43053564453125,-3.322101518461108,-3.0018419751018284,0.5605912712618708
1757088908046490400,10.440490478515626,-3.393945103922486,-2.8234219289720057,0.47496465964168305
1757088908056444400,10.4504443359375,-3.0779712750583887,-2.5955600988030434,0.5363096474424004
1757088908066399200,10.460399169921875,-2.801088516610861,-2.5186405252516266,0.602163929361105
1757088908076354600,10.4703544921875,-2.402290274065733,-2.6503163558632132,0.5251113770797848
1757088908086308400,10.480308349609375,-1.9831360567122696,-2.969623128542304,0.515771009543538
1757088908096263400,10.490263427734375,-1.6833546532362698,-3.142005063551664,0.5682873787224293
1757088908106217500,10.500217529296876,-1.3664771535307167,-3.1038387067645785,0.6085813951879739
1757088908116172300,10.51017236328125,-0.9172235659897326,-3.0004204178661107,0.5439744829818606
1757088908126126300,10.520126220703125,-0.5946694819524884,-2.777823376357555,0.1996177324593067
1757088908136080400,10.530080322265626,0.03612432956546545,-2.4376550174355507,-0.16268120972812175
1757088908146035500,10.540035400390625,0.9164110805630683,-1.95333245460093,-0.39163083513379093
1757088908155990300,10.549990234375,1.9312743520498274,-1.2565502133905886,-0.7151391511559486
1757088908165944300,10.5599443359375,3.2640769072547555,-0.10642740758657455,-0.8235439962953328
1757088908175899400,10.5698994140625,4.524400501704216,1.5160592277109621,-1.1048416485756636
1757088908185854500,10.5798544921875,5.8339610052704804,3.5282805091321467,-1.265925359979272
1757088908195808500,10.58980859375,6.934322293561697,5.762240753927826,-1.1457017744913696
1757088908205763300,10.599763427734375,7.3950833635449404,7.584691743165254,-1.3816086716890335
1757088908215717400,10.60971728515625,7.0713190269351,7.9941879053354254,-1.4929188828811049
1757088908225672400,10.61967236328125,6.353706179141998,6.892621332907677,-0.9226651725217699
1757088908235627500,10.62962744140625,5.549188954877853,5.524226363056898,-0.27521102584302426
1757088908245581300,10.639581298828125,4.686763439263403,2.884200515061617,0.1559934025272727
1757088908255536400,10.649536376953124,3.888979614907503,-0.3538210366994142,-0.24337182625085113
1757088908265491500,10.659491455078125,2.867229798777401,-2.943225535482168,-0.8131345382228493
1757088908275445500,10.669445556640625,1.565441098256409,-4.160968756094575,-1.3803890667662024
1757088908285400300,10.679400390625,0.0963756769105792,-3.8021705155044794,-1.2807540957987307
1757088908295354400,10.689354248046875,-0.4150289541170001,-2.5824025110661983,-0.17603168968856334
1757088908305309200,10.69930908203125,0.04997808287292719,-1.5832792450249193,0.3046124768942594
1757088908315264500,10.709264404296874,0.6802095843330025,-0.830326788303256,-0.17440701109617948
1757088908325218600,10.719218505859375,0.8597910754576324,0.3577747427612543,-0.5707651670128107
1757088908335173400,10.72917333984375,0.678145929801464,1.8695839118123054,-0.8388505787596106
1757088908345128200,10.739128173828124,-0.018622282883524893,3.166656689727306,-1.2733373898014426
1757088908355082500,10.74908251953125,-1.4604700269579887,4.30301517407298,-1.9896309716895222
1757088908365037600,10.75903759765625,-3.2903581804588433,5.531130735617876,-2.8536946098998186
1757088908374991400,10.768991455078124,-4.370887225554883,6.596833967503905,-3.341023661074042
1757088908384946400,10.778946533203126,-2.8624045705780383,6.278489902377128,-3.497544886867702
1757088908394901500,10.788901611328125,-0.30546734015792604,3.9476989303797483,-2.524587743218243
1757088908404855600,10.79885546875,-0.6369327526643872,0.700231504881382,-1.2371157373413444
1757088908414810400,10.808810302734376,-4.18991340328902,-2.323478018635511,0.6145517017692327
1757088908424765400,10.818765380859375,-8.21971749316454,-4.259395812577009,2.3087866454601285
1757088908434719200,10.82871923828125,-9.376260687404871,-5.597531837764382,2.232239120091498
1757088908444674600,10.838674560546876,-7.655683095711469,-5.645474323156476,0.13346885150820015
1757088908454628400,10.84862841796875,-5.482355891054868,-4.896115507012605,-1.4024053760021924
1757088908464583400,10.85858349609375,-4.464421249298751,-4.125630900731682,-1.8039891576126217
1757088908474538200,10.868538330078126,-3.478628004951775,-2.2631483453571795,-2.5180592182323336
1757088908484492300,10.8784921875,-2.5487963018015027,1.3580834191948175,-1.966249803841114
1757088908494447400,10.888447265625,-1.9845181587204337,5.187384518209099,-0.15919336761236189
1757088908504402400,10.89840234375,-1.1162161522880196,6.590928542852401,1.5124813692241905
1757088908514356500,10.9083564453125,-0.6177376383289694,4.827836920556425,2.3281229218319055
1757088908524311300,10.918311279296875,-0.584776448969543,2.1838871771156785,1.984258338740468
1757088908534265600,10.928265625,-0.983244144386053,0.6868944689244032,0.9493003737300634
1757088908544220400,10.938220458984375,-2.1200117940545082,0.13128595451116562,-0.28555267937630413
1757088908554175500,10.948175537109375,-2.3825272967144846,-0.3240934224337339,-1.3176046938121317
1757088908564129300,10.95812939453125,-2.0834066952347756,-0.8983703969597816,-1.186257656763494
1757088908574084600,10.968084716796875,-1.1736289152063428,-0.8580541686624288,-0.36749373435154553
1757088908584039400,10.978039306640625,-0.3922410759866237,-0.7875906393826008,0.35803383208885786
1757088908593993500,10.987993408203126,-1.2338809932038188,-1.0203507629871367,1.1458173636950553
1757088908603948300,10.9979482421875,-1.5738874395623803,-1.1974416063398121,1.614513172200322
1757088908613902300,11.00790234375,-1.01036712911129,-1.272666650933027,1.2807342220544815
1757088908623857400,11.017857421875,-0.644660862698406,-0.8548024733901023,1.2646426266923545
1757088908633812500,11.0278125,-0.37207872405424713,-0.6008961013823747,1.0642834282159805
1757088908643766500,11.0377666015625,-0.19265037766471504,-0.42821255307793615,0.8800397904992103
1757088908653721300,11.047721435546874,-0.08556596747413277,-0.37032851938605305,0.6274876095794141
1757088908663676400,11.057676513671876,-0.0007213000118732452,-0.28531974740326405,0.4411813402444124
1757088908673630500,11.06763037109375,0.28439693346992134,-0.13906009564399718,0.21653847212195396
1757088908683585300,11.077585205078124,0.5633610282361508,-0.15484627831876277,0.1198721417017281
1757088908693539300,11.087539306640625,0.6913993791282177,-0.25859189947545524,0.04909735451564193
1757088908703494400,11.097494384765625,0.744975632623583,-0.425870373865962,0.07729688243120908
1757088908713449500,11.107449462890624,0.6969349475540221,-0.5125947175949812,0.127910486728698
1757088908723403500,11.117403564453125,0.5373090337432921,-0.5547007519185543,0.2148348830744624
1757088908733358300,11.1273583984375,0.3728163906790316,-0.5730658451706171,0.3421507649108767
1757088908743313400,11.1373134765625,0.29012174085751175,-0.6492530127942562,0.453689670292288
1757088908753267500,11.147267333984376,0.3315500951152295,-0.8304431081593037,0.6069042557559907
1757088908763222500,11.157222412109375,0.5865535416446626,-0.8029846078693866,0.7055886480003595
1757088908773176300,11.16717626953125,1.0325589410446583,-0.5987602583974599,0.7421259422808885
1757088908783131400,11.17713134765625,1.5852467457056045,-0.3957464537590742,0.5870611989058554
1757088908793086200,11.187086181640625,2.0019920022211966,-0.19346856217980385,0.4364274237155914
1757088908803040500,11.19704052734375,1.9239725046038627,-0.14747019659280777,0.3057823974564671
1757088908812995300,11.206995361328126,1.4399252515792846,-0.2127799963712692,0.20559593008607624
1757088908822950400,11.216950439453125,0.6563959433514625,-0.39683249543011184,0.3900961729124188
1757088908832904400,11.226904541015625,-0.18718020262531934,-0.6096078156262635,0.730556500518322
1757088908842859500,11.236859619140626,-0.5948504280099645,-0.8558364926129579,1.0254358111664652
1757088908852813600,11.2468134765625,-0.4554922262022271,-0.9803057528465986,1.4447387893408536
1757088908862768400,11.256768310546875,-0.17623104818556456,-0.9843863001585006,1.9869152829900383
1757088908872723500,11.266723388671876,-0.03128240595962852,-0.5914052194595336,2.508916126833856
1757088908882677200,11.27667724609375,-0.13871288964152334,-0.10805237843990326,2.6075027577921746
1757088908892632600,11.286632568359375,-0.0001461304724216461,0.6792834093987942,2.4911688732191917
1757088908902587400,11.29658740234375,0.07854103727340697,1.4442594813913106,2.1599615271270274
1757088908912541400,11.30654150390625,0.05233458287119865,1.7911095100343226,1.284077102741599
1757088908922496300,11.316496337890625,0.5964694805791602,2.0336632979005573,0.234093710295856
1757088908932450300,11.3264501953125,1.175785654848814,2.1890198638290164,-0.6885176862120628
1757088908942405400,11.3364052734375,1.4266823236465453,2.0816046142488718,-1.3982760211125016
1757088908952360400,11.3463603515625,1.4742624054670332,1.8422475765973327,-1.8646447018444536
1757088908962314200,11.356314208984376,1.2065034491956232,1.6711445754826069,-1.9586036730021237
1757088908972269300,11.366269287109375,0.5379249371519312,1.8107757490128278,-1.7424346187144517
1757088908982224400,11.376224365234375,-0.42001876176092773,2.10473414542377,-1.5516814529731868
1757088908992178400,11.386178466796874,-1.2272072145283222,2.77951206009686,-1.5316805752128362
1757088909002133200,11.39613330078125,-1.7193126863241195,2.998713613948226,-1.9562191159531472
1757088909012087300,11.40608740234375,-1.87379013133049,2.5706138735949993,-2.18502714093104
1757088909022042600,11.416042724609374,-1.1717337491095066,2.0516548816651103,-1.8482592381022869
1757088909031997400,11.42599755859375,-0.1082639753639698,1.7676199133753776,-1.8203221605151891
1757088909041951500,11.435951416015625,0.32676753701381384,1.1634189252287148,-1.940833330772817
1757088909051906300,11.44590625,-0.07977554750442505,0.33575989482998847,-2.290123153783381
1757088909061861600,11.455861572265626,-0.9456173013031482,-0.3524100008577108,-2.919870378857851
1757088909071815400,11.4658154296875,-1.5128219993554055,-0.7575111429393291,-3.4033734420031307
1757088909081770500,11.4757705078125,-1.5721091778434813,-0.953213747781515,-4.0208161890387535
1757088909091724300,11.485724365234375,-1.3951356772601604,-0.8935662115484475,-4.832914077690243
1757088909101679400,11.495679443359375,-1.4599826818324624,-0.6346440572053194,-5.410121844971179
1757088909111634400,11.505634521484374,-1.8735681591428814,-0.2793307361215353,-5.321511249104142
1757088909121588500,11.51558837890625,-2.4012121234402057,0.01983399676084518,-4.689966619218886
1757088909131544000,11.5255439453125,-2.6685914327442646,0.07791326076388358,-3.8302196751639244
1757088909141498000,11.535498046875,-2.721653160846233,-0.01255786827802658,-3.1997929433926937
1757088909151453200,11.545453125,-2.8648627773851154,-0.13045534890592098,-2.92678147342056
1757088909161408300,11.555408203125,-3.1266715930804607,-0.2843786671608686,-2.909137095658481
1757088909171362000,11.565362060546875,-3.3474949029147623,-0.409191626265645,-3.1143066170260307
1757088909181317000,11.575317138671876,-3.4909450502112507,-0.380539532276988,-3.4638501225367184
1757088909191272200,11.585272216796875,-3.564264553444087,-0.31941783183813094,-3.7009976674452423
1757088909201226200,11.595226318359375,-3.525092526745796,-0.2572977680116892,-3.7401390067443248
1757088909211181000,11.60518115234375,-3.362111457288265,-0.07318447867631912,-3.6467046439826487
1757088909221135000,11.615135009765625,-3.1964418793991207,0.022494740402698516,-3.4247874014317987
1757088909231090400,11.62509033203125,-3.0765070477247236,0.05491583153605461,-3.0877272376582026
1757088909241045200,11.635045166015624,-3.050218467997014,0.0394528894662857,-2.717177768997848
1757088909250999300,11.644999267578125,-3.1559456183597443,-0.0742044693738222,-2.332704404403269
1757088909260954000,11.6549541015625,-3.2045605961859223,-0.21085516578853128,-1.9167028058618305
1757088909270909200,11.6649091796875,-3.0793294116690753,-0.2878992425024509,-1.5788547065809369
1757088909280863200,11.67486328125,-2.7860201268166302,-0.35400223848521706,-1.3664204549074173
1757088909290818300,11.684818359375,-2.555686353576183,-0.4024854066252708,-1.2393667311385272
1757088909300772000,11.694772216796874,-2.459616673874855,-0.46850540049970146,-1.2130293438330293
1757088909310727200,11.70472705078125,-2.3468144705593583,-0.3687204996675253,-1.1733090356022118
1757088909320682200,11.71468212890625,-2.1971035093024374,-0.1494511412769556,-0.8478583533406258
1757088909330636300,11.72463623046875,-2.1272823695793748,-0.11695347777605056,-0.7851409081429243
1757088909340591000,11.734591064453125,-2.081676802702248,-0.041757659277319906,-0.45851066070795055
1757088909350546200,11.744546142578125,-2.1028294808462262,0.06921966669857502,0.007501169410347938
1757088909360500200,11.754500244140624,-2.146464916694164,0.19514789356887338,0.4194078998535871
1757088909370455300,11.764455322265626,-2.163544938571751,0.21482699202895164,0.8714376741096377
1757088909380409300,11.774409423828125,-2.094787628687918,0.2015565915673971,1.194674187453091
1757088909390364200,11.7843642578125,-1.8957856900393961,0.03202069363892078,1.5261445683956145
1757088909400319000,11.794319091796876,-1.6286057026997207,-0.1979056678444147,1.7451622901126742
1757088909410273300,11.804273193359375,-1.349973177975416,-0.5200006099373102,1.8517051407724618
1757088909420228400,11.814228271484374,-1.1074231895014643,-0.8104384310066699,1.8619179072290657
1757088909430182100,11.82418212890625,-0.9501406239464878,-1.125672839680314,1.7605521669462323
1757088909440137200,11.83413720703125,-0.7112488657191396,-1.475805543255806,1.6003274104595184
1757088909450092300,11.84409228515625,-0.5165957699298859,-1.7112796019941567,1.4173618298545478
1757088909460046300,11.85404638671875,-0.3806628663957119,-1.7691420083761213,1.2066659462809561
1757088909470001200,11.864001220703125,-0.2398097498551011,-1.6567226668983697,1.1364181055784224
1757088909479956200,11.873956298828125,-0.07626578581780195,-1.4965052169352768,1.086043424603343
1757088909489910000,11.883909912109376,0.2429071313485503,-1.2430576946109533,0.9101783236533403
1757088909499865300,11.893865234375,0.6374184903547168,-0.9634417118072509,0.7994789378359913
1757088909509819400,11.9038193359375,0.9128557261690496,-0.8392349019020795,0.7382964471206068
1757088909519774200,11.913774169921876,1.0763038286164401,-0.7552309230476617,0.6608823680505156
1757088909529729000,11.92372900390625,1.2414604885473846,-0.8516302730947732,0.5517211515858769
1757088909539683000,11.93368310546875,1.4011410551548003,-0.864213860335946,0.43628859976679085
1757088909549638100,11.94363818359375,1.7542048437461255,-0.5821493153363466,0.40888533679544925
1757088909559593200,11.95359326171875,2.0510735746458173,-0.06687982557415961,0.3204775700241327
1757088909569547300,11.96354736328125,2.195984442144632,0.4715963522523641,0.5898784482836723
1757088909579502000,11.973502197265624,2.369314471659064,0.9248878170073032,1.0961275962442159
1757088909589456100,11.9834560546875,2.6913968465313314,1.5519418574750423,1.7264125814571976
1757088909599411200,11.9934111328125,3.168357940687239,2.40749953314662,2.0661814196676014
1757088909609366300,12.0033662109375,3.3641678052961823,2.91313960929811,2.0146029158607126
1757088909619320000,12.013320068359375,2.7366318265303966,2.8802362876057623,1.5991569053754209
1757088909629275100,12.023275146484375,1.5138202166125176,2.4679297441899775,0.7555076941624284
1757088909639230200,12.033230224609374,0.14478139590024947,1.9439707520157097,-0.17959230477958918
1757088909649184300,12.043184326171875,-0.9386752270802855,1.352000884410739,-1.1068769537955523
1757088909659139000,12.05313916015625,-1.7427710110619663,0.5862970826655626,-2.0421537706092
1757088909669093000,12.063093017578124,-2.1325404362380502,-0.39663726511895653,-2.9756279219150543
1757088909679048200,12.073048095703125,-2.0505181327201423,-1.601737861779332,-3.821699391838908
1757088909689003300,12.083003173828125,-1.5813187586069106,-2.8142297377347942,-4.83660445664078
1757088909698957300,12.092957275390624,-0.855247002287209,-3.2189941952079533,-5.576426505893468
1757088909708912000,12.102912109375,-0.35135347754210233,-2.364642972716689,-5.633219821739196
1757088909718866200,12.1128662109375,-0.12086509826183318,-1.1756722576022147,-4.849612406773865
1757088909728821200,12.1228212890625,-0.24902532196789978,-0.14249825339913366,-3.451930259901285
1757088909738776300,12.1327763671875,-0.41988662328124043,0.31527240259647366,-2.4552348055288196
1757088909748730000,12.142730224609375,-0.3859679870665073,0.02294949843287468,-1.9894415865972637
1757088909758685200,12.152685302734374,-0.4959856742300093,-0.36963527642488475,-1.9570865464374423
1757088909768640300,12.16264013671875,-0.8740253525152802,-0.48475335546731946,-1.7365061054483055
1757088909778594300,12.17259423828125,-1.4061352101802824,-0.4164309298694133,-1.184580663461983
1757088909788549000,12.182549072265624,-1.894159550142288,-0.1324842243850231,-0.5594345024421811
1757088909798503200,12.192503173828126,-2.106829510267824,0.35745910094082356,0.21120836314037442
1757088909808458000,12.2024580078125,-2.7297628175437447,0.8095423589497804,0.9963730905503034
1757088909818413300,12.212413330078125,-3.0323160238206386,1.3005267177611588,1.7915403026670216
1757088909828367400,12.222367431640626,-2.4719804808855055,1.5361656116724014,1.997989196320623
1757088909838322200,12.232322265625,-1.868628656914085,1.6628583931744099,1.8959968485720455
1757088909848277000,12.242277099609375,-1.2077988958336412,1.616874640634656,1.5389381451256572
1757088909858231300,12.252231201171876,-1.069768435498327,1.0727005434274672,0.8968937485359608
1757088909868186000,12.26218603515625,-1.0361584268413484,0.5672270560145378,0.4971287067852914
1757088909878140200,12.27214013671875,-0.895043444494158,0.1006610991448164,-0.2188853275090456
1757088909888095200,12.28209521484375,-0.09996142644286155,-0.4311047673881054,-0.8162270974107086
1757088909898050300,12.29205029296875,0.11273432571105658,-0.6852309196263552,-1.145074582503736
1757088909908004400,12.30200439453125,-0.1628887149989605,-0.7482599149912595,-1.3703773758396505
1757088909917959200,12.311959228515626,-0.0410346056997776,-0.9237240339249372,-1.5347021149910987
1757088909927913200,12.321913330078125,-0.1647276208639145,-0.9432049794644117,-1.6552642847836017
1757088909937868000,12.331867919921875,-0.43882162537574765,-0.8682698577284812,-1.7683429669529198
1757088909947823400,12.3418232421875,-0.600833484474942,-0.7631272292554379,-1.7414727879449725
1757088909957777200,12.351777099609375,-0.8898270980853586,-0.6255272692918777,-1.6956706755824387
1757088909967732200,12.361732177734375,-1.3439292216360568,-0.49416591145694255,-1.4376223814643918
1757088909977687000,12.37168701171875,-1.5953531291782854,-0.42760231222510336,-1.0590491808243094
1757088909987641000,12.38164111328125,-1.617750838947296,-0.2979512654393911,-0.7888890086300671
