time,seconds_elapsed,gyro_x,gyro_y,gyro_z,acc_x,acc_y,acc_z,grav_x,grav_y,grav_z
1757088897623975000,0.017974853515625,-0.043021485209465,0.4063045978546142,0.2118826806545257,1.296751290875673,-0.0973632997084408,0.3467518289655447,-9.557046293622257,-0.9927466436814516,1.9615578466326
1757088897633928700,0.0279287109375,-0.0652793794870376,0.4895411729812622,0.2341988980770111,1.0812702188521623,-0.064415846613422,0.4867893913395703,-9.545970188334584,-1.012675625249371,2.0048263488642872
1757088897643883800,0.0378837890625,-0.0983790829777717,0.5523579120635986,0.2786208689212799,1.014729415974021,-0.1443361363507807,0.6409298594765365,-9.53285000999868,-1.0352570940874517,2.055090847463161
1757088897653838600,0.047838623046875,-0.1402178853750229,0.7283475995063782,0.3773677051067352,1.0761650046676396,-0.4285166505910456,0.8132650327347218,-9.51647346021533,-1.0630709106210618,2.115890914732218
1757088897663792600,0.057792724609375,-0.1887525171041488,0.631706178188324,0.397585779428482,1.4653554609119892,-1.0330798231136054,0.7798312574274837,-9.497153842717408,-1.0974603061527013,2.1840407602421936
1757088897673747700,0.067747802734375,-0.1835795938968658,0.489041119813919,0.2046842575073242,2.3302643177747724,-0.7973262167815118,0.3707005675688385,-9.481595039057732,-1.1228235146638006,2.238081416378915
1757088897683702800,0.077702880859375,-0.1732037514448166,0.4558066725730896,-0.145231008529663,2.008712396517396,-0.4720380316052585,0.3857201497852802,-9.470541145601867,-1.122500274058804,2.284562889307737
1757088897693656600,0.087656494140625,-0.2643693685531616,0.3854036331176758,-0.5751826167106628,1.7475433400303124,-0.3332322760485112,-0.2830928651340306,-9.464803478732703,-1.0836861939527094,2.3266936196811496
1757088897703611600,0.097611572265625,-0.4518456757068634,0.354629248380661,-0.908661425113678,1.6880349200069904,0.0283340410154312,-0.70465998884812,-9.46410205246508,-1.004569694878906,2.364739418828487
1757088897713565700,0.107565673828125,-0.7003787755966187,0.4168111383914947,-1.019453525543213,0.9530956743597984,0.3269115485943853,-0.7970145935490727,-9.464332938611507,-0.898676905625686,2.406067746777832
1757088897723520800,0.117520751953125,-0.8957737684249878,0.5411208271980286,-0.904930591583252,0.3661643854439258,0.2636315741430968,-0.6256102714002132,-9.46098830435872,-0.7875128249060362,2.457623454231024
1757088897733475600,0.1274755859375,-0.9737082719802856,0.6763510704040527,-0.6371566653251648,0.1540250250637531,0.1722614504348486,-0.4014183619156479,-9.45160789707303,-0.6909053850661963,2.5219328447952867
1757088897743429600,0.1374296875,-0.9182472825050354,0.8477134108543396,-0.286987841129303,0.3555237489640712,0.2734522725421935,-0.3004913053110242,-9.435383907502889,-0.6228560773212463,2.599224174268544
1757088897753384700,0.147384765625,-0.8388161063194275,1.1371625661849976,0.088452361524105,0.8099766587138175,0.4050768478905782,-0.3413248354807496,-9.410098659598829,-0.5904778024163096,2.69662071865946
1757088897763339800,0.15733984375,-0.8055912256240845,1.5926263332366943,0.4502308964729309,1.6141437543660402,0.4647669446237385,-1.1883449844315648,-9.37120749566853,-0.5933056462533771,2.828223484034836
1757088897773293800,0.1672939453125,-0.7784118056297302,2.1490225791931152,0.7779262065887451,2.7854361894488333,0.8133118675511329,-1.6869038701504468,-9.313227015864848,-0.6276116012852638,3.0067075353115795
1757088897783248600,0.17724853515625,-0.7481551170349121,2.615778923034668,1.0344860553741455,3.6697593563556663,0.8333123069200664,-1.493465118587017,-9.232836551332474,-0.6883134688768535,3.2328526246905325
1757088897793203700,0.18720361328125,-0.7795689702033997,2.914952516555786,1.1870980262756348,3.787814657893777,0.7382697783093899,-1.256414604312181,-9.132121676173806,-0.7647556341748685,3.4914018540680405
1757088897803157800,0.19715771484375,-0.8181794881820679,3.190712213516236,1.296041488647461,3.6956782259881495,0.6307900851909071,-1.1404928076714276,-9.011554099553823,-0.8482135234538465,3.773964996239543
1757088897813112800,0.20711279296875,-0.9050456881523132,3.32973313331604,1.3569186925888062,4.235320524984598,1.0354045397341252,-1.6375547328308224,-8.872140952688454,-0.9330524918276816,4.072457821209729
1757088897823067600,0.217067626953125,-1.0342655181884766,3.314105272293091,1.3906776905059814,4.49151179305911,1.788014466628432,-1.7762641153410077,-8.71862446166873,-1.0127420415490864,4.373823279006779
1757088897833021700,0.227021728515625,-1.1709729433059692,3.0329387187957764,1.385114073753357,4.672531208032369,2.103565978427232,-1.556130833597481,-8.56056448200047,-1.0827380263824016,4.659913718521595
1757088897842976800,0.236976806640625,-1.3211582899093628,2.5683529376983643,1.2906898260116575,4.969174898004532,2.070828222560137,-1.1617653128027916,-8.412186522912979,-1.1369400105606764,4.91048656219244
1757088897852931800,0.246931884765625,-1.5138933658599854,2.140564441680908,1.0917599201202393,5.144951736149191,2.0333666530415413,-1.2055933486133814,-8.28105663574636,-1.165767680311948,5.122057767295837
1757088897862885600,0.2568857421875,-1.7193458080291748,1.7745503187179563,0.8233226537704468,5.378784457421302,1.9767367110639809,-1.7779460770785809,-8.168627941918373,-1.160314018015936,5.300714544790983
1757088897872840700,0.2668408203125,-1.870780110359192,1.460938572883606,0.5368973016738892,5.504541419377922,2.149190250004828,-2.0386200435251,-8.074118351140617,-1.1193841878648847,5.452153060492873
1757088897882795800,0.276795654296875,-2.134364128112793,0.7309601306915283,-0.1377888172864914,6.057858023461699,2.397484481219202,-1.8522621901333327,-8.013920779809355,-1.0266543931759893,5.558187084847688
1757088897892749800,0.286749755859375,-2.352572202682495,0.7533716559410095,-0.4844769835472107,6.026662090209126,2.1523770633473998,-1.8863591055244209,-7.975093328765034,-0.8747710563160479,5.639419260901212
1757088897902704600,0.29670458984375,-2.4165141582489014,0.5706149935722351,-0.7803333401679993,5.244115290212631,1.861950932715833,-1.8364578872799877,-7.942679836416244,-0.6893905235238373,5.71042581101656
1757088897912658700,0.30665869140625,-2.268517255783081,0.4667983055114746,-1.037081599235535,5.359613308483362,1.5121074213452637,-0.2799409769743681,-7.918416332775354,-0.4828999461529776,5.765056980392337
1757088897922613500,0.316613525390625,-2.002049446105957,0.4989497661590576,-1.2885346412658691,4.124631952822208,1.775607843389362,0.7115121928304433,-7.895948480379581,-0.2680089124444872,5.809694579020142
1757088897932568800,0.32656884765625,-1.7162361145019531,0.7913201451301575,-1.496693134307861,2.2381290549129247,2.0935330985821783,1.2418705306529998,-7.861360566601157,-0.0505308350845938,5.862324345445632
1757088897942523000,0.33652294921875,-1.500347375869751,1.1391388177871704,-1.5758858919143677,0.3241442758381366,2.0654948987081645,1.390509186503291,-7.803480624562502,0.164255107981339,5.937094632008671
1757088897952477700,0.346477783203125,-1.3522454500198364,1.4032140970230105,-1.4588534832000732,-1.0779226619899271,1.7053870368242263,1.2242986336052415,-7.723312278348207,0.3672434128522873,6.032077685517073
1757088897962432500,0.3564326171875,-1.28178071975708,1.5699325799942017,-1.152116060256958,-2.0600123756438493,1.3994463800661263,1.3009195164710283,-7.626927541348338,0.547189061114192,6.140109605690837
1757088897972386600,0.366386474609375,-1.2775084972381592,1.661629319190979,-0.7369029521942139,-2.7900702789902687,1.295006200774014,1.477647956252098,-7.521157136365771,0.6975680578257888,6.254276083096862
1757088897982342000,0.376341796875,-1.3099855184555054,1.7049504518508911,-0.3180819153785705,-3.229094733461737,1.2485165445387365,1.6255664811342954,-7.411485047769546,0.8178291257798671,6.369570103228092
1757088897992296700,0.386296630859375,-1.32796311378479,1.8499188423156736,0.0318278931081295,-3.370248001992702,0.9614133477848024,1.5972726990640165,-7.297266547915339,0.9124983640987424,6.48749739447236
1757088898002250800,0.396250732421875,-1.278185248374939,2.1044204235076904,0.2550155520439148,-3.446317096194625,0.8199209104273468,1.574855700072646,-7.1700219777494665,0.9868035173680632,6.6172039708375925
1757088898012205600,0.40620556640625,-1.2080309391021729,2.342104196548462,0.3464634120464325,-2.9953648880422112,0.7712896390534937,1.5881015506148335,-7.024817972522974,1.047854709853977,6.761976014387607
1757088898022161000,0.416160888671875,-1.173210859298706,2.5436904430389404,0.3640897870063782,-2.34703541983366,0.8245522234898061,1.5752666189610958,-6.862261265957355,1.1039772868312894,6.918163770443201
1757088898032114700,0.42611474609375,-1.1807377338409424,2.7530224323272705,0.3507305681705475,-1.9164684125840663,0.9081159112308174,1.6489140389740466,-6.681857937055826,1.1616713509090244,7.083337966030836
1757088898042069800,0.43606982421875,-1.225117802619934,3.0433871746063232,0.3575577735900879,-1.8074580027669669,1.109512562996149,1.7009055074959991,-6.479622131052613,1.2243852159101516,7.258496380016207
1757088898052024600,0.446024658203125,-1.2986992597579956,3.419595956802368,0.4273099601268768,-2.103942702785134,1.4290681958697735,1.7353297551453113,-6.248229788669944,1.2920916285015642,7.447181215050816
1757088898061979000,0.455978759765625,-1.4093793630599976,3.7709014415740967,0.5848217606544495,-2.6866777090549467,1.6472713863335549,1.8308032225191595,-5.984222878408431,1.363287417578697,7.648589338058232
1757088898071933700,0.46593359375,-1.558095097541809,3.9273858070373535,0.8333349227905273,-3.56447410454154,1.8274059812963008,1.9616946247547864,-5.6956987820059055,1.436638923384994,7.852735946118831
1757088898081888800,0.475888671875,-1.722653031349182,3.8087575435638423,1.106250524520874,-4.166645632687211,1.8182957692541184,2.27030932302773,-5.402678543227911,1.5129364195153117,8.043162656384705
1757088898091842600,0.485842529296875,-1.854067325592041,3.504183292388916,1.3034746646881104,-4.246990504512191,1.7659294760704038,2.7344091820448635,-5.12496225656569,1.5941827702246605,8.207540148636697
1757088898101797600,0.495797607421875,-1.986313343048096,3.216944456100464,1.3509734869003296,-3.902713541227579,1.2928028455108402,2.7232471520394084,-4.870539167207479,1.686481845346093,8.342902558806538
1757088898111752700,0.505752685546875,-2.026627540588379,2.883936643600464,1.2804194688796997,-3.627358138477802,1.2466666788883507,2.8234657681137323,-4.637575629985332,1.7920239945307372,8.452925360536575
1757088898121706500,0.51570654296875,-2.027092695236206,2.4913666248321533,1.1006479263305664,-2.879836474633217,1.156679241710156,3.0414830806165933,-4.432354378430545,1.9095447508007288,8.536876147899031
1757088898131661300,0.525661376953125,-2.0122339725494385,2.1631884574890137,0.8841766119003296,-2.26600081217885,1.0158112198613582,2.6791274398058653,-4.254008566580713,2.039190244628489,8.597412741926313
1757088898141616600,0.53561669921875,-1.904929757118225,1.9812898635864256,0.7066506743431091,-2.368523613542318,0.8380947919562458,2.46016729349494,-4.09357630482316,2.175007997350394,8.64189544225335
1757088898151570400,0.5455703125,-1.73651385307312,1.893588304519653,0.5921456813812256,-2.471388360211253,0.320646789111197,2.4280256038248536,-3.941181219048798,2.306091853418201,8.67867589763999
1757088898161525500,0.555525390625,-1.6260517835617063,1.8198366165161133,0.513015866279602,-2.281770043718814,0.2756466407813132,1.8363076651543375,-3.793666014270484,2.4298010890647768,8.710599560645223
1757088898171479600,0.5654794921875,-1.67945396900177,1.83783495426178,0.3896873295307159,-2.106550254935026,0.4778846387416124,1.0787164427161215,-3.6471652472317215,2.5548206766575574,8.737360726320743
1757088898181434600,0.5754345703125,-2.062278985977173,1.8232842683792116,0.1171338483691215,-1.2875640680745244,1.1216256101161242,0.1775081919819116,-3.492309616562724,2.707899360781908,8.754509429520368
1757088898191389400,0.585389404296875,-2.4834351539611816,1.6155641078948977,-0.309148222208023,-0.2823360554173588,1.035695339374244,-0.8818389488756656,-3.3399414187952874,2.909799066698551,8.749184435105324
1757088898201343500,0.595343505859375,-2.515981674194336,1.478449463844299,-0.6860483884811401,0.2845096000641584,0.5646282716929912,-0.705585725390911,-3.191070415493846,3.146683576756716,8.722719622027874
1757088898211298600,0.605298583984375,-2.1464195251464844,1.5701587200164795,-0.7585756182670593,-1.1001046831816437,0.232817991271615,1.854565790900588,-3.0357290471345184,3.372999346527457,8.69353853572905
1757088898221253600,0.615253662109375,-1.7100369930267334,1.5959869623184204,-0.5005940794944763,-2.7370339775905013,-0.2696820332884788,2.8485569547504186,-2.8751240591585634,3.5585669263243678,8.674136500644684
1757088898231207700,0.625207763671875,-1.3647139072418213,1.404000759124756,-0.0134036857634782,-3.2380019702777263,-0.83792849547863,3.0235622240006923,-2.7353809496864674,3.6982509990856047,8.660889481058716
1757088898241162500,0.63516259765625,-1.1338437795639038,1.2090890407562256,0.5513089895248413,-3.366249580006301,-0.7011039038017391,3.077032532903552,-2.633470435002446,3.798303026421368,8.6491698171705
1757088898251117600,0.64511767578125,-0.9861448407173156,1.1869640350341797,1.0479669570922852,-3.361532196095585,-0.1227186171740293,2.455030515128374,-2.5624708991497758,3.868446822227537,8.63940070282817
1757088898261071400,0.6550712890625,-0.9158199429512024,1.293298363685608,1.361093044281006,-2.983351209643483,-0.1726440930768847,1.5747253516912458,-2.5032611698120832,3.919270416013896,8.633851252007483
1757088898271026700,0.665026611328125,-0.9278334975242616,1.360004425048828,1.4584310054779053,-1.973967830872536,-0.6334545551598072,0.8853589396953582,-2.4448304620228707,3.963190514022112,8.630545196199417
1757088898280981500,0.6749814453125,-0.9492650628089904,1.365910530090332,1.3564432859420776,-0.7894733843892813,-0.8409148178130388,1.0936328568190337,-2.383891278544068,4.010089627841115,8.625928057792782
1757088898290935600,0.684935546875,-0.918165683746338,1.3602063655853271,1.1116002798080444,0.0407816538520157,-0.4587938615635037,1.8246780176371336,-2.316769314777106,4.061468809683621,8.620175777876376
1757088898300890400,0.694890380859375,-0.8962950706481934,1.3480207920074463,0.8493854403495789,0.3219413589663803,-0.278324189427495,2.1442174300283194,-2.240295439166576,4.116828001073003,8.614127729883789
1757088898310845700,0.704845703125,-0.9322762489318848,1.315478801727295,0.6842913031578064,0.1200147650428116,-0.3950099561780691,1.9617396329402923,-2.1577795069128274,4.178446545118093,8.605517722448706
1757088898320799500,0.714799560546875,-0.9587727189064026,1.4008829593658447,0.64565110206604,-0.3972334774464368,-0.3781692960143089,1.964161307129264,-2.069841841871291,4.245852440392971,8.594118376556038
1757088898330754600,0.724754638671875,-0.9629623889923096,1.6196759939193726,0.7155718207359314,-0.971414298121631,-0.4660395949080586,2.2006506803900003,-1.9703119387134909,4.314570002788305,8.583283678808808
1757088898340709400,0.73470947265625,-0.8518123626708984,1.9513803720474243,0.8977014422416687,-1.6637063883058725,-0.5240425788044929,2.6586265035688874,-1.852777446179092,4.377659496168792,8.577510940626263
1757088898350663400,0.744663330078125,-0.6218641400337219,2.320601224899292,1.189753174781799,-2.4480285274118185,-0.4708399809271097,3.231125362506509,-1.7159367801502343,4.422619166357815,8.582913091930747
1757088898360618500,0.754618408203125,-0.3842065036296844,2.652939796447754,1.5742552280426023,-3.1469425199538468,-0.3468681488215923,3.170000739458203,-1.5634994626693426,4.442899153320491,8.601541804555058
1757088898370573600,0.764573486328125,-0.2320023328065872,2.802489757537842,1.9981108903884888,-3.432408397829533,-0.137754858264327,2.6187492512106894,-1.4071708368383349,4.442380390143394,8.628762404435873
1757088898380527600,0.774527587890625,-0.2122962027788162,2.635431289672852,2.4061286449432373,-3.0922616662174462,0.059853580199182,1.7717846318393944,-1.2686267278924583,4.431369166785478,8.655860839241743
1757088898390482400,0.784482421875,-0.3194521963596344,2.147841453552246,2.7115514278411865,-2.305455455210805,0.031951135534048,0.9504267474114896,-1.1740678911454976,4.42261039852947,8.673665376001596
1757088898400437500,0.7944375,-0.4922719895839691,1.440803050994873,2.8021023273468018,-1.2316209393173456,-0.1191416354700923,0.5882955630064011,-1.140284937074408,4.425561649550497,8.676665726861357
1757088898410391600,0.8043916015625,-0.6711852550506592,0.5739361047744751,2.625571727752685,0.0552560963410884,-0.152730893599987,0.7567419121325015,-1.1733483446992934,4.444636060115695,8.662495747211574
1757088898420346600,0.8143466796875,-0.7942294478416443,-0.2222634404897689,2.200650691986084,1.3360605340875684,-0.0392801632478833,1.1001233878821135,-1.2673767278313637,4.478877352413535,8.631557003590464
1757088898430301400,0.824301513671875,-0.8370395302772522,-0.824567437171936,1.5653361082077026,2.430900867000222,-0.0639618923008441,1.3215537236988544,-1.3978025583818554,4.524060602225363,8.587747672480344
1757088898440255700,0.834255859375,-0.8670068383216858,-1.3084652423858645,0.8703497052192688,3.4298265646427866,-0.5387865589499473,1.846037032008171,-1.5443929034002124,4.578852222859859,8.533425715184212
1757088898450210600,0.84421044921875,-0.9289793968200684,-1.7002593278884888,0.2780954837799072,3.8667029011696576,-0.7345578451141714,2.350006544598937,-1.698004963748902,4.645636186844111,8.467895550653338
1757088898460164600,0.85416455078125,-1.0214192867279053,-1.956099271774292,-0.1334791481494903,3.4461329717993734,-0.3558367604359984,2.3178169241338966,-1.8553353139683604,4.726452183312177,8.38980108810365
1757088898470119400,0.864119384765625,-1.0842936038970947,-1.9312779903411863,-0.3453735709190368,2.411338965179026,0.0342506446480751,2.04236858240366,-2.006419463274628,4.819244741038978,8.301778521257638
1757088898480074800,0.87407470703125,-1.05705463886261,-1.6572890281677246,-0.3652621507644653,1.290832129959762,-0.0744710113555192,2.0110504840761423,-2.1373323466897007,4.915248077505827,8.212341411438583
1757088898490028500,0.884028564453125,-0.9460510015487672,-1.2156559228897097,-0.2268619239330291,0.2432271570831537,-0.4433931710749864,2.2440058379918337,-2.239841411788761,5.003599145653844,8.131267056295275
1757088898499983600,0.893983642578125,-0.8137326836585999,-0.685011088848114,0.0395502261817455,-0.7106278112113475,-0.5077455239981412,2.613631177544593,-2.3116027257941663,5.076780117198824,8.065555689978599
1757088898509938400,0.9039384765625,-0.6944023370742798,-0.2522367537021637,0.4281536340713501,-1.6083172401696442,-0.0278606513500213,2.6397470310539006,-2.3594737533852457,5.131849677991867,8.016694920697807
1757088898519892500,0.913892578125,-0.6624857187271118,0.0074080498889088,0.9635900855064392,-2.600310800461471,0.3203641727775335,2.5242759007900952,-2.403870090603083,5.168792630463838,7.979686501774191
1757088898529847600,0.92384765625,-0.7517809271812439,0.222786396741867,1.529711365699768,-3.474138876838982,0.5128308644384145,2.285390572303533,-2.459291971965134,5.194198289877176,7.94623139141798
1757088898539802600,0.933802734375,-0.8949355483055115,0.3667196631431579,1.9488037824630735,-3.3506966215655205,1.3167775953382252,2.1824399009168145,-2.5261706284955143,5.215054030901193,7.911515467345714
1757088898549756400,0.94375634765625,-1.0874056816101074,0.3541868031024933,2.1669178009033203,-2.4531083148941395,2.249133848530054,1.8947803123891356,-2.604792037528753,5.240078582042456,7.869372023621201
1757088898559711500,0.95371142578125,-1.221320629119873,0.3518641591072082,2.290250778198242,-1.8011685472339392,1.9163842414319516,1.9275240596055985,-2.694693549989164,5.27175733037591,7.817773938331007
1757088898569666600,0.96366650390625,-1.2565878629684448,0.3680311441421509,2.3954315185546875,-1.3519032692551611,1.4188129054456948,2.248508994629979,-2.7897660353466867,5.304254993876815,7.762246696898341
1757088898579620600,0.97362060546875,-1.2482645511627195,0.3960432410240173,2.465705156326294,-1.120167520262301,1.4412217211306095,2.037240571865439,-2.8895220023453234,5.331975359973312,7.706562803599238
1757088898589575400,0.983575439453125,-1.2553722858428955,0.4202231466770172,2.473252534866333,-0.6625324733451008,1.4915005405157804,1.740619678246975,-2.9898218669623136,5.355018381908535,7.652131540709734
1757088898599530500,0.993530517578125,-1.2639198303222656,0.6056681871414185,2.258913040161133,-0.0362190221115946,1.2285042686015366,1.4745236867517233,-3.0814801599621773,5.378594487807154,7.599051107907295
1757088898609484500,1.003484619140625,-1.169580578804016,0.7618442177772522,1.7182766199111938,1.923572691631317,1.0902280168116092,1.6719781036972998,-3.136235540239513,5.408533114475012,7.555275094544887
1757088898619439600,1.013439697265625,-1.1216295957565308,0.5196950435638428,1.256267786026001,3.3730250654906038,1.0265168844014405,1.4225094218760728,-3.1641312629029152,5.448601505491137,7.514746100279688
1757088898629394400,1.02339453125,-1.1085073947906494,0.0445386245846748,1.1291050910949707,2.512421796867251,0.0525420881420373,1.4183657462000847,-3.207937086881697,5.494224608024955,7.462775674545765
1757088898639348500,1.033348388671875,-1.0838344097137451,-0.0190741922706365,1.0952738523483276,0.5900552661553025,-0.9862404035925864,1.2743255240559577,-3.270513370043039,5.540011376687884,7.401512519809604
1757088898649303600,1.043303466796875,-0.8657305836677551,0.0912059769034385,0.9625736474990844,0.2236713927417993,-0.8635288006812334,1.3762708177924154,-3.3255092810779807,5.578311004465818,7.348049809691309
1757088898659258600,1.053258544921875,-0.6080430746078491,-0.0751983448863029,0.8978330492973328,1.2332622767835857,-0.090448917210102,1.4123252969920634,-3.371583926771581,5.601901138889789,7.309003162938356
1757088898669212700,1.063212646484375,-0.5819867253303528,-0.2590984106063843,1.1485787630081177,0.1474190509274602,-0.6115513509094714,0.2343266422688961,-3.4428877062678334,5.608698543944954,7.270447514572739
1757088898679167500,1.07316748046875,-0.7268989682197571,-0.2552420794963836,1.2636295557022097,0.6789709824487566,-1.655446655613184,-1.6426608237981797,-3.5285198708459733,5.613960409995913,7.225191491785645
1757088898689122600,1.08312255859375,-0.7674554586410522,-0.1392372101545334,1.5325459241867063,0.7932119863957167,-1.0995371124267577,-1.791925502592325,-3.6218116102665663,5.618742383575439,7.175138297849893
1757088898699076400,1.093076416015625,-0.6751002669334412,0.4212724566459656,1.658542275428772,-0.0606686959743499,-0.6575234130114317,-1.7448036859333511,-3.7030163137912746,5.611725198289752,7.139089663869142
1757088898709031700,1.10303173828125,-0.5678611397743225,0.7225334644317627,1.6099600791931152,3.0272505571246144,-1.0833294894695282,-2.8749487025916576,-3.7525440225481983,5.595052880430221,7.126303247532248
1757088898718986500,1.112986572265625,-0.5668188333511353,0.8869168758392334,1.6100726127624512,4.760824993035197,-1.1092729090213775,-3.9030817900180814,-3.783841954870522,5.574160314527154,7.126126721921563
1757088898728940500,1.1229404296875,-0.7111286520957947,0.6804185509681702,1.6042944192886353,4.24669356739223,-0.6977654070287942,-3.5276088934808967,-3.815438577878475,5.557994777145981,7.121904720312356
1757088898738895400,1.132895263671875,-0.8522172570228577,0.5720442533493042,1.5265551805496216,3.124823627126217,-1.1819336560845377,-2.7911498909205195,-3.862537305922806,5.553147337114811,7.10026396639049
1757088898748849700,1.142849609375,-0.8830585479736328,0.8096943497657776,1.1144872903823853,3.500931606696546,-2.2830630061388013,-2.534521984994411,-3.885649885962904,5.563567608842253,7.079464339467883
1757088898758804500,1.152804443359375,-0.7533078193664551,0.3823183178901672,0.8887826204299927,4.394211402519047,-2.7960820866256952,-1.8852976137727495,-3.896217457206547,5.583830060148239,7.057670440810918
1757088898768759600,1.162759521484375,-0.5685669779777527,0.0893266499042511,0.7250198125839233,2.9034219328820705,-2.2843261579424143,-0.6495932045340538,-3.926494229787588,5.598649443617463,7.0290931656241415
1757088898778713300,1.17271337890625,-0.3866148591041565,-0.1011010631918907,0.5824152231216431,1.7644202405512333,-2.254853979742527,-0.1823585546225309,-3.961549176555872,5.606287391149998,7.003289446803927
1757088898788668700,1.182668701171875,-0.2412075996398925,-0.5461770296096802,0.7056178450584412,-0.3457335918337106,-1.2420260134756564,0.132081488803029,-4.017848863665759,5.603962747594714,6.973011797440051
1757088898798623500,1.19262353515625,-0.0444447621703147,-0.8624733686447144,0.9901869297027588,-2.811037371434271,-1.4673977803945542,0.0086216978728771,-4.116435202363133,5.579139856505393,6.935310720077156
1757088898808577500,1.20257763671875,0.078704334795475,-0.5270756483078003,1.0170183181762695,-2.6251439206838607,-3.010367226862907,-0.78844988656044,-4.222272242841124,5.535201930579543,6.906831644567847
1757088898818532400,1.212532470703125,0.1436769515275955,-0.4147679805755615,0.8414459228515625,-0.72220485175848,-2.3350369390040635,-1.4400690439641477,-4.303374070513248,5.487153062203526,6.895107889026403
1757088898828487700,1.22248779296875,0.0891857519745826,-0.8568785786628723,0.6799957752227783,0.5955675998359918,-1.2377362073272469,-0.4486632204324007,-4.38603744841367,5.446592503756285,6.875149389103054
1757088898838441700,1.232441650390625,0.0234399866312742,-1.701222538948059,0.4447759985923767,-0.2464879124447703,-1.7428250793367623,2.4747610515147445,-4.504804989874363,5.416876579928398,6.821624135142565
1757088898848396500,1.242396484375,0.242365151643753,-2.482218980789185,-0.1555801331996917,2.4686992672577497,-1.9720079289764163,2.777158190447092,-4.656401034225524,5.402449995169043,6.7306649303227655
1757088898858351400,1.252351318359375,0.6815062761306763,-2.723641872406006,-0.7365029454231262,6.256673207366466,-1.6088316194325685,1.5943851609289643,-4.808181202971935,5.392866758787632,6.630894058015942
1757088898868305400,1.262305419921875,0.8928883075714111,-2.5831987857818604,-1.0256799459457395,6.491386803126335,-1.6795996846169232,-1.3912322400808337,-4.930965871119499,5.385225304123759,6.546397911730408
1757088898878260700,1.2722607421875,0.9901273250579834,-2.561551809310913,-0.7317549586296082,4.164703266447782,-1.6047960803061725,-3.17681451112628,-5.0516053439319135,5.368181814864277,6.467944552740454
1757088898888215600,1.282215576171875,0.949670433998108,-1.8915876150131223,-0.4001424014568329,1.1156143870025872,-1.4948428366810085,-2.956093784883618,-5.167202146402001,5.333945198741555,6.404642001131177
1757088898898169600,1.292169677734375,0.9111336469650269,-1.098909854888916,-0.2242175191640854,0.2727110257208347,-1.4321499414026737,-2.9999037005156275,-5.245617511469125,5.290256279140711,6.377074779769778
1757088898908124400,1.30212451171875,0.9173073768615724,-0.7469560503959656,-0.1025909557938575,0.1888707129955291,-0.641500498971343,-2.614654090851545,-5.293458290052413,5.2412108009427785,6.37803982540965
1757088898918079500,1.31207958984375,0.911287009716034,-0.7072402834892273,0.0547184869647026,-0.5563502726912498,0.5644079069405794,-1.2783598941385743,-5.338174214613438,5.1839206414908165,6.387586236912012
1757088898928033500,1.322033447265625,0.8595409989356995,-0.6182070970535278,0.168194442987442,-1.758965482276678,0.5085474880307913,-0.2737970673918724,-5.386229512730241,5.1217164065122605,6.397416141530871
1757088898937988600,1.331988525390625,0.809148371219635,-0.4774139821529388,0.2861713767051697,-2.6833172927111386,-0.4248936377882957,0.8233008351892233,-5.432875528571009,5.055878198945522,6.410329983639716
1757088898947943400,1.341943359375,0.6324689388275146,-0.4536892175674438,0.2935241162776947,-2.9942887832432983,-0.4434580530047416,1.405013512673974,-5.476546327993273,4.992890120112896,6.422529539999365
1757088898957897500,1.3518974609375,0.4787420332431793,-0.7571602463722229,0.1952834129333496,-2.39655202267468,-0.1348784260451793,0.965711410304904,-5.526159961467981,4.944380063965917,6.417557012283802
1757088898967852500,1.3618525390625,0.3514594435691833,-1.006161332130432,0.1853905767202377,-2.2185616001337767,-0.3365782254755496,0.7117214516669511,-5.592371678522229,4.90770774512887,6.388283571526408
1757088898977807600,1.3718076171875,0.2150487154722213,-0.9863569736480712,0.1668707877397537,-1.8857517872810363,-0.0563832737401127,0.087533906546235,-5.665710470977425,4.879352880521118,6.345237041482329
1757088898987761400,1.381761474609375,0.1512542963027954,-0.9439384341239928,0.1909249871969223,-0.6922907750099897,-0.4237529433205723,-0.3976829747796058,-5.734195393660665,4.858711951291561,6.299390067064762
1757088898997716500,1.391716552734375,0.1981190145015716,-0.8691505789756775,0.3324892520904541,-0.5770470237612724,-0.5688301072970032,0.1316629711300134,-5.804098366448283,4.8333518845856185,6.254720319733023
1757088899007670500,1.40167041015625,0.3937654793262481,-0.7170867323875427,0.5255330204963684,-0.5644014771997928,-0.769195735514164,0.9066139091700316,-5.873157874149084,4.79085568190068,6.222869137442111
1757088899017625600,1.41162548828125,0.5882253050804138,-0.5873428583145142,0.7329526543617249,-0.716725543564558,-1.6756766659542917,1.3134049040347338,-5.944242750197649,4.72259755371064,6.207530698534846
1757088899027580400,1.421580322265625,0.6869825124740601,-0.3222248554229736,0.774262011051178,0.0048848494321107,-1.0455120922505854,1.136467205417156,-6.0080456525444985,4.637263203035295,6.210439279457926
1757088899037534500,1.431534423828125,0.6538069844245911,-0.1869610249996185,0.6480790376663208,1.296324589896202,0.4986512401774525,1.230954584363103,-6.055997490286827,4.551917161922156,6.226983587023615
1757088899047489500,1.441489501953125,0.5558314323425293,-0.2024981677532196,0.3777777254581451,2.0065420667409897,0.857889625750482,0.996681718108058,-6.090900461363792,4.482975435382127,6.242935189393163
1757088899057444600,1.451444580078125,0.6313033103942871,-0.45100137591362,0.1218272820115089,2.251160970443487,-0.3784109958156943,1.4426877020299431,-6.120639766067266,4.433141144894063,6.249433319240808
1757088899067398700,1.461398681640625,1.1432280540466309,-1.0187643766403198,-0.0040973648428916,1.1657383080869912,-1.685605354772508,4.255116527822613,-6.167674488964677,4.375789902904629,6.243607389566302
1757088899077353500,1.471353515625,1.616507053375244,-1.6276074647903442,-0.0894054844975471,-0.586719691991806,-1.7479402303934095,5.310520484012365,-6.248277134943008,4.291330581498146,6.222049637752771
1757088899087308500,1.48130859375,1.5127506256103516,-1.908726453781128,-0.1028360724449157,-0.7953110045015811,-0.8062491626232862,1.0237889207422732,-6.354972253555059,4.199731032948196,6.176323659366369
1757088899097262600,1.4912626953125,1.2743476629257202,-1.6245447397232056,0.0180118437856435,0.4486404240787029,0.8994275047972797,-1.9385159937411545,-6.463622597888111,4.117322506591678,6.118792092373967
1757088899107217700,1.5012177734375,1.1417824029922483,-1.0519776344299316,0.314007818698883,0.1285708503335714,1.3078192128568886,-2.413178163304925,-6.550118393558264,4.034991137124598,6.081543434953689
1757088899117172500,1.51117236328125,1.0410516262054443,-0.3852269649505615,0.7848706841468811,-0.868926860332489,-0.3094315676137805,-2.24904850833416,-6.615796442127228,3.9330560725212096,6.077227325320243
1757088899127127300,1.521127197265625,0.9268180131912231,0.5178115367889404,1.0570383071899414,0.026814941689372,-0.4259016457870602,-1.802270955517888,-6.64857759874463,3.810853880436718,6.119165601861477
1757088899137082400,1.531082275390625,0.382425993680954,1.1397078037261963,0.9891875386238098,2.357501868790388,0.5389405804678797,-4.479965732172131,-6.634294221848249,3.700741939118504,6.201696001031994
1757088899147037200,1.541037109375,-0.1599435210227966,1.270087718963623,0.5623531341552734,4.576733915531635,0.9455959662541746,-6.950596552014351,-6.588760551163554,3.640796296721697,6.285158128094673
1757088899156991200,1.5509912109375,-0.4630621373653412,1.48566472530365,-0.026084017008543,4.765288986706733,1.8690639795914288,-4.845063365167379,-6.5100634465456,3.6450820112168794,6.36418431853652
1757088899166946000,1.560946044921875,-0.619114875793457,1.3662831783294678,-0.2798803448677063,2.8526263961464164,1.1857181430593131,-2.404343114942312,-6.411906439176201,3.6905227429211136,6.437226173871755
1757088899176901400,1.5709013671875,-0.7456844449043274,1.158487319946289,-0.2949612438678741,0.9739017310231924,0.4793950433045625,-1.856204790279269,-6.320154038152098,3.753403854247928,6.4913780352979895
1757088899186855400,1.58085546875,-0.7710260152816772,1.1052443981170654,-0.1942282319068908,-0.5336345830142498,0.9266282309338448,-1.205617898532748,-6.237766846844553,3.8186791672348974,6.532865645462274
1757088899196810200,1.590810302734375,-0.581098735332489,0.9577075839042664,-0.0959771201014518,-1.2599912937551736,1.31743079854995,-0.6290495981991291,-6.164277832263708,3.872450212650001,6.570858983770012
1757088899206765000,1.60076513671875,-0.5132105350494385,0.942187488079071,0.096000038087368,-1.2149404381513595,0.8363669452503323,-0.5315151066422462,-6.1026382454305885,3.907743644349277,6.607400369703769
1757088899216719400,1.61071923828125,-0.698758065700531,0.9255204200744628,0.3105863034725189,-0.8114835561454296,0.1062152261406183,-1.0491922420680522,-6.048502750617265,3.933850730030239,6.641598407381773
1757088899226674400,1.62067431640625,-0.9658113121986388,0.7517683506011963,0.257605105638504,-0.131387661319971,0.186060331749916,-1.201062134924531,-6.004652502974867,3.9710219383001326,6.659243369665742
1757088899236629200,1.630629150390625,-1.1379703283309937,0.5987606048583984,0.0206038057804107,-0.3402513610303401,1.2557991027623414,-0.6978337960898876,-5.965476676884293,4.032842726919054,6.657301003426313
1757088899246583300,1.640583251953125,-1.2157058715820312,0.2683102488517761,-0.1302003562450409,-0.5736521206259727,1.774456189136207,0.1370773973941803,-5.933039803659916,4.114531706829369,6.63626873679161
1757088899256538400,1.650538330078125,-1.358023166656494,-0.054698746651411,-0.1338346302509308,-0.327353301012516,0.8929650307849049,0.331100086325407,-5.921662669599056,4.206983488294482,6.588292349129915
1757088899266493400,1.660493408203125,-1.4452649354934692,0.0073116263374686,-0.114305667579174,-0.3917150062859058,0.5830956562757492,-0.18111060038805,-5.9198494826972485,4.306312754313647,6.525445724594593
1757088899276447200,1.670447265625,-1.3440946340560913,0.4324226975440979,-0.1374434828758239,-0.3510848897337913,1.2334449398741123,-0.2879202852904796,-5.901223108160496,4.404451349243521,6.476632301586866
1757088899286402300,1.68040234375,-1.1962827444076538,0.987191379070282,-0.1467901021242141,-0.1885913115322589,1.3566615696981548,-0.6484498797178269,-5.849584690859913,4.4943183749124405,6.4617211481809615
1757088899296357400,1.690357421875,-1.1148816347122192,1.7114471197128296,-0.1529953330755233,-0.0911591113060712,0.9811281751453876,-1.255512687036395,-5.756977718833088,4.577160324250161,6.486693676874041
1757088899306311400,1.7003115234375,-0.9955182671546936,2.449873208999634,-0.1928370147943496,-0.4364472974598407,0.3317331235319375,-1.06920802513659,-5.612952694258094,4.655388934573531,6.556867867818474
1757088899316266200,1.710266357421875,-0.9955432415008544,2.8531882762908936,-0.2991509437561035,-0.4623749349206685,-0.2366317043408751,-0.1150923600792884,-5.426612961044907,4.732792492249608,6.657547671663761
1757088899326220300,1.72022021484375,-1.3805413246154783,3.1856491565704346,-0.5997554659843445,-0.0063099137991666,-0.0956944166481494,-1.598733419266343,-5.203921226990222,4.832921384213864,6.762577487412095
1757088899336175000,1.730175048828125,-2.320427894592285,3.5250937938690186,-1.0120177268981934,0.746181355151534,1.1812386595577,-5.612167681360244,-4.93723136125505,4.997447637286782,6.8424880594730375
1757088899346130400,1.74013037109375,-3.390817165374756,3.9076666831970215,-1.359165906906128,0.9118725603505968,2.7459143263995647,-8.829137092742323,-4.623333461882174,5.249970445981622,6.872624839061499
1757088899356085200,1.750085205078125,-4.062657833099365,4.516372680664063,-1.4845799207687378,0.1182508241102099,3.268894828930497,-8.636710148569941,-4.259321870557963,5.570796391052007,6.855273891288042
1757088899366039300,1.760039306640625,-4.177713394165039,5.624140739440918,-1.5315818786621094,-2.316451480999589,2.388057166051865,-4.926197341543436,-3.8308112113162873,5.913238540124893,6.821207955557108
1757088899375994000,1.769994140625,-3.9997620582580566,6.061609745025635,-1.6403478384017944,-1.8402374058187008,1.780493423473835,-1.6542478012174366,-3.328544703251123,6.249210031878948,6.78517159653604
1757088899385948200,1.7799482421875,-3.5705080032348637,5.1064453125,-1.4709396362304688,-1.92242995133698,0.7101391509115695,0.5128852249741553,-2.8549001862972974,6.551324846738576,6.715658499848843
1757088899395903200,1.7899033203125,-3.210253953933716,4.522780418395996,-1.2158464193344116,-1.3159677402600645,-0.9599866029173136,1.117132974871993,-2.4465198764145373,6.812462339043617,6.616287440514564
1757088899405858300,1.7998583984375,-2.8412556648254395,4.428179264068604,-0.7256819605827332,0.1295195293605327,-1.082940197890997,3.139835902819037,-2.088874166860432,7.032232048171759,6.50804859959185
1757088899415812400,1.809812255859375,-2.642987966537476,4.99879789352417,-0.3291404247283935,0.867820944917202,-2.536494161850214,4.379018217301368,-1.757865119819343,7.214016017776728,6.406111489161849
1757088899425767200,1.81976708984375,-2.455077648162842,4.213786602020264,0.508709192276001,3.225245656818151,-1.203233049222827,-0.6606769086062908,-1.4565288881167768,7.378028183847666,6.2939335552245375
1757088899435722200,1.82972216796875,-2.043550729751587,2.1203866004943848,0.7175053954124451,3.5167180816322565,-0.1343774907857179,-2.7714094176620243,-1.31495067217201,7.50657331521809,6.171923963102698
1757088899445676300,1.83967626953125,-2.286263465881348,1.4124914407730105,0.5108124017715454,8.759126567927002,-1.2426672339886426,-1.9087579843372104,-1.2522566078498958,7.629649075266719,6.032471068748832
1757088899455631400,1.84963134765625,-2.1794803142547607,1.137932300567627,0.7872124314308167,5.649768220958113,-3.4419051249712704,3.713120359176397,-1.2266304375536738,7.756855066987872,5.873412725692987
1757088899465586200,1.859586181640625,-1.7635678052902222,1.1934136152267456,1.1144051551818848,0.5042313783973456,-1.6768220365971327,10.947091954267025,-1.2341637556679546,7.859248689013719,5.734058615538477
1757088899475540500,1.86954052734375,-1.261289358139038,0.7340666055679321,1.0253371000289917,-0.8355722877413034,-0.373389076000452,9.70439198705256,-1.2639932228729127,7.930686616283655,5.6282250821918245
1757088899485495300,1.879495361328125,-1.010545253753662,0.1184412315487861,0.6546354293823242,0.2430827801764011,-0.6662754592657089,7.177250759959221,-1.307903822400421,7.98175804735124,5.545387224507332
1757088899495450400,1.889450439453125,-1.087984919548035,-0.2465335577726364,0.2133805751800537,0.1560416255831718,-1.0900707804232834,4.187136632052064,-1.3471568053804337,8.032806682065129,5.461645695981383
1757088899505404200,1.899404052734375,-1.1776983737945557,-0.3122585117816925,-0.1127048507332801,-0.2044273246981203,-0.7825947307914495,2.222514721673727,-1.3658695430263876,8.093739581933617,5.366207299920916
1757088899515359500,1.909359375,-1.1578378677368164,-0.3400018513202667,-0.310457319021225,-0.6823920429386198,-0.388473247885704,1.919611386784911,-1.3656979858517646,8.158556629759072,5.267184031111002
1757088899525314300,1.919314208984375,-1.086413025856018,-0.2893067300319671,-0.452705830335617,-0.2927192100048065,-0.8768494700253009,1.2625333794534206,-1.3511997971609233,8.222260163384675,5.170985756593942
1757088899535268400,1.929268310546875,-0.885738730430603,-0.1574661880731582,-0.5921474099159241,0.5026245277225971,-1.7986778994619843,1.1687702231287955,-1.319795481854677,8.279930846586822,5.086380889236927
1757088899545223200,1.93922314453125,-0.6619862914085388,-0.1584635376930236,-0.6955574154853821,1.1548254305370151,-2.464821841302514,1.9214397712558504,-1.273637541791797,8.327023437151313,5.020847217574715
1757088899555178200,1.94917822265625,-0.4716298282146454,-0.4698438942432403,-0.7868922352790833,1.3461702785611152,-2.693383928695321,1.942474375978112,-1.226909108364582,8.364349835982917,4.97018436730802
1757088899565132300,1.95913232421875,-0.3910308480262756,-0.8348860740661621,-0.8430753350257874,1.1895559676565228,-2.686397138547897,2.0358856501251457,-1.191201835167408,8.394621640127896,4.927649293917417
1757088899575087400,1.96908740234375,-0.5501002669334412,-0.9223459362983704,-0.8206796050071716,0.2937294099606573,-2.667855519685149,0.7977060829445719,-1.1649191006585955,8.426956806543469,4.878496555952728
1757088899585042200,1.979042236328125,-0.7976884841918945,-0.8670222163200378,-0.7571921944618225,-0.0470275625042617,-2.3401994363337755,-0.2164882032394409,-1.141842834040895,8.468158000981807,4.812157705387473
1757088899594996200,1.988996337890625,-1.226239562034607,-0.7165736556053162,-0.7340940833091736,-0.204993507213518,-2.8612182834029194,-1.0769202069491148,-1.116905230530724,8.524253397691249,4.718051726974546
1757088899604951300,1.998951416015625,-1.6084823608398438,0.04753228276968,-0.5264444947242737,-1.4049819484919308,-2.6881781767457724,-2.2064912231117484,-1.0800498832769692,8.597517371344566,4.592013902249932
1757088899614906400,2.00890625,-1.851860761642456,1.3204331398010254,-0.4857694506645202,-4.231171004089713,-0.3901911577194928,-2.5107111935570834,-1.0083898376889526,8.680414265739918,4.450163883626461
1757088899624860200,2.018860107421875,-2.0956478118896484,1.857405185699463,-0.7132061123847961,-1.6963555891066788,-2.1204250510305167,-2.3608707607015966,-0.8863892325911671,8.77151726294458,4.294787151692807
1757088899634815200,2.028815185546875,-2.4215245246887207,1.796511173248291,-1.1059383153915403,0.1375876850038767,-3.0949481288224456,-2.0349448621436954,-0.7298536129459738,8.873054560402036,4.111765456986428
1757088899644770300,2.038770263671875,-2.449944019317627,-1.3652703762054443,-1.1619768142700195,2.742420639064908,-3.2106285179227587,-1.7666408392101525,-0.5997595351004973,8.98050488129556,3.8937396689161656
1757088899654724400,2.048724365234375,-2.461160659790039,-1.6246416568756104,-1.161635160446167,7.161195697215199,-0.7586305023580789,-1.699348925703764,-0.5584361755872145,9.079079237294197,3.664538991358876
1757088899664679200,2.05867919921875,-2.4612035751342773,-1.0163538455963137,-0.7454211711883545,-0.8301484360616653,0.4016729211986065,-1.9177830023139717,-0.5159915204264224,9.17139161028862,3.433611636139452
1757088899674634200,2.06863427734375,-2.3763551712036133,-0.35788494348526,-0.2617975175380707,-2.223697209456563,4.970865335309505,-1.8532883183106776,-0.4943202617684379,9.254282074943184,3.206909205138683
1757088899684588300,2.07858837890625,-1.9885972738265991,0.3419333398342132,-0.1305393427610397,-0.4353981537330895,9.054335256659984,-1.222858371669054,-0.4772414454672485,9.323258580535647,3.00324687346369
1757088899694543400,2.08854345703125,-1.4404269456863403,0.6197911500930786,0.1023821532726287,-0.1428045794019475,7.363035197377204,-1.3616270831510424,-0.4594867391984909,9.37333340178132,2.846032404708862
1757088899704498200,2.098498291015625,-0.989401400089264,0.684542715549469,0.6594020128250122,-3.68295844514668,4.246481385946273,-1.8658298199757928,-0.4757700577404349,9.405106842660905,2.73642139865011
1757088899714452200,2.1084521484375,-0.6204808950424194,1.077381610870361,0.838272750377655,-3.91839509448409,2.5597382593154907,-1.9044038807809351,-0.5244951448775828,9.42279330599904,2.665760300971568
1757088899724407300,2.1184072265625,-0.3565632104873657,1.1345040798187256,0.7362984418869019,1.1334680236011745,2.53217512960732,-0.8005304927155376,-0.5696337883627042,9.43105201577842,2.6270070842072366
1757088899734362400,2.1283623046875,-0.2397417724132537,0.829708993434906,0.5165173411369324,1.9242437227606768,2.5380162568509577,-0.0099544077813625,-0.602794007425569,9.434936163735388,2.605567990337312
1757088899744316400,2.13831640625,-0.1761114001274109,0.3225662112236023,0.2396447658538818,0.8017022399086504,2.2566671666443345,0.494215303556621,-0.623633345304057,9.437959310948848,2.589665780067444
1757088899754271200,2.148271240234375,-0.0905176475644111,-0.1176223084330558,-0.0313356295228004,0.6639292614657432,1.632425845509767,0.9045964318677784,-0.6305600758273154,9.440755663669108,2.5777695905685425
1757088899764226300,2.158226318359375,-0.0363284461200237,-0.2421157658100128,-0.1473770141601562,0.6325193932015448,0.5813882678359746,1.2134291568055748,-0.6262348330393434,9.442834223508834,2.571205117486417
1757088899774180000,2.16818017578125,-0.0597535707056522,-0.1378484964370727,-0.0977811887860298,0.2343740616071969,-0.3561994562685489,0.362135568319261,-0.6189423379436135,9.444738011303544,2.565972769790888
1757088899784135400,2.178135498046875,-0.0398483052849769,0.1440068930387497,0.0121567575260996,-0.1507171426247805,-0.5380629208505153,-0.2143503144279122,-0.6155771723594516,9.446437216436864,2.5605180115163324
1757088899794090200,2.18809033203125,-0.0604699812829494,0.4119755327701568,0.108912892639637,-0.3576619300365448,-0.7425543968260288,-0.6519754234954714,-0.6142343063831329,9.447273082739114,2.5577599449798463
1757088899804044300,2.198044189453125,-0.1257408708333969,0.5365614295005798,0.1184773743152618,-0.1454921014528721,-1.239898938319087,-0.969581237475574,-0.6134698978818953,9.44871743632853,2.552597155389189
1757088899813999000,2.2079990234375,-0.1277031898498535,0.6637340784072876,0.1178567484021186,0.0447352503160014,-2.2217694562643766,-1.0196741788998245,-0.6088689799576997,9.451808388081192,2.542236504894495
1757088899823953400,2.217953369140625,-0.1716504096984863,0.4245902001857757,0.0641466528177261,-0.2197873178500682,-3.987884225773811,-0.5205836705222725,-0.6039679465757682,9.45414647563994,2.534706401650608
1757088899833908200,2.227908203125,-0.4180729389190674,-0.0196622423827648,-0.1354841142892837,0.0118277273725718,-3.6374212673306463,-0.9046016925647854,-0.5958634775100276,9.462066162723302,2.506921738146245
1757088899843863300,2.23786328125,-0.4912193119525909,-0.1825443655252456,-0.2572387754917145,0.3103360421728343,-3.3797143339961764,-0.8871744646847247,-0.5795339452061802,9.47460415725708,2.463008362139761
1757088899853817300,2.2478173828125,-0.5494784712791443,-0.3797441720962524,-0.3439125418663025,0.3801367236297577,-4.017601318645477,-0.6944315864309668,-0.5577568880861625,9.488802193957566,2.4128702663995325
1757088899863772400,2.2577724609375,-0.6887519359588623,-0.6270362734794617,-0.4399730265140533,0.3285346197515726,-3.7478082261979577,-0.7867012893274427,-0.5327896566227078,9.50556394366622,2.351760987050832
1757088899873727200,2.267727294921875,-0.73503577709198,-0.7499862313270569,-0.5124469995498657,0.3829500274848192,-3.5423078654408453,-0.7194935469731688,-0.5037079390451312,9.524670795196297,2.279765279767662
1757088899883681300,2.277681396484375,-0.6754257082939148,-0.7320948243141174,-0.556504487991333,0.3959112889319658,-3.667689564344287,-0.2414069559186696,-0.4698323382545262,9.543061022889614,2.208991807755828
1757088899893636400,2.28763623046875,-0.5631633996963501,-0.4919871091842651,-0.5467032194137573,0.4476028977245092,-3.6900364207088954,-0.1862396338395774,-0.4306940311627462,9.55912251537442,2.146641734565794
1757088899903591400,2.29759130859375,-0.3592080771923065,-0.0387900732457637,-0.5355792045593262,0.3370850059539079,-3.77372709583044,-0.1435261351421475,-0.3854181346314028,9.571137362816929,2.101234905131161
1757088899913545500,2.30754541015625,-0.1803930252790451,0.2149754911661148,-0.5944368839263916,0.0825911894470453,-3.8696529831469055,0.127611065390706,-0.3299422580597922,9.578626841789484,2.076401200386882
1757088899923500300,2.317500244140625,-0.1031288653612136,0.1995419263839721,-0.6831212043762207,0.1118529397666454,-4.023644105941057,0.6603343787789344,-0.2644832408026792,9.583279636031389,2.0642672566093503
1757088899933455000,2.327455078125,-0.1956039369106292,0.0752664804458618,-0.7837148904800415,0.4174836537927389,-4.599875137144327,1.0948011699460447,-0.1922793341289274,9.587745383268594,2.051479086706787
1757088899943409200,2.3374091796875,-0.492443323135376,-0.0295747146010398,-0.9480053186416626,1.0568208372503518,-4.736772501796484,1.0870724753901362,-0.1082681583487428,9.595804186561702,2.019703307739645
1757088899953364500,2.347364501953125,-0.9043943881988524,-0.0333167575299739,-1.0136048793792725,1.549010480198264,-4.527734030041098,0.8377636603057383,-0.0144769289903924,9.610175241741535,1.9531272874176504
1757088899963319300,2.3573193359375,-1.3415586948394775,0.2866140902042389,-0.9893910884857178,0.5038602069973945,-5.137740489596128,0.2337903434351086,0.0834669493682682,9.63105787077248,1.8455737984105944
1757088899973273300,2.3672734375,-1.782192587852478,1.5534452199935913,-1.295546531677246,-0.1330968215917237,-5.653754075723886,-0.6703986766755581,0.204174573779758,9.657007720065115,1.6943686530731616
1757088899983228200,2.377228271484375,-2.06970477104187,2.902634382247925,-1.5191558599472046,0.0395685517352074,-6.324624461564421,-1.5532761748187245,0.3786680393166839,9.683687637197972,1.5010522127151489
1757088899993183500,2.38718359375,-2.177773952484131,3.708811521530152,-1.236757755279541,-1.5251111336946486,-7.042576916575431,-1.5439195868000388,0.5602482299778611,9.706724229392409,1.2790610281452537
1757088900003137300,2.39713720703125,-1.9485164880752563,4.3783793449401855,-0.7074123620986938,-2.0776713664531705,-6.558516219547391,-0.7974800191037357,0.7025016417704523,9.724846746060251,1.0508164092037826
1757088900013092400,2.40709228515625,-1.3197717666625977,4.734112739562988,0.2453789114952087,-2.4329238972604275,-2.35690098028779,3.197539026986062,0.7704498272284865,9.738672442317007,0.8573406135655939
1757088900023047200,2.417047119140625,-0.5363083481788635,4.897238731384277,1.0450562238693235,-3.7380420344650735,3.2843647852629423,7.607070748233795,0.7434947464160621,9.75101579106152,0.731634724209085
1757088900033001200,2.427001220703125,-1.9463380575180051,3.9568917751312256,1.2460218667984009,-0.5017208568811417,12.029704819899797,5.947414365971088,0.6597385317776352,9.765909993332624,0.601774747380428
1757088900042956300,2.436956298828125,-5.628201961517334,0.5869327783584595,0.6458597779273987,3.170556619775295,38.201014258968826,-8.042794407594203,0.5748725657990202,9.787464822536707,0.2131560996746644
1757088900052911400,2.446911376953125,-6.264815807342529,-1.011332392692566,0.4492294490337372,4.487967252320051,40.10027317807674,-5.528684511509537,0.5278851161094382,9.78501216868758,-0.3811028652481734
1757088900062865200,2.456865234375,-5.311850070953369,-1.0769610404968262,0.5401721596717834,0.0970083487909287,8.275976556003092,8.466513156384229,0.4864288143988698,9.749218386250734,-0.941537046252191
1757088900072820200,2.4668203125,-4.4947896003723145,-0.2582307755947113,0.487940639257431,-0.7202221535086631,-2.754097632855177,7.32216191971898,0.4436923366846516,9.694588385918737,-1.4101295405134555
1757088900082775300,2.476775390625,-4.042596340179443,0.9425731301307678,0.2769458293914795,-0.8853367278635501,-6.2014803124547,2.779130951824784,0.4005109647471457,9.627881578823924,-1.8204026784054932
1757088900092729300,2.486729248046875,-3.7882916927337646,2.0696475505828857,0.0145732928067445,-0.9362836557686328,-6.915052360424399,0.7909351275049149,0.355989466779679,9.550321369281413,-2.1988756335414945
1757088900102684200,2.49668408203125,-3.480039358139038,2.600910425186157,-0.1431204676628112,-1.0709095683574676,-4.670667167726159,-0.0647948359936475,0.3062618698027916,9.463559616151452,-2.5529654041796923
1757088900112639200,2.50663916015625,-1.2101579904556274,1.8710228204727173,0.0244106575846672,-0.9031038552224636,0.8050631677091121,-0.5043339619889855,0.2514319447182119,9.398276119858028,-2.789189696763456
1757088900122593500,2.516593505859375,1.103900671005249,0.3111920356750488,0.2117938697338104,-0.2057248354290612,5.645570184746385,-3.7795419195890414,0.2087176605694927,9.40019042904675,-2.786256565921009
1757088900132548600,2.526548583984375,0.8188688158988953,-0.3038896322250366,0.0624911487102508,0.125529564675223,3.5463679544866085,-9.79836790934503,0.1960413900761864,9.430054236912726,-2.684400704033673
1757088900142503400,2.53650341796875,0.0707724839448928,-0.0475955307483673,-0.2279494702816009,0.2294353448296897,-1.4732219565033913,-9.47867067604363,0.2094516921987756,9.440525946566462,-2.6463144267454743
1757088900152457500,2.54645751953125,-0.052438348531723,0.2493292093276977,-0.3155235350131988,-0.2216319958686828,-2.459147887319326,-1.2797528098016977,0.2334534578972495,9.439591880586743,-2.6476357384771108
1757088900162412500,2.55641259765625,-0.0949823409318924,0.1218010783195495,-0.2191442400217056,-0.8218740172564983,-0.965506243121624,1.5987231901332737,0.2534006327089853,9.437088373333216,-2.6547154676049947
1757088900172367600,2.56636767578125,-0.0978934317827224,-0.2093444466590881,-0.1262838691473007,-0.0434112717032432,1.039108654949069,1.1054311389014124,0.2704109503512271,9.434026647675037,-2.663906782059372
1757088900182321700,2.57632177734375,-0.0532481968402862,-0.4049083292484283,-0.086720734834671,0.8747042746901512,1.2732710465669632,1.624202207043767,0.2885783656067214,9.431803126406669,-2.669869489856064
1757088900192276500,2.5862763671875,-0.0208385996520519,-0.3864751756191253,-0.0595178753137588,1.0485574512958526,0.4273994831293821,1.570581091493368,0.3064116170044056,9.430576799482107,-2.6722134226337078
1757088900202231600,2.5962314453125,-0.0200300645083189,-0.2648739218711853,-0.0064479950815439,0.8503706284224987,-0.2343541147977113,1.1941089547857642,0.3181495654679834,9.430183416250348,-2.672229204724729
1757088900212185600,2.606185546875,-0.0668542459607124,-0.1702037155628204,0.0544036626815795,0.6482382827937603,0.0509194553762674,0.4877227266669273,0.3217130301032215,9.429071655616164,-2.67572376884222
1757088900222140700,2.616140625,-0.0761196464300155,-0.101377248764038,0.1176934242248535,0.4230897667041048,0.206152102664113,0.3922831615626811,0.3171678609542548,9.427516242867709,-2.68173820682615
1757088900232095500,2.626095458984375,-0.0951903164386749,-0.079513743519783,0.1719627380371093,0.2400023132851347,-0.0506219337344169,0.3424479942917823,0.3058761766871437,9.425715915447473,-2.6893638793990013
1757088900242049500,2.636049560546875,-0.1067569553852081,-0.0847082436084747,0.2059745043516159,0.2179623491789214,-0.3122767279118299,0.1872024875223636,0.2902063686673529,9.42371042084396,-2.698121186350286
1757088900252004600,2.646004638671875,-0.1151073649525642,-0.1249265372753143,0.2337718158960342,0.2534545365869999,-0.5652431887209415,0.1380199389412999,0.2723722587531432,9.42139512963891,-2.7080457835152743
1757088900261959700,2.655959716796875,-0.1366318464279174,-0.2065079510211944,0.2608005106449127,0.2773942151010036,-0.5629442641288042,0.1081643143817782,0.2535203135658986,9.418796929839251,-2.7188915871784087
1757088900271913500,2.66591357421875,-0.1624498069286346,-0.2763707935810089,0.2760159373283386,0.3164776867330074,-0.1836760669618845,-0.120160457123816,0.2349371571163646,9.415417808794976,-2.7322312534838917
1757088900281868500,2.67586865234375,-0.1564792692661285,-0.3057793080806732,0.2887445390224457,0.3132335902452469,0.1100344921678304,-0.1385010004565119,0.216483746260032,9.411704925751684,-2.746511707770824
1757088900291822300,2.685822265625,-0.1214152723550796,-0.3002183139324188,0.3039152026176452,0.2259153722763061,0.314606047642231,-0.1020022846207022,0.1971102796830237,9.40854616945982,-2.758769424058497
1757088900301777700,2.695777587890625,-0.0704293176531791,-0.2789210081100464,0.3169172704219818,0.1371229901015758,0.4698094688355922,-0.1932096189826727,0.1759185116376727,9.406571654516458,-2.76692145859301
1757088900311732500,2.705732421875,-0.0351653434336185,-0.217993214726448,0.3066191077232361,0.1429962660491466,0.4303700233727693,-0.3840890414521098,0.1534357904663309,9.405758584567904,-2.771019833822548
1757088900321686500,2.7156865234375,-0.0288653671741485,-0.1457288712263107,0.2768793106079101,0.1541933673679828,0.3891629837155342,-0.7055722813874483,0.1310156405366491,9.405366370379925,-2.7735020060271025
1757088900331641300,2.725641357421875,-0.0367278605699539,-0.084299199283123,0.2282230854034423,0.1351987349075731,0.3044020490139723,-0.8589315360188484,0.1100577269129455,9.40483387093842,-2.776214479856193
1757088900341596700,2.7355966796875,0.0037218250799924,-0.0409376136958599,0.1493077576160431,0.0667570759773254,0.0934773251205682,-0.6320625162795186,0.0942532596628181,9.404470298323035,-2.77802883580178
1757088900351550500,2.745550537109375,0.0398498065769672,0.0342805162072181,0.0697468891739845,-0.0434545354562345,0.083630469366908,-0.6056470953017473,0.0840068831975571,9.40533772880733,-2.775414269389212
1757088900361505500,2.755505615234375,0.029216868802905,0.0884129926562309,-0.0076959701254963,-0.1768716476440429,0.1182066927075386,-0.7770692453682422,0.0793077564627397,9.406375255161525,-2.772035148344934
1757088900371460400,2.76546044921875,0.0154288150370121,0.0950844064354896,-0.0661275908350944,-0.2128396176040172,0.1494768602401018,-0.4625099594771861,0.0802603627461474,9.40697906627357,-2.7699615569412708
1757088900381414700,2.77541455078125,0.0269842706620693,0.0762798264622688,-0.1201537996530532,-0.1336497701662126,0.2254097608417272,-0.1032850179076194,0.0866635169198736,9.407510396671295,-2.7679610307738183
1757088900391369500,2.785369384765625,0.0307342503219842,0.0464089550077915,-0.1783311665058136,0.0227846541268285,-0.2265881569713353,-0.0737210697710514,0.0988703615368343,9.408201301544905,-2.765203256498277
1757088900401324500,2.795324462890625,0.0616564825177192,-0.0067152506671845,-0.2250688374042511,0.1668950280308723,-0.1933808838963508,0.0017085574835538,0.117266945905704,9.409261624252796,-2.760876333209872
1757088900411278600,2.805278564453125,0.0884194076061248,-0.0477191992104053,-0.2311322689056396,0.2371580663025379,0.257467863881588,-0.0768783647581934,0.1397796238238923,9.411067212370035,-2.753666547961533
1757088900421233400,2.8152333984375,0.0793468132615089,0.0344198755919933,-0.1906373053789138,0.2229132678508758,0.4978858087629079,-0.1466749545618891,0.160008903512638,9.413211823183298,-2.7452213756993413
1757088900431188500,2.8251884765625,0.0085639525204896,0.1482284814119339,-0.1960028260946273,0.1981727943480014,-0.7897428489804268,0.0065580433413386,0.1754726310336962,9.413806866467,-2.7422327152773738
1757088900441142500,2.835142578125,0.0077261216938495,0.1432355940341949,-0.181868627667427,0.2016156100119464,-0.1187333469301462,0.2330608601167798,0.1886396076533943,9.413172660216688,-2.7435306461334226
1757088900451097600,2.84509765625,0.0479210689663887,0.1166506856679916,-0.1640746146440506,0.3159913645207882,0.6774591165810823,0.3112719347834587,0.200856827533897,9.413502330562473,-2.741536257445812
1757088900461052400,2.855052490234375,0.0537406131625175,0.1644352525472641,-0.1434356421232223,0.375522580897808,0.7101116783827542,0.1960562405854463,0.211206499976851,9.414667867210508,-2.736753114822507
1757088900471006700,2.8650068359375,0.0284772720187902,0.2201364338397979,-0.1385652422904968,0.2413771270359866,-0.1134217965185642,0.2900874001964926,0.2189085074552334,9.415343574514983,-2.73381881493628
1757088900480961500,2.87496142578125,0.0353815183043479,0.1750014573335647,-0.1323078870773315,0.1147358199928887,-0.0506663573980331,0.5150821504965424,0.2261385683066211,9.415886595350504,-2.731364992043376
1757088900490916600,2.88491650390625,0.0300369411706924,0.1081247702240943,-0.1433532685041427,0.0654898325204849,0.1046937156617641,0.4186965367138385,0.2352822442269884,9.416447736364605,-2.7286522259533403
1757088900500870400,2.894870361328125,0.0451245494186878,0.0510183423757553,-0.1562853157520294,-0.0289595707689411,-0.0768383250087499,0.3348255365893244,0.2474307279865257,9.41706732956767,-2.72543589425534
1757088900510825700,2.90482568359375,0.0302887149155139,-0.0086386715993285,-0.1606002897024154,-0.2270481756985187,-0.0675923577576875,0.1449924083024263,0.2619133172494359,9.417698613208533,-2.72190158264935
1757088900520780500,2.914780517578125,0.0529426299035549,-0.0285423379391431,-0.1636823564767837,-0.2920505352293141,-0.200331433686614,-0.0353527606710791,0.2779845091443508,9.418456153577566,-2.717679581040144
1757088900530734600,2.924734619140625,0.0603232532739639,0.0015726325800642,-0.1584088802337646,-0.3408534185767173,-0.2088245367437601,-0.2717138313770294,0.2938670648656785,9.419767236176131,-2.7114608526557684
1757088900540689400,2.934689453125,0.0584332086145877,0.0510765351355075,-0.1486950069665908,-0.3657049877712502,-0.3013724720597266,-0.58325260040313,0.3079450919156894,9.421035648676751,-2.7054823627680538
1757088900550644700,2.944644775390625,0.0602731741964817,0.0671401619911193,-0.1298400610685348,-0.2182043229749426,-0.4112111493945121,-0.6443152641311287,0.3196585087262094,9.422238594725728,-2.699935834556818
1757088900560598500,2.9545986328125,0.0506714135408401,0.0406134761869907,-0.1064119711518287,-0.0042365781238302,-0.4082873709022999,-0.5906555701360107,0.3293992737568915,9.42350525366068,-2.694338745202124
1757088900570553600,2.9645537109375,0.0507971085608005,0.0058095445856451,-0.0694201067090034,0.1999135005354881,-0.3648831134617328,-0.5303811341762542,0.3371364438802003,9.424691833096745,-2.6892215483188626
1757088900580508400,2.97450830078125,0.0447623878717422,-0.0222612377256155,-0.0269637294113636,0.3798070898165926,-0.3503963229477405,-0.5511226011708379,0.3417451067194342,9.425915821933746,-2.684341375061869
1757088900590462500,2.98446240234375,0.0381864719092845,-0.0613472275435924,0.0163381490856409,0.56141928305123,-0.3752776662260293,-0.5425418198302387,0.3429907959315925,9.42700712430179,-2.680353182208538
1757088900600417500,2.99441748046875,0.039405670017004,-0.1023931950330734,0.0496252663433551,0.6749731449842452,-0.3550052780479192,-0.4739060904994606,0.341664990687929,9.428131744417549,-2.676564019058645
1757088900610371600,3.00437158203125,0.0348369479179382,-0.1322910040616989,0.0765143111348152,0.6925111397624015,-0.2980769376456737,-0.4726835629671811,0.3383419106798246,9.42926337879598,-2.6729984355315564
1757088900620326400,3.014326416015625,0.0329125449061393,-0.1585548222064972,0.0875182300806045,0.5763152023553848,-0.2521685884296893,-0.4847025020629167,0.3340801250495016,9.430191599556805,-2.6702567356079814
1757088900630281500,3.024281494140625,0.0018509544897824,-0.1617769449949264,0.095260240137577,0.5317874938428402,-0.1732429357528686,-0.3647881286546587,0.3293766965989023,9.430722929954529,-2.668964649970829
1757088900640235500,3.034235595703125,-0.0089215319603681,-0.1772821247577667,0.100646749138832,0.4608288379898294,-0.0098111999183893,-0.1897816903606057,0.3246183596232905,9.430694288381934,-2.669642987623811
1757088900650190600,3.044190673828125,-0.0144507549703121,-0.1933334320783615,0.082005999982357,0.3421358230700716,0.2088987710237503,-0.1341881056934595,0.3210577079996466,9.430455218929051,-2.670918122126162
1757088900660145400,3.0541455078125,-0.0319352075457572,-0.1234193369746208,0.0492134355008602,0.1335410034289583,0.2940525044351816,-0.1209729425504803,0.3198613743545487,9.429846731641888,-2.673209740194678
1757088900670099500,3.064099365234375,-0.0355767458677291,-0.0748190954327583,-0.0042129205539822,-0.1513981836915016,0.3120692226409912,-0.0642278497606515,0.3209374426208436,9.428740231704712,-2.6769834135144945
1757088900680054500,3.074054443359375,-0.0249613840132951,-0.0363579876720905,-0.0740961357951164,-0.2297287565520033,0.2876204255610704,0.071480012845993,0.3269934912567958,9.427602167585492,-2.680262289054692
1757088900690009600,3.084009521484375,-0.0425135008990764,-0.079222448170185,-0.1634527295827865,-0.2998796396860853,0.3047217824876308,0.006346446417272,0.3401318263038992,9.426211005488035,-2.683512523022294
1757088900699963600,3.093963623046875,-0.0382029078900814,-0.2140921205282211,-0.2669871151447296,-0.2107809680411592,0.3446721000820398,0.2007686560600995,0.3655064329918474,9.42396936404109,-2.688044613493979
1757088900709918500,3.10391845703125,-0.0468393675982952,-0.3004302084445953,-0.3260761499404907,-0.1514145503044128,0.3437807042002678,0.2606920866250992,0.401459278447926,9.421718954765796,-2.6908067716836928
1757088900719873500,3.11387353515625,-0.0630281940102577,-0.3864367306232452,-0.3503867983818054,-0.2175064038386568,0.4256739745110273,0.203887957124412,0.4430104919003322,9.418685870680212,-2.694905439174175
1757088900729827600,3.12382763671875,-0.0452974215149879,-0.4936326444149017,-0.343953937292099,-0.2078887171983718,0.4376443982899188,0.248118436256051,0.4878601623762398,9.415542896479367,-2.6981349226146936
1757088900739782700,3.13378271484375,-0.0005986599717289,-0.578980565071106,-0.3025897145271301,-0.1166412700217217,0.2414297522723674,0.0098708211511373,0.5326338084738701,9.41333866443336,-2.6973624769374727
1757088900749737500,3.143737548828125,0.0345238298177719,-0.6030117869377136,-0.2378073036670684,0.0589478269984945,-0.2055126357167959,-0.3684185941115021,0.573869160910137,9.412415119847656,-2.6921190233260397
1757088900759691500,3.15369140625,0.0164066106081008,-0.531476616859436,-0.176996424794197,0.1268704761564731,-0.3313204510778189,-0.7025394895628094,0.6087482396548614,9.411928797635436,-2.686153392919898
1757088900769646600,3.163646484375,0.016519796103239,-0.4771012663841247,-0.0917843282222747,-0.0377075071036815,-0.2378343581289052,-0.2302279747784137,0.6347611807789653,9.411517294225096,-2.6815701567828656
1757088900779601700,3.1736015625,0.0105130355805158,-0.4205306768417358,-0.0172669496387243,-0.1273882894854992,-0.1955482910633087,0.1086012444943189,0.6517182338640093,9.411579838067292,-2.677280642895401
1757088900789555500,3.183555419921875,0.0114911273121833,-0.3469030559062958,0.0288429986685514,-0.2164041051525622,-0.0970820716142654,0.3481961825549602,0.6614267040602863,9.411872099012136,-2.6738635279282925
1757088900799510500,3.193510498046875,0.026800574734807,-0.1977436691522598,0.0674630925059318,-0.3507376837313175,0.0721685796320438,0.6409568936139345,0.6642280252166092,9.41275998776257,-2.6700428005963563
1757088900809465600,3.203465576171875,0.0313412919640541,-0.0431725308299064,0.099219873547554,-0.5109668241322041,0.1536743119299411,0.8596361771568656,0.6592576894581318,9.414154072469472,-2.6663606049522754
1757088900819419600,3.213419677734375,0.023693760856986,-0.0354384444653987,0.099433995783329,-0.4905986474294215,0.1998918732255697,0.9676736502885818,0.6505616842400282,9.41552068464756,-2.6636659590408205
1757088900829374500,3.22337451171875,0.0253562163561582,-0.0757455974817276,0.0698887333273887,-0.3775509449202567,0.1078986491829156,0.9839525849163532,0.643905368155986,9.416833520811796,-2.660641642783582
1757088900839329500,3.23332958984375,0.0258084218949079,-0.0701857134699821,0.0293418392539024,-0.4801051643352955,0.0240039759218692,0.7861889558911324,0.6411150798503309,9.41798035275936,-2.657257845564186
1757088900849283600,3.24328369140625,0.02858692035079,-0.019051469862461,0.0023283951450139,-0.6084872871637343,0.0455991371363401,0.5832952705010771,0.6409582087881863,9.418829078543183,-2.654279998797178
1757088900859238700,3.25323876953125,0.0229948163032531,0.0045212339609861,-0.0389537960290908,-0.6707517278969287,0.2337339370727539,0.4133955076962709,0.642918695206195,9.419387881469726,-2.651824422338605
1757088900869192700,3.263192626953125,0.0093676093965768,0.0524291396141052,-0.0801364630460739,-0.6486966210205107,0.2817524103105068,0.464490904161334,0.647948798327893,9.41940190999508,-2.650546365226805
1757088900879147500,3.2731474609375,-0.0006504030898213,0.10255728662014,-0.1104895696043968,-0.607221139685437,0.2882633996397257,0.4343263597831129,0.6549555352848023,9.419028985029458,-2.6501602885186677
1757088900889102300,3.283102294921875,0.0296331048011779,0.144501507282257,-0.1090481504797935,-0.3995873470962047,0.3053478054314851,0.4065586474135518,0.661752063557133,9.418701652771237,-2.6496263277724386
1757088900899056400,3.293056396484375,0.0204894077032804,0.167421743273735,-0.0830700770020484,-0.1761971093833446,0.2738800695002079,0.5780515246286988,0.666409607039392,9.41904535164237,-2.647240309418738
1757088900909011700,3.30301171875,0.0175497028976678,0.2059956043958664,-0.0544618479907512,-0.1687058037798851,0.2644458862006664,0.6992527229771017,0.6674484485678375,9.419352810156346,-2.6458883102878925
1757088900918966500,3.312966552734375,0.0228512585163116,0.2435376495122909,-0.0502860099077224,-0.1919488783318549,0.4654711473703384,0.8925345304131508,0.6654021104972809,9.419887647685409,-2.6444913029715416
1757088900928920600,3.322920654296875,0.0501755028963089,0.3003581464290619,-0.075289785861969,-0.2216823378164321,0.3868891935646534,0.8605942085340619,0.6620655134204775,9.421106960347297,-2.640982125806808
1757088900938875400,3.33287548828125,0.051401887089014,0.3274776339530945,-0.1004827544093132,-0.2817804673612117,0.2960433859914541,0.476964016765356,0.6588675941620021,9.422619702997803,-2.636384276622534
1757088900948830700,3.342830810546875,0.0799676701426506,0.3564948141574859,-0.0991765335202217,-0.2843617160260677,0.2710001301497221,0.3627320729076862,0.6562108691081404,9.424618767860531,-2.629891407471895
1757088900958784500,3.352784423828125,0.0927441865205764,0.2954703271389007,-0.0790334492921829,-0.1836520284991711,0.157329911828041,0.1348290339455008,0.6541132392417639,9.426810140424966,-2.6225541964516044
1757088900968739600,3.362739501953125,0.0929781571030616,0.2255695909261703,-0.0256590116769075,-0.0104033205926418,-0.0430173039495944,-0.2545256729498505,0.6516000143118202,9.429185637384652,-2.6146257415398955
1757088900978694400,3.3726943359375,0.0792950987815857,0.2512352466583252,0.0308143850415945,0.0058768561441451,-0.1797106704622507,-0.5168351316437125,0.6451970154017209,9.431655242368578,-2.607298759652674
1757088900988648400,3.3826484375,0.0750942677259445,0.2836299538612366,0.0758423432707786,0.0111199444293975,-0.1431955880135297,-0.5071244694903493,0.6327705914836377,9.434194405457378,-2.601147835807502
1757088900998603500,3.392603515625,0.071780227124691,0.2727107107639313,0.0843253135681152,0.0812753576081246,-0.0997644425660371,-0.4611839715704321,0.6175318866237998,9.436851057446002,-2.595163792961836
1757088901008558600,3.40255859375,0.0664523318409919,0.2277372926473617,0.0657246857881546,0.199812962770462,-0.0184083478718996,-0.5512541185960174,0.6038911915451288,9.439292020857334,-2.589489546717703
1757088901018512400,3.412512451171875,0.063329242169857,0.2124350368976593,0.0405106768012046,0.1717886452913284,-0.1241711540699005,-0.5178448932081461,0.5931586024655029,9.441356552171706,-2.584441907939315
1757088901028467500,3.422467529296875,0.0681127905845642,0.2044600248336792,0.0240257568657398,0.055791408794187,-0.1095394021272659,-0.4921659698113799,0.5846569142431021,9.443333989724517,-2.5791455550968645
1757088901038422500,3.432422607421875,0.0630037859082222,0.1767690032720565,0.0167143139988183,-0.0578641599476337,-0.0637841976463794,-0.5521043056845665,0.5778545772844925,9.445164127761124,-2.573974582199752
1757088901048376600,3.44237646484375,0.0516566224396228,0.1704518347978592,0.011447437107563,-0.0616858005950227,-0.293467982545495,-0.7289581254109739,0.5720997766174376,9.446649982404708,-2.5698025572121144
1757088901058331400,3.452331298828125,0.0388553366065025,0.1450085192918777,-0.0008920538239181,-0.0930851109325885,-0.388365111336112,-0.758096833872795,0.5675863908462226,9.447725502681733,-2.566850721669197
1757088901068286500,3.462286376953125,0.0225900933146476,0.045467834919691,-0.0166697259992361,-0.1799286971271038,-0.3010527385860681,-0.7579483653128146,0.5658438580278307,9.44839945642054,-2.564754626172781
1757088901078240500,3.472240478515625,0.0089035769924521,-0.030133182182908,-0.0376961790025234,-0.2034498579680919,-0.1328372756063938,-0.7452206934258341,0.5684164119295776,9.448526297670602,-2.563715638513863
1757088901088195600,3.482195556640625,-0.0044203400611877,-0.065371960401535,-0.0470982939004898,-0.193844994276762,-0.1047042370557785,-0.6526452855810523,0.5740740358324721,9.448076215815544,-2.5641142824426293
1757088901098149600,3.492149658203125,-0.0107498746365308,-0.0762887895107269,-0.0543649941682815,-0.1893441757261753,-0.0674859747737646,-0.6016895898476242,0.5810959338258952,9.447220475769042,-2.5656895689353347
1757088901108104400,3.5021044921875,-0.0119413686916232,-0.0777302086353302,-0.0711509212851524,-0.0615560002028942,-0.0684141955345869,-0.3486450953662395,0.589177606537938,9.44590354795158,-2.568689627534151
1757088901118059500,3.5120595703125,-0.0106798289343714,-0.0860970616340637,-0.0789891332387924,-0.0018155980546027,-0.0318447525501251,-0.166662388318777,0.5978223930254578,9.444498357328772,-2.571855105827749
1757088901128013300,3.522013427734375,-0.0105622382834553,-0.13591930270195,-0.070407710969448,-0.0615068272989243,-0.0105365915834903,-0.1108694816872477,0.6073845500862226,9.442794476020335,-2.5758739860802886
1757088901137968400,3.531968505859375,-0.0096900528296828,-0.1590978652238845,-0.0554346218705177,-0.1261806672614067,-0.0062070379465818,-0.1408709444582462,0.6165427294559777,9.441158399251105,-2.579690621758997
1757088901147923500,3.54192333984375,-0.0137777011841535,-0.1238402873277664,-0.048118881881237,-0.2307154660344123,-0.0198322431951761,-0.052085868807137,0.6242628023140132,9.43981867507994,-2.582733058194816
1757088901157877500,3.55187744140625,-0.019544243812561,-0.0541227273643016,-0.04868134111166,-0.3069978376608341,-0.0195592714726924,0.120997784730792,0.6303645532552152,9.43864904677868,-2.5855294109150764
1757088901167832300,3.561832275390625,-0.0206639133393764,0.0261029042303562,-0.06731528788805,-0.354802448952198,-0.0100233813643455,0.3554056755423546,0.6356724504049867,9.4374916934371,-2.5884476364493367
1757088901177787400,3.571787353515625,-0.0199459251016378,0.079952023923397,-0.0922864153981208,-0.3319838103573769,0.0477443324714899,0.5436272769793867,0.6414345210630447,9.436287578344343,-2.591418176692724
1757088901187741400,3.581741455078125,-0.0165318138897418,0.1044983193278312,-0.1168605908751487,-0.2728559140842407,0.1001280151814222,0.5943830662265419,0.6487460131201893,9.435080540642142,-2.593990657529235
1757088901197696500,3.591696533203125,-0.0157429855316877,0.0815434679389,-0.1215477511286735,-0.280872193409875,0.081614453369379,0.4762245965749025,0.6575104073993862,9.433840769714116,-2.596289874382317
1757088901207651300,3.6016513671875,-0.0114940013736486,0.0594682618975639,-0.1221744418144226,-0.2428629999458789,0.0128735100984573,0.3134714906543493,0.6670861911267042,9.432701536551118,-2.597988787254691
1757088901217605400,3.61160546875,-0.0030448562465608,0.073049858212471,-0.1126203462481498,-0.2329833379011601,0.0256926596611738,0.1288441143169999,0.6763598501022905,9.431704342207311,-2.5992116070479154
1757088901227560400,3.621560546875,0.0007256084354594,0.0842418074607849,-0.0976595357060432,-0.2355716738939285,0.0860217484176158,0.0047337505236268,0.6838858616929501,9.430929850703476,-2.600048350133002
1757088901237515500,3.631515625,0.0117079522460699,0.0880474597215652,-0.0848124474287033,-0.1936953566730022,0.1487748494505882,-0.0644727644324302,0.689594886989519,9.430575630438328,-2.5998247705101964
1757088901247469300,3.64146923828125,0.0183121357113122,0.0660414546728134,-0.0714292004704475,-0.1474783798992633,0.2128881329208612,-0.1198372165188193,0.694104838694632,9.430656878980994,-2.598329855777323
1757088901257424400,3.65142431640625,0.0261183939874172,0.0364817008376121,-0.0609669685363769,-0.1471685832977294,0.2266980470865964,-0.2022021959945559,0.6979841643460094,9.431212759298086,-2.595272806294262
1757088901267379500,3.66137939453125,0.0328047834336757,0.0115004442632198,-0.0539697296917438,-0.1793370879095047,0.1713970156252384,-0.3455950601458549,0.7018721116952598,9.432045702990887,-2.59119284350425
1757088901277333500,3.67133349609375,0.0346330441534519,-0.0241270568221807,-0.049762200564146,-0.2011795749485492,0.0823036046773195,-0.5137132002308964,0.706206414572522,9.432852343198656,-2.587077224878967
1757088901287288300,3.681288330078125,0.0341805107891559,-0.0572089217603206,-0.0528633296489715,-0.2531763041675091,0.0054436523586511,-0.641793344438076,0.7116656298264861,9.433546755203604,-2.583046654188633
1757088901297243400,3.691243408203125,0.0306307822465896,-0.0806663185358047,-0.0628943890333175,-0.2854010690111667,-0.049383331850171,-0.6111190969720482,0.7184528057485818,9.434054120203852,-2.5793039605289696
1757088901307197400,3.701197509765625,0.0259328410029411,-0.1265983432531356,-0.071840800344944,-0.3093454237002879,-0.0803156457304954,-0.5416173984616994,0.7271339787237345,9.434310725313424,-2.575932438269257
1757088901317152500,3.711152587890625,0.0159534439444541,-0.158481165766716,-0.0822103470563888,-0.2915630987722426,-0.1445148539185524,-0.4282479166522622,0.7377827985100448,9.434315401488542,-2.572883864353597
1757088901327107300,3.721107421875,0.0073827849701046,-0.1638440638780594,-0.0936079770326614,-0.2340298512794077,-0.235451262384653,-0.3206847830340266,0.7499796514559537,9.433972287139296,-2.570612412290275
1757088901337061400,3.731061279296875,-0.0070845708250999,-0.1607233732938766,-0.1035176068544387,-0.1507950301665812,-0.2768576240062713,-0.2082198488488793,0.7631124700777232,9.43318201354444,-2.569652335086465
1757088901347016400,3.741016357421875,-0.0194869358092546,-0.1641299128532409,-0.1086855605244636,-0.0437830276250839,-0.2851695252776146,-0.0960202876016497,0.776708010840416,9.431917108175158,-2.570222536189854
1757088901356970200,3.75097021484375,-0.0298056174069643,-0.1714783757925033,-0.1103252694010734,0.0503003736298531,-0.2673947991341352,0.016671148815751,0.7905135410919785,9.430153605633974,-2.572481421032548
1757088901366925600,3.760925537109375,-0.0363532043993473,-0.1736794263124466,-0.1008522734045982,0.1111899458132684,-0.2126174992859363,0.1359255970105528,0.8038440742429346,9.428048157787323,-2.5760654169991613
1757088901376880400,3.77088037109375,-0.0367521457374095,-0.1739896833896637,-0.0837427973747253,0.1409562846541404,-0.1137684179991483,0.2630000713065266,0.8159762644547969,9.426015775176882,-2.579689452715218
1757088901386834400,3.78083447265625,-0.0337949879467487,-0.1591376960277557,-0.065975621342659,0.1967442228496074,-0.0202928464442491,0.3504857547968625,0.8263286585777998,9.42426805472672,-2.5827795276850463
1757088901396789200,3.790789306640625,-0.0275615938007831,-0.1323185861110687,-0.053040649741888,0.2356242808640003,0.081681673386693,0.4501736249953508,0.8348828441724181,9.42285000462234,-2.5852029554396867
1757088901406744600,3.80074462890625,-0.0195885673165321,-0.1022912710905075,-0.0424672290682792,0.2850117774326354,0.1240869829177856,0.5544213504552841,0.8419085780907422,9.421745842772722,-2.5869492145851254
1757088901416698400,3.810698486328125,-0.006466107442975,-0.0679157227277755,-0.0367978885769844,0.3603985884588211,0.1553454600125551,0.6277969677895308,0.8476254213675856,9.421011683279277,-2.587750009573996
1757088901426653400,3.8206533203125,0.0015380079858005,-0.0286662466824054,-0.0282649602741003,0.373080302312225,0.1629033280462026,0.6545601792916655,0.8518529028695077,9.420635251182317,-2.5877280900031328
1757088901436608300,3.830608154296875,0.0042581604793667,0.0026304242201149,-0.0226076077669858,0.3642973494630306,0.1705441981881856,0.5853823059082031,0.8546505707640201,9.420478014793993,-2.5873835143491624
1757088901446562300,3.840562255859375,0.0059535931795835,0.0276041496545076,-0.019534220919013,0.3551776389401406,0.1622030708223581,0.4727534133329987,0.8562883280336856,9.420438851827384,-2.5869828245937825
1757088901456517400,3.850517333984375,0.0082977078855037,0.0417133122682571,-0.021896444261074,0.3228477332215756,0.1438566822707652,0.3461784129917621,0.8574939044311642,9.420530037242171,-2.5862530490145086
1757088901466472400,3.860472412109375,0.0096598751842975,0.0440324060618877,-0.0220046043395996,0.2581787155646831,0.092815646341443,0.2090039849638938,0.8587159935720264,9.420695456936954,-2.5852494249299167
1757088901476426200,3.87042626953125,0.0121182398870587,0.0492351576685905,-0.0241492502391338,0.180997276206687,0.0251227508187294,0.090654084393382,0.8601809515580534,9.421051430767774,-2.583466925427317
1757088901486381300,3.88038134765625,0.0160902347415685,0.059887733310461,-0.0268524810671806,0.0905342574059963,-0.0222527483403682,-0.0265136206552386,0.8619090905249118,9.421588606384397,-2.5809216248586773
1757088901496336400,3.89033642578125,0.0179099719971418,0.0601585768163204,-0.0307857021689414,0.0316823285300284,-0.0620621961593627,-0.1256535015821457,0.8640484406411647,9.42219534010589,-2.5779990154102443
1757088901506290400,3.90029052734375,0.0179857052862644,0.0450451895594596,-0.0351760238409042,0.0510769109603017,-0.0674339523255825,-0.1798895341604948,0.8668007350239902,9.422779277473689,-2.57493933557868
1757088901516245200,3.910245361328125,0.0209889523684978,0.0153477462008595,-0.033303290605545,0.0816506937265396,-0.0457990436226129,-0.2020575268268585,0.8701943960502743,9.423288396039604,-2.5719243716716766
1757088901526200300,3.920200439453125,0.0189652126282453,-0.0161314886063337,-0.0291404742747545,0.1112170530159026,-0.0483452209740877,-0.2058519506737589,0.8738472194693983,9.423740815982224,-2.56902806570828
1757088901536154600,3.930154541015625,0.0148748634383082,-0.0391446612775325,-0.0240349303930997,0.0971861165106296,-0.0323848507761955,-0.230695592290163,0.8775532343804836,9.424089775550366,-2.5664801347911355
1757088901546109400,3.940109375,0.0099575603380799,-0.051384437829256,-0.0269470065832138,0.0937058001141995,-0.0255196411818265,-0.2224830597400665,0.8814829750448465,9.424256948810816,-2.564517018024623
1757088901556064300,3.950064208984375,0.0041646524332463,-0.041407436132431,-0.0358387678861618,0.1134638090293854,-0.0636105946451425,-0.190961547794938,0.8858166203349829,9.42419031331539,-2.563267894746363
1757088901566018300,3.960018310546875,-0.0024142148904502,-0.0232118256390094,-0.040389310568571,0.1352653064709156,-0.0264653975993394,-0.1143891802459955,0.8903512680899351,9.4238553822726,-2.562926533962786
1757088901575973600,3.9699736328125,-0.0077682337723672,-0.0176127962768077,-0.0410372577607631,0.156069755699113,-0.0027069208711385,-0.0490828875988721,0.8948350624404847,9.423293072214722,-2.5634403287038205
1757088901585927400,3.979927490234375,-0.0099860029295086,-0.0210825577378273,-0.0337949320673942,0.1886111852765083,0.0025309797823429,0.0298939107432961,0.8989545535232871,9.422543130630254,-2.5647549184337257
1757088901595882500,3.989882568359375,-0.0128489015623927,-0.025581968948245,-0.0205009654164314,0.179988391425088,0.0325397490769624,0.1370920104414224,0.902340104308352,9.421714863112568,-2.566608145084977
1757088901605837300,3.99983740234375,-0.0127612156793475,-0.0213760882616043,-0.0120519697666168,0.18272146965079,0.0696738402068614,0.2164075392186641,0.9048441230185328,9.420940956130623,-2.568560740457475
1757088901615791400,4.009791259765625,-0.0085174683481454,-0.0109085328876972,-0.0124842002987861,0.203281442598626,0.1161591125279665,0.2574997203245759,0.9067308135479688,9.420244206038117,-2.570447869378328
1757088901625746400,4.019746337890625,-0.002688513835892,-0.0035466307308524,-0.0145063316449522,0.2210053884029388,0.104134328213334,0.2808838107824325,0.9084591717105358,9.419700600680708,-2.571835524344444
1757088901635701500,4.029701416015625,0.0033840257674455,-0.0033543503377586,-0.0140011301264166,0.201338564902544,0.0882148745477199,0.2970686373859644,0.91031890116781,9.419309555536508,-2.57260767776072
1757088901645655300,4.0396552734375,0.0107964212074875,-0.0064934701658785,-0.0144814420491456,0.1622819082122296,0.0919312647223472,0.2685027603760361,0.9124153619904072,9.419183883330223,-2.572323015600442
1757088901655610400,4.0496103515625,0.0208429284393787,-0.0104631781578063,-0.013999143615365,0.1507925459485501,0.081153850120306,0.204309397406876,0.9146272658862172,9.419337028065325,-2.5709774462103843
1757088901665565400,4.0595654296875,0.0266830287873744,-0.0065476624295115,-0.0140604311600327,0.1330839438438415,0.0600543634682893,0.145526369048655,0.9170730516031383,9.419787694442272,-2.56845844912678
1757088901675519500,4.06951953125,0.0306700468063354,-0.0033859570976346,-0.012505411170423,0.110231549109891,0.000384030881524,0.0954325508415698,0.919275018626824,9.42050198019147,-2.5650515632927418
1757088901685474300,4.079474365234375,0.0312133952975273,-0.0042700534686446,-0.0123135261237621,0.0980698405425995,-0.033269816917181,0.0175549459129571,0.9212619546603412,9.421382854679226,-2.561094642360508
1757088901695429400,4.089429443359375,0.028210412710905,-0.0086544146761298,-0.0101534351706504,0.102469025349617,-0.0313321268528699,-0.0520534278422594,0.9232971137497572,9.42228827908635,-2.5570278313130137
1757088901705383400,4.099383544921875,0.0250384733080863,-0.0168622210621833,-0.0130065828561782,0.069368719780445,-0.0168798231303691,-0.1056008936345577,0.9257208337653428,9.423099595469235,-2.553160049968958
1757088901715338500,4.10933837890625,0.0201619584113359,-0.0231925547122955,-0.0153927747160196,0.031039281386137,0.017883447214961,-0.1509258900046348,0.9284374723128974,9.42380043721497,-2.5495839450478552
1757088901725293300,4.119293212890625,0.0158362351357936,-0.0242863241583108,-0.0166231729090213,-0.0018237082958221,0.0277881706357002,-0.1914607294887304,0.9312227921824902,9.424370346057415,-2.546458506503701
1757088901735247400,4.129247314453125,0.0092132184654474,-0.0188896935433149,-0.0186727400869131,-0.0098398414909839,0.0147211837917566,-0.2203995314642786,0.934001170854643,9.424717552059889,-2.544155197997391
1757088901745202200,4.1392021484375,0.0066095190122723,-0.0233338885009288,-0.0221518017351627,0.0087516078628599,0.0237269125461578,-0.2229898402184247,0.9369576095074414,9.4248414707005,-2.542612644730508
1757088901755157500,4.149157470703125,0.0035181215498596,-0.0390388146042823,-0.0244037695229053,0.0627871494330465,0.0364800111353397,-0.1790866933450102,0.9403834923028944,9.4248075684309,-2.541474872872233
1757088901765111600,4.159111572265625,0.0058500971645116,-0.0595354959368705,-0.026985578238964,0.0919501155532896,0.0537093783557415,-0.1377609957441687,0.9444403664782642,9.424636888039112,-2.540602766212821
1757088901775066400,4.16906640625,0.0116523262113332,-0.0747818201780319,-0.0224795080721378,0.0670892305411398,0.0456283632308244,-0.0806257345929741,0.9488005344491452,9.424487834957242,-2.5395289995014667
1757088901785020400,4.1790205078125,0.0177405159920454,-0.0864814221858978,-0.0151825807988643,0.0442225880861282,0.0518809938848018,-0.0298702376067638,0.9528126926999538,9.424518230095504,-2.5379110429108143
1757088901794975500,4.1889755859375,0.02459735609591,-0.0882143452763557,-0.0080682132393121,0.0233330909229814,0.0229272866010665,0.0406026440232992,0.9561948094189168,9.424743271023036,-2.535809686717391
1757088901804930600,4.1989306640625,0.0290946364402771,-0.0829013362526893,-0.004898517858237,-0.007195537527278,0.002788169413805,0.0879722979635,0.9588903321132064,9.425128470948335,-2.5333497263446447
1757088901814884400,4.20888427734375,0.0336206816136837,-0.07423647493124,-0.0047499141655862,0.0098643183451145,0.0313297887653112,0.1138844455942511,0.9611344577781856,9.425617131248115,-2.530681091657281
1757088901824839400,4.21883935546875,0.0354477502405643,-0.0627664774656295,-0.0074597434140741,0.0372749609053134,0.0647474897205829,0.150794957101345,0.9633511839795856,9.42616716634631,-2.527788292825222
1757088901834794500,4.22879443359375,0.0401285216212272,-0.0637736842036247,-0.0122686140239238,0.0811504891194403,0.1214303309291601,0.1715232723534107,0.9660141926437616,9.426796696421505,-2.52442524613291
1757088901844748500,4.23874853515625,0.0409219563007354,-0.0699739530682563,-0.0150560988113284,0.1049943060435354,0.0957376712679863,0.2074582168266177,0.9692538321521132,9.427499876254796,-2.5205565880060194
1757088901854703400,4.248703369140625,0.0297340173274278,-0.0652588233351707,-0.0172207169234752,0.1322189975775778,0.0644306788563728,0.214539114998281,0.9727051416497676,9.428131159895658,-2.5168635787069795
1757088901864658400,4.258658447265625,0.0241634175181388,-0.0979458689689636,-0.015838373452425,0.1382253983855247,0.0161047471046447,0.2549471132323145,0.9764248928252608,9.428422836318612,-2.514325292401016
1757088901874612200,4.2686123046875,0.0200613513588905,-0.0588224381208419,-0.0220392774790525,0.1432606160737574,-0.0193652102053165,0.2439823593646287,0.9802185129545627,9.428878178870676,-2.511141693928838
1757088901884567600,4.278567626953125,0.0129279801622033,-0.033426396548748,-0.0353372506797313,0.0506127275146543,-0.0471036964803934,0.0754012779429555,0.9838319542113692,9.429083346053956,-2.5089579201489687
1757088901894522400,4.2885224609375,0.0173144731670618,-0.0435892865061759,-0.0466682016849517,0.051307139519602,-0.0669318480223417,0.149435359185934,0.9885247882027178,9.429159333899616,-2.5068264610782265
1757088901904476400,4.298476318359375,-0.005780498497188,-0.0479760244488716,-0.0556249767541885,0.0639924335695803,-0.0453740962088108,0.1347869483694434,0.994543756231293,9.428999759423732,-2.5050468841850755
1757088901914431200,4.30843115234375,0.0026923483237624,-0.0328045301139354,-0.053921353071928,0.0520025744378566,-0.0088584292382001,0.2436979894652962,1.0011463693667202,9.428545585915446,-2.5041236318603155
1757088901924386600,4.318386474609375,-0.0036595992278307,0.0059821652248501,-0.0495375283062458,0.0101683427929878,0.0597106645971536,0.2114884952560067,1.006618663297966,9.428211823916437,-2.503188104575872
1757088901934340400,4.32834033203125,-0.0028057896997779,0.0177730433642864,-0.0454879254102706,0.0044109483100473,0.0648375060915947,0.1669289303004741,1.0111792492117733,9.427873970264196,-2.5026225796476007
1757088901944295400,4.33829541015625,-0.0005820037331432,0.0129500478506088,-0.0461340323090553,0.0167932408254593,0.081261986669898,0.2111915581360459,1.0155568797741086,9.427608597326278,-2.5018437042295933
1757088901954249500,4.34824951171875,0.0042114201933145,0.0114624062553048,-0.0475748032331466,-0.0003800122935324,0.0699707773268222,0.1899251904845237,1.02031021178104,9.427377711179853,-2.5007784130856394
1757088901964204300,4.358204345703125,0.011825518682599,0.0167656503617763,-0.0473201163113117,-0.0290204889096319,0.0612163929849863,0.1625473542153835,1.024559685919061,9.427153839296102,-2.4998864326819774
1757088901974159400,4.368159423828125,0.0132825346663594,0.0267365258187055,-0.0458852052688598,-0.0421802686035633,0.0257820915102958,0.1092901035413145,1.028441203527525,9.427125197723509,-2.498403792908788
1757088901984113400,4.378113525390625,0.0140528995543718,0.031076431274414,-0.0488533228635787,-0.0216214646995067,-0.0125081839174032,0.058693596509099,1.032274132753909,9.427107662066817,-2.49688871217072
1757088901994068500,4.388068359375,0.0102813309058547,0.0273136496543884,-0.0481574423611164,0.0368706178881227,-0.0161520933777093,0.0097384269431233,1.0361810770645736,9.427161438080669,-2.4950696800500154
1757088902004023300,4.398023193359375,0.0103070512413978,0.018984006717801,-0.0496697127819061,0.0561423045910894,-0.0106131639510393,-0.0159784903764724,1.0401024152267724,9.42715851547122,-2.4934444169357417
1757088902013977300,4.407977294921875,0.0077189914882183,0.0104504413902759,-0.0526418015360832,0.054602673933655,0.0161152684986591,-0.0497188474148511,1.0443357419475912,9.427066161012648,-2.492025782309472
1757088902023932400,4.417932373046875,0.0058958306908607,0.0096602626144886,-0.0518630594015121,0.0238017313480377,0.0366010071665048,-0.081819620552659,1.048950615331903,9.426929967412352,-2.490600425681472
1757088902033887500,4.427887451171875,0.0058319149538874,0.0076991114765405,-0.0532305911183357,-0.0318051511920988,0.0589350040495395,-0.1122235266447067,1.0535304904680698,9.426741751363872,-2.4893755600616334
1757088902043841300,4.43784130859375,0.0049644843675196,0.0011347036343067,-0.0540929548442363,-0.0782641200281679,0.043150574940443,-0.1236874622061848,1.058240787050873,9.426514372348786,-2.4882366191595797
1757088902053796400,4.44779638671875,0.0040321117267012,-0.0042954818345606,-0.0528242252767086,-0.1439059282399714,-0.0020171850413084,-0.1219438334092497,1.0629803097281605,9.426192300787568,-2.487436408692598
1757088902063751400,4.45775146484375,0.002692877780646,-0.017474977299571,-0.0530534014105796,-0.1504326996602118,-0.0349696065723896,-0.1054606083810329,1.0680105589803308,9.425775536680222,-2.4868609468922016
1757088902073705500,4.46770556640625,-0.0013961398508399,-0.0263486299663782,-0.0520706959068775,-0.1174889728922396,-0.0713508335083723,-0.121864922954142,1.073673626243323,9.425196275487542,-2.4866174935251477
1757088902083660300,4.477660400390625,-0.0009620413184165,-0.0358120389282703,-0.0456104278564453,-0.117570879022032,-0.0991793361544609,-0.1367629246175289,1.079141755456105,9.424593633419274,-2.486533614633977
1757088902093615400,4.487615478515625,-0.00448780041188,-0.0439370758831501,-0.0342674925923347,-0.1081086386717855,-0.0875473505496978,-0.1335693892732262,1.0838947221368551,9.424035415014623,-2.4865850525602697
1757088902103569400,4.4975693359375,-0.0040443795733153,-0.0481194294989109,-0.0251794811338186,-0.0786860717672854,-0.0387310049325227,-0.1335442548319697,1.0876922877889126,9.423552015411854,-2.486759532344341
1757088902113524500,4.5075244140625,-0.0034491629339754,-0.0467689409852027,-0.0219770297408103,-0.0393826007090508,0.0164800101578235,-0.1523527079373598,1.0907364777904005,9.423110116863253,-2.487104984781146
1757088902123479600,4.5174794921875,-0.0040820464491844,-0.046409361064434,-0.0196937397122383,-0.0310379662118852,0.0587689998328685,-0.1533504868030548,1.0933156806286424,9.42271965624094,-2.4874542366102337
1757088902133433600,4.52743359375,-0.0029629857745021,-0.0512629710137844,-0.0173485595732927,-0.0379154507659375,0.0860433757275342,-0.0940907808437943,1.0955544725313782,9.422380049023031,-2.487756726688146
1757088902143388400,4.537388427734375,-0.0009967354126274,-0.0560055449604988,-0.0120818568393588,-0.0430206649504601,0.0600812514752149,-0.0275169524788856,1.0975174431674182,9.422155592617392,-2.4877415291190146
1757088902153342500,4.547342529296875,0.0012062314199283,-0.0559277832508087,-0.0075419666245579,-0.0593218114100396,0.033006782066822,0.0159089322715997,1.099153227675706,9.421995433619616,-2.487623163436353
1757088902163297500,4.557297607421875,0.0028059498872607,-0.0564560070633888,-0.0109537485986948,-0.01715323324427,-0.0016892682611942,0.0399015100166201,1.100828540476784,9.4218265067935,-2.4875240869760518
1757088902173252600,4.567252685546875,0.0046278182417154,-0.0581553727388381,-0.0122208818793296,0.0050679509140551,-0.0410533104002475,0.0744011609897017,1.1028495979756117,9.421686221539971,-2.487158176273107
1757088902183206700,4.57720654296875,0.0054500130936503,-0.0588779225945472,-0.0106386300176382,-0.0120620475850999,-0.0611257920920848,0.1069964396461844,1.1050148862507194,9.421557626724242,-2.486683252237737
1757088902193161500,4.587161376953125,0.0034427884966135,-0.0612065903842449,-0.006081961095333,-0.0182836985789239,-0.049948564517498,0.1325260177001357,1.1070471957959234,9.421453581827878,-2.486176179498434
1757088902203116500,4.597116455078125,0.0026546963490545,-0.0574382916092872,-0.0012604454532265,0.0108440500974655,-0.027734394621849,0.1213210253357887,1.1085953020207584,9.421384608244896,-2.485744802343845
1757088902213070600,4.607070556640625,0.0024576224386692,-0.051513023674488,0.0027201815973967,0.006689195440337,-0.0063584291160106,0.1067176227048039,1.109607474737987,9.421406235554814,-2.4852070422053334
1757088902223025700,4.617025634765625,0.0028026339132338,-0.0438341572880744,0.0083493422716856,-0.0279107741020619,0.0180453597784042,0.0747767163038253,1.1099404330193996,9.42154476724267,-2.484540979512036
1757088902232980500,4.62698046875,-0.0019724138546735,-0.033759418874979,0.0158511996269226,-0.0519942450009286,0.0307224705219268,0.0486623240992426,1.1094837022278456,9.421736490422486,-2.484014325289428
1757088902242934500,4.6369345703125,-0.004133285023272,-0.0222600121051073,0.0223837904632091,-0.0807329943597316,0.0606195961356163,0.0338458632394671,1.1082939809866248,9.421915354120731,-2.4838626418590546
1757088902252889600,4.6468896484375,-0.005924527067691,-0.0165195688605308,0.0253729224205017,-0.1201638181246817,0.051591655549407,0.0530123360022902,1.1065749021090567,9.422113507041336,-2.483874916818738
1757088902262844700,4.6568447265625,-0.008397246710956,-0.0172249432653188,0.0312429033219814,-0.1583374814353883,0.0503150597423315,0.0727355658650398,1.1043460470784454,9.42234439318776,-2.483996205110848
1757088902272798500,4.666798583984375,-0.0092390719801187,-0.0177429281175136,0.0391892455518245,-0.1808545798003673,0.0376005395978689,0.0745630735531449,1.101425702652335,9.422638407698273,-2.4841774068966505
1757088902282753500,4.67675341796875,-0.0108211366459727,-0.0131733948364853,0.0421904362738132,-0.1980802937589585,0.006477087059617,0.0413607689142227,1.0981501150477675,9.422937682905792,-2.4844942177608607
1757088902292708600,4.68670849609375,-0.0128163769841194,-0.0077519989572465,0.0444943383336067,-0.1874034169219434,-0.0150315649151802,-0.012782616944611,1.0945067901093513,9.423197795146702,-2.4851179026171564
1757088902302662700,4.69666259765625,-0.0119105242192745,-0.001554483314976,0.0459067411720752,-0.1516692557178437,-0.047924949735403,-0.0417658425837755,1.0903459441028536,9.423470182347296,-2.48591285238713
1757088902312617500,4.706617431640625,-0.0151739614084362,0.0008588731288909,0.0475701503455638,-0.1206124386750161,-0.0423468573421239,-0.0720142658531665,1.0857752751864491,9.423727956500649,-2.48693868830353
1757088902322571500,4.716571533203125,-0.0160295981913805,0.0049241702072322,0.0465400740504264,-0.0702981095850467,-0.0308989961326122,-0.10180120909065,1.081100634438917,9.42395065934062,-2.4881264367833733
1757088902332526300,4.7265263671875,-0.0194421727210283,-0.0001922948285937,0.0453680157661438,-0.0140950147174298,-0.014742811101675,-0.1214367606699466,1.076372071547061,9.424105557641386,-2.4895900795951484
1757088902342481700,4.736481689453125,-0.0211865752935409,-0.0117555819451808,0.0458230935037136,0.0383973890639841,0.0264338334172964,-0.0898383840963244,1.0717642854906615,9.424229476282,-2.491111297813058
1757088902352435700,4.746435791015625,-0.0230949968099594,-0.026209358125925,0.0457264184951782,0.0533960746228694,0.0472960041821002,-0.0532765398964285,1.0673891391463577,9.424315400999784,-2.4926576504722235
1757088902362390500,4.756390625,-0.0235078260302543,-0.0355322659015655,0.0445676445960998,0.0527705631356686,0.06042611939013,-0.0395215707883238,1.063226247313246,9.424352810400723,-2.4942916814148424
1757088902372345300,4.766345458984375,-0.022406343370676,-0.0405216999351978,0.0405987352132797,-0.0052678574003279,0.0486550175756216,-0.0636167321249842,1.059464191365987,9.424301372474432,-2.4960841177895663
1757088902382299400,4.77629931640625,-0.0192795619368553,-0.0410585738718509,0.0357932932674884,-0.0630501112181693,0.0037386020064353,-0.0989350060045719,1.05634401351884,9.424178038355707,-2.497875677381456
1757088902392254500,4.78625439453125,-0.0200060755014419,-0.0448991172015666,0.0296842660754919,-0.0559214283820241,-0.0255506208419799,-0.1029182304218411,1.0540040262639525,9.42398748421967,-2.4995786819070576
1757088902402209500,4.79620947265625,-0.020291481167078,-0.0482474043965339,0.0268642921000719,-0.0493090975701808,0.0032885201513767,-0.0711623251989483,1.0523295171804723,9.423730879110098,-2.5012577210351825
1757088902412163600,4.80616357421875,-0.0176376421004533,-0.0528554730117321,0.0295311827212572,-0.023899931025505,0.020201661029458,-0.0363961322441697,1.051012004841119,9.42342751224935,-2.502954003559053
1757088902422118400,4.816118408203125,-0.0169919375330209,-0.0577269941568374,0.0311515927314758,-0.0055028351999819,0.0036555998980998,0.0153323014274239,1.049823817969859,9.423213577237725,-2.5042542725026604
1757088902432073500,4.826073486328125,-0.0160997789353132,-0.054697647690773,0.0299409199506044,0.006968523838371,0.0112993926495313,0.0873936212927103,1.0485754253439603,9.423051080152392,-2.505387368185818
1757088902442027500,4.836027587890625,-0.0149260936304926,-0.0448746159672737,0.0306765586137771,0.0080534695308655,0.0470300467222929,0.1344987790778279,1.04719113137871,9.422934760296345,-2.506404144012928
1757088902451982600,4.845982666015625,-0.0159961506724357,-0.0348060056567192,0.0265015214681625,0.0122830699246376,0.0486520949661731,0.1434577460810542,1.0455047857269644,9.422809088090062,-2.5075819556206462
1757088902461936400,4.855936279296875,-0.0170426238328218,-0.0266249850392341,0.0230651423335075,0.0494131424665451,0.054254737278819,0.1517579569146037,1.0436891876723615,9.422593984034656,-2.5091487665459518
1757088902471891700,4.8658916015625,-0.0173502191901206,-0.0255863517522811,0.0219663232564926,0.0488251134455203,0.048559155985713,0.1556274918243289,1.0420336024850607,9.422304061177371,-2.51092337500304
1757088902481846500,4.875846435546875,-0.0175553262233734,-0.0278040841221809,0.0198102202266454,0.0723744774676859,0.0573591330349445,0.1566284855604171,1.0406305307541042,9.422034596586228,-2.512522919154167
1757088902491800600,4.885800537109375,-0.0135206365957856,-0.0301162414252758,0.0217649806290864,0.0760487820662558,0.0536614475607871,0.150397774477303,1.0393503547504543,9.421841704362633,-2.513774380519986
1757088902501755400,4.89575537109375,-0.0118155609816312,-0.0261871982365846,0.0285124406218528,0.0694668463926762,0.0456137501835823,0.1338444068223238,1.0377011262387037,9.42180721757114,-2.51457839037925
1757088902511710700,4.905710693359375,-0.0105473641306161,-0.0208590123802423,0.0312142185866832,0.0538379731714725,0.0481792167574167,0.1085243798658251,1.0355232707429676,9.42193581238687,-2.514996323530376
1757088902521664500,4.91566455078125,-0.0119642075151205,-0.0110616274178028,0.0306528154760599,0.0360007031857967,0.0164367555379867,0.0702557317480444,1.0331599756777283,9.422104739212989,-2.5153341771826145
1757088902531619600,4.92561962890625,-0.0118592791259288,0.0009359128307551,0.0261534061282873,0.0159819975078105,0.008815759140253,0.0339203897804021,1.0307331138569862,9.422243270900845,-2.515809685739874
1757088902541574400,4.935574462890625,-0.012661088258028,0.0108155440539121,0.0249753929674625,-0.0263631793338805,-0.0194078803032636,0.0130988432869315,1.0284865039739757,9.422335040837526,-2.516386024323105
1757088902551528400,4.945528564453125,-0.012274395674467,0.0168795622885227,0.0244081392884254,-0.0322949805356562,-0.0094774379193782,0.0168833302617073,1.0260385262999685,9.422430317905544,-2.517028413879871
1757088902561483500,4.9554833984375,-0.0134926373139023,0.0168143641203641,0.0237317886203527,-0.0314249197028577,0.0050976153999567,0.0184101014375686,1.0236721624948084,9.422521503320336,-2.517657651694119
1757088902571438600,4.9654384765625,-0.0104616936296224,0.0110025471076369,0.0226409584283828,-0.00473696539402,0.0259732301682233,0.0320256620749831,1.021524336811155,9.422594568556546,-2.518254448543489
1757088902581392600,4.975392578125,-0.0088653061538934,0.0056598223745822,0.0214438550174236,0.0187584764838218,0.0210936414331197,0.0438467405110597,1.0195770752009004,9.422685169449448,-2.5187030690938235
1757088902591347500,4.985347412109375,-0.0071771279908716,-0.0001464015222154,0.0189900193363428,0.0430675728321075,0.0476490554034709,0.0331654797598719,1.017862745563686,9.422765833470224,-2.519094991020858
1757088902601302500,4.995302490234375,-0.0096773039549589,-0.0046087941154837,0.0160331111401319,0.0242800163842737,0.0762076258897781,0.0134513099864125,1.0164497369606047,9.422789214345812,-2.519582190015912
1757088902611256600,5.005256591796875,-0.0080892611294984,-0.0075462609529495,0.0122873755171895,-0.0231352302633225,0.0885141497552394,-0.0073807579010725,1.0153818885333836,9.422752389466762,-2.520148299466073
1757088902621211600,5.015211669921875,-0.0062542054802179,-0.0060077039524912,0.0071000857278704,-0.0806979230463504,0.1008341176241636,0.0095882048174738,1.0145867195677012,9.42270153606236,-2.520656541249156
1757088902631165400,5.02516552734375,-0.0039833285845816,-0.0046255234628915,-0.0016428055241703,-0.1107762504458427,0.1128688388109207,0.0121276601672172,1.0144382510077208,9.422637823176384,-2.520951724803448
1757088902641120500,5.03512060546875,-0.0016079402994364,-0.0007948920829221,-0.0077168452553451,-0.1337408003173768,0.1057470241069793,0.0042760698840022,1.0148066459286955,9.422578201943637,-2.5210312197804448
1757088902651075600,5.04507568359375,-0.0017690614331513,0.0010709185153245,-0.0137286651879549,-0.1281410806141793,0.086672321280837,-0.0160249598667025,1.01579171144329,9.422499291488528,-2.5209312665373087
1757088902661029600,5.055029541015625,0.002355424221605,-0.0010927822440862,-0.0195109769701957,-0.0819780990500003,0.0399497330725193,0.0049544075369834,1.017512032429874,9.42238355615437,-2.520661509685218
1757088902670984400,5.064984375,0.0004134472692385,-0.0103411423042416,-0.0210217889398336,-0.0448235496539622,0.0086766429305076,-0.0049491468399763,1.0197124650835991,9.422232749506833,-2.520334761948883
1757088902680939500,5.074939453125,-0.0029313394334167,-0.0187670662999153,-0.0176625214517116,-0.0154185914713889,-0.0177601130962371,-0.0085246672391891,1.0218809682291,9.422033427542448,-2.520200906436145
1757088902690893600,5.0848935546875,-0.0046259090304374,-0.0307600796222686,-0.0144185256212949,0.0003050473611801,-0.0202209502518177,-0.0162219437435269,1.023815151162073,9.421801956874132,-2.520284785327316
1757088902700848600,5.0948486328125,-0.0078553669154644,-0.0384360514581203,-0.0095933051779866,-0.0202558754347264,-0.0107259766757488,-0.0377379022419452,1.0253719521500169,9.421585683774948,-2.5204668638959524
1757088902710803500,5.104803466796875,-0.0100506106391549,-0.0424238666892051,-0.0035633752122521,-0.0868200591884553,0.0002823240727186,-0.0406333314225077,1.0265447222564368,9.421351290497183,-2.52086316973716
1757088902720757500,5.114757568359375,-0.0117601621896028,-0.0390815511345863,0.0021007843315601,-0.1153390283167362,0.0070814826935529,-0.0419914680331945,1.027081240285933,9.42113443287611,-2.52145032197535
1757088902730712300,5.12471240234375,-0.0133418142795562,-0.0317373499274253,0.0017066365107893,-0.125009358459711,0.0140437229216098,-0.0532946600750088,1.0271745445925742,9.420906469339132,-2.5222677758380767
1757088902740667600,5.134667724609375,-0.0125725893303751,-0.029271200299263,0.0034202944952994,-0.1010566743336617,0.0247679460316896,-0.0491322796985507,1.02731307628043,9.420658047536016,-2.523138421192765
1757088902750621400,5.144621337890625,-0.0120479464530944,-0.0325855053961277,0.0052807787433266,-0.0791933637022972,0.0482160416364669,-0.0195031573712825,1.0274472971193491,9.42040261147022,-2.524036831337213
1757088902760576500,5.154576416015625,-0.0134892407804727,-0.0382606945931911,0.0080674570053815,-0.0259832401055842,0.0551946484774351,0.0330994287863373,1.0276568482168018,9.420157112276554,-2.524864514333009
1757088902770531300,5.16453125,-0.0107608325779438,-0.0450517535209655,0.010269358754158,-0.0023639526523649,0.0516693969607353,0.0592719809189438,1.0278303050875663,9.41994083917737,-2.525598673826456
1757088902780485600,5.174485595703125,-0.008838266134262,-0.0504204481840133,0.010553072206676,-0.0029470132373273,0.0444891300678253,0.0645692105442285,1.027964598991722,9.41979120157361,-2.526108084653318
1757088902790440400,5.1844404296875,-0.0130841443315148,-0.0470078736543655,0.0123573634773492,-0.0303833016954362,0.026373043140769,0.0605555909886956,1.0277177115585654,9.419650916320084,-2.5267329385533928
1757088902800394500,5.19439453125,-0.0137594854459166,-0.0415320321917533,0.0076593467965722,-0.0441873706422746,0.0213368025392293,0.0112809802100062,1.0274558457519858,9.419450425311922,-2.52758721729517
1757088902810349600,5.204349609375,-0.0149768171831965,-0.0386744625866413,0.0015519191510975,-0.0275296658299863,0.0050292263388633,-0.0584124414801597,1.0275579178869725,9.419148227494954,-2.5286723821833728
1757088902820304600,5.2143046875,-0.01653384976089,-0.0379486754536628,-0.0031367717310786,0.0253400468312203,0.0096054482132196,-0.0931105376347899,1.0281089028332382,9.418759520438313,-2.5298867264091967
1757088902830258700,5.2242587890625,-0.0178537126630544,-0.0446617044508457,-0.0027197208255529,0.0633095658719539,0.013040098837018,-0.1063622333958745,1.029045014639571,9.418318790933489,-2.5311501704737545
1757088902840213500,5.234213623046875,-0.0173889566212892,-0.0541319213807582,-0.0005448865704238,0.1036674413539469,0.0206318691402673,-0.122760118228197,1.030436030606553,9.417910794654489,-2.5321105399385093
1757088902850168600,5.24416845703125,-0.0146014261990785,-0.0685606598854065,0.0036381403915584,0.1315069037854671,0.0126928928345441,-0.0936450829029083,1.0317753163862973,9.417617949187756,-2.532644500684738
1757088902860122400,5.254122314453125,-0.0127524994313716,-0.0808166041970253,0.0083988821133971,0.1430032803118228,-0.0053565585970878,-0.0550695607930421,1.0329987207014113,9.417412197482586,-2.5329127962321043
1757088902870077700,5.26407763671875,-0.0118984235450625,-0.0987846851348877,0.0106849391013383,0.1299730452816933,0.0043728082567453,-0.0442193732157349,1.0342079503607005,9.417259052747488,-2.532988784077764
1757088902880032500,5.274032470703125,-0.0132421776652336,-0.111441396176815,0.0068782861344516,0.0979448259234428,0.0139782564699649,-0.0825415050864219,1.035859224699065,9.417081358093023,-2.532974171030521
1757088902889986600,5.283986572265625,-0.0126996915787458,-0.117848165333271,0.0034286936279386,0.0793896169267594,-0.0015922376275062,-0.1259217971295118,1.038103642624989,9.41678851262629,-2.5331381294205784
1757088902899941400,5.29394140625,-0.0109349731355905,-0.1146574914455413,-0.0009081079624593,0.0615769699256867,-0.0242921452134847,-0.1458630536571145,1.040952748445794,9.416445398277045,-2.5332483117967843
1757088902909896700,5.303896728515625,-0.0086939232423901,-0.1118609011173248,-0.0034050871618092,0.0502536118786781,-0.0032575404912233,-0.1511541458025574,1.0441962604116648,9.41606078287363,-2.533344173386693
1757088902919850500,5.3138505859375,-0.0090216072276234,-0.1188777461647987,0.0010084682144224,0.0544891305565834,0.0070154317200183,-0.1247460313484072,1.047591675003618,9.415664477032422,-2.5334163618400694
1757088902929805600,5.3238056640625,-0.0092612914741039,-0.1242631897330284,0.0117519265040755,0.0100149788621813,-0.0037608138382434,-0.0745537212029099,1.0504659883309155,9.415366370868682,-2.533329852600396
1757088902939759600,5.333759521484375,-0.0114136170595884,-0.1207767277956008,0.0250807851552963,-0.0175261582098901,-0.0092576576888561,-0.0431762939035892,1.052270407404378,9.415179323863985,-2.533284259893
1757088902949714400,5.34371435546875,-0.0140237808227539,-0.1070233657956123,0.0336700119078159,-0.0717664285719394,-0.0196399354934692,-0.0126695119589567,1.052790558820963,9.415085215839744,-2.5334143160134555
1757088902959669500,5.35366943359375,-0.0152126606553792,-0.0911434516310691,0.0332298204302787,-0.0681213500678539,-0.0181488201528787,0.0191357853636145,1.0524372153386472,9.41494142345488,-2.5340949917539954
1757088902969623600,5.36362353515625,-0.0157498195767402,-0.0836818069219589,0.027992982417345,-0.0600572860777378,-0.0103086280465126,0.0460404511630535,1.0518551046017557,9.414732749140262,-2.5351123521029946
1757088902979578400,5.373578369140625,-0.0163981821388006,-0.084494262933731,0.023687781766057,-0.0599134936928749,0.0033037177205085,0.0780193514868617,1.0517116044778376,9.41443815010786,-2.536265906052291
1757088902989533400,5.383533447265625,-0.0188882388174533,-0.0828524231910705,0.0244614295661449,-0.0744493840456008,-0.0157972885906696,0.065401861976087,1.0517319896787405,9.41408626793027,-2.5375647136911748
1757088902999487700,5.39348779296875,-0.0195428393781185,-0.0800679549574852,0.0227111726999282,-0.0678957976836711,-0.0239683200865983,0.0444219100505113,1.0517627501431852,9.41372737149,-2.5388804724648595
1757088903009442600,5.403442626953125,-0.021761517971754,-0.0806226879358291,0.0207859743386507,-0.0258637784443795,-0.0137339263200759,0.0143187404707074,1.0517799204736948,9.413370813137291,-2.540201784196496
1757088903019397400,5.4133974609375,-0.0268083978444337,-0.1184188425540924,0.0193141140043735,0.0128067284725606,0.0337087928563356,0.0270738848865032,1.0521640974856912,9.412912547975775,-2.5417335238084195
1757088903029351400,5.423351318359375,-0.0074054049327969,-0.1004243940114975,0.0187607090920209,0.0803259479288011,0.0459077646940946,0.108619656933844,1.0528791869524865,9.41283363752067,-2.5417265095457435
1757088903039306800,5.433306640625,-0.0131661659106612,-0.0631118714809417,0.0189963299781084,0.0386824165504425,0.0513794741034507,-0.0588303746312856,1.052923683681339,9.412750050890445,-2.5420208163172004
1757088903049261600,5.443261474609375,-0.0117019601166248,-0.0572212263941764,0.0168761871755123,-0.0103729254543781,0.0078600658506155,0.042917350706458,1.052448905776441,9.4127243319273,-2.542314246305823
1757088903059215600,5.453215576171875,-0.0067424708977341,-0.0570549890398979,0.0103039359673857,0.040343700826168,0.0569224951833486,0.0582537437871098,1.0524595002356916,9.41274362114966,-2.542237966199219
1757088903069170400,5.46317041015625,-0.0059935906901955,-0.0496551319956779,0.0031365705654025,0.0393595120944082,0.0308890592604875,0.0522103719696402,1.052995141482353,9.41274069854021,-2.542030753189325
1757088903079124500,5.47312451171875,-0.0034877737052738,-0.0456800982356071,-0.0009197019971907,0.0154665953315794,0.0252162743210792,0.064178457660973,1.0538435750052333,9.412727839058636,-2.541728555372357
1757088903089079600,5.48307958984375,-0.0021154466085135,-0.0412691049277782,-0.0024270517751574,0.0217898070037364,0.0105997199475765,0.071955521403253,1.0550029011081905,9.412679323741791,-2.541424896250665
1757088903099034600,5.49303466796875,-0.0010479136835783,-0.030980609357357,-0.0039919498376548,0.0156618256427347,0.0230400993257761,0.0836594032004475,1.056192549284175,9.412659449997545,-2.5410081321433187
1757088903108988400,5.502988525390625,0.0007907325634732,-0.0169979464262723,-0.0087459590286016,0.0180547121286392,0.0313993468701839,0.0835568196088075,1.0576902404960244,9.412678739219905,-2.5403069981366397
1757088903118943500,5.512943603515625,0.0040584346279501,-0.0073947208002209,-0.0105462856590747,0.0167595577515661,0.027771804022789,0.0964557564094662,1.058985175677389,9.412566511017085,-2.540187463410198
1757088903128897500,5.5228974609375,0.004930886439979,-0.0021879752166569,-0.0108727887272834,0.004912321960926,0.0162204824388027,0.1018853802427649,1.0600585039973258,9.412594568067789,-2.5396315830931067
1757088903138851600,5.5328515625,0.0064605642110109,-0.0008101697312667,-0.0133918765932321,0.0099579149127006,0.0010614917516708,0.1038911671072244,1.061297544272989,9.412640160775185,-2.53894389308989
1757088903148806700,5.542806640625,0.009226256981492,0.010007856413722,-0.0104317739605903,-0.0148586195010691,0.0254874924778938,0.0862166864678263,1.0624711911622435,9.412754142543672,-2.538028531810641
1757088903158761500,5.552761474609375,0.0100609716027975,0.0172184593975543,-0.0079046636819839,-0.0496412521339952,0.055496846294403,0.0771139270797371,1.0629873970560728,9.412971000164749,-2.5370062030255798
1757088903168715500,5.562715576171875,0.0144666386768221,0.0205756407231092,-0.0097963064908981,-0.0187817112289369,0.0273801743566989,0.0898006824344396,1.0634015308149158,9.413257415890692,-2.5357772457525134
1757088903178670600,5.572670654296875,0.0153373414650559,0.0243183933198452,-0.010100070387125,-0.0324959099352359,0.0457476056963205,0.0568085134148597,1.063797763590887,9.413593515977263,-2.534358318865299
1757088903188625700,5.582625732421875,0.0171767883002758,0.0274875536561012,-0.0122958458960056,-0.0397135862290859,0.041046880659461,0.0455401004254817,1.0642826975636184,9.41395475050509,-2.532816350120306
1757088903198579500,5.592579345703125,0.0164353977888822,0.0267379879951477,-0.0140204485505819,-0.0355060515366494,0.0415624289661645,0.0378846172362566,1.0648632739305497,9.414338781386611,-2.531146663342416
1757088903208534500,5.602534423828125,0.015596236102283,0.0271585006266832,-0.0133264288306236,-0.0409537955485284,0.0233966576784849,0.0147246909230947,1.0655226876873525,9.41469709330499,-2.5295345519706607
1757088903218488600,5.612488525390625,0.0151912812143564,0.0304537042975425,-0.0127846095710992,-0.0569755405448377,-0.0104600192159414,0.0028860768303275,1.066131905626878,9.41503494695723,-2.5280209325373173
1757088903228443600,5.622443603515625,0.014702059328556,0.0423266105353832,-0.0090037193149328,-0.0958253495514392,-0.0175596220880746,-0.0342144042909145,1.066075718460232,9.415399688616397,-2.526683546453714
1757088903238398500,5.6323984375,0.0135667566210031,0.0483321696519851,-0.0102863274514675,-0.0867302620131522,-0.0696662414222955,-0.0634098113760352,1.0656593927443028,9.415731697049736,-2.5256197166144845
1757088903248352500,5.6423525390625,0.0093214120715856,0.0530172027647495,-0.0128197930753231,-0.0709574502766132,-0.0643652124047279,-0.0835033358559012,1.0654488917987792,9.41596784389317,-2.5248297352805733
1757088903258307600,5.6523076171875,0.00930333789438,0.0527584590017795,-0.0122687220573425,-0.0864251415867358,-0.0368704717576503,-0.0790139154821634,1.065204780844599,9.41615489089787,-2.5242311848655343
1757088903268262700,5.6622626953125,0.0108282640576362,0.0478577129542827,-0.0127057451754808,-0.0532417608439922,-0.0048836803883314,-0.0641805034875869,1.0649418921247125,9.41634076885879,-2.5236522159337995
1757088903278216700,5.672216796875,0.0117805674672126,0.0455783382058143,-0.0086553040891885,-0.0445173332490026,-0.0112117143660783,-0.0440185899466276,1.0647468810092655,9.416532492038607,-2.5230142102912065
1757088903288171500,5.682171630859375,0.011110782623291,0.0466412082314491,0.0020591248758137,-0.0719008686065673,0.0073743281602859,-0.009265256473422,1.06369897939153,9.416801956629753,-2.5224533615380524
1757088903298126300,5.692126220703125,0.0103265698999166,0.0495205745100975,0.0084815444424748,-0.0673217971879988,0.0101759415775537,-0.0187216516047716,1.0618133117754012,9.41714214836955,-2.521974930371344
1757088903308080400,5.702080322265625,0.0106568019837141,0.0482763461768627,0.0066311797127127,-0.0482733247816562,0.0319651640594005,-0.0463259901061654,1.0595238856639713,9.41749987576604,-2.521604928015172
1757088903318035700,5.71203564453125,0.0088889189064502,0.0504950620234012,0.0028379696886986,-0.0485411088723689,0.0288765503942966,-0.0375838807240128,1.0575479094158855,9.417744205915929,-2.521518126514554
1757088903327990500,5.721990478515625,0.0110538015142083,0.0551422797143459,0.0009556473232805,-0.0516134289897978,0.0038467385560274,-0.0622656097769737,1.0558306571692229,9.417934175530077,-2.5215266020819542
