time,seconds_elapsed,gyro_x,gyro_y,gyro_z,acc_x,acc_y,acc_z,grav_x,grav_y,grav_z
1757686781498127000,0.0,0.2234962880611419,0.5691936016082764,0.3897135853767395,0.6804729114443063,-0.5960311256945133,0.3724116092704236,-0.5018057221530005,9.689508306175467,1.4254841999031602
1757686781508081200,0.009953857421876933,0.2202986180782318,0.6428048014640808,0.4202065169811249,0.3963724767029285,-0.4335071523547172,0.1968183109991252,-0.5322432747863233,9.684254038909078,1.4499436645075678
1757686781518035200,0.01990795898437625,0.2096869945526123,0.7684223651885986,0.4422630667686462,0.5778717841476202,-0.2973690816372633,0.0292393923573195,-0.563656394453533,9.678749011752007,1.4746186715587972
1757686781527990300,0.029863037109375767,0.1843927949666977,0.8836663961410522,0.4625496864318847,0.866024709150195,-0.183037184536457,-0.3431948671363294,-0.5948814076701179,9.67320423710644,1.4985469518959522
1757686781537944300,0.03981713867187686,0.143896222114563,0.9284045696258544,0.4866116344928741,0.9164859724301844,0.0023468553870916,-0.8781814492814243,-0.6269370630245655,9.667833065462112,1.5199769856765866
1757686781547899100,0.04977197265625222,0.0943708941340446,0.9109298586845398,0.5038337707519531,0.8071638663154095,0.0127034142285585,-1.3666715070590376,-0.6605190876960754,9.662864629399776,1.5372586676061153
1757686781557853200,0.05972607421875331,0.0541148222982883,0.8852766752243042,0.5358785390853882,0.6931026028495282,-0.0254512521207332,-1.6968140003986656,-0.6965446330621838,9.658223525595664,1.5504687161825597
1757686781567808300,0.06968115234375283,0.0159904789179563,0.84708172082901,0.5669775605201721,0.7836018620073795,-0.1386024150043726,-1.9580480849459767,-0.7363163792192936,9.653758947402238,1.5598625674717128
1757686781577762000,0.07963476562500205,-0.0098158176988363,0.8100292086601257,0.5689975619316101,1.1455336513828485,-0.2742038946270942,-2.084614317458868,-0.778023988809809,9.649449852031468,1.5662696580350397
1757686781587717400,0.08959008789062572,-0.0197266303002834,0.7549781203269958,0.5583489537239075,1.5986112541913986,-0.2738619493216276,-2.152835766900331,-0.8200469479598105,9.64521615998447,1.570895125878602
1757686781597671200,0.09954394531250088,-0.0048901592381298,0.6899634003639221,0.5267001986503601,1.9618962848067285,-0.1911135234862566,-2.2334914582401515,-0.8608629424728452,9.640878423041103,1.5756848443731664
1757686781607626200,0.10949902343750217,0.0247980616986751,0.6202008128166199,0.4848249554634094,2.237638056525588,-0.00953004488945,-2.3127358214773235,-0.8991296178292483,9.636315060648322,1.5822048937916755
1757686781617580300,0.11945312499999972,0.0763201043009758,0.588286817073822,0.458408772945404,2.234281147313118,0.3524503328680992,-2.376930207359791,-0.9345286287948488,9.631220367857813,1.5926792337939142
1757686781627534000,0.12940698242187665,0.1056263521313667,0.5291690826416016,0.4855647683143616,2.113709479039908,0.7972311589092016,-2.2845418465197085,-0.9710768828608096,9.625326633644104,1.6063843724109232
1757686781637489400,0.1393623046875021,0.1351693272590637,0.5413434505462646,0.5049214363098145,1.8696897102743384,1.4159452410548925,-2.2408793765343726,-1.0097226937279105,9.618481297793984,1.623474769552052
1757686781647443200,0.1493159179687531,0.1438810974359512,0.5649221539497375,0.5500710010528564,1.8683435563623905,2.003907626584172,-1.9264226742349564,-1.0510229646265503,9.610812370601296,1.6425599937722086
1757686781657398300,0.15927099609375084,0.1419479101896286,0.633991539478302,0.6302846074104309,1.383418351459503,2.209627767571807,-1.819958880160749,-1.0976103821478784,9.602165538287162,1.662539974875003
1757686781667352300,0.16922509765625193,0.1789827048778534,0.7428282499313354,0.6953025460243225,0.9419025185637177,1.8641373368442056,-1.5855964359261094,-1.1495993664517998,9.59211877604723,1.6852553722910582
1757686781677307100,0.1791799316406273,0.2281052470207214,0.7582564949989319,0.7375160455703735,0.8680855872027575,1.2186235105782746,-1.0194675504118202,-1.205069543934986,9.58027460899651,1.713636686514318
1757686781687261200,0.1891340332031266,0.2969537377357483,0.616704523563385,0.7733845710754395,0.8239191132180392,0.8485621176958084,-0.668515054886043,-1.2650507691018282,9.566514963713288,1.7469532651826738
1757686781697216300,0.19908911132812612,0.3715174794197082,0.4586203396320343,0.8112600445747375,0.8540513627618551,0.953420668530464,-0.386071155180037,-1.3309465520747006,9.550390927386283,1.785781446879357
1757686781707170300,0.20904321289062722,0.4070144593715668,0.353913277387619,0.8797815442085266,1.0904974814027548,1.1895961535364388,-0.2135815220125019,-1.403689278332889,9.531938155850767,1.8281712665803729
1757686781717124000,0.21899682617187644,0.4259894788265228,0.3033220171928406,0.977639138698578,1.3364052558720112,1.776806259393692,-0.6150561441600322,-1.4854446014776823,9.510956158098578,1.872311290949583
1757686781727079200,0.22895190429687595,0.4187337160110473,0.3041881918907165,1.0358211994171145,1.9537832671083508,2.376059854266048,-1.1459963735237717,-1.575199837335199,9.48765711557567,1.91662974062562
1757686781737033200,0.23890600585937705,0.3878772556781769,0.312894344329834,1.00921630859375,3.175196554535628,2.816880544504523,-1.6855203068375586,-1.6661011744879186,9.463279630166292,1.9598061806596807
1757686781746988300,0.24886108398437656,0.3470363616943359,0.3233266472816467,0.9182855486869812,4.503888459551334,3.013820582187176,-2.292291583863645,-1.7507061879754064,9.43961818407178,1.999749922382832
1757686781756942300,0.2588151855468759,0.2899791896343231,0.3625302314758301,0.7647737860679626,5.354592849972844,2.870052162721753,-3.0287431337699293,-1.823145401242376,9.4181878580302,2.0357479952201247
1757686781766897200,0.268770019531253,0.2353488653898239,0.3353275060653686,0.5817634463310242,5.456389675149321,2.5269816526174544,-3.773013394603133,-1.8788536983303723,9.400481520947814,2.0666956528000533
1757686781776851200,0.27872412109375233,0.1990270763635635,0.2646101713180542,0.4142508804798126,5.115592370674014,2.111816797161102,-4.3333714416310185,-1.919034025288373,9.386635366424915,2.092548179198056
1757686781786806000,0.28867871093749997,0.1531705409288406,0.2734123468399048,0.2709581851959228,5.004560684162378,1.7134166140228508,-4.593627474926412,-1.9455192966319617,9.376375838217138,2.113982743023336
1757686781796760300,0.298633056640627,0.139598548412323,0.3636937737464905,0.0985384806990623,5.358594486829638,1.3446440919071436,-4.79123825147748,-1.95628443627432,9.369706443455817,2.13352462496981
1757686781806715100,0.3085878906250006,0.1204025000333786,0.4948496222496032,-0.103545106947422,5.836005662840605,1.2047563132673502,-4.8813478537306185,-1.946774995781481,9.36698958571255,2.1540525953441856
1757686781816669200,0.3185419921874999,0.0818399265408515,0.606262743473053,-0.2986711859703064,5.997043781536817,1.1630641204416752,-5.101969503512978,-1.915977560327202,9.36872853833437,2.174010364615172
1757686781826623200,0.328496093750001,0.0296355318278074,0.6174325346946716,-0.511570155620575,5.833211063686013,0.9233318197369575,-5.188751714909077,-1.864672174373269,9.37517756834328,2.190762323582172
1757686781836578000,0.33845092773437635,-0.0328526124358177,0.5585061311721802,-0.7323259711265564,5.844725560390949,0.7942641257971524,-4.935350954335927,-1.7934369300685822,9.386629521206022,2.201172512307018
1757686781846532000,0.3484047851562533,-0.0904785394668579,0.5121508240699768,-0.9602832198143004,5.98536269609332,0.5331693035900592,-4.475312353408336,-1.7019864346005025,9.402916054618355,2.204262148885429
1757686781856487200,0.3583598632812528,-0.1602903753519058,0.4616881906986236,-1.1895352602005005,5.903114620995521,0.0401765275657176,-3.995348570305109,-1.5899600379630925,9.4235040846169,2.199996746525913
1757686781866441200,0.3683139648437521,-0.2419231832027435,0.4426459968090057,-1.4161242246627808,5.6570846814513205,-0.4986725752264261,-3.786094702233374,-1.457056126861274,9.44789852116108,2.1873662514030934
1757686781876396300,0.37826904296875163,-0.3421371579170227,0.4868851006031036,-1.6500283479690552,5.055093770569562,-1.0690092876940964,-3.610625030341744,-1.302482089612633,9.475350591710209,2.1660234575144943
1757686781886350000,0.3882229003906268,-0.4489749372005462,0.628264307975769,-1.9463670253753664,4.2997231467902655,-1.6658838784754275,-3.561972350853681,-1.121270659198612,9.505546408009527,2.134878231535852
1757686781896305400,0.39817822265625225,-0.5299630165100098,0.8359344601631165,-2.278005361557007,3.875004865568876,-2.150443757197261,-3.331374373719096,-0.9049974869493396,9.53730406679809,2.095517404267192
1757686781906259200,0.4081320800781256,-0.5998882055282593,0.6285399198532104,-2.3635458946228027,3.9175837781012057,-2.545015321958065,-2.3975172144450245,-0.6656593731939793,9.567359597843884,2.04766493524611
1757686781916213200,0.4180859375000008,-0.600798487663269,-0.2372116297483444,-2.0533292293548584,3.6394793689042326,-2.7991753764659166,-1.3280590139396489,-0.4484574321946128,9.591974399140476,1.9908038148611784
1757686781926168300,0.4280410156250021,-0.4305983781814575,-1.3858526945114136,-1.884704232215881,3.090005411723256,-1.9188146834492683,0.0828470639042556,-0.2799606315229088,9.609289691078663,1.937410078325868
1757686781936122000,0.43799487304687723,-0.1128904595971107,-1.9490947723388672,-2.2802734375,4.399968650871515,0.0556850623428821,1.5288187560409308,-0.1161430655754637,9.618535658329725,1.908057727113366
1757686781946077200,0.44794995117187675,0.2335095256567001,-1.8904787302017207,-2.44079065322876,4.94213608443141,1.910266635334492,2.581315300351381,0.0773073490262962,9.617814358317853,1.913648678988218
1757686781956031200,0.45790405273437607,0.2845900356769562,-1.9442548751831048,-2.054959774017334,-0.0589513706624507,3.1094612228214737,3.3641952778249977,0.2578199652548879,9.608537995928526,1.94419886168316
1757686781965986300,0.4678591308593756,0.0722586289048194,-1.890557646751404,-1.8608561754226685,-5.025260942363738,2.7050597534418106,1.3458734875716267,0.4025070339351892,9.598594109541176,1.9685997279681264
1757686781975940400,0.4778132324218767,-0.1669872552156448,-1.1591534614562988,-2.657083749771118,-3.50757323666811,3.133337188449502,-1.2034662734568118,0.5812601114116609,9.58885129868388,1.9714064559519289
1757686781985895200,0.48776806640625203,-0.4151716530323028,-0.3016098141670227,-3.988708734512329,3.748934015357494,6.151911102643608,-3.6139497908502816,0.8862408370964229,9.570211480143666,1.9483330388784408
1757686781995849200,0.4977219238281272,-0.6418404579162598,-0.5333452820777893,-4.476531505584717,8.48368874759078,9.724574358859655,-4.705434529724717,1.2898916342392563,9.533635607418418,1.901674455817044
1757686782005804300,0.5076770019531267,-0.8203682899475098,-1.3982410430908203,-4.151426315307617,5.909267298406363,11.719532955312728,-3.211224145728349,1.6816984104618429,9.48336789394915,1.846080286628008
1757686782015758300,0.517631103515626,-0.8692458271980286,-1.5456587076187134,-3.910910367965698,3.5070436598360537,12.759109812295437,-0.7554547949314117,2.032839706557989,9.424365669882295,1.7942388941012322
1757686782025712000,0.5275849609375012,-0.8169007301330566,-0.9076131582260132,-3.622961282730103,3.7554593254730095,13.801889849233628,1.3099484799705443,2.363221561611444,9.35677331212461,1.742508852994442
1757686782035667200,0.5375400390625007,-0.77317214012146,-0.334754467010498,-3.38769006729126,1.504312091293931,14.983759207910298,2.638573018838465,2.6774597988545894,9.282520327433945,1.6841577863126993
1757686782045621200,0.547494140625,-0.8507609963417053,-0.1221693679690361,-3.1405460834503174,1.187583644670248,12.728726364469528,2.1292636065244674,2.9757839892596003,9.20350758099556,1.6157168489016591
1757686782055576300,0.5574492187500013,-0.9947730302810668,-0.4366953372955322,-2.854544878005981,2.1214418268576263,9.56738823941648,1.2103326520949602,3.245011849039793,9.125192753693462,1.539857159666717
1757686782065530400,0.5674030761718765,-0.9278064966201782,-0.9529091119766236,-2.725083827972412,2.848971380770206,7.541539414659142,0.7830902592234313,3.4865351248145102,9.046686787733435,1.4737440806813538
1757686782075484400,0.5773571777343758,-0.8590213060379028,-1.504011154174805,-2.4816019535064697,3.1284716282397507,5.641746827065944,0.3628942777320742,3.702634328736365,8.966023936000466,1.4391912382163106
1757686782085438500,0.5873112792968769,-0.8542937636375427,-1.9657135009765625,-2.1611156463623047,2.3046055603832003,4.502070596474409,-1.9926171478934585,3.8845562455073,8.890496109068394,1.428184252642095
1757686782095393500,0.5972663574218764,-0.8398924469947815,-2.371323347091675,-1.7767386436462402,1.7190996280953288,4.4622757617026565,-4.054424444130063,4.027882474163175,8.824645042020082,1.4395070261672138
1757686782105347300,0.6072202148437533,-0.837238073348999,-2.6977789402008057,-1.2163296937942505,1.257211892169714,4.6264825735628605,-4.0661920388132335,4.123158373138308,8.775659769576787,1.4689324426159265
1757686782115302400,0.6171752929687528,-0.7744635939598083,-2.8698105812072754,-0.6070636510848999,0.814328716443479,3.834643629086017,-3.1860932116031644,4.160821748839319,8.750177537795901,1.5140423349305987
1757686782125256400,0.6271291503906262,-0.7070558071136475,-2.780221462249756,-0.0572295263409614,0.1058750344008207,1.281199501478672,-2.436632834780961,4.145330165196955,8.748112421959638,1.5675377782747149
1757686782135210500,0.6370832519531273,-0.6865819096565247,-2.337207555770874,0.478097528219223,-1.0449643952399492,-2.244767470014095,-2.003094264374673,4.086348691657185,8.767768724066018,1.6119414220161734
1757686782145165600,0.6470383300781268,-0.6818149089813232,-2.032057046890259,0.940043032169342,-2.051359698110818,-5.723828313425183,-1.527026758057624,3.988418478780984,8.807709689310192,1.6392549608774485
1757686782155119400,0.656992187500002,-0.6710259318351746,-1.8674335479736328,1.2688268423080444,-2.958703090599179,-7.673831915864348,-1.8692904818236824,3.85832436440289,8.862404571571945,1.655757913519442
1757686782165074400,0.6669472656249997,-0.5578567385673523,-1.6337203979492188,1.375791072845459,-3.7562551520258185,-8.749192033889889,-1.948029087495804,3.710765028221905,8.923068591371178,1.6671588668473063
1757686782175028200,0.6769011230468767,-0.4011156260967254,-1.226842164993286,1.295246124267578,-3.684082188479602,-10.712291849267482,-0.8572732474178075,3.566766307131946,8.979938479584455,1.6760903613217173
1757686782184983600,0.6868564453125021,-0.227701649069786,-0.6799993515014648,1.1110457181930542,-3.016514935837686,-12.561216419410703,0.7687924154102802,3.4426828313454982,9.0272263004601,1.6815234922863542
1757686782194937300,0.6968100585937531,-0.077184572815895,-0.2142772227525711,0.895807683467865,-2.6105519162297246,-12.995294065129755,1.9043794769920408,3.3448236378788945,9.063715663945674,1.6827331603370606
1757686782204892400,0.7067651367187509,0.0469681546092033,0.1396924406290054,0.6709995865821838,-2.4012559625819323,-12.841995016252994,2.243393697442859,3.2736434847623106,9.089681879851222,1.6826479662716387
1757686782214846500,0.716719238281252,0.0856207460165023,0.51927250623703,0.5237979292869568,-2.7198122091546653,-12.85722064243555,2.164195073043555,3.2258865850701928,9.107451345297694,1.6787977205842732
1757686782224800300,0.7266730957031271,0.0030863746069371,0.884756863117218,0.5638443827629089,-3.3969194435581564,-12.756037565243243,1.714650831992924,3.189372087143361,9.123585318496822,1.6608743797503411
1757686782234755600,0.7366284179687508,-0.1466701030731201,1.1558879613876345,0.7433654069900513,-4.185776157353819,-12.01138239674568,0.7022348075278103,3.147591046990454,9.14507585029304,1.621936746329814
1757686782244709400,0.7465822753906259,-0.2701524496078491,1.2292494773864746,0.9526821374893188,-4.325038497571647,-10.459704743164776,-0.0471814378917217,3.0903792134717105,9.17446853351593,1.5649557989574967
1757686782254664400,0.7565373535156272,-0.3302519917488098,1.2046916484832764,1.0620735883712769,-3.516112809215486,-8.734990490058063,-0.5112247444160283,3.0161741595759985,9.20994082891345,1.5000301761910315
1757686782264618500,0.7664912109375006,-0.3629162609577179,1.24347722530365,0.9814419150352478,-2.037364198245108,-6.860597716659307,-0.3505734330803156,2.938930760897696,9.24567148298621,1.4320042493216694
1757686782274573300,0.776446044921876,-0.3950643241405487,1.367295503616333,0.6754276752471924,-0.3143269384399056,-4.713425528478622,-0.0749871441841125,2.879414157567918,9.275276932176949,1.3596256802007556
1757686782284527600,0.7864003906250012,-0.500598132610321,1.4450122117996216,0.1314668655395507,1.5924164912045,-2.883502595925331,-0.2715707696445286,2.8596014958560465,9.292930077767371,1.2784822053439917
1757686782294482400,0.7963552246093766,-0.7030186057090759,1.6948115825653076,-0.4240666925907135,3.580606616435945,-2.2239438776940106,-0.9561104190710932,2.893164450500905,9.295666809254884,1.1792200132116677
1757686782304436500,0.8063093261718759,-0.913523018360138,2.227867364883423,-0.5616874098777771,3.1681103956669565,-3.29775910436511,-1.9093474746629595,2.9637393312007188,9.289247589862343,1.0471353095382452
1757686782314391300,0.816264160156253,-1.0929375886917114,2.5581297874450684,-0.3034979403018951,0.0541907321318984,-5.841379172572493,-2.264858948667347,3.0281945599764586,9.28558731378913,0.8822073437966406
1757686782324345300,0.8262182617187523,-1.0943537950515747,2.819436550140381,-0.0238036811351776,-2.4112249834105373,-8.269664304116368,-1.5270248583614825,3.064692399029433,9.28929610517919,0.6978828959286213
1757686782334299400,0.8361721191406257,-0.7637564539909363,2.76910400390625,0.5407094955444336,-4.834367491368949,-8.585717043435572,0.0731412605891004,3.060863196130097,9.30203342167735,0.5231646269261837
1757686782344254500,0.846127197265627,-0.1719975918531417,1.6910083293914795,1.3961983919143677,-12.40670974830985,-6.522346005013585,4.581901089036465,2.979989624255896,9.33388752657771,0.4106080324022099
1757686782354208500,0.8560812988281263,0.1873208880424499,0.8062039613723755,0.8147655725479126,-18.026954353141782,-5.084216989201307,10.212155046707393,2.868963198441267,9.369985844919086,0.3778475897792726
1757686782364163300,0.8660361328124999,0.8580808043479919,0.4121731221675873,-0.9731042385101318,-3.621399230073392,-4.362810594344139,11.490182932412624,2.8830878776445985,9.364448669058085,0.4066050438385457
1757686782374117400,0.875990234375001,1.5329346656799316,1.1984466314315796,-0.7309834361076355,14.403118543571232,3.891405965271592,12.953479707229135,2.978486818477512,9.32997298348248,0.50058629989326
1757686782384072400,0.8859453125000023,1.3086824417114258,2.237142324447632,-0.128857135772705,1.9980416571602224,17.143257793700695,8.622516203522682,3.0212516089707613,9.3114728656739,0.5821418626822531
1757686782394026500,0.8958994140624998,1.46410071849823,1.6464784145355225,-0.269138902425766,-0.5473880908176303,21.750583246850965,0.1111663457419723,3.050226943564415,9.2977231572628,0.6471971762429922
1757686782403981600,0.9058544921875011,1.5513931512832642,1.0441056489944458,-0.0226848945021629,6.054511635643244,14.294697916340828,0.6990474827285855,3.080115301349759,9.280258227720855,0.7483971315048634
1757686782413935400,0.9158081054687521,1.365657925605774,0.8148944973945618,1.11284601688385,-3.5524075269117947,5.055837282413244,-0.3652697746917605,3.0394492367014285,9.284382614174485,0.855781766751036
1757686782423890400,0.9257631835937516,1.156707525253296,0.4418948292732239,2.2991719245910645,-11.787857718998191,-0.6804875244915485,-2.726300109869241,2.886215946537256,9.32370632430315,0.9532443621154874
1757686782433844200,0.9357170410156268,1.042887568473816,0.0318828076124191,3.0956830978393555,-11.510822400337457,-3.450427454122901,-3.702048930063844,2.6337211948931216,9.38804640226662,1.048076170584932
1757686782443798500,0.9456713867187521,1.270841121673584,-0.0914862677454948,3.430592060089112,-7.52962627402544,-1.9738398205786944,-2.776754578082264,2.325679035811126,9.456617834189531,1.1549823015991598
1757686782453753300,0.9556262207031256,1.6891521215438845,0.2190306037664413,3.7193002700805664,-3.957977747809887,1.6785644963502884,-0.5547410839289426,1.989046595930308,9.51507645289898,1.2951478012017903
1757686782463707400,0.9655800781250008,1.84976863861084,1.2848248481750488,4.163320541381836,-2.620734287548065,6.06787205247581,-1.1312518088564276,1.6256439302846788,9.56117710981667,1.4531222945436837
1757686782473662500,0.9755351562500021,1.5567998886108398,2.2117505073547363,4.637747287750244,-0.2423800387345254,11.698794118666648,-4.653057569016516,1.2329815601460634,9.597630817466973,1.5923703139752148
1757686782483616300,0.9854890136718772,1.0870596170425415,1.7462741136550903,4.775992393493652,4.002158250319957,18.48631490867734,-7.68259214542508,0.8136291168067604,9.62430722746849,1.697387416372448
1757686782493571600,0.9954443359375009,0.5258311629295349,0.2852868437767029,4.480305194854736,7.846760963362455,22.25962933205366,-8.798755398482085,0.385402608268708,9.638170917648075,1.7684813525103031
1757686782503525400,1.005398193359376,-0.0601436048746109,-1.1345748901367188,3.810336828231812,9.852780467534064,20.47341694641113,-10.150493832564353,-0.0215896744718891,9.641749360656735,1.7906893849261103
1757686782513480400,1.0153532714843756,-0.1710104644298553,-1.3165875673294067,3.2901418209075928,9.353907401299477,14.29774912060499,-10.54638583227396,-0.3829834548303857,9.63738415118456,1.7732831998340783
1757686782523434500,1.0253073730468767,0.0951158627867698,-0.5812036395072937,3.197312831878662,5.840389577013254,10.038228220343589,-6.490399545654654,-0.7091662142261862,9.620711833325029,1.7633477890141307
1757686782533389300,1.035262207031252,0.4319183826446533,-0.0002054859069176,3.1091198921203613,3.520428042066097,6.78644059355855,-3.4903894621551035,-1.0163921615544709,9.588701076558232,1.7872144022919236
1757686782543343600,1.0452163085937531,0.7049519419670105,-0.3195097744464874,2.720526933670044,5.302068882009387,3.957143050551416,-1.375295689149946,-1.2979159507408735,9.544657352170349,1.8399201565630727
1757686782553297400,1.0551701660156265,0.9368248581886292,-0.7228288054466248,2.16811466217041,8.44234083815813,2.779619612124562,0.9814731891907752,-1.539707814323902,9.494703526955842,1.910572924804688
1757686782563252500,1.065125244140626,0.9204730987548828,-0.6082546710968018,1.7457400560379028,9.044698828786611,2.432203766292333,2.376512712600082,-1.736548191024363,9.444532844120264,1.9888651018835604
1757686782573206500,1.0750793457031271,0.7202371954917908,-0.3650973737239837,1.4757730960845947,8.112202290341257,1.7355232318907976,1.5939824253469703,-1.8962563762910665,9.399010863873364,2.05747438159883
1757686782583161300,1.0850341796875007,0.5469779372215271,-0.2922795116901397,1.3297367095947266,8.862848808208108,0.1244160687416791,1.5660918172501026,-2.03353791795522,9.358567794325948,2.110055340446532
1757686782593115400,1.09498828125,0.4424523413181305,-0.2735849320888519,1.165481448173523,8.899373243007064,-1.7556459824651478,2.2479911082357167,-2.1561045594379307,9.322070832055807,2.149558644925803
1757686782603070500,1.1049433593750013,0.3991795778274536,-0.3351258635520935,0.8190386295318604,7.339806882002949,-4.082203846937418,1.6017114121638238,-2.255570165187865,9.2909391962111,2.182025182636082
1757686782613024500,1.1148972167968765,0.3082818984985351,-0.3774592280387878,0.3526871502399444,5.96352378925085,-5.84720334868133,0.2181951532877981,-2.3179028488516806,9.26971345283091,2.206831707112491
1757686782622979300,1.1248520507812518,0.22316475212574,-0.2431598752737045,-0.0729118287563324,4.449905232690274,-7.2612564923793075,-2.00993039400503,-2.337022121471912,9.260863206899163,2.223762091386318
1757686782632933400,1.134806152343753,0.068379707634449,-0.0148161714896559,-0.389145165681839,3.387511856004596,-8.215347022995353,-4.265758625607193,-2.318201393406838,9.262810249313713,2.2353259801909324
1757686782642887400,1.1447602539062522,-0.2649847269058227,-0.0370157212018966,-0.6095763444900513,2.743568640056252,-8.93011441822946,-6.228479378539324,-2.2711627249866724,9.276525470933318,2.226721087322384
1757686782652842500,1.1547153320312518,-0.5670284628868103,-0.1969646513462066,-0.751941978931427,2.4783313112169503,-9.843422272080184,-7.7255422293573615,-2.210928913298249,9.300985373929144,2.184910528814048
1757686782662796500,1.1646694335937529,-0.799839198589325,-0.3648570775985718,-0.9820976853370668,1.9639280828952788,-9.520457561415434,-6.966149510455131,-2.137058644314856,9.334308382338286,2.1151973795101044
1757686782672751400,1.1746242675781264,-0.9321767687797546,-0.4988106191158294,-1.322325587272644,2.5844161889761685,-9.40061713002622,-6.34967297810316,-2.038089297649264,9.37667511342466,2.023500069674104
1757686782682705400,1.1845781249999998,-0.8357673287391663,-0.5282782912254333,-1.7321479320526123,4.208080051359534,-9.520246549013256,-5.108506796327233,-1.9054568969652053,9.424328845003249,1.9291569215044373
1757686782692660200,1.194532958984377,-0.6270650029182434,-0.469378799200058,-2.091171979904175,5.26614299762547,-9.319873029750584,-2.450222530324757,-1.7340967062190171,9.472952298396825,1.851073418740183
1757686782702614500,1.2044873046875022,-0.4507249295711517,-0.4978914856910705,-2.32041072845459,4.718693824270368,-8.932406913080811,-0.7505252295747399,-1.533657574374229,9.518685875567794,1.792451864553988
1757686782712569600,1.2144423828125,-0.284723699092865,-0.6244558691978455,-2.5504162311553955,4.054554792511463,-8.703259719276428,-0.2851755166269838,-1.3125953412175178,9.559635141071675,1.7495288147591053
1757686782722523400,1.2243962402343769,-0.1128158271312713,-0.6971970200538635,-2.873863458633423,4.224396395388245,-8.736971434742212,-0.0269976047798991,-1.0662946949731558,9.595143092304468,1.722391801508516
1757686782732478500,1.2343513183593764,0.0522551536560058,-0.538901686668396,-3.222477436065674,4.450753666213155,-8.539013159927725,0.295731105171889,-0.7849314301107079,9.623735565060375,1.7140512586645782
1757686782742432300,1.2443051757812533,0.1219228953123092,-0.3204851150512695,-3.451779127120972,3.140890964829921,-7.846642889940738,0.3938904506288468,-0.4712063665540889,9.643042323076724,1.720488744366169
1757686782752386300,1.2542590332031267,0.2154190391302108,0.0197217240929603,-3.522001981735229,0.1234370128427632,-6.027799569806456,0.1568308762647211,-0.1387000210267957,9.650974285119773,1.7348875643357633
1757686782762341400,1.2642141113281262,0.1431598961353302,1.1290059089660645,-3.751202583312988,-3.587534662133455,-1.188556873616576,1.4902207298383117,0.2170970741190947,9.645625325307249,1.7564665050677954
1757686782772295400,1.2741682128906273,-1.0907745361328125,2.0370900630950928,-4.102084159851074,-5.929303539741039,8.13112677104175,4.5039919199258085,0.624052009107545,9.6365430241853,1.708212907899916
1757686782782250500,1.2841232910156268,-1.790722131729126,0.1137230768799781,-4.737646102905273,-8.034805162405966,21.44840179649591,4.288985479676724,1.063787315262109,9.624743865320086,1.5501728019759058
1757686782792204300,1.294077148437502,-0.8413867354393005,-2.115046977996826,-5.177698612213135,-2.4131309631623328,35.67263209190369,4.629667633339762,1.5296706966951488,9.580023264583945,1.4330496667213737
1757686782802159600,1.3040324707031257,-0.0367107167840004,-0.8749978542327881,-4.477560520172119,4.874252050250768,41.06512709476947,11.858955454528331,1.9671796320371329,9.500561020812391,1.4282647705323994
1757686782812113400,1.3139863281250008,-0.1256134212017059,1.3430736064910889,-3.6454691886901855,2.323745583530515,34.8530809646368,13.95848910869956,2.353926348391175,9.413912080407142,1.4169238768287002
1757686782822068500,1.3239411621093762,-0.517422616481781,2.375529527664185,-2.7879958152771,3.841110487012565,17.829895657515525,6.645468526813388,2.6814430232718585,9.337409270963072,1.3390440799430012
1757686782832022500,1.3338952636718773,-0.8930649757385254,2.2928836345672607,-2.0808265209198,2.490379768668115,9.099632195979355,0.9314471024576574,2.9341332974880934,9.279456263688209,1.2053778061665594
1757686782841977300,1.3438500976562509,-1.0231776237487793,1.7014621496200562,-1.7036644220352173,0.6247407950893044,8.47973328796327,-2.720435601750016,3.130864076334238,9.233319950935243,1.0554181308455766
1757686782851931400,1.353804199218752,-0.9957196712493896,0.1760926097631454,-1.6625947952270508,0.5685211874783038,8.105092750597,-2.481945117799937,3.292427972470224,9.19047040476799,0.9303528774801642
1757686782861886500,1.3637592773437532,-0.8460842370986938,-1.3485246896743774,-1.935998797416687,1.4299588610991836,7.387390470954775,-1.165203470557928,3.450321655660868,9.13858590375185,0.8671252908032387
1757686782871840500,1.3737133789062508,-0.8179396986961365,-2.2745378017425537,-2.088858127593994,1.9025956623151896,5.8421846437364815,-0.6458484650477767,3.618583295869827,9.074141780892012,0.8580346602443605
1757686782881794600,1.3836674804687519,-1.0407956838607788,-2.82232403755188,-1.8343909978866573,0.838870160242915,3.148534757581353,-1.293835841820389,3.7758039021044967,9.008773528924584,0.8693141060844063
1757686782891749400,1.3936220703125013,-1.3438409566879272,-3.522904872894287,-1.2667299509048462,-0.6436047777742147,1.399323192077875,-2.3454604256019,3.8874493366003033,8.959790594568847,0.8833514723304658
1757686782901703400,1.4035761718750006,-1.378047227859497,-4.094017505645752,-0.8073107004165649,-2.6313836918562648,1.7360627455949782,-2.603094878222048,3.945200683823228,8.931900132602452,0.9093468412652612
1757686782911658500,1.4135312500000001,-1.0995346307754517,-3.9891836643218994,-0.429939717054367,-4.34643404456079,0.7206716508418322,-1.546259720185399,3.9618659874200817,8.919283227613567,0.9593811843700708
1757686782921612500,1.4234853515625012,-0.7802176475524902,-3.298527240753174,-0.0502981357276439,-5.362017447015643,-2.6684645914942027,-0.32792861668244,3.946744698394834,8.919275044307112,1.0198526772718877
1757686782931567400,1.4334401855468766,-0.4420896768569946,-2.53045916557312,0.2385541647672653,-5.263189408516883,-7.263660046389699,0.8851138058278709,3.907921923525631,8.92927621383965,1.0800769174143672
1757686782941521400,1.443394287109376,-0.1480525881052017,-1.71259343624115,0.5539608597755432,-4.7805759876877065,-10.204242958408594,2.72382232157886,3.849380302707851,8.947734830594062,1.136079667404294
1757686782951476200,1.453349121093753,0.1004459038376808,-0.9785972237586976,0.8254567980766296,-4.652292137601972,-11.559441762077808,3.289082753695548,3.7716757162585854,8.974453326171636,1.1849321803133934
1757686782961430500,1.4633032226562523,0.2992470562458038,-0.3698984980583191,0.9172208309173584,-4.605863271643221,-12.487229976701736,2.693971373194456,3.684543960772455,9.00486307748258,1.2275811624072492
1757686782971384600,1.4732573242187517,0.4582803845405578,0.1441443115472793,0.847977340221405,-4.535239875626564,-13.152203121197225,1.7642432765491305,3.603596154618263,9.032230392357706,1.2662174747936428
1757686782981339400,1.483212158203127,0.5082935690879822,0.6155936121940613,0.7809540629386902,-4.603317386552691,-13.645119909375904,0.5145192559167743,3.5356524992048737,9.054685385271906,1.2969931368075311
1757686782991293400,1.4931662597656263,0.4180158376693725,1.2055708169937134,0.9051141142845154,-5.1366638002753255,-14.274970302563904,-0.9421144077487288,3.4729926294133064,9.077309305012225,1.308128132675588
1757686783001248300,1.50312109375,0.2181576192378997,1.7978187799453735,1.2333886623382568,-6.5625318849295375,-14.614379952073095,-2.094789674514532,3.3961993125900625,9.10950944687128,1.2856988587245344
1757686783011202300,1.513075195312501,0.0602718517184257,2.3714842796325684,1.4959489107131958,-7.777381722187996,-14.277080426585671,-2.4554174686193466,3.2973817954853177,9.15363675788939,1.2282394801855083
1757686783021157400,1.5230302734375023,-0.0064122900366783,2.8572821617126465,1.5703879594802856,-7.360054135739803,-13.210256666237116,-1.7540987530231475,3.1881577429175376,9.202960468506811,1.1452229779984802
1757686783031111400,1.5329841308593757,0.037009485065937,3.127333402633667,1.5426735877990725,-6.336476811921596,-11.44149225900173,-0.2715940043896436,3.0776690772414206,9.251544758933782,1.0522531640086323
1757686783041066500,1.542939208984377,0.147362619638443,2.9060800075531006,1.4611488580703735,-4.940665427356958,-9.59062532261908,1.0502855171974748,2.9702374610483644,9.295689021086693,0.9686248135335744
1757686783051020300,1.5528930664062521,0.115405760705471,2.2541821002960205,1.3408138751983645,-3.1658506340414285,-7.317286422637104,2.2641776884049176,2.863283399239182,9.335301485028864,0.9078404552903026
1757686783060975400,1.5628481445312516,-0.2316372245550155,1.7047197818756104,0.8981411457061768,-1.4430638418659567,-4.626193235227466,2.5914172999098897,2.7746894622460005,9.367610932481288,0.8481526601120829
1757686783070929400,1.5728022460937527,-0.6305422186851501,1.0640788078308103,0.2147735059261322,1.9843948246017096,-2.2796751172661778,2.109601020807773,2.732332960292697,9.386863914483785,0.7691273464530706
1757686783080884000,1.5827568359375022,-0.8351537585258484,-0.2052165865898132,-1.1367578506469729,5.1023026809901,0.5181318934559822,2.0751260658845303,2.7737235398232936,9.381145536836982,0.6862865661591291
1757686783090838800,1.5927116699218757,-1.1516082286834717,-1.1223595142364502,-2.705029249191284,12.27766952689886,4.109266625908017,1.285330317673087,2.9521468008235097,9.331331996876,0.6176109432093799
1757686783100792800,1.602665527343751,-1.4711270332336426,0.4551619589328766,-2.8821494579315186,15.274793825829027,4.902717681756616,-2.2156375293806194,3.2142791493847964,9.250904122942686,0.50946960784439
1757686783110748000,1.6126206054687522,-1.4934366941452026,2.757065296173096,-2.291173458099365,4.604589306184649,1.6634300555825232,-3.8574908361881968,3.4631215160012245,9.16928323983252,0.3184117966007441
1757686783120702000,1.6225747070312533,-1.5840994119644165,3.758393526077272,-0.3201818168163299,-3.2804289071187376,-3.6958155886322257,-3.416847256082296,3.5949674424827096,9.123770611935852,0.058530647332617
1757686783130657000,1.6325297851562528,-1.5098081827163696,2.8939950466156006,1.559390425682068,-15.63867273068428,-9.874809928512573,-3.177386465795338,3.531194350752234,9.146524295535682,-0.2053211317326873
1757686783140610800,1.6424836425781262,-1.0669643878936768,1.8239233493804927,2.2173259258270264,-21.92319256087541,-13.468151231098174,0.5657972058745101,3.3428412318900227,9.210511906799674,-0.4028418553801253
1757686783150566000,1.6524387207031257,-0.9027815461158752,1.4143389463424685,1.421611785888672,-19.624132359659672,-12.932394833624365,6.871226662701368,3.161902188676596,9.267022898572682,-0.5432018546415492
1757686783160520000,1.6623928222656268,-0.8080827593803406,0.1792401522397995,0.126467615365982,-11.274030244737864,-9.93982980543375,10.253105481255052,3.0857109293997285,9.285614201796054,-0.6528052253831178
1757686783170475000,1.6723479003906263,0.0810444355010986,-2.4105913639068604,0.5493626594543457,-0.9722092478916048,-1.3032950134307146,14.602189163541793,3.079855481369793,9.286911255869269,-0.6619497780863195
1757686783180429000,1.6823017578124997,1.8746178150177,-2.20220685005188,1.911067008972168,0.666407561212778,15.988986051523684,20.328838964128494,2.965895340190828,9.33493382076025,-0.4825539822595193
1757686783190383900,1.6922565917968768,2.2034497261047363,2.6496927738189697,0.2797160148620605,-0.6876137231096625,31.410864289498328,16.660837849617003,2.8564614442646503,9.376907168614864,-0.2909322900554165
1757686783200338000,1.7022106933593761,1.5153193473815918,3.2404162883758545,-0.7209859490394592,11.506607997512816,30.18452567449808,-3.0618966308310624,2.8785034724637866,9.37232627056539,-0.2100793043115176
1757686783210292000,1.7121647949218772,0.9691285490989684,0.6094281673431396,-0.3375469446182251,7.998941237342357,17.427782006812095,-10.646858130848408,2.931188183946907,9.35704920645654,-0.155331212291494
1757686783220247000,1.7221198730468767,1.1853880882263184,-0.2415004223585128,0.9270420670509338,-2.333428042502701,3.9187937384128566,-5.013275905537605,2.9059406377047297,9.366031554335356,-0.0576435166340088
1757686783230201000,1.732073974609376,1.5371618270874023,0.8766953945159912,1.9985227584838867,-13.064305057513714,-2.705297653850913,0.7493988558933138,2.7663942198485136,9.408162723100183,0.0623851125373737
1757686783240156000,1.7420288085937532,1.8149864673614504,1.8809260129928589,2.6996028423309326,-14.425132806980608,-4.727914072558283,0.9347925404280424,2.5467504751876,9.468433359667658,0.1822522264375351
1757686783250110000,1.7519826660156266,2.195029735565185,1.8397756814956665,3.4024813175201416,-10.148194323450326,-4.485163300815224,0.5192918771460652,2.263639051483572,9.536329084286091,0.323616562169604
1757686783260064800,1.7619375000000002,2.8490006923675537,0.9607399702072144,4.286275386810303,-5.38494298005104,-0.1812409487694501,1.970603907397389,1.903773181661964,9.60526642691195,0.5337310291260481
1757686783270018800,1.7718916015625013,3.2984657287597656,0.7829872965812683,4.386795520782471,-0.7772225362338125,7.708675265708565,3.762291801841557,1.4859062276400623,9.658862992542982,0.8178160471025854
1757686783279974000,1.7818466796875008,2.9149975776672363,0.892571210861206,4.186916351318359,8.690575594270229,19.73295864508152,-0.2228841878868639,1.0847997081525622,9.682800917491315,1.1121803939659147
1757686783289928000,1.79180078125,1.538461446762085,0.2366253584623336,4.222733974456787,10.458844326943158,29.851371578252312,-8.913279603284597,0.6848172973241656,9.692458388152716,1.3257552670419217
1757686783299883000,1.8017558593749996,0.2678079009056091,0.0663841441273689,3.8650882244110094,3.217131323945522,26.32948690763712,-16.77280067949891,0.2945633765667677,9.700701900362969,1.4071132614322006
1757686783309836800,1.8117097167968765,0.1575194895267486,0.0124261043965816,3.479046583175659,3.2963691113114355,14.830312859517337,-17.198893756204843,-0.0580615228503709,9.70307038305998,1.4203567738868297
1757686783319792000,1.821665039062502,0.5537453889846802,-0.0629883334040641,3.129405975341797,5.57575196763277,7.416537654983997,-10.023840798550845,-0.3785385311855003,9.690631757247449,1.4555911688752472
1757686783329746000,1.831618652343753,0.6954311728477478,-0.1554066836833953,2.5885581970214844,9.039220689636467,4.597718251371384,-6.090286713379621,-0.6559236496645957,9.666486327028274,1.516314225385338
1757686783339700000,1.8415727539062523,0.8138691186904907,-0.3764698803424835,2.05267071723938,12.262578340750933,2.975444966563582,-4.755449729737639,-0.8824886449560523,9.637208794617653,1.586125135975331
1757686783349655000,1.8515278320312518,0.9651508331298828,-0.2092412114143371,1.6143940687179563,11.14169215082526,1.3275386433273553,-1.82049357155934,-1.0625518551830202,9.60513432496488,1.6681624909318982
1757686783359608800,1.861481689453127,1.183109998703003,0.1445276588201522,1.4677153825759888,8.489661392259597,-0.2434948681086301,0.696403617156297,-1.2073979138173163,9.569657937914132,1.7703721346929668
1757686783369564000,1.8714367675781265,1.3039296865463257,0.0969119295477867,1.5270227193832395,6.014179040732979,-0.5853197620660067,2.806940457509458,-1.347431384538114,9.52766237822771,1.89168015441671
1757686783379518000,1.8813908691406258,1.2367132902145386,-0.2915487289428711,1.2738943099975586,4.629820193552971,-0.91368487046957,3.288244841566682,-1.48428827104941,9.482682249772548,2.011470170792937
1757686783389473000,1.891345947265627,1.0694849491119385,-0.4799577891826629,0.6939416527748108,5.062781986984611,-2.131882849112153,1.324371557598561,-1.5865508140414952,9.44377413470745,2.1138515178591013
1757686783399426800,1.9012995605468763,0.887962818145752,-0.4401841461658478,0.0569068826735019,5.471193276527524,-4.454236832153797,-1.4492135966673492,-1.6316418555252252,9.416668685638903,2.198748500030488
1757686783409382000,1.9112546386718758,0.6655958294868469,-0.2210243642330169,-0.4752320945262909,6.023142683911323,-7.529395387879013,-3.766808110222221,-1.618858800189197,9.40300724003315,2.265643961565196
1757686783419336000,1.921208740234377,0.4009521603584289,0.1004842445254325,-0.8462402820587158,5.376856704229116,-8.206639400404692,-5.753033365121484,-1.5569078093193471,9.40134544430077,2.315408401687443
1757686783429291000,1.9311638183593764,0.0151051254943013,0.1365170776844024,-0.965027928352356,3.626442192676663,-8.055248815497755,-6.828803817513585,-1.4676201909735798,9.410216733020544,2.3375804860070346
1757686783439245000,1.9411179199218758,-0.4250435531139374,-0.07660973072052,-1.0014450550079346,1.9188487318493423,-8.509007313242554,-7.806919951361417,-1.3747662584483622,9.428829079031944,2.3189608334720133
1757686783449198800,1.9510715332031268,-0.8354385495185852,-0.4960922300815582,-1.107609510421753,0.9992981842167676,-8.70918501767218,-8.128291255354881,-1.2822628929264843,9.45722281434536,2.2554637822039423
1757686783459154000,1.9610266113281263,-1.120202898979187,-0.8304747939109802,-1.345053791999817,1.186340805002302,-8.967779255235195,-7.8194854184240095,-1.1821509520970284,9.49390565457642,2.1537572656594217
1757686783469108000,1.9709807128906256,-1.1635199785232544,-0.9774000644683838,-1.6978586912155151,2.329419537513703,-9.793657247436046,-6.600408318859339,-1.0554049791030584,9.535533549994229,2.032271697411686
1757686783479063000,1.980935791015627,-1.0329514741897583,-1.0990815162658691,-2.065054655075073,3.172107940870524,-9.932345587158204,-4.303022188335657,-0.8964190436962991,9.57561012431681,1.9169009587824344
1757686783489017000,1.9908898925781262,-0.8811259865760803,-1.214978814125061,-2.389460325241089,3.014872137066721,-9.895638781529664,-2.346882275098562,-0.7044678272768855,9.61117828130424,1.8164171159006648
1757686783498972000,2.0008447265625,-0.7556421160697937,-1.3108670711517334,-2.5895087718963623,2.1754987034767863,-9.93628292660713,-1.594193730010092,-0.4872871847938746,9.640449968495965,1.730513733165711
1757686783508926000,2.010798828125001,-0.6474514603614807,-1.3687188625335691,-2.658620595932007,1.0596961004257202,-9.947508084976672,-1.3644526619657873,-0.2570396833310835,9.66199953700304,1.658340915749967
1757686783518880800,2.0207536621093762,-0.5522176027297974,-1.4073514938354492,-2.62650990486145,-0.061873395588994,-9.832434429597852,-1.082694114175439,-0.0244672734515275,9.67546341421008,1.598494642074406
1757686783528834800,2.030707519531253,-0.4526979029178619,-1.416400671005249,-2.5801665782928467,-1.2690180652976035,-9.513736728727816,-0.5026294961586595,0.2037474892077967,9.681032738775016,1.5512901155680416
1757686783538790000,2.040662597656251,-0.3482531309127807,-1.3184958696365356,-2.649017810821533,-2.3187808007299897,-8.64789906658232,0.2928545268222689,0.4334965213628485,9.678901571965216,1.5170122906520962
1757686783548744000,2.050616699218752,-0.3372018039226532,-0.7625114321708679,-2.951542615890503,-3.121692927885056,-7.241339493510127,1.1442403236366807,0.685293244272843,9.668311788889763,1.4914764289878308
1757686783558698000,2.060570800781253,-0.7584137320518494,0.4358079135417938,-3.613108396530152,-3.467822241038084,-4.048758088931441,2.979117517596483,0.994462653819099,9.64879460299313,1.4429725103206932
1757686783568652800,2.0705256347656267,-1.279516100883484,1.3596895933151243,-4.689375400543213,-3.906514102554321,3.286806917718053,6.771264067214727,1.4051717719756065,9.61389981522262,1.3299657243438063
1757686783578606800,2.080479736328126,-0.8555850982666016,-0.1497132778167724,-5.738650798797607,-2.5153718788444994,13.998525351011752,11.42410974704623,1.9141279869377608,9.541564646852017,1.21039146961011
1757686783588562000,2.0904348144531273,-0.0758525729179382,-2.952931404113769,-6.046926498413086,4.348262136770785,25.57907536756992,13.303365158045292,2.461595864993334,9.416072473311424,1.2035521981745958
1757686783598516000,2.1003886718750007,-0.1996540129184723,-3.509803771972656,-5.005362987518311,8.022721925902367,31.42869922139645,7.63042999651134,2.93209711548537,9.268540317398308,1.2912632148534058
1757686783608471000,2.11034375,-0.6097086071968079,-0.245519533753395,-3.671622753143311,8.126697848683595,32.882150309503075,-1.0198197248503564,3.306811594870686,9.138185506257416,1.3149052255950868
1757686783618424800,2.120297607421877,-1.1511640548706057,1.9292482137680047,-2.4449498653411865,6.7252540111899375,23.36234624356032,-2.658103356477618,3.593905366209149,9.045117346459628,1.2000346185076982
1757686783628380000,2.1302526855468766,-1.520578384399414,1.516416072845459,-1.7723596096038818,6.786034350845218,15.827756209647657,-3.5138492481976744,3.7997789441928265,8.983955314010382,1.0102627919539808
1757686783638334000,2.140206787109376,-1.2496849298477173,0.3957615196704864,-1.5802870988845823,6.663838296240567,14.78397780932188,-3.041224137419462,3.9566906306087968,8.932982667142152,0.8466390406787395
1757686783648289000,2.1501618652343772,-1.0436221361160278,-0.9981442093849182,-1.6114444732666016,5.0577521761238575,13.307473177886008,0.6206323368571698,4.095130840788781,8.878245699304342,0.7596247740924358
1757686783658242800,2.1601157226562506,-1.10165536403656,-2.0024354457855225,-1.615984320640564,3.553188448156416,9.314636298140885,0.3175452428992837,4.226319764666259,8.819195544442534,0.7282717505820095
1757686783668198000,2.170070800781252,-1.0951015949249268,-2.6701083183288574,-1.393246054649353,1.345464176118374,5.552710114741325,-1.2041257602788509,4.343158676151931,8.761922336125373,0.7321687580205499
1757686783678152000,2.180024658203127,-1.0573158264160156,-3.1320433616638184,-0.8049913644790649,-0.3727662679269909,2.7947517148047685,-1.9935605662234128,4.418816851465404,8.721058410817385,0.7665322153933346
1757686783688105700,2.1899785156250022,-1.0713826417922974,-3.4488942623138428,-0.0818576514720916,-1.839138212405145,2.38789759157598,-2.594492761832476,4.430412012191116,8.710422450512647,0.8187430257543921
1757686783698061000,2.199933837890626,-0.921611785888672,-3.2176673412323,0.3952985107898712,-2.620618844474852,2.656236978083849,-2.493827863295376,4.386641844047606,8.726545317795873,0.8804352926228195
1757686783708014800,2.209887695312501,-0.7215865850448608,-2.4653472900390625,0.6905810236930847,-2.461801616698504,0.0093722239792346,-1.2849261207863687,4.313417325621843,8.757595120576024,0.9323798532631248
1757686783717970000,2.2198427734375006,-0.6076945662498474,-1.8300751447677608,0.9512448310852052,-2.1903034738987683,-3.91474007910788,-0.0904389072727411,4.221335254251957,8.79876358178854,0.9656694708593188
1757686783727924000,2.229796875,-0.5516690611839294,-1.4338215589523315,1.190026044845581,-2.3097394161403177,-6.180674840313196,0.887488572135195,4.1116757328763605,8.848713315349817,0.9822332868430764
1757686783737879000,2.239751953125001,-0.4651687145233154,-1.2543025016784668,1.3837310075759888,-2.4777511732414363,-6.798540781196952,1.4563221134983002,3.984302567894757,8.90588657042384,0.9904022725123912
1757686783747833000,2.2497058105468764,-0.2718985974788666,-0.9823418855667114,1.448472499847412,-2.6364406829848885,-7.671948586335778,1.1529561295337971,3.8462610016435375,8.965116173505782,1.0016756539378315
1757686783757788000,2.2596606445312517,-0.0084379538893699,-0.4316353797912597,1.3875672817230225,-2.995577069488168,-9.423045234933497,0.6992820221368223,3.71174351786524,9.020071752530336,1.01571477374956
1757686783767742000,2.269614746093753,0.2408682703971862,0.0352170355618,1.2478573322296145,-3.3318668334111567,-11.099511882221698,0.6346723334517329,3.5908895255193114,9.06683584179282,1.0336374569963662
1757686783777696800,2.2795695800781264,0.372181624174118,0.3509035408496856,1.0669206380844116,-3.377932419015467,-12.085717214500905,0.5441277007821947,3.4882147484645247,9.104337012669443,1.0553484996754676
1757686783787650800,2.2895236816406257,0.3384535014629364,0.6412208080291748,0.9572585225105286,-3.402425639759004,-12.707399498802422,0.5011190185304731,3.40212607229054,9.134952515685558,1.0717219807188958
1757686783797606000,2.299478759765627,0.2237123399972915,0.9782429933547974,0.8733862638473511,-3.9049148506641385,-13.383625858718156,0.1527744404807686,3.3276132676199075,9.162498694258929,1.0705130433205514
1757686783807560000,2.309432617187502,0.0973607897758483,1.3597099781036377,0.9116974472999572,-4.722910857443512,-13.80462541167736,-0.3371579981248825,3.259605022537708,9.189652658644318,1.0467397343493998
1757686783817514000,2.3193867187499997,0.0312284976243972,1.673172116279602,1.0805727243423462,-6.156820501995086,-13.564314434301853,-0.4532562473110854,3.1845693630367515,9.220785463532804,1.003025022720173
1757686783827468800,2.329341552734377,0.0348780937492847,1.7616617679595947,1.1967800855636597,-6.923999636989832,-12.786063285672665,0.1955916918136179,3.0967186456263063,9.256112212979794,0.9513807602006942
1757686783837422800,2.339295654296876,0.0868501886725425,1.3191087245941162,1.319987416267395,-5.953154370927811,-11.164026732230186,1.1450444796264172,2.9958664078235624,9.293556685233115,0.9082827191650868
1757686783847378000,2.3492507324218757,0.0947536528110504,0.6890895366668701,1.2948496341705322,-5.075132349991798,-8.399049977964163,2.120401962415874,2.8808462361976503,9.331740577676891,0.8886603923935442
1757686783857332000,2.3592048339843767,-0.0601718425750732,0.2815724015235901,0.7928522825241089,-3.448369937071204,-5.058820097616315,2.36560670318231,2.785475352415442,9.361648224684595,0.8780874143224209
1757686783867287000,2.3691599121093763,-0.368433803319931,0.061277586966753,-0.0106697417795658,0.0561155627146363,-2.194175931417942,1.562860141852498,2.74899095736593,9.374687154477837,0.8536375943291932
1757686783877240800,2.3791135253906273,-0.5748878717422485,-0.2073353677988052,-1.1350984573364258,2.678025616043806,0.7869955960988998,0.6952138959150761,2.799609091708064,9.36352161734104,0.8105893837846815
1757686783887196000,2.3890686035156268,-1.1131987571716309,-0.5640002489089966,-2.655264616012573,7.526234878021478,4.283203973665834,-0.4385728382464498,2.97099207880795,9.315712987461684,0.7490710121784359
1757686783897150000,2.399022705078126,-1.7155684232711792,1.08529531955719,-3.811954975128174,13.52884564603567,5.383607932054996,-5.897043192127347,3.280095729641616,9.221619576269388,0.6107954910408705
1757686783907105000,2.4089777832031256,-2.085761785507202,3.782225608825684,-2.7414441108703613,12.458416554671524,2.6299557048797606,-7.641393873596191,3.6042826755777,9.113454385104776,0.3528456888612359
1757686783917059000,2.4189318847656267,-2.0928843021392822,4.714364051818848,-0.1911223828792572,-1.8132620128706096,-3.626208968442678,-4.763711362126469,3.74673066009432,9.06269508872628,-0.0014980668128293
1757686783927014000,2.428886718750002,-1.5299201011657717,4.196994304656982,1.5183924436569214,-17.172834601318836,-9.5049642242074,-0.7607157841995358,3.670734338867664,9.087626116365191,-0.3334343379592522
1757686783936968000,2.4388408203124996,-0.913318395614624,2.736335515975952,2.1643102169036865,-20.807835948026177,-12.664540015763045,6.0289668600201605,3.4799513625100253,9.150899441879988,-0.5668952667769044
1757686783946921700,2.4487944335937506,-0.6046888828277588,1.1499813795089722,0.6494863033294678,-20.17755534672737,-11.490834089797737,12.793914583694932,3.3250676747903225,9.198833743965626,-0.704094390854612
1757686783956877000,2.458749755859376,0.08841273188591,-0.7638015151023865,-0.5253373384475708,-3.039330578757822,-5.368702039346099,16.72272118207812,3.334267172551155,9.192992616721988,-0.7361874190773815
1757686783966830800,2.468703613281253,1.4869648218154907,-0.5382764935493469,0.746976912021637,2.0185306106984613,10.272502255642411,21.582072600317,3.335503144086897,9.199989343741535,-0.6363995225705206
1757686783976786000,2.4786586914062507,1.9113836288452148,-0.4892958402633667,1.6644548177719116,-11.514680244809387,26.67717689423561,16.752012743014095,3.2169761333838105,9.25260975781679,-0.4590216059047728
1757686783986740000,2.488612792968752,1.436038613319397,1.1197022199630735,0.6173028349876404,-2.613999718596041,30.268699164700507,0.8562191352549939,3.10690540085882,9.296379341438412,-0.3079469550792127
1757686783996695000,2.498567871093753,1.0583138465881348,2.398369312286377,0.0485736057162284,7.10574619719386,19.19085433988571,-9.92720296357274,3.0766444103688,9.30807679349482,-0.253690263305325
1757686784006649000,2.5085219726562507,1.3453373908996582,1.6768324375152588,0.3189358413219452,2.165007120078802,7.136087559443712,-8.330964283731578,3.060637278419733,9.31447204748988,-0.2085546885601244
1757686784016604000,2.518476806640626,1.5024607181549072,0.7545342445373535,1.5416452884674072,-1.4835887444779277,0.0666921940475702,-1.4567616739593443,2.9763731873244046,9.34341932503283,-0.1100937480743974
1757686784026558000,2.528430664062501,1.723655104637146,1.1063209772109983,2.904814481735229,-7.647434322804212,-2.36527484087944,1.988866417057812,2.7667051854938265,9.408267937040328,0.0149307577220955
1757686784036512800,2.5383854980468765,2.0598387718200684,1.7440872192382812,3.8094539642333984,-10.228896922671794,-2.893728806385398,3.8172435814738273,2.4495368861481546,9.494543367958068,0.1542879320499487
1757686784046466800,2.548339599609376,2.6098220348358154,2.1426172256469727,4.538045406341553,-7.323700965854525,-1.2288584888666867,4.065351496335864,2.058104057804495,9.582529109925032,0.3313008695945143
1757686784056422000,2.558294677734377,3.149993658065796,2.538515329360962,5.057864665985107,-5.015753109306097,3.256981688296795,3.842531167465448,1.6055122657515108,9.657792148441075,0.5654935467528179
1757686784066376000,2.5682487792968764,3.4228086471557617,2.132375955581665,5.107508659362793,-3.711385498207808,9.635150108522176,1.5658808048479258,1.1320821952659637,9.703864163786172,0.8507665689375251
1757686784076329500,2.5782023925781257,2.640442132949829,0.62934410572052,5.1720499992370605,-1.3784068069078028,20.99763488178253,-3.64659913778156,0.6454810930401086,9.718625679588316,1.1410666620366274
1757686784086284500,2.588157226562501,0.8744643926620483,0.1058143004775047,4.314635753631592,6.48643356463313,33.07075448051691,-13.08935883474946,0.1871037033230066,9.716771576154231,1.3113833350792523
1757686784096238600,2.598111328125002,-0.2354573309421539,-0.05495535582304,3.550546884536743,14.247220710372924,25.226356154632565,-22.41431720494032,-0.1908635307805612,9.713726217108963,1.3332213651388882
1757686784106193700,2.60806640625,-0.0925427824258804,0.2598848640918731,3.161179542541504,11.192782871115208,9.33560192928016,-18.04782412269116,-0.5131462505305185,9.704885908049343,1.3123548104599116
1757686784116147500,2.618020263671877,0.3870643079280853,0.480720579624176,2.55835485458374,7.526432446420192,3.5175790823757644,-8.75731922624409,-0.786156295730546,9.684198509329557,1.3299068337634206
1757686784126102500,2.6279753417968763,0.6366104483604431,0.1525222063064575,1.885122776031494,10.076809003150462,1.1634423061043024,-5.332153639149666,-0.9941054378792644,9.657602178826927,1.383067930586636
1757686784136056600,2.6379294433593756,0.8488860726356506,-0.1495027095079422,1.4355404376983645,10.84292080117464,0.434175260874629,-2.566258308734,-1.152390385409817,9.629551557862758,1.4540019999876617
1757686784146011600,2.647884521484377,1.0789400339126587,-0.1208830550312995,1.0965626239776611,8.645382115325331,0.2819406263589858,0.2720087226703763,-1.2757298378959296,9.599827450728416,1.544741424576938
1757686784155965400,2.657838134765626,1.1205006837844849,0.008165662176907,0.911346971988678,6.867673354133963,-0.1614689113289117,1.8480851967096328,-1.3705863424152136,9.569035422101615,1.650890745874494
1757686784165920500,2.6677932128906257,0.91741544008255,-0.259645015001297,0.9716816544532776,4.881670217552781,-1.04386257147789,1.022449634962529,-1.4609547417350113,9.538490061712263,1.747342556761205
1757686784175874600,2.6777473144531267,0.7349053025245667,-1.0112833976745603,0.8355070352554321,3.6224089916378257,-2.867441103440523,-0.4459564456917345,-1.5602533203549682,9.510003387418388,1.815439649170637
1757686784185829600,2.6877023925781263,0.6040282249450684,-1.355998158454895,0.2831155359745025,5.946449904853105,-5.310744355896115,-0.2667217221781611,-1.6382336550056933,9.488476030743122,1.8588658261820672
1757686784195783700,2.6976564941406256,0.5398675799369812,-0.7758764624595642,-0.4463083148002624,8.43846428898573,-7.880572632071376,-1.219254794219136,-1.650753090969473,9.479300206118822,1.8942700247794388
1757686784205737500,2.7076103515625007,0.3862530291080475,-0.0975477695465087,-0.9557246565818788,7.178637245881557,-8.73462457935512,-3.786701728215813,-1.5902714419998227,9.4819141880095,1.9325418877676128
1757686784215692500,2.717565429687502,0.0257886629551649,0.0260552838444709,-1.0146620273590088,3.878382233047485,-8.581714237535,-6.20437135772109,-1.4942062923431396,9.493306519639493,1.953166742645204
1757686784225646600,2.727519287109377,-0.4695742130279541,-0.3763275742530823,-0.9006092548370361,-0.0815934105813503,-8.288284833434224,-7.511509602576494,-1.40730089295879,9.511272968962787,1.930176473810524
1757686784235601700,2.7374743652343767,-0.956074357032776,-0.7216055393218994,-1.0019375085830688,-1.3850937373258172,-8.584690038475394,-7.876504944241047,-1.3290335580602288,9.53758346826136,1.8543401654511689
1757686784245555700,2.747428466796876,-1.2668626308441162,-0.9780074954032898,-1.2587369680404663,0.6147767426967621,-9.512731935599446,-7.392676302403211,-1.2369698991298674,9.572138064292073,1.7362253888107837
1757686784255510500,2.757383300781253,-1.2900173664093018,-1.1891252994537354,-1.5746116638183594,2.480840079167485,-10.589619409322738,-5.702381036248803,-1.117641435850784,9.61083925860822,1.5978217112489044
1757686784265464600,2.7673374023437507,-1.041939616203308,-1.1770750284194946,-1.8449240922927856,3.201758398246765,-11.488106710660457,-2.7609406306177378,-0.9717089702192694,9.64666694331467,1.4724113707728683
1757686784275419400,2.777292236328126,-0.7723554372787476,-1.0501435995101929,-2.1152665615081787,2.6348253567427395,-11.166152053821088,0.0668619976565241,-0.7965272484235465,9.676959205725788,1.3756445025876165
1757686784285373400,2.787246337890627,-0.6128344535827637,-0.7513143420219421,-2.276603937149048,1.7390666035860776,-10.653856026911734,0.78790438150689,-0.5959849484652281,9.701414432546496,1.302981855828315
1757686784295328500,2.7972014160156267,-0.529923677444458,-0.4594811201095581,-2.311527967453003,0.6277548822134733,-10.210917029345037,0.523234769552946,-0.38115229388047,9.719805829283594,1.245182431679964
1757686784305282600,2.8071552734375,-0.5255070924758911,-0.1955448240041732,-2.303660154342652,-0.3842044845253229,-10.251334379929304,0.6244576672989874,-0.1618231498603708,9.732391170090436,1.1936392183821647
1757686784315237600,2.8171103515625013,-0.5919656753540039,0.0426511988043785,-2.370506048202514,-1.0215876113057136,-10.372815564262869,0.9928206587657332,0.0633081913321977,9.739997553440928,1.1396649785451591
1757686784325191400,2.8270642089843765,-0.6975637674331665,0.108507715165615,-2.5501766204833984,-1.2543629324793817,-9.99777696748972,1.398857766523212,0.3020692404185421,9.74264251499176,1.077045806090161
1757686784335145500,2.837018310546876,-0.7209711670875549,-0.0013771904632449,-2.941325187683105,-1.4233376893937586,-8.641582723042369,1.5252752382151782,0.5671115398760884,9.7382761364758,1.0073410592883825
1757686784345100500,2.846973388671877,-0.6036090850830078,0.158340036869049,-3.731504440307617,-1.2239268776834011,-6.334084363827109,2.1996714600943026,0.8881400217812507,9.720831665199997,0.9418204663034528
1757686784355054600,2.8569274902343764,-0.4878998100757599,0.5695871114730835,-4.859364986419678,-0.705668873629719,-1.52753280788362,4.612787810209393,1.3043690724030137,9.679040103653072,0.8860947066240012
1757686784365009700,2.866882568359376,-0.7266239523887634,0.1794806271791458,-5.691525936126709,-2.428182401821762,8.482110538488627,7.789064561197161,1.8181098912931977,9.6014436537534,0.8228785181239247
1757686784374963500,2.876836181640627,-0.5627424716949463,-2.291963815689087,-5.993778228759766,-3.453625373381376,19.90087074120045,6.322815950837731,2.3730922366321083,9.483615731230378,0.7744954493574797
1757686784384918500,2.8867912597656264,-0.1724996268749237,-5.0196051597595215,-4.670366287231445,4.2618622026905415,32.46790899863243,5.115593539717793,2.8450261502757668,9.346820657908916,0.8444719257727265
1757686784394872600,2.8967453613281258,-0.051527302712202,-2.3333499431610107,-3.593457698822021,9.224101456212995,42.17383418660164,2.5747835604950784,3.193574507269263,9.223089648821947,0.9518754118498414
1757686784404827600,2.906700439453127,-0.4392012655735016,0.5918307304382324,-2.5559685230255127,8.281868536651134,30.78445789928436,1.1819561601772903,3.467526765222847,9.12314341994822,0.9565150543492288
1757686784414781700,2.9166545410156264,-1.174932599067688,1.1658506393432615,-1.9076635837554927,6.512885518229007,17.68290359982848,-0.8134075830105691,3.6759392140343774,9.051948653784391,0.8485722737636416
1757686784424736500,2.926609375,-1.428974151611328,0.744277834892273,-1.6202837228775024,5.565099640715122,14.397424131321904,-4.613633321122825,3.8399230307936665,8.99721753116548,0.6895368731919675
1757686784434690600,2.936563476562501,-1.149627685546875,-0.4083722233772278,-1.6970829963684082,3.951274450778961,13.98739371614456,-1.709310055486858,3.9880478919029234,8.941276448234916,0.5651810467375442
1757686784444645600,2.9465185546875023,-1.0168709754943848,-1.903307557106018,-1.8650038242340088,4.208501783902943,11.957699906396863,1.3255878015205262,4.139629615467786,8.874995757597684,0.5179472576040774
1757686784454599700,2.9564724121093757,-1.0485844612121582,-2.781228542327881,-1.8237868547439573,3.754540749323368,8.254737953141332,-0.5020737254394219,4.292371030461788,8.801554673811793,0.5278114298187196
1757686784464553500,2.966426269531251,-1.100675344467163,-3.171222925186157,-1.389636754989624,2.3965932314679024,4.909094815573096,-1.7944829319901765,4.417903243751824,8.73695623717308,0.5640129528062418
1757686784474508500,2.976381347656252,-1.1302719116210938,-3.2318708896636963,-0.8113267421722412,0.1609805432900786,4.1133559410482645,-1.988091194901616,4.494992913173139,8.694425255435705,0.6102280664164572
1757686784484462600,2.9863354492187533,-1.0831875801086426,-3.0400314331054688,-0.2102089822292328,-1.5527993510872125,3.2993905049592254,-1.985082514604926,4.518766879731416,8.678801569846271,0.6554029867913573
1757686784494417700,2.996290527343753,-1.0425540208816528,-2.435159683227539,0.3595309257507324,-2.512257546216249,1.77639943215847,-1.1573984958954155,4.494656228564679,8.688805661988258,0.6878357683625071
1757686784504371700,3.006244628906252,-0.9903683066368104,-1.896964311599732,0.9530685544013976,-2.842725764378905,-0.1432610544651746,-0.5942598782382905,4.422300601927936,8.725277489817142,0.6951157693028449
1757686784514326500,3.0161992187499997,-0.8721409440040588,-1.4611523151397705,1.3259494304656982,-2.928154515339434,-1.9332284087270497,0.8355755756769329,4.3102071314036845,8.781841673082113,0.6868372588444501
1757686784524280600,3.026153320312501,-0.6992650032043457,-0.9890084266662598,1.4778268337249756,-2.9662492681950328,-5.10957530234158,2.034242997484654,4.178163928784429,8.846773287197948,0.669259443512559
1757686784534235400,3.036108154296876,-0.4617002606391907,-0.6670573949813843,1.5080907344818115,-3.2940479748874902,-8.399042963701486,1.96069976849854,4.040140774972737,8.911998915824293,0.6510748213939368
1757686784544189400,3.0460622558593773,-0.2620726227760315,-0.36897674202919,1.4520951509475708,-3.841624574014544,-10.60546462870836,1.6956183608733115,3.9047707660183306,8.97291720264554,0.6402244876861571
1757686784554144500,3.056017333984377,-0.050789076834917,-0.0330410227179527,1.331427812576294,-4.429030202443897,-12.14420915095806,0.9769488436341284,3.778256263692677,9.027407502245902,0.633301337359473
1757686784564098600,3.065971435546876,0.2201745212078094,0.4236610233783722,1.1783418655395508,-4.378671011298895,-13.40207921477556,0.5011469294507056,3.66669529260993,9.073212975609302,0.6344527724169194
1757686784574053600,3.0759265136718756,0.2928950786590576,0.9251992702484132,1.0958411693572998,-4.030801868741214,-13.986792827641963,0.5418202275574207,3.568571602988243,9.112200001129509,0.6352292366821318
1757686784584007400,3.0858801269531266,0.2314183861017227,1.4886882305145264,1.089107871055603,-4.451057909856736,-14.36673673211336,0.23527970521003,3.477216676849127,9.148725020450351,0.6166073191247881
1757686784593961500,3.095834228515626,0.1812067478895187,1.9651925563812256,1.1610952615737915,-5.325223547625542,-15.163416686880588,0.5331750392111018,3.385919910638034,9.18554580784738,0.5759389529215172
1757686784603916500,3.1057893066406272,0.0737079828977584,2.12812614440918,1.321829319000244,-6.2600260249257085,-15.129893187463283,0.7581769133716821,3.2837337938830253,9.22594094659984,0.5191297088542953
1757686784613870600,3.1157434082031266,0.0335760116577148,2.187028408050537,1.4184468984603882,-6.844428672146797,-13.378609491860866,0.2235265043783932,3.167681356599927,9.269857829737663,0.4537331075752154
1757686784623825700,3.125698486328126,0.0098688183352351,1.886324167251587,1.3254724740982056,-6.283508607321977,-11.123264513731002,0.7852576663903892,3.048642596982419,9.312499870634078,0.391791688251309
1757686784633779500,3.1356523437500012,-0.0200319178402423,1.2032474279403689,1.1042921543121338,-4.34884958126992,-8.994818068808316,1.1318152879580854,2.940610676808656,9.34901144595146,0.3452575718197971
1757686784643734500,3.1456074218750008,-0.1712683141231537,0.4648572206497192,0.6008434295654297,-2.317861055536568,-6.261547535404563,1.670089659602195,2.8616435230776665,9.374607074978949,0.3132071040971204
1757686784653688600,3.155561279296876,-0.2907732129096985,-0.0415825843811035,-0.2413274496793747,0.9484373271599412,-3.999017029684782,1.2157481012724338,2.8444273075997826,9.38073403342664,0.28541643097708
1757686784663643600,3.165516357421877,-0.5130185484886169,-0.4482153356075287,-1.193814754486084,4.760898935054242,-0.5541244133353233,0.9499863101676106,2.9098242011398074,9.361493326383828,0.2563920330773107
1757686784673597700,3.1754704589843765,-1.094662070274353,-0.7601653933525085,-2.1033496856689453,8.812830685585737,4.55993943259716,-1.1621293238095938,3.064654405106604,9.31326267170012,0.2035508341245353
1757686784683552500,3.185425292968752,-1.7482107877731323,0.5384086966514587,-2.1111717224121094,12.385649424624445,5.889471295568347,-6.179122350174188,3.263002848282456,9.247569425562023,0.0752546725464984
1757686784693506600,3.195379394531253,-1.965564250946045,1.6688224077224731,-2.300367593765259,7.315774264508486,1.271208268818259,-7.807506226816772,3.462771971911192,9.17394480190277,-0.1354073178906459
1757686784703461600,3.2053344726562507,-2.0522170066833496,3.041025161743164,-1.847531795501709,4.832691374850273,-2.805992655265331,-4.954733115676045,3.654753510403633,9.091370563590528,-0.4001978802099823
1757686784713415700,3.215288574218752,-1.9071179628372192,3.4319305419921875,0.1770333051681518,-4.76001776830554,-3.993009898224473,-2.8459157925918697,3.71584686153084,9.047918375355003,-0.7057328057114034
1757686784723369500,3.225242187500001,-1.396134614944458,2.094866991043091,1.874451994895935,-20.77863791059256,-5.860939028567075,1.8624866470277308,3.595002513796091,9.073358521559834,-0.9594236352723092
1757686784733324500,3.2351972656250023,-0.88621985912323,1.1245293617248535,1.895849704742432,-24.321436774420736,-9.104879448983072,8.47646990225315,3.3958149894475933,9.13211349286735,-1.115048058356717
1757686784743278600,3.2451513671875,-0.4130983650684356,0.5171347856521606,0.4668760597705841,-15.20274448866248,-7.702424388620257,13.607987571811677,3.277524417848885,9.163932526454328,-1.2043765201695262
1757686784753233700,3.255106445312501,0.6554869413375854,-0.2228202521800995,0.4637039303779602,0.7402478734493255,1.1948580195873977,15.437131921207904,3.243853326654434,9.176225606316327,-1.2019564534157514
1757686784763187700,3.2650605468750022,1.3694449663162231,-0.2786305248737335,0.6272516250610352,-2.133458135604858,11.474557493257524,16.587521268993616,3.187506001010537,9.20999752753675,-1.0891059539791197
1757686784773142500,3.275015380859376,1.4045743942260742,0.9625954627990724,-0.4743785560131073,2.592700325457752,16.42764401077032,8.443817340451478,3.1812127460852264,9.22502909245193,-0.9742075821019708
1757686784783096600,3.284969482421877,1.5918076038360596,1.7516833543777466,0.3192881643772125,13.732021947759389,16.88280419200659,-0.9789408942341804,3.1872026341497897,9.232099469229578,-0.8834487221598625
1757686784793051400,3.2949243164062523,1.6890225410461426,1.8461519479751587,1.4767866134643557,-5.157574486356974,9.288713336855173,-2.205356958384812,3.084794691337645,9.275628229832648,-0.7855995386306196
1757686784803005400,3.3048781738281257,1.6958492994308472,2.270226001739502,2.152751207351685,-13.386534439641236,1.17838560821414,-0.7221816900786012,2.900530010832846,9.342334452405572,-0.691444533444196
1757686784812960500,3.314833251953127,1.9816268682479856,2.168418407440185,2.4864628314971924,-8.678250365704297,-0.9382757063686848,1.7191946129024027,2.6668586176022884,9.41898631493151,-0.5838941497096791
1757686784822914600,3.3247873535156263,2.467535257339477,1.8036919832229608,2.534798383712769,-5.346947888177633,-1.4828256511509417,3.377115257413685,2.420634324529767,9.493675937473771,-0.4255136328501626
1757686784832869600,3.334742431640626,2.9629838466644287,1.536177635192871,2.885307550430298,-3.4939337106332182,-0.0638864889770746,3.665573010581732,2.1612619422011075,9.563331657502054,-0.205053804299701
1757686784842823400,3.344696289062501,3.206822156906128,1.4011926651000977,3.749094724655152,-4.180274637328088,3.072303166294098,3.399193525969982,1.8457785272024567,9.631182373934983,0.0619242033276241
1757686784852778800,3.3546516113281264,3.112388134002685,1.1883816719055176,4.789802074432373,-5.164266092950105,7.173325695469975,1.1660134717665611,1.4372428806275128,9.694573188349604,0.3463737163681537
1757686784862732500,3.3646054687499998,2.600295305252075,1.3091241121292114,5.407266616821289,-4.799931261020898,14.4845693308115,-3.42174554951787,0.9448170908361672,9.741759302416444,0.6130475808165967
1757686784872686600,3.3745593261718767,1.3211772441864014,2.443937301635742,5.0809102058410645,-0.4084195093819871,28.16444374270439,-11.522462569248676,0.4437338377388194,9.764347566321492,0.7943434746436774
1757686784882641700,3.3845144042968762,0.0201753471046686,2.1388278007507324,4.486855030059815,8.694819223189354,33.400733453857896,-19.873760615956783,0.0003225434170835,9.769714646312591,0.8503319769125431
1757686784892595500,3.394468261718753,-0.3493276536464691,0.5720903873443604,4.125877857208252,11.966629062783715,20.252614971625803,-21.201509102642536,-0.4065263160465285,9.763041744419931,0.8295456478629261
1757686784902550500,3.404423339843751,0.0177465006709098,-0.1102950945496559,3.638028860092163,11.178791755163669,8.064204859891534,-13.958120859909055,-0.7845143006771802,9.741323249086737,0.8133554874971508
1757686784912504600,3.414377441406252,0.2783072292804718,0.1572136580944061,2.981924533843994,10.238713383287193,3.60712608231008,-7.37123136331439,-1.1042357916370034,9.708974054145813,0.828775905599445
1757686784922459600,3.4243325195312533,0.5262680053710938,0.2111605107784271,2.4688820838928223,9.912725525408982,1.58678403827548,-4.563772727149725,-1.3645276268981397,9.672249712860584,0.8695196385938674
1757686784932413700,3.4342863769531267,0.7254007458686829,0.1441829800605774,2.1150946617126465,9.790115044784546,0.2931564323782921,-1.565756447815895,-1.5824926246918738,9.63305401302576,0.93293894845061
1757686784942368500,3.444241210937502,0.8369712233543396,0.2392953783273697,1.946482539176941,9.431470533451437,-0.2715986805647611,0.3485360089685768,-1.7737663071759044,9.591775661697984,1.0109214019931851
1757686784952322600,3.4541953125000013,0.8428738713264465,0.1490165144205093,1.8666627407073968,7.96958128734529,-0.6520306608140468,1.7535165692210195,-1.9531021529763937,9.547537291520833,1.095583479430154
1757686784962277600,3.464150390625001,0.7849112153053284,-0.1435743421316146,1.753495454788208,7.452682150554656,-1.640356638509035,2.8853587451860307,-2.1251346900261936,9.501419098946451,1.1735614759933202
1757686784972231700,3.4741044921875,0.6348770260810852,-0.7975159287452698,1.4285149574279783,6.684380149009823,-1.8942256011158227,3.308793124076724,-2.2827900344163177,9.457508061027529,1.2307625689223407
1757686784982186500,3.4840593261718773,0.5223248600959778,-1.1881619691848757,0.8056091070175171,6.412973776146769,-3.078431293785572,1.657548011806607,-2.4014887484245,9.424112571904065,1.260684536716342
1757686784992140500,3.4940134277343766,0.3543333709239959,-0.8386868834495544,0.0840754210948944,7.851445321786403,-6.678187139588594,-0.4368203685559332,-2.456859776382148,9.407725500726698,1.2762870333872736
1757686785002095400,3.503968261718752,0.1629173457622528,-0.3844738602638244,-0.5440204739570618,8.037347832626104,-9.020151247507334,-4.0396629283279175,-2.441649786160141,9.410256480509045,1.2867800780899823
1757686785012049700,3.513922363281253,-0.187265545129776,-0.2110639661550521,-0.901897668838501,6.206070562854409,-8.685933321422338,-6.025314767253398,-2.375497690338641,9.428135251548886,1.279707509355247
1757686785022003700,3.5238764648437506,-0.669737696647644,-0.4065085649490356,-1.0125123262405396,2.7004776863485573,-8.570659759557246,-5.673813113412261,-2.287926812782884,9.45591582340002,1.2334670055754482
1757686785031958500,3.533831298828126,-1.1378790140151978,-0.8455730080604553,-1.115289330482483,-0.0951512496821582,-8.660260535505413,-5.617795458114147,-2.195650972406566,9.490299739038944,1.1330067627649754
1757686785041912600,3.543785400390627,-1.44825279712677,-1.3952471017837524,-1.377930998802185,0.3193400904268026,-9.379827439975738,-4.976540458336472,-2.087907075393945,9.531111057376862,0.9843587545644492
1757686785051867400,3.5537402343750006,-1.5529896020889282,-1.6870975494384766,-1.7434821128845217,2.351766832269728,-10.32584806138277,-3.723573948651552,-1.9538808822639289,9.576015782508254,0.807885239392519
1757686785061821400,3.5636943359375,-1.3391056060791016,-1.517805099487305,-2.0920746326446533,4.584672891837358,-11.114628787332771,-1.5486533373236655,-1.7810627477943897,9.62244260264039,0.6378093163032085
1757686785071776500,3.5736494140625013,-1.0598169565200806,-1.3389134407043457,-2.2323246002197266,5.107201558947563,-10.568165117883682,1.6851375911302864,-1.580392875933647,9.665551092004776,0.4998706624371931
1757686785081730600,3.5836032714843764,-0.9715779423713684,-1.4283589124679563,-2.3740715980529785,3.5619372795403,-9.686482236352562,2.728620077249408,-1.364808197405189,9.703690560784937,0.3821960673123598
1757686785091686000,3.59355859375,-0.91415673494339,-1.3379749059677124,-2.5432562828063965,2.414818331727385,-8.88740574183762,1.569186422264576,-1.1312268936108798,9.737347331193089,0.273451066965796
1757686785101639700,3.603512451171877,-0.8607174754142761,-1.0618252754211426,-2.6449954509735107,0.9927501508127896,-8.419236441424488,1.1161605496432632,-0.8815696304149925,9.76537749389112,0.1750624062649905
1757686785111594800,3.6134675292968765,-0.7716920375823975,-0.6761019229888916,-2.73150372505188,-0.3691664898693561,-7.887498631942272,1.2380806368507444,-0.6212845902208238,9.786549461257458,0.0886064494148828
1757686785121548500,3.6234213867187517,-0.5371983051300049,-0.1620143353939056,-2.8795711994171143,-1.153586682522297,-6.670918025368452,1.9108249998696147,-0.3483261290775611,9.8004382858783,0.0211460269241943
1757686785131503600,3.633376464843753,-0.0707686319947242,0.8490127921104431,-3.216161012649536,-1.7381600101351735,-4.4000931540340185,3.6544507280647753,-0.0536008582136593,9.80649919335246,-0.0086800530220789
1757686785141458000,3.6433308105468765,-0.6010509133338928,2.059307098388672,-4.062921047210693,-1.873167030996084,0.9679887075871229,7.01378395281136,0.2994285349177196,9.802028185418248,-0.0310948269486776
1757686785151412700,3.653285644531252,-2.106941699981689,1.9309934377670288,-5.362075805664063,-1.5332219594359398,9.709010294502972,7.640977109488844,0.757201273272559,9.775752172911169,-0.1781007145149633
1757686785161366800,3.663239501953127,-1.8110682964324951,-0.1007724031805992,-5.928641319274902,0.2383550210021436,20.45902134131193,9.869267491954565,1.3096462821535766,9.710910575166343,-0.3916708018179983
1757686785171320600,3.673193359375002,0.2253339737653732,-2.205221652984619,-5.060393333435059,4.181688303518295,30.756625304985043,18.87092680495977,1.8527477816931903,9.619490182575582,-0.4506870909428224
1757686785181275600,3.6831484375,1.1189073324203491,-2.4433047771453857,-4.0483927726745605,1.617284682740271,36.37947337031364,24.093555070507524,2.288556196727604,9.530392679974437,-0.3233220362024381
1757686785191229700,3.693102539062501,0.5291260480880737,-0.5749398469924927,-4.244025230407715,2.871040881498158,27.81351082866192,13.714700226080415,2.683207402595877,9.430241868439316,-0.2033227792560122
1757686785201184800,3.7030576171875023,-0.1696887463331222,1.4414112567901611,-3.841094255447388,10.383405931860208,16.889187171041964,0.1675847455943934,3.064975015363097,9.313256241959332,-0.1990085510523989
1757686785211138800,3.71301171875,-1.3268635272979736,2.0469839572906494,-2.987532377243042,7.354850721877812,15.62951210362911,-4.54261420378685,3.3752126386627554,9.201652893039585,-0.3285387844700366
1757686785221093600,3.722966552734377,-1.6530771255493164,1.178404688835144,-2.345150947570801,3.999752065961063,16.845419340986012,-10.524808791238067,3.60887117241174,9.103086720347404,-0.5293697286440059
1757686785231047700,3.732920410156252,-1.1060131788253784,-0.1279478520154953,-2.237086296081543,4.414196790449321,16.169847645586728,-6.598286504399776,3.809885912187397,9.01116831510663,-0.6738014708563685
1757686785241002800,3.7428754882812516,-0.9849075078964232,-1.1066741943359375,-2.172032356262207,5.165863006752729,11.619233675217629,-2.642802911493182,4.012608624924719,8.917628446143866,-0.7384081638667732
1757686785250956800,3.752829589843751,-1.2665152549743652,-2.363032102584839,-1.793638825416565,2.7144655874297023,5.341924507057667,-6.5397402074068784,4.203429887466132,8.82696033322513,-0.7657173188138753
1757686785260911600,3.7627844238281263,-1.6388403177261353,-3.663641452789306,-1.0408481359481812,-0.9057277739852666,2.6246108367204664,-8.53730752505362,4.35113301603198,8.75517812256217,-0.7647642558727413
1757686785270865700,3.7727385253906256,-1.6531736850738523,-4.843151569366455,-0.4100818634033203,-4.2326594890818,3.078243077737093,-8.929382012301684,4.443947201068699,8.71200124413669,-0.7229916912872344
1757686785280820700,3.782693603515627,-1.008978247642517,-4.477970123291016,-0.1372380703687667,-4.540724736778438,2.388435936236381,-5.500982265591621,4.499124898411333,8.691029767778515,-0.6278746361356228
1757686785290774500,3.792647216796876,-0.526736855506897,-3.286090135574341,0.0641395226120948,-5.013066062179208,-1.1407400604307651,0.3508493639448657,4.5242011797398325,8.685319573438168,-0.5169471771834417
1757686785300729900,3.8026025390625,-0.4254307448863983,-2.299156427383423,0.2347445487976074,-5.916307280045747,-5.714287162619829,2.229433999542892,4.524973333156108,8.689531638175248,-0.4324361255897209
1757686785310683600,3.8125563964843767,-0.3313806354999542,-1.602128505706787,0.5724863409996033,-6.512897208666801,-8.81711464651525,3.863331378909945,4.498475202330947,8.705784269317984,-0.3787204636236652
1757686785320637700,3.822510498046876,-0.17159204185009,-0.9692680835723876,0.8955656290054321,-7.028555990007519,-10.525703109729289,5.501317196634411,4.439076380161941,8.737682797881961,-0.3433090315679088
1757686785330592500,3.832465332031253,0.0435975268483161,-0.2016310840845108,1.1657787561416626,-7.367777423468231,-11.498829180204869,5.538031601047516,4.350784348724782,8.782758787927031,-0.3228619078774005
1757686785340546600,3.8424194335937507,0.2171205729246139,0.500747561454773,1.3280608654022217,-7.159592938193678,-12.983171081137655,5.090885799440741,4.240163873362541,8.83686447212398,-0.3181942813925444
1757686785350502000,3.852374755859376,0.3550640940666199,1.0588033199310305,1.3959636688232422,-6.266317234024405,-14.41155319443941,3.899508023184538,4.1172228456094855,8.894564965942502,-0.3249648715060204
1757686785360455700,3.862328369140627,0.3885208368301391,1.62726891040802,1.3765133619308472,-5.830407112181186,-14.893606058776378,2.924722495064139,3.989565018467605,8.951796088683604,-0.3451197707843035
1757686785370410800,3.8722834472656267,0.3090638816356659,2.380075454711914,1.4435323476791382,-5.96251724255681,-15.1908073826313,2.508402332092821,3.8571167421787975,9.007782179799676,-0.3910302023595198
1757686785380364500,3.8822373046875,0.2041039168834686,3.043899774551392,1.6255944967269895,-7.360470899847149,-15.718405023568868,2.710536431287229,3.707816407549381,9.066413816988469,-0.4718081318395212
1757686785390319600,3.8921923828125014,0.0326203517615795,3.0806541442871094,1.886735320091248,-8.555678463524579,-16.09218923636675,3.149169256092608,3.5339898266896603,9.129849639588594,-0.5719606969403103
1757686785400274000,3.9021467285156266,-0.157487004995346,2.8862669467926025,2.1188368797302246,-8.491497960036993,-15.157765529251098,2.881488333493471,3.3322923653468486,9.197999631229042,-0.6804687467258423
1757686785410228700,3.9121015625,-0.2225216776132583,2.5723345279693604,2.1680126190185547,-7.056550496870279,-12.808235369992255,2.599141756682098,3.113748690882325,9.265863207143544,-0.7865814623400569
1757686785420182800,3.9220556640625013,-0.1723168194293975,2.05572509765625,1.8828569650650024,-4.292639910531044,-10.111374120575189,2.5575974478945134,2.904750843398273,9.32562706323266,-0.8749226666811853
1757686785430137600,3.9320104980468766,-0.1912313997745514,1.5353866815567017,1.235527753829956,-0.7699895162403583,-7.339383103632927,2.3364824616372584,2.7413158926934003,9.368618648219108,-0.940513256162405
1757686785440091600,3.941964355468752,-0.3615844845771789,1.4650065898895264,0.1529833525419235,2.635436766639352,-4.532717663672567,1.1135686334539203,2.6603873757615686,9.385164124828576,-1.005679775012657
1757686785450046700,3.951919433593753,-0.5948323607444763,1.3834201097488403,-1.0544062852859497,6.5482046688914295,-0.8997259032219648,-0.1904842126067727,2.6875772882431743,9.368166228276491,-1.0884683136627078
1757686785460000800,3.9618735351562506,-0.9264787435531616,0.8251305818557739,-1.988122820854187,10.000803621834516,4.123074201986193,-0.9896792920000852,2.8201459760412573,9.316925285860895,-1.1882959576580672
1757686785469954800,3.9718276367187517,-1.2840697765350342,1.359167218208313,-2.140978574752808,12.515782701969146,6.940921545696258,-2.409060937244445,3.001486293531954,9.242084272149205,-1.3211049570180475
1757686785479909600,3.981782470703127,-1.4589064121246338,2.066335201263428,-2.3575310707092285,8.101031492507458,3.0785189720690247,-3.56324427048564,3.180895058438182,9.154204913166163,-1.500941007425636
1757686785489863700,3.9917365722656264,-1.5126584768295288,3.4607994556427,-1.883224368095398,4.688643261660635,-0.8017576964229345,-2.504486619953811,3.341509983286261,9.057415102496742,-1.72277583239004
1757686785499818500,4.00169140625,-1.3105112314224243,4.495142936706543,0.1899690926074981,-5.133515565377474,-1.12109252615273,-1.1998640111811458,3.3441488073572514,9.001308015349506,-1.990858467657864
1757686785509772800,4.011645507812501,-0.4607326090335846,3.743540048599243,2.078275203704834,-22.14217316545248,-2.6930530893057583,1.845933279372752,3.150767046678066,9.02003083599806,-2.2095528026394544
1757686785519727600,4.021600341796876,0.7006540894508362,2.8976547718048096,2.0704286098480225,-26.77878784145117,-5.473327950468659,10.234996993112564,2.874480208297073,9.089920364782214,-2.2980695827431976
1757686785529681700,4.031554443359376,1.9010447263717647,0.5085200071334839,-0.3326011896133423,-14.086867651331424,-1.5504706158787012,17.228785036599636,2.747778951227665,9.145627638956904,-2.231056632308662
1757686785539636700,4.041509521484377,1.3194446563720703,0.26018026471138,-0.6266613006591797,13.540325655949117,12.00847498486638,19.66757168841362,2.8105747223585844,9.164048261788489,-2.071536078568548
1757686785549590500,4.051463378906252,0.2741010189056396,1.893682718276977,0.8496111631393433,4.989108263486624,25.094964986181257,6.722780314552783,2.780225761324167,9.179230633351208,-2.0451088210225103
1757686785559545900,4.061418701171876,0.8949853181838989,1.8728677034378047,1.2918606996536257,-8.204521093076467,22.237637280476093,-5.82159661373794,2.6305206452861425,9.223669494536518,-2.043206348402053
1757686785569499600,4.071372558593753,1.5002256631851196,2.235523700714112,0.6899994015693665,0.3325119989499449,7.52496354291141,1.6284664403595028,2.4992300145998594,9.27290435782671,-1.9843045159697528
1757686785579454700,4.081327636718752,1.848447322845459,2.230233669281006,0.7803577780723572,1.1187370490677655,0.1473211435109376,1.4151418157175182,2.3934072949081657,9.321744668841362,-1.8833577317513523
1757686785589408500,4.09128125,2.0842528343200684,1.8440693616867063,1.7245283126831057,-6.055840838420391,-2.1017098291665315,2.1123818836979567,2.242625927940756,9.385470414298773,-1.747565405731648
1757686785599363600,4.101236328125001,2.343693256378174,1.291416883468628,2.736116409301758,-8.749130659091472,-2.8456191477328536,3.886530468189716,2.005562846445292,9.46947614671886,-1.573881155952066
1757686785609318000,4.111190673828126,2.791438102722168,1.1570234298706057,3.3471834659576416,-6.864032367283105,-2.397590133550763,3.5109359910994766,1.6977936590857805,9.56328548027277,-1.3533110902264711
1757686785619272700,4.1211455078125,3.313586711883545,1.4696598052978516,3.801599502563477,-4.343054923516512,0.023527006059885,3.3718145206570624,1.3401277835264802,9.654285017102955,-1.08131171990633
1757686785629226800,4.131099609375001,3.869044780731201,2.1770033836364746,4.274489879608154,-3.185428025692701,3.840212369129061,3.2258664190649986,0.9341296926051378,9.73296400154233,-0.753105163065344
1757686785639181600,4.141054443359376,3.988247871398926,3.289443016052246,4.5786213874816895,-3.072063512319326,8.887845886820553,1.8534338642612096,0.4866254329495131,9.786926477876303,-0.3868355636812746
1757686785649135600,4.151008300781253,3.5136446952819824,3.2378387451171875,5.105367183685303,-1.3812100277602672,17.818282376611233,-3.67733446778506,0.0093323908674123,9.80661492868662,-0.0246996802681824
1757686785659089700,4.160962402343751,2.1988487243652344,2.573671579360962,5.166870594024658,2.4604268212139604,30.91553108782768,-11.95375555268526,-0.4953856259776279,9.7905370695889,0.2652628834056668
1757686785669044700,4.170917480468752,0.530636191368103,1.546360969543457,4.1784844398498535,9.104665513971447,30.007417880010603,-20.30142021132708,-0.9452264022894205,9.752340317663547,0.4108422430168837
1757686785678998800,4.180871582031253,-0.4198590815067291,0.445658415555954,3.071923017501831,15.099222154867649,15.138548787605762,-22.58733100811243,-1.2929082055814562,9.711917706382271,0.4212137071665376
1757686785688953600,4.190826416015627,-0.2659676969051361,0.1749246716499328,2.203951358795166,14.87786137715578,4.53207702768147,-17.579611567658183,-1.5433549386546015,9.676761052805183,0.3856527836374938
1757686785698907600,4.200780517578126,0.2088139802217483,0.4610597491264343,1.8399752378463743,12.103055302792788,1.7177426605284214,-9.320938028633591,-1.733917404129356,9.644240008428692,0.3905655805224552
1757686785708862700,4.210735595703126,0.2696906924247741,0.4655823111534118,1.7810850143432615,9.097337947562336,0.1870312226086855,-4.172598695872724,-1.9050063767187293,9.610490883561967,0.4240272667499259
1757686785718816800,4.220689453125001,0.2690416574478149,0.2405760884284973,1.662846326828003,7.858042235833406,-0.8985714724898338,-1.299474578359723,-2.0685634924985465,9.575158288896084,0.4558177318295464
1757686785728771600,4.230644287109376,0.398694783449173,0.2353062927722931,1.5107734203338623,8.963021247053145,-1.481118847233057,2.7271555576547977,-2.2181062575817108,9.539851997715234,0.4915491896199062
1757686785738725600,4.240598388671877,0.5087078213691711,0.1849717497825622,1.467912197113037,7.619599974939226,-2.0309160450190307,6.221349965050816,-2.3575936387270686,9.503667754656076,0.5407736411139369
1757686785748680700,4.250553466796877,0.5102956891059875,-0.1110390722751617,1.3353917598724363,4.547942120811343,-3.2357582830041647,6.705532242631912,-2.491472532340884,9.466518465957044,0.5898997468000278
1757686785758634500,4.260507324218752,0.4658190011978149,-0.5200287103652954,0.7010640501976013,3.263868525201082,-5.142784913504124,4.820375498634577,-2.592145029662549,9.436935228598117,0.6288275529462843
1757686785768589800,4.270462646484377,0.3250747621059418,-0.4365045726299286,-0.013936904259026,5.902684412884712,-8.3350834094882,1.8846525938674807,-2.6256208905458447,9.426091178500652,0.6521537026718258
1757686785778543600,4.280416503906251,0.1084737256169319,-0.1339873224496841,-0.4924989342689514,6.921967838901281,-9.698842536231874,-1.723816865875572,-2.602677821853757,9.431439553791284,0.6666271953128278
1757686785788498700,4.290371582031252,-0.3172877132892608,-0.0792135298252105,-0.7715087532997131,5.299723780187964,-8.986464666482807,-3.97796430478394,-2.542202018103003,9.448695224496722,0.6555603693101555
1757686785798452700,4.300325439453127,-0.7853367328643799,-0.2815325558185577,-0.8880617618560791,3.202023186662793,-8.533535020777583,-5.1926779484421015,-2.464758712938428,9.472959897181392,0.5986540580766275
1757686785808407800,4.310280517578127,-1.139150619506836,-0.5257874727249146,-1.078734278678894,1.6595567212805151,-8.615517722937465,-4.745639698863029,-2.372879616794735,9.502271331861614,0.4966800497023388
1757686785818361900,4.320234619140626,-1.2686798572540283,-0.7317867279052734,-1.4205256700515747,2.069187323485315,-9.440880166831612,-3.8384593879818913,-2.257730850353092,9.536200489470362,0.3659691551327705
1757686785828315600,4.330188476562501,-1.168079137802124,-0.7826926708221436,-1.891689419746399,3.893160992245376,-10.275110392314197,-2.209433414043486,-2.1028969931244847,9.57570598590672,0.232571249968931
1757686785838270700,4.340143554687501,-1.0526050329208374,-0.8304452896118164,-2.3663418292999268,5.783171313753724,-10.119843842756747,0.0839449056109413,-1.8999255663231007,9.620203299281,0.1111824657597113
1757686785848224500,4.350097412109376,-1.0203485488891602,-0.9602105617523192,-2.685105323791504,5.761535820528865,-9.101067781740426,0.951898500464484,-1.656976495528966,9.665650460726022,-0.0039442960585671
1757686785858179600,4.360052490234377,-0.995261013507843,-1.0892596244812012,-2.897096872329712,3.787918702790141,-8.002270089504123,0.5456531567838042,-1.3868338589914142,9.707390584346651,-0.1167917935414705
1757686785868134000,4.3700065917968764,-0.9298179149627686,-1.0948034524917605,-3.055171251296997,2.109747589671612,-7.744801641100644,0.5507938441405072,-1.0962521724719554,9.742613288897276,-0.2238356799254194
1757686785878088700,4.379961425781252,-0.8150556683540344,-1.001746654510498,-3.24330472946167,0.7309581401217728,-7.286491471400857,1.4034524008370934,-0.7881194855622947,9.769726336750388,-0.3188791583841666
1757686785888042800,4.389915527343753,-0.6445225477218628,-0.4980412721633911,-3.568287134170532,-0.6952361808121204,-6.005743805342912,2.6172119586408136,-0.4544294923415407,9.788133515578508,-0.3953928545484319
1757686785897997600,4.3998703613281265,-0.3871397972106933,0.5989683270454407,-4.133326530456543,-2.640460147759318,-3.84299469332397,4.191520253963768,-0.0818966769773978,9.796177705824377,-0.4456421555781736
1757686785907951600,4.409824462890626,-0.8577718138694763,1.4128315448760986,-4.893016815185547,-1.9067711944341657,0.8604524619758128,6.317753991273046,0.3556281957192346,9.78746073088348,-0.4995447184184566
1757686785917906700,4.419779541015627,-1.8113994598388672,0.8885847926139832,-5.613166809082031,-1.4109446562886236,9.169867761722209,7.094915006577968,0.8569863202352076,9.748215931209922,-0.6389503760971128
1757686785927860700,4.429733642578126,-1.5652447938919067,-1.0563448667526243,-6.230081558227539,0.445002505967766,18.66432052878737,6.431238331633806,1.43444638177678,9.66731634811163,-0.809802836516872
1757686785937815600,4.4396884765625,-0.3957091271877289,-1.697750210762024,-5.67088794708252,7.713588172191381,30.23802813210488,9.021775049316885,2.027221428284794,9.55450011627078,-0.8787957087222487
1757686785947769600,4.449642333984377,0.2731954455375671,0.7414594292640686,-4.434812068939209,5.235152231556177,40.55483480889797,13.267516430550812,2.5088933304801584,9.44088425848484,-0.8634573428802191
1757686785957724700,4.459597412109376,-0.1286723911762237,3.2591185569763184,-3.5625667572021484,3.7267385501623154,35.12664188518524,12.458296143162247,2.8619547809839245,9.335627063721418,-0.9086676268294454
1757686785967678700,4.469551513671876,-0.9875611662864684,3.384761571884156,-2.9889419078826904,6.12999445438981,20.192837087011338,4.241436085255444,3.129580174003541,9.232798557409645,-1.0637320779435335
1757686785977633800,4.479506591796877,-1.4777300357818604,1.9979842901229856,-2.583432197570801,6.596176380378007,15.360864674085375,-0.7248999360613525,3.351582172228396,9.128377813470363,-1.268871642564237
1757686785987587600,4.489460449218752,-1.3156427145004272,0.1475342065095901,-2.5602617263793945,5.315103135627508,15.47546603577733,-0.1578340619578957,3.56708516382277,9.021707244777678,-1.4335621462881565
1757686785997541600,4.499414550781253,-0.9521124362945556,-0.7323907613754272,-2.619859218597412,5.0637628147155045,14.128289210522174,2.0932025514535604,3.804808462792635,8.909465013432502,-1.521586612830311
1757686786007496700,4.509369384765627,-0.8205034732818604,-1.3132176399230957,-2.3955512046813965,3.344242623120546,7.729698764514922,0.4507224910497665,4.043066891552508,8.79747529554367,-1.5583400340795517
1757686786017450500,4.519323242187502,-0.7945120334625244,-1.8642616271972656,-1.761820912361145,1.7582178787797689,1.4576865337193012,-2.9699855321139097,4.251677493284642,8.697769889688491,-1.5628367609769105
1757686786027405800,4.529278564453126,-0.8940452933311462,-2.7331013679504395,-0.6691786646842957,-1.0263210695683955,-0.6275403626799583,-4.853734455139935,4.393017224298418,8.631805425393582,-1.537437385173887
1757686786037359600,4.539232421875001,-0.7284603118896484,-3.260324239730835,0.3955627381801605,-3.352965443280339,0.5147539414554834,-5.549961108294129,4.449060890820622,8.613889244952798,-1.4755243882268667
1757686786047314700,4.549187500000002,-0.2915032804012298,-2.924129009246826,0.9836809039115906,-3.722854694466293,0.1483095700263977,-2.7208520735964177,4.432135474982857,8.63855840678513,-1.3790686318174004
1757686786057268700,4.5591416015625,-0.1794148385524749,-2.095654964447021,1.3098453283309937,-3.5462107180982825,-3.851394272878766,0.1695169009670615,4.366375301088392,8.686036781796812,-1.2876090762600303
1757686786067223800,4.569096679687501,-0.1958406418561935,-1.4731217622756958,1.624155044555664,-3.969275971415639,-7.213401100748777,0.9564894084513188,4.260770608061552,8.746888433122635,-1.2280818054057656
1757686786077177900,4.579050537109376,-0.1186960637569427,-1.0277119874954224,1.7507244348526,-4.259154405036568,-8.994612901625036,2.8454385304689405,4.127024108655751,8.815944433692097,-1.190446340624988
1757686786087133000,4.589005615234376,0.0007571513415314,-0.6378105878829956,1.7270792722702026,-3.948110433790088,-10.682691660773754,4.105933389832079,3.9834240314945575,8.88554287057519,-1.1618133897282183
1757686786097087000,4.598959716796877,0.1777481734752655,-0.3227649927139282,1.643215894699097,-3.874702667751908,-11.78258416250944,3.42622064910531,3.838640589767694,8.952339694041013,-1.1361669072963296
1757686786107041800,4.608914550781252,0.4501985907554626,0.1109465360641479,1.4074954986572266,-3.89937299862802,-13.055892618477344,3.0150331728473305,3.702599841944873,9.013434506472946,-1.1041609728351234
1757686786116995800,4.618868652343753,0.6521708369255066,0.5814951658248901,1.1332415342330933,-3.4917581201598047,-14.519562318259476,3.160506350404024,3.5849823473021387,9.06542246786356,-1.0660291759047658
1757686786126950700,4.628823486328127,0.6522250771522522,0.993558704853058,0.9603893756866456,-3.4845743461355565,-15.44058995270729,3.1365380303174257,3.483077970097959,9.108825556260348,-1.0333816556043922
1757686786136905000,4.638777832031252,0.5097196102142334,1.4711964130401611,1.0346750020980835,-4.211785627879202,-15.918620137399436,2.8560698145985604,3.381147581669688,9.14841522384882,-1.022111415984109
1757686786146859800,4.648732666015626,0.2151722460985183,1.903741717338562,1.2538970708847046,-5.934214692658186,-15.400336268252133,2.483195702382922,3.2600410758674143,9.1897783308506,-1.0442807238247245
1757686786156813800,4.658686523437501,-0.0397681593894958,2.218311786651612,1.403657078742981,-6.9401815409839145,-14.464101712322234,1.044546389023587,3.116342506767809,9.232771669402718,-1.1021570126015692
1757686786166767900,4.668640625,-0.1402931660413742,2.320082902908325,1.3773397207260132,-6.451065314131975,-12.719984255087375,1.1219384754575787,2.961217411507666,9.273979878103733,-1.18104525587745
1757686786176722700,4.678595458984377,-0.0797110497951507,1.9286370277404783,1.1437671184539795,-4.857024436596036,-10.416863964825868,2.996644990980625,2.81776317255795,9.309099122279882,-1.2535169831745323
1757686786186676700,4.6885495605468765,-0.0924516767263412,1.2192329168319702,0.7826582193374634,-2.3108535148620604,-8.047198195511102,4.313413233968615,2.707542802429199,9.334829775863886,-1.3040510924950242
1757686786196631800,4.698504638671876,-0.2947067618370056,0.6029461026191711,0.4321390986442566,-0.1159855095267295,-6.193948163384198,3.380558383604884,2.6400729020074007,9.348308850640056,-1.3451875511340796
1757686786206585900,4.708458740234377,-0.516185998916626,0.1563490033149719,0.0899024084210395,0.5849842465013265,-3.937203255328536,1.5974305199742316,2.609927939112484,9.349743267357349,-1.393174898581207
1757686786216541000,4.718413818359377,-0.7763856053352356,-0.5043743252754211,-0.4139546453952789,2.00220520658046,-1.0097498739957809,0.735459470129013,2.6260867544919253,9.336784417062995,-1.448632289648056
1757686786226494700,4.728367431640626,-1.1060762405395508,-0.8076433539390564,-0.959577739238739,5.101199688184261,1.2183715816438196,-1.1042794846482575,2.702252002544701,9.304295521390438,-1.5160247409194707
1757686786236450000,4.738322753906253,-1.5869905948638916,0.3892342746257782,-1.0649737119674685,5.828602693107724,1.9324772980988023,-3.5999884855151176,2.801895741340518,9.255030262961984,-1.6322404059402644
1757686786246403800,4.7482766113281265,-1.8992912769317627,2.1760454177856445,-1.4628896713256836,1.2928069371640682,0.4749035771042108,-5.73532352090776,2.8948016963139174,9.189141786512732,-1.8303538713164629
1757686786256359000,4.758231689453126,-1.898897647857666,3.98746109008789,-1.0585134029388428,1.5447744500637053,-0.5098357742756605,-4.332501673059165,2.9575217718601223,9.111903064009546,-2.0968276100829244
1757686786266313000,4.768185791015627,-1.2940821647644043,4.649426460266113,0.4466019570827484,-5.357668019634485,0.9748621004879474,0.5077727042660117,2.8898443661674857,9.066269440081715,-2.371060000152141
1757686786276267800,4.778140625000001,-0.354915052652359,4.407952308654785,1.2503790855407717,-14.794530767518282,1.6201999856650828,8.006095785272121,2.6892978284254667,9.072006522428987,-2.576196057641506
1757686786286221800,4.7880947265625,0.6260668039321899,1.8528743982315063,-0.2182372957468032,-10.915016900092365,3.6424019783526655,15.925955887115,2.5459350671514867,9.093103670993449,-2.646516379058361
1757686786296177000,4.798049804687501,0.7497820854187012,0.1173448413610458,-0.3625257611274719,8.998277269351481,13.346266726660728,25.275802030324936,2.5724504413723945,9.099225953266023,-2.5994202813625336
1757686786306131000,4.8080036621093765,0.8849751353263855,0.3252662122249603,0.3361300230026245,1.16160953771919,21.157022310662267,25.828577367138863,2.5633196249336003,9.121549428755044,-2.529253104680776
1757686786316085800,4.817958496093752,0.9929586052894592,0.5433804392814636,0.45010507106781,-10.597221701020002,9.56018868330121,11.781380047416686,2.517539578272402,9.154389037561415,-2.455516252818704
1757686786326039800,4.827912597656253,1.3471697568893433,2.242611885070801,1.1133735179901123,-3.0245018429383634,-0.3232382669091224,4.846113166481256,2.4207145501591265,9.200041366189716,-2.381133212007582
1757686786335993900,4.837866699218752,1.6435803174972534,3.972481489181519,2.237875461578369,-9.23053002795577,-1.2480740614682435,3.696242289611697,2.1915768548354504,9.273888108167052,-2.3156861957155166
1757686786345949000,4.847821777343752,1.9437179565429688,4.454026222229004,3.0402579307556152,-12.176999659925698,-2.2124293809890747,1.4097716669864953,1.8467670998483896,9.367951124221086,-2.236369936285913
1757686786355903000,4.857775878906253,2.488845109939575,4.121921062469482,3.3476507663726807,-8.582194714528322,-1.6919009477853777,1.9180647418648,1.451064485231042,9.468418746620417,-2.100922185920179
1757686786365857800,4.867730712890626,3.20621919631958,3.4788122177124023,3.3007073402404785,-5.495440998077393,0.7069359709560871,3.896473770055175,1.058835172747448,9.566583352774382,-1.8787601748280227
1757686786375811800,4.8776845703125,3.769391536712648,2.465160369873047,3.368030071258545,-2.686156315529346,3.8635283627867696,4.700536236289143,0.6911876360736787,9.655480948889254,-1.5698179981663822
1757686786385766700,4.887639404296877,3.981951951980591,2.0198442935943604,3.999560832977295,-1.5721183840632438,7.097424943572283,3.064756988698244,0.3079800170985982,9.727529117012024,-1.204462371822074
1757686786395721000,4.897593750000002,3.829591751098633,2.5035860538482666,4.528260707855225,-2.772902286568284,11.092109497010709,-0.0895080561634153,-0.1309650337274186,9.770964938634634,-0.8255258177623153
1757686786405675800,4.907548583984376,3.364218473434448,2.252951145172119,5.0819621086120605,-2.284037404128909,18.77667966451049,-5.0265889760971065,-0.6127968209259211,9.776569919034838,-0.4621182202132418
1757686786415629800,4.917502685546877,2.121378183364868,1.719251275062561,5.280478000640869,-1.9651533869065343,31.36359751141071,-12.238070506960153,-1.1301003007337451,9.739757314944269,-0.1743685970482416
1757686786425585000,4.927457763671876,0.6549451947212219,1.6656060218811035,4.242918014526367,2.662051801842451,32.78788095722199,-19.90927382788658,-1.5963330801263451,9.675829324913025,-0.0202105156227713
1757686786435538700,4.937411376953126,-0.2025114744901657,1.736052393913269,3.20171332359314,12.722411189973354,19.30623896090984,-22.922575354635715,-1.950748867848516,9.610629999771714,0.0277222064271336
1757686786445494000,4.947366699218753,-0.126167431473732,1.4730607271194458,2.641507387161255,16.444496945893764,7.897391080403327,-19.55759389486909,-2.226980030519515,9.550353517985345,0.0412585871813818
1757686786455447800,4.957320556640626,0.0118749663233757,1.4076908826828003,2.186156272888184,14.992474429285526,4.216435791772604,-11.280767444038393,-2.45448895559758,9.49425870579779,0.0700680499891052
1757686786465403000,4.967275634765626,0.1003406047821044,1.274927258491516,1.861402988433838,13.464134396672248,2.70233763500154,-3.7407758433431386,-2.642942027702928,9.443148696285483,0.1104177193317562
1757686786475357000,4.977229736328127,0.1662088483572006,0.8113921880722046,1.5613998174667358,11.67743802690506,1.2749427791714667,1.886455843897164,-2.803029421545565,9.39631271083057,0.1507103201583493
1757686786485311700,4.987184570312502,0.3448002934455871,0.8546459674835205,1.1838713884353638,12.175883223116395,-0.7027244907408953,5.616127232640982,-2.9284292406275867,9.3571649417907,0.1953483480444177
1757686786495266000,4.997138916015626,0.7364972233772278,1.2167096138000488,1.1640101671218872,10.688566105765103,-2.1624235333263875,8.993186668214202,-3.0335555024877188,9.321535410004854,0.2773117061830125
1757686786505220900,5.007093750000001,0.9329137802124025,0.5234503149986267,1.158953070640564,6.218243231207132,-3.662388535326719,10.358774179428815,-3.13915055090338,9.282627294939756,0.3859537028128281
1757686786515175000,5.017047607421876,0.8432056903839111,-0.1010497659444809,0.7521243095397949,5.339314032298327,-5.828294650071859,5.424051586124301,-3.228825561131537,9.247813171190025,0.4722687350885942
1757686786525129000,5.027001708984377,0.798923671245575,0.2060982435941696,0.2327469140291214,6.379889252668619,-7.68824564114213,-0.6445468809299171,-3.2731136156693097,9.228016583830115,0.5484794662509114
1757686786535083800,5.036956542968751,0.6384000182151794,0.5460683107376099,-0.2048687785863876,7.220031917065381,-8.544767777931689,-4.197626461884379,-3.2718443263858554,9.223375480026004,0.628321064728871
1757686786545037800,5.046910644531252,0.3015631139278412,0.4789029657840729,-0.5487366914749146,6.415104358434677,-8.950091038331388,-7.315274498292803,-3.232312526464462,9.232906109437346,0.6899198080949485
1757686786554993000,5.056865722656253,-0.1417261660099029,0.0559437088668346,-0.7235172986984253,4.492546689064801,-9.187532597750424,-8.468381288343668,-3.1707983195766807,9.252925399637222,0.7069780565321445
1757686786564947000,5.066819824218751,-0.5789232850074768,-0.5120549201965332,-0.8897602558135986,3.004876812753081,-9.314110228440166,-7.75266112242937,-3.0975021972194314,9.280741042801738,0.6661235566396266
1757686786574901800,5.076774658203126,-0.8892214894294739,-0.8678907752037048,-1.2053076028823853,3.24752558542639,-9.732413966444136,-6.595647972589731,-3.0049624452099204,9.317169031488897,0.5752782605230808
1757686786584855800,5.086728515625001,-0.9267850518226624,-0.9397522807121276,-1.6421374082565308,5.06572856183052,-10.378438664841651,-4.948799633973836,-2.8769796238973737,9.36374548922479,0.4622152143143117
1757686786594811000,5.096683593750001,-0.7687615752220154,-0.8563750982284546,-1.9778879880905151,6.999493561652303,-10.51121281208396,-2.1858619843199847,-2.7105805626899,9.417810256889462,0.3577393426543101
1757686786604765000,5.1066376953125,-0.6799178123474121,-0.903463900089264,-2.352513313293457,6.335474941402674,-9.427693937522172,0.1716341488493606,-2.51013953114897,9.476176521140337,0.2677018740556203
1757686786614719700,5.116592529296877,-0.6295452117919922,-1.0974035263061523,-2.7733471393585205,5.620656108242273,-8.093188377791643,0.29928795740325,-2.269521972042322,9.538687630110978,0.181946521489229
1757686786624673800,5.126546630859377,-0.5569148063659668,-1.2746676206588743,-3.111203908920288,5.032637608611584,-7.658921346980333,-0.085851460751472,-1.9899065737605093,9.60211468488276,0.1002166433129459
1757686786634628900,5.136501708984376,-0.5558168292045593,-1.3554905652999878,-3.2843706607818604,3.3992040473639964,-7.513225174322724,-0.3111777536939829,-1.6830103698432444,9.66112275416851,0.0235742861175793
1757686786644582700,5.146455566406253,-0.6934940814971924,-1.4262797832489014,-3.3750813007354736,1.287502985537052,-6.776638161468505,-0.8756465970415621,-1.3617233831323683,9.711480484008788,-0.0570446602582931
1757686786654538000,5.156410888671877,-0.8188410997390747,-1.1175943613052368,-3.47820258140564,-1.2240924435086549,-5.250485409766435,-1.5299205798029898,-1.0287016810946166,9.751436062300204,-0.1472176922696176
1757686786664491800,5.166364501953126,-0.6108060479164124,0.0504621267318725,-3.724974870681762,-3.559645953732729,-1.802021364670992,-0.2429201734932139,-0.678988445040211,9.780549928581712,-0.2240986965094693
1757686786674446800,5.176319580078127,-0.6972010731697083,1.0837217569351196,-4.372679710388184,-4.995837864002585,4.483244315451383,3.445686689336598,-0.2887637686436064,9.798467862588168,-0.277559324268531
1757686786684401000,5.1862736816406265,-1.6091816425323486,0.3451365828514099,-5.596185207366943,-5.548804339474439,14.115066156333684,2.6935642536982893,0.1922274578112177,9.79702292447686,-0.3895941051417961
1757686786694354700,5.1962275390625,-1.2849550247192385,-1.3898910284042358,-5.974245548248291,0.2507026075303554,24.3718973801136,-0.0653118821376934,0.7698255578503013,9.761637722840904,-0.5368299449894577
1757686786704310000,5.206182861328127,0.0544435083866119,-1.4631195068359375,-5.253598690032959,6.575306610828638,33.59284475620985,10.696417403787374,1.326456547179073,9.699110247257352,-0.5815142688358202
1757686786714263800,5.216136718750002,0.9845287799835204,0.365866482257843,-4.236118316650391,3.788929341137409,35.85078501152992,20.909727465748787,1.787316401361674,9.628571899175643,-0.5162176573324948
1757686786724219000,5.226091796875,0.4816635251045227,2.2110064029693604,-3.480254650115967,0.8663876972436905,29.858439616942405,21.045514238810537,2.1468642912752927,9.557452536335587,-0.4652568104999139
1757686786734173000,5.236045654296877,-0.4031810760498047,2.4468801021575928,-3.2162792682647705,1.48314596914649,18.882432533836365,12.316820803070067,2.449180473925918,9.48167394951284,-0.519391611193493
1757686786744127700,5.246000488281252,-1.1037797927856443,1.406208872795105,-3.247599124908448,4.231953094378113,13.17891694059968,4.124530538274348,2.7410101877450943,9.393917340126633,-0.6415657462272792
1757686786754082000,5.255954833984376,-1.4395564794540403,0.2521944046020508,-3.2686424255371094,4.697368419907987,12.777950121843814,0.1555932972937822,3.0385955424815414,9.2907521492064,-0.7869144206214695
1757686786764036900,5.265909667968753,-1.0807414054870603,-0.2625709772109985,-3.287612199783325,3.0394024749502537,13.851981037092209,0.1266647244513034,3.3400977784007786,9.175898858579991,-0.90388236531429
1757686786773991000,5.275863769531252,-0.8108732104301453,-1.1096380949020386,-3.3088152408599854,1.578591671730578,12.375944023168088,2.7807354644119737,3.646454176352918,9.05216141975224,-0.9654820585284382
1757686786783945700,5.285818603515626,-0.7047005891799927,-1.6354151964187622,-2.849555730819702,1.0825795478850602,5.994099544778466,-0.2316159220054745,3.93851053853482,8.92746419598162,-0.9792515676185488
1757686786793899800,5.295772460937501,-0.9264702796936036,-2.136074542999268,-1.884576439857483,-0.5893155537039041,1.100159628239274,-2.311020103600621,4.168346883647144,8.823056896045804,-0.9741238493412732
1757686786803854800,5.305727539062502,-1.1580430269241333,-3.2502150535583496,-0.7211409211158752,-2.951534514144063,0.4569441420435905,-4.549125777637959,4.307700993801653,8.758039357212185,-0.9543957241076976
1757686786813809000,5.315681640625,-0.8759122490882874,-3.568328857421875,0.119177222251892,-4.43493621161729,2.18207574377954,-4.009097694194317,4.363708127705753,8.736680342841147,-0.8937781737986952
1757686786823764000,5.325636718750001,-0.4997691214084625,-2.839163064956665,0.5971032977104187,-3.7192297819674014,0.8728390653401613,-0.4355342742681503,4.358780608175695,8.74706320516765,-0.8125931248225271
1757686786833717800,5.335590576171876,-0.321451872587204,-2.0380868911743164,0.926209270954132,-3.519499236783385,-3.583426057770848,-0.1762123069524765,4.310782885465025,8.777049762630462,-0.742263377990201
1757686786843672800,5.345545654296876,-0.1797412931919098,-1.3874489068984983,1.1287448406219482,-3.916328809604048,-7.541538245615363,0.1178891511909663,4.231765170590579,8.81944455076754,-0.6927968979012221
1757686786853627000,5.355499755859377,0.1053644642233848,-1.07605242729187,1.1395524740219116,-3.622600422556698,-9.3370959672302,2.4913845617964863,4.139748565672337,8.866637679097057,-0.6447070399276912
1757686786863582000,5.365454833984376,0.3402408361434936,-0.5452741980552673,1.1167593002319336,-4.2203523806944485,-11.152165614044666,3.859166952706873,4.044827471484243,8.914034805566072,-0.591381071398966
1757686786873535700,5.375408447265626,0.6470250487327576,0.0827042311429977,0.9869621396064758,-5.231942621859908,-12.730776867258548,3.426652318520844,3.9517935062170015,8.959012011411785,-0.5383472176846117
1757686786883489800,5.385362548828127,0.9494147300720216,0.7333114147186279,0.7349349856376648,-4.914540806019306,-14.52364345009327,3.188776167076826,3.872764685426653,8.996631840232014,-0.4824306116081774
1757686786893444900,5.395317626953126,1.0330216884613037,1.2801662683486938,0.5688261389732361,-4.399719644546509,-15.73432856888771,3.1535137150377035,3.810596983066201,9.025775517129896,-0.430259000746347
1757686786903398700,5.405271484375,0.8739625215530396,2.089444875717163,0.5987581610679626,-5.273427893936634,-16.260559597647188,2.408615531564504,3.752960786655545,9.051018679457902,-0.405865915909037
1757686786913354000,5.415226806640627,0.6017522811889648,3.0148367881774902,0.9175696969032288,-7.468333308672904,-16.36764751496911,1.6814819912321866,3.67546984295696,9.08149506626427,-0.4333547382719814
1757686786923307800,5.425180664062502,0.2266072928905487,3.623684883117676,1.393934965133667,-9.822399357795716,-16.043503239130974,1.7023486920416353,3.555427166993916,9.124860745260118,-0.5160215867711231
1757686786933262800,5.4351357421875,0.0456814542412757,3.7304184436798096,1.6906166076660156,-10.506516763222216,-14.790284800511598,1.8131994690284128,3.3925954428792,9.179322987809776,-0.6330077612403779
1757686786943217000,5.445089599609377,0.1389491260051727,3.407343626022339,1.7341347932815552,-8.385679624259472,-12.716174341410396,3.7219320266634224,3.2098639632910486,9.236502672624589,-0.7444427678558975
1757686786953171700,5.455044433593752,0.2860232591629028,2.645033836364746,1.555897235870361,-5.764008932644129,-9.914815775686504,5.799149804130196,3.033271717110276,9.28978067382574,-0.8183125984478742
1757686786963126000,5.464998779296877,0.1427907794713974,1.8345409631729128,1.11518132686615,-3.32655499073863,-7.296914665737748,4.988251354396343,2.889463550156355,9.33153716405928,-0.862443562727794
1757686786973080800,5.474953613281251,-0.1158647462725639,1.2389659881591797,0.4706998467445373,-0.5420107816934585,-5.180224125060438,2.162092109414935,2.8013895453840494,9.3543650819391,-0.9046872519563884
1757686786983035000,5.484907714843752,-0.3844969272613525,0.5714424848556519,-0.313913494348526,2.925731964367628,-1.992253429147601,1.0577041959561406,2.784588632708788,9.354573171731827,-0.9531075109280646
1757686786992989700,5.494862548828127,-0.8117973804473877,-0.1043490394949913,-1.217950701713562,7.782962737190723,1.6959060917735098,-0.3196814512103796,2.8553727722451088,9.326997767063975,-1.012093076121062
1757686787002943700,5.504816650390627,-1.375224471092224,1.1990511417388916,-1.656895637512207,11.504544635242222,3.3393303011596203,-4.778547988991439,2.984565261608362,9.273323460021617,-1.126151855368912
1757686787012898800,5.514771728515626,-1.5714882612228394,3.504457235336304,-2.0009360313415527,7.99175512523055,1.725039247277379,-8.464916827103496,3.126917676796019,9.19835560505986,-1.3352987559348344
1757686787022852900,5.524725585937501,-1.6128379106521606,5.30866813659668,-0.6835309863090515,4.964276604568958,0.0153588971734046,-6.157164200866222,3.194713448171317,9.128245711523292,-1.624590037317574
1757686787032808000,5.534680664062501,-1.2563713788986206,4.528634548187256,1.1732635498046875,-10.25689552118778,-1.455674609375,-1.9336840435400604,3.079977061922848,9.11098478012085,-1.9167907764062284
1757686787042761700,5.544634521484376,-0.3567129969596863,2.6562445163726807,2.254098892211914,-19.253824883061647,-5.036442261591553,4.72042225549817,2.8460619230642914,9.146987236872317,-2.0983228170767427
1757686787052716800,5.554589599609377,0.4487723112106323,-0.3492162823677063,0.1925068199634552,-17.363060236054658,-4.830902153345942,15.838422565090656,2.673885155238211,9.191343095949293,-2.1307206734649835
1757686787062670800,5.564543701171877,1.040370225906372,-2.2308599948883057,-1.8458013534545896,12.224227859568597,2.2660376370579005,22.32637004141808,2.818391825850308,9.17480580264628,-2.012467072875798
1757686787072625000,5.574497802734376,1.110759139060974,-0.0642935037612915,0.6652778387069702,16.272407856351137,17.74864477676153,23.60844164955616,2.906494472195208,9.176547677877544,-1.8744772368118163
1757686787082580000,5.584452880859375,0.7521876692771912,1.0280424356460571,2.619864225387573,-18.759710994052885,24.52778703000545,7.003661202725768,2.725293855436146,9.245272254535555,-1.8077946873754265
1757686787092533800,5.594406494140626,1.220814228057861,2.3021955490112305,1.9745359420776367,-12.223626971065997,13.672978222638369,-7.054193704611063,2.4786279560759663,9.323627413848042,-1.759760139785707
1757686787102488800,5.604361572265626,1.547032356262207,3.0306103229522705,1.1713836193084717,-0.571488220590353,4.716504789793492,-2.5882094437792897,2.2875313837245104,9.384295525300502,-1.694867834766954
1757686787112442600,5.614315429687503,1.655040264129639,2.052807331085205,1.3514838218688965,0.8559994280897081,1.0046557657271622,-3.3455805937260386,2.134957288121432,9.436306867566705,-1.6026358335323632
1757686787122398000,5.624270751953125,1.9420783519744875,0.6877110600471497,2.457653284072876,-0.7493886267602443,0.0589940407603979,-0.5629265823416412,1.9360145323142408,9.501951013866066,-1.4612211375862358
1757686787132352000,5.634224853515628,2.33902907371521,0.3251118063926697,3.282088041305542,-4.532434170556068,-0.012238134804368,3.4167931878075,1.6547534126520156,9.582759996071458,-1.266051908968389
1757686787142306800,5.644179687500001,2.875016927719116,0.7989493012428284,3.8667733669281006,-4.532847135271132,0.235098795685172,3.4901679283589124,1.3059114795394242,9.665073537620902,-1.0253371730975809
1757686787152260900,5.654133544921878,3.565230131149292,1.673994541168213,4.232076644897461,-4.291792353790998,2.4763708247989413,3.887930398115516,0.902350917963311,9.737949388739466,-0.726985802424699
1757686787162215700,5.664088378906252,4.047037601470947,2.591336965560913,4.33184814453125,-2.859869206881523,6.306002178680896,3.475954109567404,0.4735981570614501,9.788269124656916,-0.3685799221530556
1757686787172170000,5.674042724609377,3.886796951293945,2.446463108062744,4.669764518737793,-1.1470447135329245,11.803935578095912,0.8510775345828384,0.0346390822766581,9.8065763502419,0.0153241112711024
1757686787182124800,5.6839975585937506,2.906357288360596,1.666869044303894,4.902041435241699,0.6048416241377592,22.49281148046255,-5.420000264906883,-0.4354521124100312,9.790454652002452,0.3574612198326736
1757686787192078800,5.69395166015625,1.1537903547286987,0.8640202879905701,4.117704391479492,6.030425242134928,30.80413290609121,-15.197883604627847,-0.8709204453025012,9.751547121459245,0.5649719340315088
1757686787202033700,5.703906494140627,0.0823358669877052,0.330240935087204,3.3745784759521484,10.777181962329148,20.52672300466299,-21.440838083243367,-1.228357553607225,9.70949953932464,0.6222082078717649
1757686787211987700,5.713860595703126,0.2189733386039734,0.7935159206390381,2.9627718925476074,10.0166850815773,7.734916206902265,-16.009664097893236,-1.5295388870090243,9.66554290869832,0.6388899511467665
1757686787221942800,5.723815673828126,0.4763201177120209,1.461954116821289,2.5076589584350586,9.42771790291965,3.61770183686018,-7.722396332547068,-1.7855758413046596,9.6177436311692,0.6936185164824128
1757686787231896800,5.733769531250003,0.5637444853782654,1.3683408498764038,2.0277256965637207,12.255707870459556,1.897384357407689,-3.699504506278038,-1.9902694157235323,9.571589782759547,0.7706478340186178
