time,seconds_elapsed,z,y,x
1757088397043948000,0.098947998046875,-1.2060539722442627,0.877810001373291,11.940507888793945
1757088397063054300,0.118054443359375,-3.6952719688415527,-0.5365610122680664,13.165523529052734
1757088397072607500,0.127607421875,-4.935822010040283,-0.6552240252494812,13.431512832641602
1757088397082160400,0.137160400390625,-5.991690158843994,-0.7135120034217834,13.170797348022461
1757088397091713500,0.146713623046875,-5.868497848510742,-0.6554160118103027,13.466731071472168
1757088397101266400,0.156266357421875,-5.865629196166992,-0.8561450242996216,13.823844909667969
1757088397110819800,0.16581982421875,-6.475069999694824,-1.6994420289993286,13.572532653808594
1757088397120373000,0.175373046875,-6.3602399826049805,-2.3891820907592773,13.429697036743164
1757088397129926000,0.18492578125,-5.669474124908447,-2.7707810401916504,13.039241790771484
1757088397139479000,0.19447900390625,-5.450987815856934,-3.108362913131714,12.23462200164795
1757088397149032000,0.204031982421875,-5.606682777404785,-3.383193016052246,10.864866256713867
1757088397158585000,0.213585205078125,-6.233898162841797,-3.7797670364379883,9.982152938842773
1757088397168138200,0.22313818359375,-7.006083011627197,-4.536004066467285,10.328487396240234
1757088397177691400,0.23269140625,-7.835737228393555,-5.347947120666504,10.467375755310059
1757088397187244500,0.24224462890625,-8.582564353942871,-5.904599189758301,10.512931823730469
1757088397196797400,0.25179736328125,-9.537598609924316,-6.060593128204346,10.553140640258789
1757088397215903700,0.27090380859375,-12.19113540649414,-6.848133087158203,11.218212127685547
1757088397225457000,0.280456787109375,-12.632831573486328,-7.159812927246094,12.071508407592773
1757088397235010000,0.290010009765625,-13.36509895324707,-7.4464569091796875,12.507678031921387
1757088397244563200,0.299563232421875,-13.230146408081055,-7.872896194458008,13.03741455078125
1757088397254116000,0.3091162109375,-12.489103317260742,-7.5377960205078125,12.983277320861816
1757088397263669000,0.3186689453125,-12.113142013549805,-6.7808918952941895,13.008691787719727
1757088397273222400,0.328222412109375,-12.520975112915039,-6.22283411026001,13.323850631713867
1757088397282775600,0.337775634765625,-13.1820068359375,-6.519205093383789,13.520780563354492
1757088397292328400,0.347328369140625,-13.797298431396484,-7.257411003112793,12.983857154846191
1757088397301881600,0.356881591796875,-13.37330436706543,-7.511261940002441,11.494272232055664
1757088397311434500,0.3664345703125,-12.070751190185547,-7.717194080352783,10.050636291503906
1757088397320988000,0.37598779296875,-11.006497383117676,-8.177748680114746,9.153387069702148
1757088397330541000,0.385541015625,-10.59359073638916,-8.421480178833008,7.801421165466309
1757088397340094000,0.395093994140625,-12.141825675964355,-8.798995018005371,6.013174057006836
1757088397349647000,0.404647216796875,-12.06386947631836,-8.52884578704834,3.9222230911254883
1757088397359200000,0.414199951171875,-22.422637939453125,-10.077211380004883,3.2261569499969482
1757088397368753200,0.423753173828125,-30.452472686767578,-10.067270278930664,2.9777350425720215
1757088397378306300,0.433306396484375,-17.27434539794922,-6.12269401550293,1.5642470121383667
1757088397397412600,0.45241259765625,-5.368334770202637,-9.021159172058105,5.124600887298584
1757088397406965800,0.4619658203125,-8.516242027282715,-9.669958114624023,2.134352922439575
1757088397416519000,0.471518798828125,-12.127450942993164,-6.477200984954834,-0.25102800130844116
1757088397426071800,0.48107177734375,-11.965886116027832,-8.086523056030273,3.244645118713379
1757088397435625000,0.490625,-8.556683540344238,-7.89467716217041,3.5271120071411133
1757088397445177900,0.500177734375,-5.842569828033447,-6.933882236480713,2.098987102508545
1757088397454731000,0.50973095703125,-5.705023765563965,-7.7638468742370605,2.018238067626953
1757088397464284400,0.519284423828125,-6.803695201873779,-7.6250901222229,0.5701119899749756
1757088397473837300,0.52883740234375,-7.396546840667725,-6.170793056488037,0.30070599913597107
1757088397483390500,0.538390380859375,-9.740081787109375,-5.776381015777588,0.7332130074501038
1757088397492943400,0.547943359375,-8.974942207336426,-5.173050880432129,0.45534199476242065
1757088397502496500,0.55749658203125,-7.524819850921631,-4.730553150177002,-0.08600900322198868
1757088397512049700,0.567049560546875,-7.820154190063477,-4.81846809387207,0.8091030120849609
1757088397521602800,0.576602783203125,-8.534805297851562,-4.5114898681640625,0.7986360192298889
1757088397531156000,0.586156005859375,-8.668590545654297,-4.844458103179932,2.3259310722351074
1757088397540708900,0.595708984375,-7.903493881225586,-4.6196160316467285,2.2152509689331055
1757088397550262000,0.605261962890625,-7.556441783905029,-4.643462181091309,3.0189099311828613
1757088397559815200,0.614815185546875,-7.7319512367248535,-6.846889972686768,3.4572649002075195
1757088397569368300,0.624368408203125,-7.820159912109375,-7.882969856262207,2.1030030250549316
1757088397578921200,0.633921142578125,-4.695184230804443,-7.815075874328613,1.3092859983444214
1757088397588474600,0.643474609375,-3.655487060546875,-8.303361892700195,3.2049670219421387
1757088397598027500,0.653027587890625,-5.386592864990234,-7.553927898406982,1.7300339937210083
1757088397607580700,0.66258056640625,-6.502119064331055,-5.949244022369385,-1.2704689502716064
1757088397617133800,0.6721337890625,-8.178397178649902,-4.770343780517578,-3.7837140560150146
1757088397626686700,0.681686767578125,-8.852139472961426,-3.5045299530029297,-4.75476598739624
1757088397636240000,0.691239990234375,-9.220548629760742,-2.1688220500946045,-5.3855509757995605
1757088397645793000,0.70079296875,-9.985007286071777,-0.10515400022268295,-6.560629844665527
1757088397655346200,0.71034619140625,-7.325162887573242,0.39594000577926636,-6.353933811187744
1757088397664899300,0.7198994140625,-5.593684196472168,0.07323700189590454,-6.0777459144592285
1757088397674452200,0.7294521484375,-7.500992774963379,0.3634760081768036,-3.273966073989868
1757088397684005400,0.73900537109375,-7.350780963897705,-0.421099990606308,0.7399299740791321
1757088397693558500,0.74855859375,-8.703974723815918,1.881777048110962,-1.43538498878479
1757088397703111700,0.758111572265625,-9.889184951782227,2.918768882751465,-3.0939579010009766
1757088397712664600,0.76766455078125,-10.254586219787598,2.910283088684082,-3.195255994796753
1757088397722217700,0.7772177734375,-9.117889404296875,2.770569086074829,-2.765204906463623
1757088397731771000,0.78677099609375,-5.817032814025879,2.495954990386963,-2.765810012817383
1757088397741324000,0.796323974609375,-2.6413300037384033,2.3166589736938477,-3.390749931335449
1757088397750877200,0.805877197265625,-0.10108599811792374,1.8804179430007935,-3.9971721172332764
1757088397760430000,0.81543017578125,-0.936972975730896,2.0820140838623047,-4.295032024383545
1757088397769983000,0.82498291015625,-3.1346969604492188,1.345993995666504,-4.6797099113464355
1757088397779536400,0.834536376953125,-4.293832778930664,0.37883201241493225,-3.6578469276428223
1757088397789089500,0.844089599609375,-4.623870849609375,-0.01243400014936924,-2.929007053375244
1757088397798642400,0.853642333984375,-4.7179999351501465,-0.893215000629425,-4.121120929718018
1757088397808195600,0.863195556640625,-8.499359130859375,-3.423909902572632,-2.538809061050415
1757088397817748700,0.872748779296875,-7.652799129486084,-16.333637237548828,0.4310759902000427
1757088397827302000,0.882302001953125,-7.99241304397583,-36.05774688720703,-2.134592056274414
1757088397836854800,0.891854736328125,-7.1314778327941895,-36.092071533203125,-5.199627876281738
1757088397846408000,0.901407958984375,-6.0981340408325195,-31.52484130859375,-3.7733030319213867
1757088397855961000,0.910961181640625,-7.6455841064453125,-25.285005569458008,-0.38284099102020264
1757088397865514200,0.92051416015625,-9.687176704406738,-16.264745712280273,2.9730899333953857
1757088397875067400,0.9300673828125,-9.552559852600098,-9.129404067993164,3.2919540405273438
1757088397884620300,0.939620361328125,-13.21529769897461,-5.258963108062744,7.4064202308654785
1757088397894173400,0.94917333984375,-8.846948623657227,-2.0029098987579346,6.0800957679748535
1757088397903726600,0.9587265625,-3.7819600105285645,1.880632996559143,0.2158609926700592
1757088397913279700,0.96827978515625,-2.5200040340423584,2.496782064437866,-5.88021993637085
1757088397922832600,0.97783251953125,-2.2889840602874756,2.303255081176758,-8.815048217773438
1757088397932385800,0.9873857421875,-2.964745044708252,2.698401927947998,-9.71406364440918
1757088397941939000,0.99693896484375,-4.78959321975708,2.7719030380249023,-9.828422546386719
1757088397951492400,1.006492431640625,-8.423530578613281,1.8717989921569824,-8.900894165039062
1757088397961045200,1.016045166015625,-10.75412368774414,-0.31928399205207825,-8.116074562072754
1757088397970598100,1.02559814453125,-9.451883316040039,-2.1412270069122314,-7.259881019592285
1757088397980151300,1.0351513671875,-7.011061191558838,-3.1260440349578857,-6.505568981170654
1757088397989704700,1.04470458984375,-5.624646186828613,-3.269167900085449,-5.065867900848389
1757088397999257600,1.054257568359375,-5.215582847595215,-2.9791479110717773,-2.7897379398345947
1757088398008810500,1.063810546875,-5.192843914031982,-2.553061008453369,-1.6545209884643555
1757088398018363600,1.07336376953125,-5.224873065948486,-2.128525972366333,-1.8854429721832275
1757088398027916500,1.08291650390625,-4.935663223266602,-1.6520609855651855,-1.938202977180481
1757088398037469700,1.0924697265625,-4.528456211090088,-1.3048850297927856,-1.6525310277938843
1757088398047023000,1.102023193359375,-4.326434135437012,-1.1604429483413696,-1.7684680223464966
1757088398056576000,1.111575927734375,-4.125911235809326,-1.093332052230835,-1.8400880098342896
1757088398066129200,1.121129150390625,-3.801654100418091,-1.0452070236206055,-1.7533040046691895
1757088398075682300,1.130682373046875,-3.5712809562683105,-0.9605410099029541,-1.7622259855270386
1757088398085235500,1.1402353515625,-3.5375359058380127,-0.8610190153121948,-1.787703037261963
1757088398094788600,1.14978857421875,-3.602940082550049,-0.7269780039787292,-1.8431010246276855
1757088398104341500,1.159341552734375,-3.5411601066589355,-0.6445239782333374,-1.830119013786316
1757088398113894400,1.168894287109375,-3.310241937637329,-0.5781940221786499,-1.7988300323486328
1757088398123447800,1.17844775390625,-3.1027441024780273,-0.5538420081138611,-1.7175159454345703
1757088398133000700,1.188000732421875,-3.029046058654785,-0.5233209729194641,-1.6341029405593872
1757088398142553900,1.197553955078125,-3.019237995147705,-0.5039070248603821,-1.5907560586929321
1757088398152107000,1.20710693359375,-2.8920230865478516,-0.443897008895874,-1.5800009965896606
1757088398161660000,1.216659912109375,-2.6317169666290283,-0.37583398818969727,-1.5340650081634521
1757088398171213300,1.22621337890625,-2.3897619247436523,-0.294295996427536,-1.5134379863739014
1757088398180766200,1.23576611328125,-2.195127010345459,-0.19592800736427307,-1.4918969869613647
1757088398190319400,1.2453193359375,-2.0585238933563232,-0.13237899541854858,-1.4721319675445557
1757088398199872300,1.254872314453125,-1.8973220586776733,-0.12268900126218796,-1.4164079427719116
1757088398209425700,1.26442578125,-1.7380969524383545,-0.11141300201416016,-1.309298038482666
1757088398218978600,1.273978515625,-1.6259230375289917,-0.16718700528144836,-1.2080509662628174
1757088398228531700,1.28353173828125,-1.490064024925232,-0.19636200368404388,-1.049180030822754
1757088398238084600,1.293084716796875,-1.3841029405593872,-0.24866600334644318,-0.8902209997177124
1757088398247638000,1.302637939453125,-1.2861340045928955,-0.2495660036802292,-0.7561579942703247
1757088398257191000,1.31219091796875,-1.1960179805755615,-0.25398099422454834,-0.6797119975090027
1757088398266744000,1.321744140625,-1.165173053741455,-0.20873700082302094,-0.5988039970397949
1757088398276297200,1.331297119140625,-1.149482011795044,-0.16164599359035492,-0.5565990209579468
1757088398285850000,1.34085009765625,-1.1230850219726562,-0.15832099318504333,-0.5645849704742432
1757088398295403300,1.3504033203125,-1.0732189416885376,-0.19640600681304932,-0.5637030005455017
1757088398304956400,1.359956298828125,-1.0192190408706665,-0.1992730051279068,-0.5653330087661743
1757088398314509600,1.369509521484375,-0.945497989654541,-0.20999599993228912,-0.5602319836616516
1757088398324062500,1.3790625,-0.8715459704399109,-0.19501300156116486,-0.5482710003852844
1757088398333615600,1.38861572265625,-0.8038830161094666,-0.19973500072956085,-0.5434229969978333
1757088398343168800,1.398168701171875,-0.7440170049667358,-0.17607299983501434,-0.5066530108451843
1757088398352721700,1.4077216796875,-0.6281020045280457,-0.12174200266599655,-0.4779770076274872
1757088398362274800,1.41727490234375,-0.5301539897918701,-0.13720400631427765,-0.45513400435447693
1757088398371828000,1.426827880859375,-0.4738819897174835,-0.13350500166416168,-0.3835180103778839
1757088398381381000,1.436381103515625,-0.4367760121822357,-0.1535550057888031,-0.2978839874267578
1757088398390934000,1.44593408203125,-0.4087640047073364,-0.19985200464725494,-0.25363799929618835
1757088398400487400,1.4554873046875,-0.42562299966812134,-0.2555899918079376,-0.21910999715328217
1757088398410040300,1.465040283203125,-0.44388699531555176,-0.28000199794769287,-0.17806899547576904
1757088398419593500,1.474593505859375,-0.44955000281333923,-0.299564003944397,-0.1601250022649765
1757088398429146400,1.484146484375,-0.43849900364875793,-0.292820006608963,-0.1570650041103363
1757088398438699500,1.493699462890625,-0.3936930000782013,-0.279092013835907,-0.18171699345111847
1757088398448252700,1.503252685546875,-0.34851500391960144,-0.24418599903583527,-0.23908700048923492
1757088398457805800,1.512805908203125,-0.31012099981307983,-0.22407199442386627,-0.30470699071884155
1757088398467358700,1.522358642578125,-0.29156801104545593,-0.20671199262142181,-0.35528498888015747
1757088398476911900,1.531911865234375,-0.2891690135002136,-0.21106499433517456,-0.36669600009918213
1757088398486465000,1.541465087890625,-0.24560800194740295,-0.19881099462509155,-0.36790499091148376
1757088398496018200,1.55101806640625,-0.21076199412345886,-0.18188899755477905,-0.36158499121665955
1757088398505571300,1.5605712890625,-0.1823430061340332,-0.15521200001239777,-0.3123509883880615
1757088398515124200,1.570124267578125,-0.16020600497722626,-0.15233099460601807,-0.2699100077152252
1757088398524677400,1.579677490234375,-0.13059499859809875,-0.1707099974155426,-0.22103999555110931
1757088398534230500,1.58923046875,-0.09390299767255783,-0.20321300625801086,-0.18190699815750122
1757088398543783700,1.59878369140625,-0.061799000948667526,-0.23796899616718292,-0.16577300429344177
1757088398553336600,1.608336669921875,-0.03400000184774399,-0.26319000124931335,-0.1780869960784912
1757088398562889500,1.617889404296875,-0.03266900032758713,-0.2740980088710785,-0.1876620054244995
1757088398572442600,1.627442626953125,-0.0477369986474514,-0.2659589946269989,-0.1988060027360916
1757088398581996000,1.63699609375,-0.12775300443172455,-0.24336199462413788,-0.17524699866771698
1757088398591549000,1.646548828125,-0.16721299290657043,-0.256521999835968,-0.14856299757957458
1757088398601102000,1.65610205078125,-0.2021930068731308,-0.2527790069580078,-0.12345699965953827
1757088398610655000,1.665655029296875,-0.23073099553585052,-0.265735000371933,-0.10878799855709076
1757088398620208000,1.6752080078125,-0.24376900494098663,-0.28118500113487244,-0.11994899809360504
1757088398629761300,1.68476123046875,-0.21960900723934174,-0.27025100588798523,-0.10770100355148315
1757088398639314400,1.694314453125,-0.20097100734710693,-0.2783859968185425,-0.09156200289726257
1757088398648867300,1.703867431640625,-0.17381000518798828,-0.24089300632476807,-0.062268998473882675
1757088398658420500,1.71342041015625,-0.15879300236701965,-0.22229500114917755,-0.018528999760746956
1757088398667973600,1.7229736328125,-0.11705899983644485,-0.21050000190734863,0.03654399886727333
1757088398677526800,1.73252685546875,-0.11603499948978424,-0.20340800285339355,0.0476749986410141
1757088398687079700,1.74207958984375,-0.09719199687242508,-0.2081339955329895,0.0624609999358654
1757088398696632800,1.7516328125,-0.09767299890518188,-0.22958700358867645,0.06249900162220001
1757088398706185700,1.761185791015625,-0.10747800022363663,-0.2606489956378937,0.05556099861860275
1757088398715739100,1.7707392578125,-0.08045300096273422,-0.2796440124511719,0.05996600165963173
1757088398725292300,1.780292236328125,-0.06609100103378296,-0.2746660113334656,0.06414800137281418
1757088398734845200,1.78984521484375,-0.02521600015461445,-0.24085700511932373,0.07508400082588196
1757088398744398300,1.7993984375,0.01106599997729063,-0.22377899289131165,0.07421799749135971
1757088398753951200,1.808951171875,0.04517100006341934,-0.21627700328826904,0.06658100336790085
1757088398763504600,1.818504638671875,0.05655999854207039,-0.21126000583171844,0.05037499964237213
1757088398773057500,1.8280576171875,0.0670199990272522,-0.22315900027751923,0.023722000420093536
1757088398782610700,1.837610595703125,0.044950999319553375,-0.23524999618530273,-0.0038769999518990517
1757088398792163600,1.84716357421875,0.028473999351263046,-0.24743600189685822,-0.014057000167667866
1757088398801717000,1.856717041015625,0.006054999772459269,-0.2404170036315918,-0.0009970000246539712
1757088398811270000,1.866269775390625,-0.012870999984443188,-0.2311519980430603,-0.018004000186920166
1757088398820823000,1.875822998046875,-0.017191000282764435,-0.2409999966621399,-0.013892999850213528
1757088398830376000,1.8853759765625,-0.03484399989247322,-0.24378299713134766,-0.025752000510692596
1757088398839929000,1.89492919921875,-0.04252300038933754,-0.22755999863147736,-0.0460209995508194
1757088398849482200,1.904482177734375,-0.04078099876642227,-0.20430700480937958,-0.0626479983329773
1757088398859035400,1.914035400390625,-0.04146600142121315,-0.20260900259017944,-0.05765699967741966
1757088398868588300,1.92358837890625,-0.028667999431490898,-0.19616499543190002,-0.06411799788475037
1757088398878141400,1.933141357421875,-0.009728999808430672,-0.206277996301651,-0.03615900129079819
1757088398887694600,1.942694580078125,0.008213000372052193,-0.20671199262142181,-0.02322399988770485
1757088398897247700,1.952247802734375,0.04333600029349327,-0.23319999873638153,0.006909000221639872
1757088398906800600,1.961800537109375,0.07193099707365036,-0.24524100124835968,0.010425999760627747
1757088398916353800,1.971353759765625,0.0920419991016388,-0.25242000818252563,0.011231999844312668
1757088398925906700,1.98090673828125,0.09949400275945663,-0.2620890140533447,-0.013385999947786331
1757088398935459800,1.9904599609375,0.1176149994134903,-0.2479020059108734,-0.02985999919474125
1757088398945013000,2.000012939453125,0.08694899827241898,-0.22204600274562836,-0.06333500146865845
1757088398954566100,2.009566162109375,0.05559299886226654,-0.19878700375556946,-0.07636100053787231
1757088398964119000,2.019119140625,0.023489000275731087,-0.18029700219631195,-0.061170998960733414
1757088398973672200,2.028672119140625,-0.006858999840915203,-0.1568869948387146,-0.025869999080896378
1757088398983225300,2.038225341796875,-0.0329350009560585,-0.1740420013666153,0.0007670000195503235
1757088398992778500,2.047778564453125,-0.012060999870300293,-0.19589300453662872,0.010045000351965427
1757088399002331400,2.057331298828125,0.016902999952435493,-0.23422500491142273,0.03652799874544144
1757088399011884500,2.066884521484375,0.037227001041173935,-0.25337499380111694,0.027149999514222145
1757088399021437400,2.0764375,0.05617700144648552,-0.24632500112056732,0.000014000000192027073
1757088399030990600,2.085990478515625,0.07165499776601791,-0.2703059911727905,0.001019999966956675
1757088399040543700,2.095543701171875,0.06579700112342834,-0.2681339979171753,-0.027654999867081642
1757088399050097000,2.105096923828125,0.07392700016498566,-0.2326509952545166,-0.054614998400211334
1757088399059649800,2.11464990234375,0.07225699722766876,-0.1950259953737259,-0.08195299655199051
1757088399069203000,2.124202880859375,0.03660300001502037,-0.15040700137615204,-0.09138000011444092
1757088399078755800,2.133755859375,0.032058000564575195,-0.16587099432945251,-0.11587099730968475
1757088399097862100,2.152862060546875,-0.023660000413656235,-0.2492630034685135,-0.07868099957704544
1757088399107415300,2.162415283203125,-0.03913699835538864,-0.2905539870262146,-0.036017999053001404
1757088399116968200,2.17196826171875,-0.06263499706983566,-0.3217659890651703,0.031223999336361885
1757088399126521300,2.181521240234375,-0.08910799771547318,-0.3240079879760742,0.06271599978208542
1757088399136074500,2.191074462890625,-0.10690099745988846,-0.29757198691368103,0.05607699975371361
1757088399145627600,2.200627685546875,-0.0893469974398613,-0.29986000061035156,0.049428001046180725
1757088399155180500,2.2101806640625,-0.040768999606370926,-0.28765299916267395,0.051809001713991165
1757088399164733700,2.219733642578125,-0.012887000106275082,-0.27323898673057556,0.015224000439047813
1757088399174287000,2.229287109375,0.01131999958306551,-0.2780880033969879,-0.005923999939113855
1757088399183840000,2.238840087890625,0.02992199920117855,-0.2446500062942505,-0.009952999651432037
1757088399193393000,2.248392822265625,0.038906000554561615,-0.2351589947938919,-0.009170999750494957
1757088399202946000,2.257946044921875,0.059050001204013824,-0.23996900022029877,-0.003944000229239464
1757088399212499000,2.2674990234375,0.08068300038576126,-0.2375359982252121,0.005760000087320805
1757088399222052000,2.277052001953125,0.11248999834060669,-0.256523996591568,0.014805000275373459
1757088399231605500,2.28660546875,0.11975999921560287,-0.2754029929637909,0.025489000603556633
1757088399241158400,2.296158447265625,0.13115300238132477,-0.2966740131378174,0.017109999433159828
1757088399250711600,2.305711669921875,0.15314500033855438,-0.29639899730682373,0.011335000395774841
1757088399260264400,2.315264404296875,0.14444699883460999,-0.27230799198150635,-0.005506000015884638
1757088399269817600,2.324817626953125,0.14541399478912354,-0.23878000676631927,-0.018929999321699142
1757088399279370800,2.334370849609375,0.1421010047197342,-0.2124979943037033,-0.024768000468611717
1757088399288923600,2.343923583984375,0.14127099514007568,-0.22934499382972717,-0.030414000153541565
1757088399298476800,2.353476806640625,0.16349799931049347,-0.24131900072097778,-0.02464500069618225
1757088399308030000,2.363030029296875,0.1822970062494278,-0.26530200242996216,-0.03521199896931648
1757088399317583000,2.3725830078125,0.19343100488185883,-0.2512350082397461,-0.06773100048303604
1757088399327136000,2.382135986328125,0.2082889974117279,-0.24457399547100067,-0.09841900318861008
1757088399336689200,2.391689208984375,0.2060990035533905,-0.23073099553585052,-0.09088599681854248
1757088399346242000,2.401241943359375,0.17221899330615997,-0.2098190039396286,-0.09469600021839142
1757088399355795200,2.410795166015625,0.14464299380779266,-0.22238199412822723,-0.07995899766683578
1757088399365348400,2.420348388671875,0.10523899644613266,-0.23941899836063385,-0.03438900038599968
1757088399374901500,2.429901611328125,0.07712200284004211,-0.25147101283073425,-0.0072639998979866505
1757088399384454400,2.439454345703125,0.03967199847102165,-0.26327601075172424,0.029697999358177185
1757088399394007600,2.449007568359375,0.029464999213814735,-0.25827500224113464,0.039877999573946
1757088399403560700,2.458560791015625,0.040557000786066055,-0.25549399852752686,0.06308300048112869
1757088399413113900,2.46811376953125,0.048896998167037964,-0.2454269975423813,0.08077599853277206
1757088399422666800,2.477666748046875,0.06151299923658371,-0.24248799681663513,0.08371099829673767
1757088399432220000,2.487219970703125,0.06460600346326828,-0.280115008354187,0.09754999727010727
1757088399441772800,2.496772705078125,0.08123499900102615,-0.3249579966068268,0.08297000080347061
1757088399451326000,2.506325927734375,0.07700400054454803,-0.34355199337005615,0.06420700252056122
1757088399460879000,2.515879150390625,0.04184599965810776,-0.371847003698349,0.04368500038981438
1757088399470432300,2.525432373046875,0.041030000895261765,-0.3977839946746826,0.032933998852968216
1757088399479985200,2.534985107421875,0.05472800135612488,-0.3975520133972168,0.006684000138193369
1757088399489538300,2.544538330078125,0.09777600318193436,-0.3590869903564453,-0.00917499978095293
1757088399499091500,2.554091552734375,0.12523899972438812,-0.3064180016517639,-0.030837999656796455
1757088399508644600,2.56364453125,0.15366999804973602,-0.270581990480423,-0.039760999381542206
1757088399518197500,2.573197509765625,0.16722799837589264,-0.23257100582122803,-0.06365100294351578
1757088399527750700,2.582750732421875,0.16663700342178345,-0.24485400319099426,-0.06357300281524658
1757088399537303800,2.5923037109375,0.18465900421142578,-0.2524060010910034,-0.0677269995212555
1757088399546856700,2.601856689453125,0.18621399998664856,-0.2908270061016083,-0.033225998282432556
1757088399556409900,2.611409912109375,0.18578000366687775,-0.2979480028152466,-0.009711000137031078
1757088399565963000,2.620962890625,0.20159299671649933,-0.2857170104980469,0.019504999741911888
1757088399575516000,2.630515869140625,0.18523399531841278,-0.2949120104312897,0.0356220006942749
1757088399585069000,2.640069091796875,0.1954219937324524,-0.27777600288391113,0.03500400111079216
1757088399594622000,2.6496220703125,0.20552200078964233,-0.26304399967193604,0.027272000908851624
1757088399604175400,2.65917529296875,0.21071800589561462,-0.24610699713230133,-0.0005009999731555581
1757088399613728300,2.668728271484375,0.2135390043258667,-0.26053300499916077,-0.03600100055336952
1757088399623281200,2.67828125,0.2118690013885498,-0.25838300585746765,-0.058104999363422394
1757088399632834600,2.68783447265625,0.18579599261283875,-0.2563430070877075,-0.058042000979185104
1757088399642387500,2.697387451171875,0.16143399477005005,-0.2135010063648224,-0.02305999957025051
1757088399651940600,2.706940673828125,0.15644900500774384,-0.18729299306869507,0.008476000279188156
1757088399661493500,2.716493408203125,0.13102999329566956,-0.1561799943447113,0.03655099868774414
1757088399671046700,2.726046630859375,0.07480999827384949,-0.16796599328517914,0.07224699854850769
1757088399680599800,2.735599853515625,0.02122499980032444,-0.18675899505615234,0.10368599742650986
1757088399690153000,2.745153076171875,-0.04096300154924393,-0.22227999567985535,0.11268199980258942
1757088399699705900,2.754705810546875,-0.10183899849653244,-0.2816289961338043,0.13189400732517242
1757088399709259000,2.764259033203125,-0.15644800662994385,-0.3339790105819702,0.11556699872016907
1757088399718812200,2.773812255859375,-0.17564600706100464,-0.3744249939918518,0.10374300181865692
1757088399728365300,2.783365234375,-0.18615899980068207,-0.36966899037361145,0.06701800227165222
1757088399737918200,2.792918212890625,-0.13012200593948364,-0.3411000072956085,0.0363290011882782
1757088399747471400,2.802471435546875,-0.0839340016245842,-0.2766039967536926,0.02741600014269352
1757088399757024300,2.812024169921875,-0.03356600180268288,-0.20499999821186066,0.005276999901980162
1757088399766577400,2.821577392578125,0.005166000220924616,-0.1907159984111786,0.006298999767750502
1757088399776130300,2.83113037109375,0.053888000547885895,-0.24091500043869019,-0.0007680000271648169
1757088399785683500,2.840683349609375,0.11487700045108795,-0.3272800147533417,-0.07227399945259094
1757088399795236600,2.850236572265625,0.17658300697803497,-0.4239400029182434,-0.21161000430583954
1757088399804789800,2.859789794921875,0.2391590029001236,-0.4781250059604645,-0.32151898741722107
1757088399814343000,2.869343017578125,0.2754319906234741,-0.5162109732627869,-0.4238539934158325
1757088399823896000,2.87889599609375,0.2821829915046692,-0.5211510062217712,-0.4641430079936981
1757088399833449000,2.888448974609375,0.2457450032234192,-0.4883820116519928,-0.511264979839325
1757088399843001900,2.898001953125,0.17585699260234833,-0.47034600377082825,-0.5083820223808289
1757088399852555000,2.907554931640625,0.11308199912309647,-0.45031601190567017,-0.5081660151481628
1757088399862108000,2.91710791015625,0.03311600163578987,-0.4735009968280792,-0.5360329747200012
1757088399871661300,2.926661376953125,-0.08940500020980835,-0.439846009016037,-0.5239440202713013
1757088399881214200,2.936214111328125,-0.24526800215244293,-0.3969089984893799,-0.4425939917564392
1757088399890767400,2.945767333984375,-0.32107600569725037,-0.36142298579216003,-0.3753710091114044
1757088399900320300,2.9553203125,-0.1371770054101944,-0.2678860127925873,-0.32166799902915955
1757088399909873400,2.964873291015625,0.11031100153923035,-0.11106500029563904,-0.2620289921760559
1757088399919426600,2.974426513671875,0.2927579879760742,-0.056974999606609344,-0.2871989905834198
1757088399928979700,2.983979736328125,0.43463099002838135,-0.062373001128435135,-0.2748279869556427
1757088399938532600,2.99353271484375,0.6240720152854919,0.012614999897778034,-0.1582079976797104
1757088399948085800,3.003085693359375,0.8546810150146484,0.10801800340414047,-0.0985419973731041
1757088399957639000,3.012638916015625,0.945052981376648,0.261696994304657,-0.004141999874264002
1757088399967192000,3.022192138671875,0.8974350094795227,0.4528459906578064,0.008449000306427479
1757088399976745000,3.031744873046875,0.7378110289573669,0.6355609893798828,0.0814799964427948
1757088399986297900,3.0412978515625,0.49787700176239014,0.7920929789543152,0.12894700467586517
1757088399995851000,3.05085107421875,0.3147760033607483,0.9403240084648132,0.05595799908041954
1757088400005404200,3.060404052734375,0.25917598605155945,0.9748830199241638,-0.06383299827575684
1757088400014957300,3.069957275390625,0.4134199917316437,0.9589170217514038,-0.23882299661636353
1757088400024510200,3.07951025390625,0.6252170205116272,0.8915169835090637,-0.079134002327919
1757088400034063400,3.0890634765625,0.7795479893684387,0.8726530075073242,0.25553399324417114
1757088400043616300,3.0986162109375,0.9837329983711243,0.999521017074585,0.5121899843215942
1757088400053169400,3.10816943359375,0.7502740025520325,1.040624976158142,0.708558976650238
1757088400062722600,3.11772265625,0.23069800436496735,0.9874500036239624,0.6618379950523376
1757088400072275700,3.127275634765625,-0.5137450098991394,0.9988970160484314,0.6074410080909729
1757088400081828600,3.13682861328125,-1.1420350074768066,0.9664869904518127,0.7661679983139038
1757088400091381800,3.1463818359375,-1.0479730367660522,0.8714569807052612,0.5833950042724609
1757088400100935000,3.155934814453125,-0.4643549919128418,0.8969740271568298,0.6039760112762451
1757088400110488000,3.165488037109375,0.4810659885406494,0.8175960183143616,0.40852800011634827
1757088400120041000,3.175041015625,1.8892829418182373,0.6800410151481628,0.04931100085377693
1757088400129594000,3.184593994140625,3.0589840412139893,0.6405829787254333,0.041836000978946686
1757088400139147300,3.194147216796875,3.008538007736206,0.47805100679397583,-0.16575700044631958
1757088400148700400,3.203700439453125,2.1962709426879883,-0.01957700029015541,-0.42941200733184814
1757088400158253300,3.21325341796875,1.482285976409912,-0.8535490036010742,-0.6870149970054626
1757088400167806200,3.22280615234375,0.7599989771842957,-1.8666960000991821,-0.8407250046730042
1757088400177359400,3.232359375,0.04611799865961075,-2.7639360427856445,-1.158689022064209
1757088400186912500,3.24191259765625,0.6814600229263306,-3.5764570236206055,-0.9021260142326355
1757088400196465700,3.251465576171875,-0.05122299864888191,-3.6785778999328613,0.5468519926071167
1757088400206018600,3.2610185546875,-0.4218910038471222,-3.3408288955688477,1.873231053352356
1757088400215571700,3.27057177734375,-0.27988600730895996,-2.6967649459838867,3.211458921432495
1757088400225124600,3.28012451171875,-0.6298320293426514,-1.7905609607696533,4.386466026306152
1757088400234677800,3.289677734375,0.2507379949092865,-1.8208149671554565,3.565593957901001
1757088400244231200,3.299231201171875,1.0155810117721558,-1.7502659559249878,2.977318048477173
1757088400253783800,3.30878369140625,1.9719270467758179,-1.6139780282974243,2.714423894882202
1757088400263337000,3.3183369140625,1.452483057975769,-0.8674079775810242,2.0653650760650635
1757088400272889900,3.327889892578125,1.0843770503997803,0.33307701349258423,1.2023470401763916
1757088400282443000,3.337443115234375,1.0804109573364258,1.2785340547561646,0.1649329960346222
1757088400291996200,3.34699609375,1.3700480461120605,2.0618560314178467,-0.4026870131492615
1757088400301549300,3.35654931640625,0.8521170020103455,2.385627031326294,-1.4664920568466187
1757088400311102200,3.366102294921875,1.1115330457687378,2.244270086288452,-1.904252052307129
1757088400320655400,3.3756552734375,1.4301799535751343,2.1287550926208496,-2.3527839183807373
1757088400330208300,3.385208251953125,1.2478619813919067,2.0731699466705322,-2.920254945755005
1757088400339761400,3.394761474609375,0.6678959727287292,1.946802020072937,-2.6601169109344482
1757088400349314600,3.404314453125,0.04565199837088585,2.0432889461517334,-2.4816670417785645
1757088400358867700,3.41386767578125,-0.14566099643707275,2.248189926147461,-1.9760750532150269
1757088400368420600,3.423420654296875,-0.043205998837947845,2.613694906234741,-1.554479956626892
1757088400377973800,3.432973876953125,-0.16046899557113647,2.7470200061798096,-0.5605040192604065
1757088400387526700,3.442526611328125,-0.2795659899711609,2.239190101623535,0.6675509810447693
1757088400397080000,3.452080078125,-0.2314389944076538,1.1060550212860107,1.8887250423431396
1757088400406633000,3.461633056640625,0.006391999777406454,0.7812470197677612,2.9368040561676025
1757088400416186000,3.47118603515625,0.2878369987010956,0.7631670236587524,2.9672720432281494
1757088400425739000,3.480739013671875,0.88823002576828,0.7591170072555542,2.914172887802124
1757088400435292000,3.4902919921875,1.0228559970855713,1.0007610321044922,2.0096991062164307
1757088400444845300,3.49984521484375,0.4154300093650818,1.1077719926834106,0.3888140022754669
1757088400454398500,3.5093984375,-0.06708099693059921,0.8414369821548462,-0.5665270090103149
1757088400463951400,3.518951416015625,-0.06336300075054169,0.5816959738731384,-1.1244399547576904
1757088400473504300,3.528504150390625,-0.12790000438690186,0.24525800347328186,-1.1229009628295898
1757088400483057400,3.538057373046875,-0.25954800844192505,-0.027367999777197838,-0.8115209937095642
1757088400492610300,3.5476103515625,-0.2410299926996231,-0.4949190020561218,-0.7282130122184753
1757088400502163700,3.557163818359375,-0.49627798795700073,-0.8452140092849731,-0.6526380181312561
1757088400511716600,3.566716552734375,-0.4883440136909485,-0.987725019454956,-0.6148620247840881
1757088400521269500,3.57626953125,-0.26165199279785156,-0.9834610223770142,-0.7317889928817749
1757088400530822700,3.58582275390625,-0.25001299381256104,-0.9502120018005371,-0.6595799922943115
1757088400540375800,3.595375732421875,-0.3146139979362488,-0.7748069763183594,-0.513463020324707
1757088400549929000,3.604928955078125,-0.21977099776268005,-0.69582599401474,-0.35620900988578796
1757088400559481900,3.61448193359375,-0.7203289866447449,-0.8000019788742065,0.07779499888420105
1757088400569035000,3.624034912109375,-0.7930399775505066,-1.0871009826660156,0.37753400206565857
1757088400578588000,3.633587890625,-0.8014919757843018,-0.9022830128669739,0.39983201026916504
1757088400588141000,3.64314111328125,-0.8300269842147827,-0.56038498878479,-0.1013839989900589
1757088400597694200,3.652694091796875,-1.4017540216445923,0.01107999961823225,-0.4970589876174927
1757088400607247000,3.6622470703125,-1.9738019704818726,0.24957099556922913,-0.47097501158714294
1757088400616800300,3.67180029296875,-2.1390910148620605,-0.2404550015926361,0.5144550204277039
1757088400626353200,3.681353271484375,-2.4313509464263916,-0.822272002696991,1.8005889654159546
1757088400635906300,3.69090625,-1.4960410594940186,-1.2588980197906494,2.3811280727386475
1757088400645459500,3.70045947265625,-0.05243000015616417,-1.0542110204696655,2.211138963699341
1757088400655012600,3.7100126953125,0.43332600593566895,-0.667277991771698,1.8500670194625854
1757088400664565500,3.7195654296875,0.002102999947965145,-0.4897080063819885,1.1731369495391846
1757088400674118400,3.729118408203125,-0.690837025642395,-0.16760799288749695,0.5591800212860107
1757088400683671600,3.738671630859375,-1.0927009582519531,0.2044679969549179,0.31037798523902893
1757088400693224700,3.748224609375,-1.1344809532165527,0.42808398604393005,0.4157409965991974
1757088400702777900,3.75777783203125,-1.28342604637146,0.7539780139923096,-0.07027900218963623
1757088400712330800,3.767330810546875,-1.2239680290222168,0.8523370027542114,-0.18360500037670135
1757088400721884000,3.7768837890625,-1.209825038909912,0.7280660271644592,-0.34809398651123047
1757088400731437000,3.78643701171875,-1.2145440578460693,0.5618420243263245,-0.722898006439209
1757088400740990200,3.795990234375,-1.230455994606018,0.2976030111312866,-0.5796599984169006
1757088400750543000,3.805543212890625,-1.4581589698791504,0.14129699766635895,-0.2703219950199127
1757088400760096000,3.815095947265625,-1.4493910074234009,-0.02602900005877018,0.010549000464379787
1757088400769649200,3.824649169921875,-1.1965800523757935,-0.1070220023393631,0.06061999872326851
1757088400779202300,3.834202392578125,-0.9364929795265198,-0.09720099717378616,0.049118999391794205
1757088400788755500,3.84375537109375,-0.7650499939918518,0.0298250000923872,-0.018154000863432884
1757088400798308400,3.853308349609375,-0.5339969992637634,0.09470299631357193,0.0014349999837577343
1757088400807861500,3.862861572265625,-0.3027240037918091,0.20028400421142578,0.21775799989700317
1757088400817414400,3.872414306640625,-0.15808700025081635,0.2588930130004883,0.12833499908447266
1757088400826967600,3.881967529296875,-0.13334600627422333,0.3057279884815216,0.2769629955291748
1757088400836520400,3.8915205078125,-0.20461499691009521,0.3972949981689453,0.36664798855781555
1757088400846073600,3.901073486328125,-0.20427800714969635,0.5062440037727356,0.35503798723220825
1757088400855626800,3.910626708984375,-0.15201400220394135,0.43705400824546814,0.4277369976043701
1757088400865179600,3.9201796875,-0.07174599915742874,0.33265501260757446,0.3787199854850769
1757088400874732800,3.92973291015625,0.06737499684095383,0.10463500022888184,0.4410080015659332
1757088400884286200,3.9392861328125,0.14626500010490417,0.055105000734329224,0.45633599162101746
1757088400893839000,3.948839111328125,0.2033510059118271,0.049166999757289886,0.5070440173149109
1757088400903392000,3.95839208984375,0.2673099935054779,0.011803999543190002,0.543159008026123
1757088400912945000,3.96794482421875,0.24488699436187744,-0.014201000332832336,0.5397949814796448
1757088400922498000,3.977498046875,0.13880400359630585,-0.005373999942094088,0.4845759868621826
1757088400932051200,3.98705126953125,0.06870199739933014,-0.0037410000804811716,0.45862600207328796
1757088400941604400,3.996604248046875,-0.04671400040388107,0.038307998329401016,0.4558410048484802
1757088400951157200,4.0061572265625,-0.10671299695968628,0.0823879987001419,0.3600749969482422
1757088400960710400,4.01571044921875,-0.037261001765728,0.10028699785470963,0.25995999574661255
1757088400970263300,4.02526318359375,0.1377429962158203,0.16528500616550446,0.16212700307369232
1757088400989369300,4.044369384765625,0.30980899930000305,-0.0045010000467300415,0.01546700019389391
1757088400998922500,4.053922607421875,0.27596500515937805,-0.10486900061368942,-0.1286350041627884
1757088401008475600,4.0634755859375,0.15096700191497803,-0.19043800234794617,-0.16788899898529053
1757088401018028500,4.073028564453125,0.05944500118494034,-0.3131519854068756,-0.22647100687026978
1757088401027581700,4.082581787109375,-0.029311999678611755,-0.3224549889564514,-0.2938530147075653
1757088401037134800,4.092134765625,-0.09835100173950195,-0.16258999705314636,-0.2789599895477295
1757088401046688000,4.10168798828125,-0.3782060146331787,-0.15242700278759003,-0.22217200696468353
1757088401056241000,4.111240966796875,-0.598809003829956,-0.2138410061597824,-0.10420800000429153
1757088401065793800,4.120793701171875,-0.5878159999847412,-0.3071489930152893,-0.04010700061917305
1757088401075347000,4.130346923828125,-0.3522520065307617,-0.30684900283813477,0.009932000190019608
1757088401084900400,4.139900390625,-0.22182400524616241,-0.18335500359535217,-0.10023099929094315
1757088401094453200,4.149453369140625,-0.21570199728012085,-0.14362600445747375,-0.27445799112319946
1757088401104006100,4.159006103515625,-0.18326400220394135,-0.19481100142002106,-0.4782939851284027
1757088401113559300,4.168559326171875,-0.08413500338792801,-0.3086250126361847,-0.5834569931030273
1757088401123112400,4.178112548828125,0.13427099585533142,-0.38170498609542847,-0.47689199447631836
1757088401132665300,4.187665283203125,0.2353300005197525,-0.380515992641449,-0.36725398898124695
1757088401142218500,4.197218505859375,0.353532999753952,-0.2976450026035309,-0.29266801476478577
1757088401151771400,4.206771484375,0.4122669994831085,-0.21574799716472626,-0.267630010843277
1757088401161324500,4.216324462890625,0.3043980002403259,-0.027255000546574593,-0.301270991563797
1757088401170877700,4.225877685546875,0.23097699880599976,0.15798600018024445,-0.27386000752449036
1757088401180430800,4.235430908203125,0.2987770140171051,0.12494800239801407,-0.4870449900627136
1757088401189983700,4.244983642578125,0.3087109923362732,0.06283099949359894,-0.44017601013183594
1757088401199536600,4.25453662109375,0.26892799139022827,0.19826599955558777,-0.3622789978981018
1757088401209089800,4.26408984375,0.30750900506973267,0.07373099774122238,-0.3850939869880676
1757088401218643000,4.273642822265625,0.18723200261592865,-0.11236800253391266,-0.26069799065589905
1757088401228196000,4.283196044921875,0.14432600140571594,0.04064900055527687,-0.11395099759101868
1757088401237749000,4.2927490234375,0.13787899911403656,0.15037299692630768,-0.09786000102758408
1757088401247302000,4.302302001953125,0.14587999880313873,0.16058699786663055,-0.05575700104236603
1757088401256855000,4.31185498046875,0.14910300076007843,0.15136000514030457,-0.022672999650239944
1757088401266408000,4.321407958984375,0.16660499572753906,0.1310880035161972,-0.03156200051307678
1757088401275961000,4.330961181640625,0.152647003531456,0.06254199892282486,-0.06634899973869324
1757088401285514200,4.34051416015625,0.10469800233840942,-0.042615000158548355,-0.11236099898815155
1757088401295067400,4.3500673828125,0.09457899630069733,-0.14853499829769135,-0.14278100430965424
1757088401304620300,4.359620361328125,0.12018900364637375,-0.18741099536418915,-0.1494539976119995
1757088401314173200,4.369173095703125,0.1530729979276657,-0.16543099284172058,-0.11771199852228165
1757088401323726300,4.378726318359375,0.1406320035457611,-0.13418500125408173,-0.1492069959640503
1757088401333279500,4.388279541015625,0.140066996216774,-0.16657699644565582,-0.16558699309825897
1757088401342832600,4.39783251953125,0.1540520042181015,-0.14153000712394714,-0.12647099792957306
1757088401352385800,4.4073857421875,0.11789599806070328,-0.13041600584983826,-0.11636599898338318
1757088401361938400,4.4169384765625,0.08438300341367722,-0.09168899804353714,-0.10175400227308273
1757088401371491600,4.42649169921875,0.05798500031232834,-0.11873599886894226,-0.05322600156068802
1757088401381044700,4.436044677734375,-0.0017379999626427889,-0.08074100315570831,0.005795000120997429
1757088401390597600,4.44559765625,-0.03033600002527237,-0.08014199882745743,0.04890799894928932
1757088401400150800,4.45515087890625,-0.015684999525547028,-0.01706800051033497,0.03225899860262871
1757088401409704000,4.464703857421875,-0.022830000147223473,-0.062251001596450806,0.08822400122880936
1757088401419256800,4.4742568359375,-0.03994299843907356,-0.12875500321388245,0.035976000130176544
1757088401428810000,4.48381005859375,-0.006818000227212906,-0.13201500475406647,0.07868199795484543
1757088401438363000,4.49336279296875,0.000050999999075429514,-0.1099729984998703,0.07092999666929245
1757088401447916000,4.502916015625,0.018427999690175056,-0.21111400425434113,0.0722619965672493
1757088401457469200,4.51246923828125,0.048326000571250916,-0.3016659915447235,0.08216500282287598
1757088401467022000,4.52202197265625,0.04304200038313866,-0.1501079946756363,0.13193799555301666
1757088401476575200,4.5315751953125,0.0928179994225502,-0.1328900009393692,0.1071539968252182
1757088401486128000,4.541128173828125,0.06871700286865234,-0.06260400265455246,0.1426510065793991
1757088401495681500,4.550681640625,0.09015499800443649,-0.04814799875020981,0.12665799260139465
1757088401505234400,4.560234375,0.09219799935817719,-0.09092699736356735,0.10257499665021896
1757088401514787600,4.56978759765625,0.058309998363256454,-0.099822998046875,0.1276099979877472
1757088401524340500,4.579340576171875,0.08887500315904617,-0.12089399993419647,0.1398800015449524
1757088401533893600,4.5888935546875,0.030758000910282135,-0.1293250024318695,0.08872299641370773
1757088401543446500,4.598446533203125,0.02794400043785572,-0.07609599828720093,0.06408499926328659
1757088401552999700,4.607999755859375,-0.008433000184595585,-0.08015900105237961,0.0006569999968633056
1757088401562552600,4.617552490234375,-0.0286250002682209,-0.19250699877738953,-0.021245000883936882
1757088401572105700,4.627105712890625,-0.04377499967813492,-0.1403450071811676,-0.03596699982881546
1757088401581659000,4.636658935546875,0.023049000650644302,-0.018410999327898026,-0.07518099993467331
1757088401591212000,4.6462119140625,0.065932996571064,-0.011471999809145927,-0.08513099700212479
1757088401600765000,4.655764892578125,0.10148099809885025,-0.036455001682043076,-0.11016199737787247
1757088401610317800,4.66531787109375,0.11547800153493881,-0.04469899833202362,-0.09974099695682526
1757088401619871000,4.67487109375,0.09869500249624252,0.007916999980807304,-0.06521099805831909
1757088401629423900,4.684423828125,0.10864000022411346,0.07525700330734253,-0.04322800040245056
1757088401638977000,4.69397705078125,0.10171599686145782,0.05305099859833717,0.005255000200122595
1757088401648530200,4.7035302734375,0.07068999856710434,0.02790999971330166,0.01699800044298172
1757088401658083000,4.7130830078125,0.059220001101493835,0.10594300180673599,0.016447000205516815
1757088401667636200,4.72263623046875,0.057427000254392624,0.13491299748420715,0.01796399988234043
1757088401677189400,4.732189453125,0.0672679990530014,0.08382800221443176,0.0013940000208094716
1757088401686742500,4.741742431640625,0.04359599947929382,0.08556000143289566,0.016793999820947647
1757088401696295400,4.75129541015625,0.04635300114750862,0.10536599904298782,0.007964000105857849
1757088401705848300,4.760848388671875,0.08722999691963196,0.07241199910640717,0.02212199941277504
1757088401715401500,4.7704013671875,0.09956999868154526,0.11371900141239166,0.014960999600589275
1757088401724954600,4.77995458984375,0.09043999761343002,0.13240499794483185,0.01961899921298027
1757088401734507800,4.7895078125,0.08356299996376038,0.1048469990491867,-0.0027050001081079245
1757088401744060700,4.799060791015625,0.08341799676418304,0.02505199983716011,-0.03681100159883499
1757088401753613600,4.808613525390625,0.042817000299692154,0.06701400130987167,0.0052269999869167805
1757088401763166700,4.818166748046875,0.05012400075793266,0.06811899691820145,0.02439500018954277
1757088401772719900,4.827719970703125,0.08844000101089478,0.044502999633550644,0.05824900045990944
1757088401782272800,4.837272705078125,0.08112499862909317,0.02255599945783615,0.06259500235319138
1757088401791826000,4.846825927734375,0.09759599715471268,-0.0022169998846948147,0.0664450004696846
1757088401801378800,4.85637890625,0.08511299639940262,-0.04130600020289421,0.05685700103640556
1757088401810932000,4.865931884765625,0.055769000202417374,-0.0648680031299591,0.03673800081014633
1757088401820484900,4.87548486328125,0.06235500052571297,-0.06718099862337112,0.047318000346422195
1757088401830038300,4.885038330078125,0.030717000365257263,-0.05857599899172783,0.059741999953985214
1757088401839591200,4.894591064453125,0.03242899850010872,-0.09594099968671799,0.03733300045132637
1757088401849144000,4.90414404296875,0.029210999608039856,-0.12464100122451782,0.045517999678850174
1757088401858697200,4.913697265625,0.04042699933052063,-0.11110500246286392,0.05308400094509125
1757088401868250000,4.92325,0.023060999810695648,-0.0897430032491684,0.04440699890255928
1757088401877803300,4.93280322265625,0.03449299931526184,-0.0764160007238388,0.05911099910736084
1757088401887356400,4.9423564453125,0.04596899822354317,-0.07078000158071518,0.06628599762916565
1757088401896909600,4.95190966796875,0.06707800179719925,-0.05868599936366081,0.0755079984664917
1757088401906462500,4.96146240234375,0.07874000072479248,-0.03130200132727623,0.0664680004119873
1757088401916015400,4.971015380859375,0.07838500291109085,-0.039340998977422714,0.060419999063014984
1757088401925568500,4.980568603515625,0.05415600165724754,-0.02662000060081482,0.05957699939608574
1757088401935121400,4.990121337890625,0.049166999757289886,-0.010137000121176243,0.07254499942064285
1757088401944674800,4.9996748046875,0.037122998386621475,0.004999000113457441,0.07598999887704849
1757088401954227700,5.009227783203125,0.03712800145149231,0.016899000853300095,0.061427999287843704
1757088401963780600,5.018780517578125,0.04208099842071533,0.0438309982419014,0.03202800080180168
1757088401973333800,5.028333740234375,0.030287999659776688,0.04670200124382973,0.006816999986767769
1757088401982887000,5.037886962890625,0.03998799994587898,0.03816699981689453,-0.014674000442028046
1757088401992439800,5.047439697265625,0.04018300026655197,0.050436001271009445,-0.028022000566124916
1757088402001993000,5.056992919921875,0.04748300090432167,0.03720499947667122,-0.036187998950481415
1757088402011545900,5.0665458984375,0.061925001442432404,0.03157399967312813,-0.05516599863767624
1757088402021099000,5.07609912109375,0.07643000036478043,0.04439299926161766,-0.0682860016822815
1757088402030652200,5.085652099609375,0.07897999882698059,0.04971399903297424,-0.06924500316381454
1757088402040205300,5.095205322265625,0.0815109983086586,0.05045299977064133,-0.08809299767017365
1757088402049758200,5.10475830078125,0.06487800180912018,0.04880699887871742,-0.08994899690151215
1757088402059311000,5.11431103515625,0.04812999814748764,0.029224999248981476,-0.09858699887990952
1757088402068864300,5.1238642578125,0.02658100053668022,0.028826000168919563,-0.086667001247406
1757088402078417400,5.13341748046875,0.04091800004243851,0.026378000155091286,-0.0913349986076355
1757088402087970600,5.142970458984375,0.021625999361276627,0.0034229999873787165,-0.09371700137853622
1757088402097523500,5.1525234375,0.03587999939918518,0.006686999928206205,-0.07361599802970886
1757088402107076400,5.162076416015625,0.0574520006775856,0.030077999457716942,-0.05285999923944473
1757088402116629500,5.17162939453125,0.0908529981970787,0.00952799990773201,-0.051663998514413834
1757088402126182700,5.1811826171875,0.09550400078296661,0.0036090000066906214,-0.041600000113248825
1757088402135735600,5.190735595703125,0.09311100095510483,0.027355000376701355,-0.034474000334739685
1757088402145288700,5.200288818359375,0.0882909968495369,0.018000999465584755,-0.012066000141203403
1757088402154841900,5.209841796875,0.08586899936199188,0.015713000670075417,-0.03595399856567383
1757088402164394800,5.219394775390625,0.08341100066900253,0.009027999825775623,-0.028999999165534973
1757088402173947600,5.22894775390625,0.061827000230550766,0.011641000397503376,-0.02243800088763237
1757088402183500500,5.23850048828125,0.05945799872279167,0.018492000177502632,-0.004974000155925751
1757088402193053700,5.2480537109375,0.05246900022029877,0.04760099947452545,0.02253199927508831
1757088402202606800,5.25760693359375,0.05736200138926506,0.036920998245477676,0.00760400015860796
1757088402212160000,5.267159912109375,0.05019799992442131,0.027156999334692955,0.002555999904870987
1757088402221713000,5.276712890625,0.06215500086545944,0.02501099929213524,0.011227999813854694
1757088402231265800,5.286265869140625,0.05966800078749657,0.009433000348508358,0.02402300015091896
1757088402240819000,5.29581884765625,0.047683000564575195,0.01691400073468685,0.03869299963116646
1757088402250372000,5.3053720703125,0.042792998254299164,-0.005630999803543091,0.05714099854230881
1757088402259925200,5.31492529296875,0.0547109991312027,0.000037000001611886546,0.05860399827361107
1757088402269478100,5.32447802734375,0.061868999153375626,0.002933999989181757,0.04157700017094612
1757088402279031000,5.334031005859375,0.0738930031657219,0.019272999837994576,0.025265000760555267
1757088402288584200,5.343584228515625,0.09079299867153168,0.03464600071310997,0.02091900072991848
1757088402298137300,5.353137451171875,0.13867899775505066,0.014088000170886517,0.16945399343967438
1757088402307690200,5.362690185546875,0.07662300020456314,0.059943001717329025,-0.027147000655531883
1757088402317243400,5.372243408203125,0.07935299724340439,0.0847729966044426,-0.08577500283718109
1757088402326796300,5.38179638671875,0.048253998160362244,0.024629000574350357,-0.016714999452233315
1757088402336349400,5.391349365234375,0.007505999878048897,0.001348000019788742,0.019137000665068626
1757088402345902300,5.40090234375,0.002696000039577484,0.004089000169187784,0.019666999578475952
1757088402355455500,5.41045556640625,0.021771999076008797,-0.006887999828904867,0.024692999199032784
1757088402365008600,5.420008544921875,0.05524599924683571,0.0033660000190138817,0.03597100079059601
1757088402374561800,5.429561767578125,0.06963299959897995,0.017621999606490135,0.039723001420497894
1757088402384114700,5.43911474609375,0.10072699934244156,0.006165000144392252,0.034345999360084534
1757088402393667600,5.44866748046875,0.09351199865341187,0.006612999830394983,0.024900000542402267
1757088402403220700,5.458220703125,0.08392900228500366,0.009127000346779823,0.018490999937057495
1757088402412773600,5.467773681640625,0.07921899855136871,0.022641999647021294,0.012791999615728855
1757088402422326800,5.477326904296875,0.07685200124979019,0.01279900036752224,0.009916000068187714
1757088402431879700,5.486879638671875,0.05524099990725517,-0.005619999952614307,0.03225800022482872
1757088402441432800,5.496432861328125,0.035976000130176544,-0.016315000131726265,0.014837999828159809
1757088402450985700,5.50598583984375,0.03347500041127205,-0.015123999677598476,0.014100999571383
1757088402460539000,5.515538818359375,0.05025099962949753,0.008661000058054924,0.0087909996509552
1757088402470091800,5.525091796875,0.0718030035495758,0.008623999543488026,-0.0008249999955296516
1757088402479645200,5.534645263671875,0.07176599651575089,0.0018179999897256494,-0.012152000330388546
1757088402489198000,5.544197998046875,0.07175599783658981,0.006686999928206205,-0.018187999725341797
1757088402498751000,5.5537509765625,0.06690900027751923,-0.00228899996727705,-0.010111000388860703
1757088402508304100,5.56330419921875,0.052508000284433365,0.0004579999949783087,-0.02078999951481819
1757088402517857300,5.572857177734375,0.06452800333499908,0.01665399968624115,-0.017309999093413353
1757088402527410200,5.58241015625,0.057353999465703964,0.01168499980121851,-0.0322050005197525
1757088402536963300,5.59196337890625,0.055004000663757324,0.015901999548077583,-0.03722500056028366
1757088402546516200,5.60151611328125,0.07421199977397919,0.017604999244213104,-0.03980199992656708
1757088402556069400,5.6110693359375,0.06234300136566162,0.025918999686837196,-0.04662900045514107
1757088402565622300,5.620622314453125,0.0623759999871254,0.01107100024819374,-0.03049900010228157
1757088402575175400,5.630175537109375,0.07440099865198135,0.015192000195384026,-0.024315999820828438
1757088402584728600,5.639728515625,0.06003500148653984,0.005572999827563763,-0.022996999323368073
1757088402594281500,5.649281494140625,0.057691000401973724,0.014550000429153442,-0.010471999645233154
1757088402603834400,5.65883447265625,0.04581199958920479,0.020695999264717102,-0.0054419999942183495
1757088402613387500,5.668387451171875,0.04832899942994118,0.026499999687075615,-0.009837999939918518
1757088402622940700,5.677940673828125,0.057996999472379684,0.020733999088406563,0.008592000231146812
1757088402632493600,5.68749365234375,0.07250099629163742,0.031168000772595406,-0.010130999609827995
1757088402642046700,5.697046630859375,0.07497800141572952,0.023073000833392143,0.00380899989977479
1757088402651599600,5.706599609375,0.06305400282144547,0.017751000821590424,-0.005493000149726868
1757088402661152800,5.71615283203125,0.06062500178813934,0.003806999884545803,0.00829899962991476
1757088402670706000,5.725705810546875,0.06293199956417084,-0.00481100007891655,0.0032480000518262386
1757088402680258800,5.7352587890625,0.055663999170064926,-0.006200999952852726,0.016534000635147095
1757088402689812000,5.74481201171875,0.06043099984526634,0.003684000112116337,0.013261999934911728
1757088402699364900,5.75436474609375,0.06279899924993515,0.0016169999726116657,0.007807000074535608
1757088402708917800,5.763917724609375,0.06510599702596664,-0.009345999918878078,0.011908999644219875
1757088402718471000,5.773470947265625,0.0698700025677681,0.0005430000019259751,0.020295999944210052
1757088402728024000,5.783024169921875,0.0603180006146431,0.009932000190019608,0.028185000643134117
1757088402737577200,5.7925771484375,0.0675550028681755,0.016561999917030334,0.015313999727368355
1757088402747130000,5.802130126953125,0.06521199643611908,0.01602800004184246,0.010067000053822994
1757088402756683000,5.81168310546875,0.05318300053477287,-0.004852000158280134,0.01640000008046627
1757088402766236200,5.821236083984375,0.048367999494075775,0.00026699999580159783,0.015483000315725803
1757088402775789300,5.830789306640625,0.05558599904179573,0.01190400030463934,0.021386999636888504
1757088402785342200,5.84034228515625,0.0676250010728836,0.018420999869704247,0.02468400076031685
1757088402794895400,5.849895263671875,0.0628729984164238,0.013252999633550644,0.0187740009278059
1757088402804448300,5.8594482421875,0.06530199944972992,0.012907000258564949,0.031137999147176743
1757088402814001700,5.869001708984375,0.0653730034828186,0.019353000447154045,0.020329000428318977
1757088402823554600,5.878554443359375,0.06537500023841858,0.00737199978902936,-0.001145999995060265
1757088402833107500,5.888107421875,0.05104200169444084,0.01180300023406744,0.007942999713122845
1757088402842660600,5.89766064453125,0.05588600039482117,0.018376000225543976,0.0007159999804571271
1757088402852213800,5.9072138671875,0.055876001715660095,0.006515000015497208,-0.0015810000477358699
1757088402861766400,5.916766357421875,0.05108899995684624,0.006479000207036734,-0.003737000050023198
1757088402871319800,5.92631982421875,0.05590299889445305,0.010985000059008598,0.0032560001127421856
1757088402880872700,5.935872802734375,0.06548599898815155,0.008508999831974506,-0.010569999925792217
1757088402890425900,5.94542578125,0.06553100049495697,0.017573999240994453,-0.005537999793887138
1757088402899978800,5.954978759765625,0.06792999804019928,0.012702999636530876,-0.007449999917298555
1757088402909531600,5.96453173828125,0.05591699853539467,0.003533999901264906,-0.02717999927699566
1757088402919085000,5.9740849609375,0.03912099823355675,0.00394799979403615,0.0016060000052675605
1757088402928638000,5.983637939453125,0.046213001012802124,-0.004654000047594309,-0.01640000008046627
1757088402938191000,5.993191162109375,0.05570099875330925,-0.006056999787688255,-0.002004999900236726
1757088402947744000,6.002743896484375,0.07243900001049042,0.006136000156402588,-0.006599999964237213
1757088402957297000,6.012296875,0.07722699642181396,0.008514000102877617,-0.01104199979454279
1757088402966850000,6.02185009765625,0.08203399926424026,0.010665999725461006,-0.022001000121235847
1757088402976403000,6.03140283203125,0.08938200026750565,0.03992500156164169,-0.016282999888062477
1757088402985956000,6.0409560546875,0.07272599637508392,0.029165999963879585,-0.0016479999758303165
1757088402995509200,6.05050927734375,0.05591600015759468,0.003367000026628375,0.0010839999886229634
1757088403005062100,6.060062255859375,0.041485998779535294,-0.0007140000234358013,0.0036460000555962324
1757088403014615300,6.069615234375,0.02699499949812889,-0.011295000091195107,-0.005576000083237886
1757088403024168200,6.079168212890625,0.038906000554561615,0.001366000040434301,0.008059999905526638
1757088403033721300,6.088721435546875,0.055661000311374664,0.011018999852240086,-0.0018860000418499112
1757088403043274500,6.0982744140625,0.08200500160455704,0.015737999230623245,-0.008984999731183052
1757088403052827400,6.107827392578125,0.0891600027680397,0.008825999684631824,-0.00880999956279993
1757088403062380300,6.11738037109375,0.08910699933767319,-0.0001740000006975606,-0.024320000782608986
1757088403071933400,6.126933349609375,0.06036100164055824,0.004734000191092491,-0.016155999153852463
1757088403081486300,6.136486328125,0.05319799855351448,0.011695999652147293,0.007350000087171793
1757088403091039500,6.14603955078125,0.029242999851703644,0.0023360000923275948,0.020471999421715736
1757088403100592600,6.155592529296875,0.03167400136590004,0.01395300030708313,0.01919499970972538
1757088403110145500,6.1651455078125,0.033966999500989914,-0.011200999841094017,0.020258000120520592
1757088403119698700,6.17469873046875,0.05551600083708763,0.00796900037676096,0.014491000212728977
1757088403129251600,6.18425146484375,0.06985899806022644,0.0034310000482946634,-0.004476999863982201
1757088403138804700,6.1938046875,0.091450996696949,0.017319999635219574,0.011491999961435795
1757088403148357600,6.203357666015625,0.09862300008535385,0.010250000283122063,-0.007067000027745962
1757088403157910800,6.212910888671875,0.06753300130367279,0.014596999622881413,-0.01091300044208765
1757088403167463700,6.222463623046875,0.060416001826524734,0.018657000735402107,0.0013680000556632876
1757088403177016800,6.232016845703125,0.053300999104976654,0.017934000119566917,0.01496800035238266
1757088403186570000,6.241570068359375,0.053380001336336136,0.021880000829696655,0.009608999826014042
1757088403196123000,6.251122802734375,0.06778000295162201,0.016757000237703323,0.01573600061237812
1757088403205676000,6.260676025390625,0.07493899762630463,0.007451000157743692,0.007953999564051628
1757088403215229000,6.27022900390625,0.0748710036277771,-0.00369199994020164,0.020819000899791718
1757088403224781800,6.27978173828125,0.07489500194787979,0.010401999577879906,0.0014600000577047467
1757088403234335200,6.289335205078125,0.06297100335359573,0.014712999574840069,0.01942799985408783
1757088403243888000,6.29888818359375,0.04865400120615959,0.014189999550580978,0.013918999582529068
1757088403253441300,6.308441162109375,0.05340300127863884,0.0002899999963119626,0.015495999716222286
1757088403262994200,6.317994140625,0.04130500182509422,-0.012648000381886959,0.012581000104546547
1757088403272547000,6.327547119140625,0.03875799849629402,-0.020457999780774117,0.03216800093650818
1757088403282100200,6.337100341796875,0.055521998554468155,0.010641000233590603,0.01191600039601326
1757088403291653400,6.3466533203125,0.07702600210905075,0.0015849999617785215,-0.0005099999834783375
1757088403301206300,6.356206298828125,0.09127700328826904,-0.009131000377237797,-0.01233999989926815
1757088403310759400,6.365759521484375,0.09128399938344955,0.009877000004053116,-0.04152899980545044
1757088403320312300,6.375312255859375,0.08417399972677231,0.018617000430822372,-0.03283200040459633
1757088403329865200,6.384865234375,0.08432599902153015,0.03125400096178055,-0.03139299899339676
1757088403339418400,6.39441845703125,0.06777899712324142,0.0431939996778965,-0.027545999735593796
1757088403348971300,6.40397119140625,0.0584460012614727,0.05000000074505806,-0.03295600041747093
1757088403358524400,6.4135244140625,0.05633699893951416,0.05866000056266785,-0.033528998494148254
1757088403368077600,6.42307763671875,0.0685809999704361,0.05796299874782562,-0.02504800073802471
1757088403377630500,6.43263037109375,0.06645400077104568,0.05729199945926666,-0.019291000440716743
1757088403387183600,6.44218359375,0.07379200309515,0.03874899819493294,-0.004602999892085791
1757088403396736500,6.451736572265625,0.05713900178670883,0.025584999471902847,0.00494900019839406
1757088403406289400,6.461289306640625,0.052414000034332275,0.01766500063240528,0.0029060000088065863
1757088403415842600,6.470842529296875,0.05009699985384941,0.016843000426888466,0.019259000197052956
1757088403425395700,6.480395751953125,0.05489199981093407,0.0024339999072253704,0.03478100150823593
1757088403434948600,6.489948486328125,0.05480699986219406,-0.015661999583244324,0.04262600094079971
1757088403444501800,6.499501708984375,0.049890000373125076,-0.021347999572753906,0.034244000911712646
1757088403454054700,6.5090546875,0.05688700079917908,-0.031184999272227287,0.035241998732089996
1757088403463607800,6.51860791015625,0.06381499767303467,-0.04504700005054474,0.015876000747084618
1757088403473161000,6.528160888671875,0.06820899993181229,-0.07174400240182877,0.015561999753117561
1757088403482713900,6.5377138671875,0.05595099925994873,-0.05894400179386139,0.022022999823093414
1757088403492266800,6.547266845703125,0.048486001789569855,-0.0629429966211319,0.03060300089418888
1757088403501820000,6.55681982421875,-0.0018840000266209245,-0.03560300171375275,0.03531700000166893
1757088403511373000,6.566373046875,-0.021131999790668488,-0.053734999150037766,0.05238199979066849
1757088403520926000,6.575926025390625,0.009717999957501888,-0.08398299664258957,0.20315299928188324
1757088403530479000,6.58547900390625,0.012028999626636505,-0.044523999094963074,0.17640900611877441
1757088403540032000,6.595031982421875,0.07656700164079666,-0.036086998879909515,0.08019299805164337
1757088403549585200,6.604585205078125,0.1484529972076416,0.0015879999846220016,0.05496000126004219
1757088403559138000,6.614137939453125,0.17009399831295013,0.007759000174701214,0.03037700057029724
1757088403568691200,6.623691162109375,0.16318200528621674,0.03349500149488449,-0.010250000283122063
1757088403578244400,6.633244384765625,0.15414200723171234,0.07539299875497818,0.002088000066578388
1757088403587797200,6.64279736328125,0.14290499687194824,0.11503200232982635,-0.10219600051641464
1757088403597350100,6.65235009765625,0.07705400139093399,0.19484299421310425,-0.11540500074625015
1757088403606903300,6.6619033203125,0.08275700360536575,0.14584499597549438,-0.09796100109815598
1757088403616456400,6.67145654296875,0.04296699911355972,0.1564749926328659,-0.1366029977798462
1757088403626009300,6.68100927734375,0.0295570008456707,0.16880199313163757,-0.10012199729681015
1757088403635562500,6.6905625,0.025335000827908516,0.09507899731397629,0.05618299916386604
1757088403645115400,6.700115478515625,0.025577999651432037,0.041825998574495316,-0.016766000539064407
1757088403654668500,6.70966845703125,0.04264099895954132,0.07137899845838547,-0.09237600117921829
1757088403664221400,6.719221435546875,0.057420000433921814,0.09952200204133987,-0.10255199670791626
1757088403673774300,6.7287744140625,0.06249399855732918,0.07664000242948532,-0.03718800097703934
1757088403683327500,6.738327392578125,0.05774100124835968,0.028192000463604927,-0.023088999092578888
1757088403692880600,6.747880615234375,0.05734099820256233,-0.05347999930381775,-0.07987099885940552
1757088403702433500,6.75743359375,0.07585799694061279,-0.09414400160312653,-0.08846200257539749
1757088403711986400,6.766986328125,0.09915900230407715,-0.09634499996900558,-0.0721609964966774
1757088403721539600,6.77653955078125,0.09378000348806381,-0.08726900070905685,-0.0726969987154007
1757088403731092700,6.7860927734375,0.09544599801301956,-0.1125510036945343,-0.05286499857902527
1757088403740645600,6.795645751953125,0.06156500056385994,-0.046278998255729675,-0.040706001222133636
1757088403750198800,6.80519873046875,0.029993999749422073,-0.06759800016880035,-0.03386500105261803
1757088403759751700,6.814751708984375,0.034352000802755356,-0.07221399992704391,-0.00481700012460351
1757088403769304600,6.8243046875,0.03390900045633316,-0.07667899876832962,0.004298000130802393
1757088403778857700,6.833857666015625,0.035805001854896545,-0.08776099979877472,-0.014414999634027481
1757088403788411000,6.843410888671875,0.037794001400470734,-0.07110100239515305,-0.005437000188976526
1757088403797963800,6.8529638671875,0.06142299994826317,-0.048486001789569855,-0.03568900004029274
1757088403807517000,6.862516845703125,0.06832099705934525,-0.03592300042510033,-0.05791499838232994
1757088403817069800,6.87206982421875,0.09956999868154526,0.034533001482486725,-0.035982001572847366
1757088403826623000,6.881623046875,0.10449100285768509,0.03540699928998947,-0.033263999968767166
1757088403836176000,6.89117578125,0.1022609993815422,0.03599200025200844,-0.016963999718427658
1757088403845729000,6.90072900390625,0.07860799878835678,0.051993999630212784,0.007517999969422817
1757088403855282000,6.910281982421875,0.08141499757766724,0.0668570026755333,0.051360998302698135
1757088403864835300,6.91983544921875,0.06504599750041962,0.060357000678777695,0.07330100238323212
1757088403874388200,6.92938818359375,0.03428199887275696,0.04956800118088722,0.10288400202989578
1757088403883941000,6.938941162109375,0.0250489991158247,0.04612100124359131,0.11259300261735916
1757088403893494300,6.948494384765625,0.02770099975168705,0.031706999987363815,0.11485199630260468
1757088403903047200,6.958047119140625,0.027883000671863556,0.027602000162005424,0.10770899802446365
1757088403912600300,6.967600341796875,0.04228999838232994,0.005969000048935413,0.10083100199699402
1757088403922153200,6.9771533203125,0.049598000943660736,0.01912599988281727,0.09895499795675278
1757088403931706000,6.9867060546875,0.04481000080704689,-0.009352000430226326,0.0973920002579689
1757088403941259300,6.99625927734375,0.03995399922132492,-0.02279599942266941,0.09377100318670273
1757088403950812400,7.0058125,0.03747100010514259,-0.028824999928474426,0.08381199836730957
1757088403960365300,7.015365234375,0.027917999774217606,-0.007466999813914299,0.07419600337743759
1757088403969918500,7.02491845703125,0.035082001239061356,-0.012010999955236912,0.05158599838614464
1757088403979471400,7.034471435546875,0.05180700123310089,-0.01395300030708313,0.03918299823999405
1757088403989024300,7.044024169921875,0.054294001311063766,0.0113129997625947,0.020609000697731972
1757088403998577400,7.053577392578125,0.07355999946594238,0.014798000454902649,0.0008479999960400164
1757088404008130300,7.06313037109375,0.0761369988322258,0.024637000635266304,-0.0537480004131794
1757088404017683500,7.072683349609375,0.08097700029611588,0.00008099999831756577,-0.06233999878168106
1757088404027236600,7.082236572265625,0.07156399637460709,0.02439500018954277,-0.07494600117206573
1757088404036789500,7.09178955078125,0.06954199820756912,0.06547100096940994,-0.07079699635505676
1757088404046342700,7.1013427734375,0.060134999454021454,0.034634001553058624,-0.06665000319480896
1757088404055895600,7.1108955078125,0.048367999494075775,0.04410500079393387,-0.060589998960494995
1757088404065448700,7.12044873046875,0.06538300216197968,0.05773499980568886,-0.03693300113081932
1757088404075001600,7.130001708984375,0.07019700109958649,0.016665000468492508,-0.03243900090456009
1757088404084554800,7.1395546875,0.0605430006980896,-0.004038999788463116,-0.03259500116109848
1757088404094107600,7.149107666015625,0.053268998861312866,-0.007794000208377838,-0.0214610006660223
1757088404103660500,7.15866064453125,0.07002700120210648,0.01131800003349781,-0.02448900043964386
1757088404113213700,7.168213623046875,0.06521099805831909,0.006856000050902367,-0.00038300000596791506
1757088404122766800,7.177766845703125,0.06515900045633316,0.0002789999998640269,-0.00022000000171829015
1757088404132320000,7.187320068359375,0.07458200305700302,-0.017044000327587128,0.0021989999804645777
1757088404141873000,7.196872802734375,0.06484899669885635,-0.022363999858498573,0.01803399994969368
1757088404151425800,7.20642578125,0.048082999885082245,0.004023000132292509,-0.0008800000068731606
1757088404160978700,7.215978759765625,0.08640900254249573,-0.012908999808132648,0.003226999891921878
1757088404170531800,7.22553173828125,0.08432099968194962,0.03622300177812576,0.01846200041472912
1757088404180085000,7.2350849609375,0.08221299946308136,0.03050299920141697,0.016992999240756035
1757088404189638000,7.244637939453125,0.07054799795150757,0.04356199875473976,-0.004333999939262867
1757088404199191000,7.25419091796875,0.06129999831318855,0.054026998579502106,0.02090499922633171
1757088404208744000,7.263743896484375,0.08269000053405762,-0.032604001462459564,0.03179699927568436
1757088404218296800,7.273296875,0.03756200149655342,0.061455000191926956,0.18397200107574463
1757088404227850000,7.28285009765625,0.02590399980545044,0.04104200005531311,0.0902160033583641
1757088404237403100,7.292403076171875,0.04761499911546707,0.00800899975001812,0.04753600060939789
1757088404246956000,7.3019560546875,0.033233001828193665,-0.02771499939262867,-0.0022440000902861357
1757088404256509200,7.31150927734375,0.06680099666118622,-0.00434499979019165,0.005071999970823526
1757088404266062000,7.32106201171875,0.07876899838447571,0.00048600000445730984,0.027910999953746796
1757088404275615200,7.330615234375,0.06903199851512909,-0.007288999855518341,-0.07432399690151215
1757088404285168000,7.340168212890625,0.03769100084900856,0.016516000032424927,-0.15993599593639374
1757088404294721300,7.34972119140625,-0.0036140000447630882,-0.06960099935531616,0.03209400177001953
1757088404304274400,7.3592744140625,-0.014681999571621418,0.221110999584198,0.014251000247895718
1757088404313827300,7.368827392578125,0.23941199481487274,0.5067800283432007,0.6038320064544678
1757088404323380200,7.378380126953125,0.05834599956870079,-0.31258198618888855,-0.023763999342918396
1757088404332933000,7.38793310546875,-0.006550000049173832,-0.5444660186767578,-0.6795750260353088
1757088404342486000,7.397486083984375,0.15672799944877625,0.08459100127220154,0.14953699707984924
1757088404352039400,7.407039306640625,0.061698999255895615,0.15489700436592102,0.06765399873256683
1757088404361592300,7.41659228515625,0.07194799929857254,0.15608300268650055,-0.09522999823093414
1757088404371145500,7.4261455078125,-0.021053999662399292,0.0772470012307167,0.018851999193429947
1757088404380698400,7.435698486328125,-0.040991999208927155,-0.1647839993238449,-0.055018000304698944
1757088404390251300,7.445251220703125,0.04208900034427643,-0.13492600619792938,-0.09345799684524536
1757088404399804400,7.454804443359375,0.07070700079202652,-0.009099000133574009,-0.017266999930143356
1757088404409357600,7.464357666015625,0.10396499931812286,-0.029911000281572342,-0.0006099999882280827
1757088404418910500,7.473910400390625,0.10345900058746338,-0.06486299633979797,-0.08475299924612045
1757088404428463600,7.483463623046875,0.08650100231170654,-0.007734000217169523,-0.09399700164794922
1757088404438016500,7.4930166015625,0.042702000588178635,-0.10318800061941147,-0.1882220059633255
1757088404447569700,7.502569580078125,0.027905000373721123,-0.06300599873065948,-0.1570899933576584
1757088404457122800,7.512122802734375,0.061712998896837234,0.060481999069452286,-0.00558099988847971
1757088404466675700,7.52167578125,0.06704799830913544,0.09745199978351593,0.05093799903988838
1757088404476228600,7.531228515625,0.12249600142240524,0.06200899928808212,0.02468400076031685
1757088404485781800,7.54078173828125,0.14937099814414978,0.10339199751615524,-0.00976799987256527
1757088404495334700,7.550334716796875,0.0756480023264885,0.10687600076198578,-0.01787400059401989
1757088404504887800,7.5598876953125,0.06634099781513214,0.07694599777460098,-0.05352000147104263
1757088404514441000,7.56944091796875,0.07630100101232529,0.08442199975252151,-0.004379000049084425
1757088404523993900,7.578993896484375,0.09805899858474731,0.03660300001502037,0.019706999883055687
1757088404533546800,7.588546630859375,0.09328100085258484,-0.011315999552607536,0.006550999823957682
1757088404543099600,7.598099609375,0.04545599967241287,-0.01180300023406744,0.041735000908374786
1757088404552652800,7.60765283203125,0.05046899989247322,0.02173599973320961,0.07485999912023544
1757088404562206000,7.6172060546875,0.05575399845838547,0.07842700183391571,0.10653100162744522
1757088404571758800,7.6267587890625,0.08528400212526321,0.13376900553703308,0.17340399324893951
1757088404581312000,7.63631201171875,0.0952799990773201,0.05236800014972687,0.20389500260353088
1757088404590865000,7.645864990234375,0.035670001059770584,0.01362599991261959,0.14242899417877197
1757088404600417800,7.655417724609375,0.0023109999019652605,0.004494000226259232,0.0776979997754097
1757088404609971000,7.664970947265625,-0.0026149998884648085,-0.043977998197078705,0.05883000046014786
1757088404619524000,7.674524169921875,0.018487000837922096,-0.09578199684619904,0.049442000687122345
1757088404629077000,7.684076904296875,0.017927000299096107,-0.10793200135231018,0.0718659982085228
1757088404638630100,7.693630126953125,0.019872000440955162,-0.0783889964222908,0.02530599944293499
1757088404648183000,7.70318310546875,0.06531199812889099,0.0012649999698624015,0.015155999921262264
1757088404657736200,7.712736083984375,0.10857599973678589,0.03997499868273735,0.10941199958324432
1757088404667289000,7.7222890625,0.07472600042819977,-0.07321000099182129,0.10724999755620956
1757088404676842200,7.73184228515625,0.07433000206947327,-0.09470699727535248,0.005493999924510717
1757088404686395100,7.74139501953125,0.04271100088953972,-0.09605000168085098,-0.0880969986319542
1757088404695948300,7.7509482421875,0.003963999915868044,-0.05978899821639061,-0.13837899267673492
1757088404705501200,7.760501220703125,-0.00817899964749813,0.009019000455737114,-0.12578700482845306
1757088404715054000,7.77005419921875,0.02763199992477894,0.024288000538945198,-0.13218699395656586
1757088404724607200,7.779607177734375,0.07045499980449677,0.0006300000241026282,-0.16019299626350403
1757088404734160100,7.78916015625,0.07280699908733368,0.05564799904823303,-0.11761700361967087
1757088404743713300,7.79871337890625,0.04417800158262253,0.09949500113725662,-0.03845300152897835
1757088404753266400,7.808266357421875,0.015116999857127666,0.02851800061762333,-0.11110299825668335
1757088404762819300,7.8178193359375,0.10296499729156494,-0.037964001297950745,-0.17188699543476105
1757088404772372200,7.827372314453125,0.1239129975438118,-0.012848000042140484,-0.16682599484920502
1757088404781925400,7.83692529296875,0.1260489970445633,0.037105999886989594,-0.1509460061788559
1757088404791478500,7.846478515625,0.12100200355052948,0.019950000569224358,-0.13875000178813934
1757088404801031400,7.856031494140625,0.09428299963474274,-0.021855000406503677,-0.12074299901723862
1757088404810584300,7.865584228515625,0.04880199953913689,0.05160300061106682,-0.11136200278997421
1757088404820137500,7.875137451171875,0.03725200146436691,0.14963099360466003,-0.06350799649953842
1757088404829690600,7.884690673828125,0.0369499996304512,0.0924450010061264,-0.1963919997215271
1757088404839243500,7.894243408203125,0.007790999952703714,0.06935799866914749,-0.002650999929755926
1757088404848796700,7.903796630859375,0.052769001573324203,0.05448700115084648,-0.02937600016593933
1757088404858349600,7.913349609375,0.11465299874544144,0.07192300260066986,-0.007511999923735857
1757088404867902500,7.92290234375,0.09498199820518494,0.02938999980688095,0.07822500169277191
1757088404877455600,7.93245556640625,0.13745400309562683,0.016366999596357346,0.0794999971985817
1757088404887008800,7.9420087890625,0.161190003156662,0.08481200039386749,0.1809850037097931
1757088404896561700,7.951561767578125,0.1321679949760437,0.04871600121259689,0.39088499546051025
1757088404906114800,7.96111474609375,-0.00019299999985378236,-0.020241999998688698,0.2851940095424652
1757088404915667700,7.970667724609375,-0.06380300223827362,-0.12569400668144226,0.11862300336360931
1757088404925220600,7.980220703125,-0.10649800300598145,-0.220210999250412,-0.051676999777555466
1757088404934773800,7.989773681640625,-0.08005700260400772,-0.24698999524116516,-0.2579739987850189
1757088404944327000,7.999326904296875,0.06680499762296677,-0.12601900100708008,-0.17278200387954712
1757088404953879800,8.0088798828125,0.1711599975824356,-0.05525600165128708,0.08091399818658829
1757088404963432700,8.0184326171875,0.14853599667549133,-0.09533900022506714,0.17476700246334076
1757088404972985900,8.02798583984375,0.046199001371860504,-0.22428900003433228,-0.02961299940943718
1757088404982539000,8.0375390625,0.13195200264453888,-0.37939199805259705,-0.06443300098180771
1757088404992092000,8.047091796875,0.03328699991106987,-0.34888699650764465,0.18274599313735962
1757088405001645000,8.05664501953125,-0.018264999613165855,-0.09903000295162201,0.25117799639701843
1757088405011198000,8.066197998046874,-0.13316600024700165,0.025025999173521996,-0.10260900110006332
1757088405020750800,8.075750732421875,-0.313306987285614,-0.11741700023412704,-0.1832129955291748
1757088405030304000,8.085303955078125,0.021695999428629875,-0.13185100257396698,-0.38264000415802
1757088405039857000,8.09485693359375,0.09326600283384323,-0.09250900149345398,-0.31354600191116333
1757088405049410000,8.10441015625,0.1151610016822815,0.07998699694871902,0.03768099844455719
1757088405058963200,8.113963134765624,0.21016600728034973,0.4120959937572479,0.21907199919223785
1757088405068516000,8.12351611328125,0.17025500535964966,0.4489090144634247,0.208965003490448
1757088405078069000,8.133069091796875,0.1151370033621788,0.29376399517059326,-0.22565899789333344
1757088405087622000,8.142621826171874,0.18327000737190247,0.31972599029541016,-0.655797004699707
1757088405097175000,8.152175048828125,0.26924800872802734,0.42803698778152466,-0.4637089967727661
1757088405106728200,8.161728271484375,0.2976210117340088,0.4496470093727112,0.09062299877405167
1757088405116281000,8.171281005859376,0.04490499943494797,0.43941599130630493,0.5588409900665283
1757088405125834200,8.180834228515625,-0.029222000390291214,0.5095210075378418,0.7185770273208618
1757088405135387100,8.19038720703125,-0.11196400225162506,0.4072929918766022,0.5472819805145264
1757088405144940300,8.199940185546875,0.08691900223493576,0.16791799664497375,0.19384099543094635
1757088405154493200,8.2094931640625,-0.35432299971580505,0.4305259883403778,-0.007170999888330698
1757088405164046000,8.219046142578126,-0.8231130242347717,3.29624605178833,0.7256590127944946
1757088405173599200,8.22859912109375,1.1594079732894897,1.0065300464630127,0.7256820201873779
1757088405183152000,8.238152099609374,0.9922149777412415,-0.9225950241088867,-0.5998610258102417
1757088405192705300,8.247705322265626,0.11301799863576889,-1.4837150573730469,-1.208866000175476
1757088405202258200,8.257258056640625,-0.3915669918060303,-0.35176199674606323,-0.3807559907436371
1757088405211811300,8.266811279296874,-0.4868910014629364,0.3534820079803467,0.045267000794410706
1757088405221364200,8.2763642578125,-0.32671499252319336,-1.427536964416504,0.2531520128250122
1757088405230917000,8.285917236328125,0.04435800015926361,-4.998456001281738,0.08202999830245972
1757088405240470300,8.29547021484375,-0.3668290078639984,-2.5544230937957764,-1.3189860582351685
1757088405250023400,8.3050234375,-0.4359390139579773,0.2604469954967499,-0.5142539739608765
1757088405259576300,8.314576416015624,0.07857999950647354,1.362663984298706,-0.15112300217151642
1757088405269129200,8.324129150390625,0.5225359797477722,1.4681320190429688,0.06857399642467499
1757088405278682000,8.33368212890625,0.6287980079650879,0.6526319980621338,0.021731000393629074
1757088405288235300,8.3432353515625,0.6958699822425842,-0.19534599781036377,0.12325099855661392
1757088405297788200,8.3527880859375,0.49958598613739014,0.058699000626802444,0.17793500423431396
1757088405307341300,8.36234130859375,-0.18186800181865692,0.09134899824857712,0.437283992767334
1757088405316894500,8.37189453125,-1.364516019821167,0.01867399923503399,1.0143940448760986
1757088405326447400,8.381447265625,0.8612509965896606,-0.5329859852790833,0.9658949971199036
1757088405336000300,8.391000244140624,0.9725520014762878,-0.44982999563217163,-0.3724159896373749
1757088405345553400,8.400553466796875,0.08848399668931961,-0.15280799567699432,-0.35776299238204956
1757088405355106300,8.410106201171875,-0.2518410086631775,0.591035008430481,-0.12964999675750732
1757088405364659500,8.419659423828126,-0.6367650032043457,1.2600409984588623,-0.19399000704288483
1757088405374212600,8.429212646484375,-0.4456290006637573,0.6543179750442505,-0.26826000213623047
1757088405383765500,8.438765625,-0.1389160007238388,-0.12882600724697113,0.42136600613594055
1757088405393318400,8.448318359375,0.22733399271965027,-0.5588909983634949,0.3195599913597107
1757088405402871300,8.457871337890625,0.18198800086975098,-0.42693498730659485,0.24520200490951538
1757088405412424700,8.4674248046875,0.0070050000213086605,0.1227170005440712,0.335301011800766
1757088405421977600,8.4769775390625,-0.03595900163054466,0.2720920145511627,-0.04916299879550934
1757088405431530500,8.486530517578124,0.06847299635410309,0.11722999811172485,0.10305099934339523
1757088405441083600,8.496083740234376,-0.08639699965715408,0.1803710013628006,-0.2885020077228546
1757088405450636500,8.505636474609375,0.2732529938220978,-0.023559000343084335,0.2962679862976074
1757088405460189400,8.515189453125,0.1685909926891327,-0.09738899767398834,0.5808079838752747
1757088405469742600,8.52474267578125,-0.1360500007867813,-0.25892800092697144,0.11789999902248383
1757088405479295500,8.53429541015625,0.14460299909114838,-0.2919520139694214,0.3427729904651642
1757088405488848600,8.5438486328125,0.007648000027984381,-0.18475699424743652,0.09623999893665314
1757088405498401500,8.553401611328125,-0.08709999918937683,-0.01992800086736679,-0.06289900094270706
1757088405507954700,8.56295458984375,0.017035000026226044,0.10269799828529358,-0.1967950016260147
1757088405517507600,8.572507568359375,0.006064999848604202,0.19986499845981598,-0.3998039960861206
1757088405527060700,8.582060791015625,0.18652699887752533,-0.0573510006070137,-0.5294939875602722
1757088405536614000,8.59161376953125,0.16922900080680847,-0.10093499720096588,-0.26774099469184875
1757088405546166800,8.601166748046875,0.1680999994277954,-0.29573699831962585,0.1791359931230545
1757088405555719700,8.6107197265625,0.009270000271499157,-0.17099900543689728,0.125900998711586
1757088405565272600,8.6202724609375,-0.035989999771118164,0.06626799702644348,0.15667900443077087
1757088405574825700,8.62982568359375,0.044374000281095505,0.09808599948883057,-0.05936700105667114
1757088405584379000,8.63937890625,-0.013295999728143215,0.06788399815559387,-0.06338299810886383
1757088405593931800,8.648931884765625,0.34063899517059326,0.3361609876155853,-0.6084489822387695
1757088405603485000,8.65848486328125,0.3034310042858124,0.5468509793281555,-0.874750018119812
1757088405613037800,8.668037841796876,0.11617200076580048,0.6123740077018738,-0.6476650238037109
1757088405622590700,8.6775908203125,0.12275400012731552,0.44921499490737915,-0.420646995306015
1757088405632144000,8.687143798828124,0.03126699849963188,0.2123750001192093,-0.46460598707199097
1757088405641696800,8.69669677734375,-0.007888000458478928,-0.07383900135755539,0.10657300055027008
1757088405651249700,8.706249755859375,-0.24715900421142578,-0.6298850178718567,0.7465879917144775
1757088405660802800,8.715802734375,-0.4359779953956604,-0.8684120178222656,0.6640710234642029
1757088405670356000,8.72535595703125,-0.3982979953289032,-0.9271630048751831,0.10478299856185913
1757088405679908900,8.734908935546875,-0.18245500326156616,-0.9725239872932434,-0.17770500481128693
1757088405689462000,8.7444619140625,0.0667480006814003,-1.4151060581207275,0.2601659893989563
1757088405699015200,8.75401513671875,-0.04075700044631958,-1.7425379753112793,0.7075120210647583
1757088405708568000,8.763568115234374,-0.1453009992837906,-1.988556981086731,0.6614400148391724
1757088405718121000,8.773120849609375,-0.12981100380420685,-1.3905030488967896,0.5179839730262756
1757088405727673900,8.782673828125,-0.2566019892692566,-0.791949987411499,0.5787739753723145
1757088405737227000,8.79222705078125,-0.3552210032939911,-0.7746350169181824,0.7683969736099243
1757088405746780000,8.80177978515625,-0.41735899448394775,-0.9312160015106201,0.436955988407135
1757088405756333000,8.8113330078125,-0.15974700450897217,-1.7284489870071411,0.1014769971370697
1757088405765886200,8.82088623046875,-0.199070006608963,-2.2676820755004883,-0.5860739946365356
1757088405775439000,8.830439208984375,-0.22584199905395508,-2.411479949951172,-0.8815119862556458
1757088405784992000,8.839991943359376,-0.19527700543403625,-1.7926199436187744,-2.094136953353882
1757088405794545200,8.849545166015625,0.3114849925041199,-1.4134689569473267,-2.6204419136047363
1757088405804098000,8.85909814453125,0.04745100066065788,-0.1653980016708374,-1.854773998260498
1757088405813651000,8.86865087890625,-0.6742630004882812,1.27810800075531,-0.44472500681877136
1757088405823204000,8.8782041015625,-0.8628829717636108,1.2366089820861816,0.34225401282310486
1757088405832757200,8.88775732421875,-0.8931570053100586,0.6692140102386475,0.6867629885673523
1757088405842310100,8.89731005859375,-0.5047940015792847,0.8815749883651733,1.0175329446792603
1757088405851863000,8.906863037109375,-0.3222619891166687,0.801692008972168,1.1751660108566284
1757088405861416200,8.916416259765626,-0.28762900829315186,0.7327330112457275,0.5850039720535278
1757088405870969000,8.925968994140625,-0.19856999814510345,0.3273580074310303,-0.648252010345459
1757088405880522000,8.93552197265625,-0.3961060047149658,0.038318999111652374,-1.228991985321045
1757088405890075100,8.9450751953125,0.6869739890098572,-0.8690500259399414,-2.4893500804901123
1757088405899628300,8.954628173828125,2.200028896331787,-1.3284549713134766,-1.8803149461746216
1757088405909181200,8.96418115234375,3.4736530780792236,0.11182700097560883,-1.4371310472488403
1757088405918734000,8.973734130859375,2.448641061782837,1.2951170206069946,-0.17986300587654114
1757088405928287000,8.983286865234374,-0.769370973110199,3.5254039764404297,3.004396915435791
1757088405937840000,8.992840087890626,-3.635593891143799,2.5582358837127686,4.518095016479492
1757088405947393300,9.002393310546875,-4.055653095245361,0.3130269944667816,3.1718530654907227
1757088405956946200,9.0119462890625,-3.3328659534454346,-0.11376100033521652,0.49567800760269165
1757088405966499300,9.021499267578125,-0.8237280249595642,1.2389039993286133,-0.6014890074729919
1757088405976052200,9.03105224609375,1.5256930589675903,1.0437350273132324,-1.694620966911316
1757088405985605400,9.04060546875,1.817229986190796,2.2937350273132324,-1.754390001296997
1757088405995158300,9.050158203125,2.3150219917297363,2.2851600646972656,-1.115036964416504
1757088406004711400,9.05971142578125,0.35813799500465393,1.3608160018920898,-0.1383260041475296
1757088406014264600,9.0692646484375,-1.1213630437850952,-0.15362800657749176,-0.5993189811706543
1757088406023817200,9.078817138671875,-1.7179310321807861,0.6864569783210754,-1.2702029943466187
1757088406033370400,9.088370361328124,-0.2612450122833252,1.8451100587844849,-0.08529999852180481
1757088406042923300,9.09792333984375,0.32083699107170105,2.5039849281311035,0.534555971622467
1757088406052476400,9.107476318359375,0.10341600328683853,2.3053131103515625,0.11167600005865097
1757088406062029300,9.117029296875,-1.5078109502792358,-1.035876989364624,0.405023992061615
1757088406071582500,9.12658251953125,-3.085416078567505,-0.8560979962348938,0.7710899710655212
1757088406081135400,9.13613525390625,-1.4861479997634888,0.635873019695282,-0.9214490056037903
1757088406090688300,9.145688232421875,0.32633399963378906,-0.26807600259780884,-1.8959280252456665
1757088406100241400,9.155241455078125,1.0797090530395508,-4.233640193939209,-0.9770200252532959
1757088406109794300,9.164794189453126,2.7997989654541016,0.15144400298595428,2.9910480976104736
1757088406119347500,9.174347412109375,2.17946195602417,-0.7612509727478027,3.8427700996398926
1757088406128900400,9.183900390625,1.7199629545211792,-0.8869289755821228,3.188760995864868
1757088406138453500,9.19345361328125,-1.561805009841919,-2.1304919719696045,4.362642765045166
1757088406148006400,9.20300634765625,-2.141953945159912,-2.996556043624878,6.54866886138916
1757088406157559600,9.2125595703125,-1.8211950063705444,-3.9057469367980957,3.8675079345703125
1757088406167112400,9.222112548828125,-1.926419973373413,-0.547448992729187,0.035287998616695404
1757088406176665600,9.23166552734375,1.0011420249938965,0.9844679832458496,0.7128769755363464
1757088406186218500,9.241218505859376,2.0533440113067627,-0.8307610154151917,0.3036290109157562
1757088406195771400,9.250771484375,-0.17353199422359467,-1.6252210140228271,-1.4378689527511597
1757088406205324500,9.260324462890624,-1.6994329690933228,-1.715188980102539,-2.457263946533203
1757088406214877700,9.269877685546875,-2.279236078262329,-0.6109619736671448,-2.901279926300049
1757088406224430800,9.279430908203125,-2.995163917541504,-0.6331629753112793,-3.1568820476531982
1757088406233983500,9.2889833984375,-4.91633415222168,0.0007619999814778566,-2.375998020172119
1757088406243536600,9.29853662109375,-4.706035137176514,2.7261340618133545,-0.12623099982738495
1757088406253089500,9.308089599609374,-2.322364091873169,0.38044100999832153,3.1627719402313232
1757088406262642400,9.317642333984375,-0.6431180238723755,-2.876585006713867,-1.162255048751831
1757088406272195600,9.327195556640625,0.31240400671958923,-1.1556930541992188,-2.6098649501800537
1757088406281748500,9.33674853515625,1.2891830205917358,-0.23140600323677063,-0.4352410137653351
1757088406291301600,9.346301513671875,0.26747000217437744,-0.15664400160312653,1.2976690530776978
1757088406300854500,9.3558544921875,-1.6910860538482666,-0.2998169958591461,2.3259758949279785
1757088406310407700,9.36540771484375,-2.294404983520508,-0.3380590081214905,2.5780270099639893
1757088406319960600,9.374960693359375,-1.6870640516281128,-0.3706530034542084,2.451150894165039
1757088406329513500,9.384513427734374,-2.8421449661254883,-1.2759549617767334,2.6479411125183105
1757088406339066600,9.394066650390625,-4.697667121887207,-0.891389012336731,2.4676060676574707
1757088406348619500,9.40361962890625,-2.851490020751953,0.40549200773239136,1.6216150522232056
1757088406358172700,9.413172607421876,-1.2192189693450928,0.8705689907073975,1.7699650526046753
1757088406367725600,9.4227255859375,-1.9488279819488525,0.8838040232658386,2.8267009258270264
1757088406377278700,9.43227880859375,-5.193161964416504,0.8495910167694092,4.7572479248046875
1757088406386831600,9.44183154296875,-5.650421142578125,1.2843929529190063,3.132857084274292
1757088406396384800,9.451384765625,-3.8497331142425537,1.4150099754333496,1.4561740159988403
1757088406405937700,9.460937744140624,-5.305633068084717,1.5563139915466309,3.7672948837280273
1757088406415490800,9.47049072265625,-5.128967761993408,2.041745901107788,3.849360942840576
1757088406425043700,9.480043701171875,-4.5830559730529785,1.768983006477356,3.970823049545288
1757088406434596600,9.4895966796875,-3.9814019203186035,1.5103490352630615,4.568440914154053
1757088406444149800,9.499149658203125,-3.3884739875793457,1.4432729482650757,5.503472805023193
1757088406453702700,9.50870263671875,-2.8703689575195312,1.5493710041046143,6.35304594039917
1757088406463255800,9.518255859375,-2.423917055130005,1.3911869525909424,6.647109031677246
1757088406472809000,9.52780908203125,-1.1984800100326538,1.1512399911880493,6.515796184539795
1757088406482361600,9.537361572265626,2.115246057510376,1.4321269989013672,5.2783308029174805
1757088406491914800,9.546914794921875,5.397739887237549,1.8470059633255005,3.8229498863220215
1757088406501467600,9.556467529296874,7.406562805175781,2.4480080604553223,2.6478989124298096
1757088406511020800,9.566020751953126,8.610928535461426,3.3448069095611572,2.2071850299835205
1757088406520573700,9.57557373046875,8.414068222045898,3.4403369426727295,2.2514140605926514
1757088406530126800,9.585126953125,6.213954925537109,2.885754108428955,2.942172050476074
1757088406539679700,9.5946796875,3.0688979625701904,1.6507710218429565,3.163935899734497
1757088406549233000,9.60423291015625,0.1454250067472458,1.3680249452590942,2.9997711181640625
1757088406558785800,9.613785888671876,-0.4385159909725189,1.5248689651489258,2.678849935531616
1757088406568338700,9.623338623046875,0.4710350036621094,0.841871976852417,2.0036299228668213
1757088406577891800,9.632891845703124,1.2490750551223755,-0.05493500083684921,0.8516770005226135
1757088406587445000,9.642445068359375,0.041009001433849335,-1.2129720449447632,-0.3589319884777069
1757088406596998000,9.651997802734375,-0.010579000227153301,-0.7270680069923401,-1.1134309768676758
1757088406606550800,9.66155078125,1.4911479949951172,-0.7219439744949341,-2.1163790225982666
1757088406616104000,9.67110400390625,2.1009058952331543,-1.2858190536499023,-3.191070079803467
1757088406625656800,9.68065673828125,1.260807991027832,-1.9460879564285278,-3.6517419815063477
1757088406635209700,9.690209716796875,0.26050499081611633,-2.3269810676574707,-4.557024002075195
1757088406644763000,9.699762939453125,-1.163280963897705,-2.146491050720215,-5.389675140380859
1757088406654316000,9.70931591796875,-2.4621360301971436,-1.7695759534835815,-6.495677947998047
1757088406663869000,9.718868896484375,-3.4754409790039062,-1.2170490026474,-7.042234897613525
1757088406673421800,9.728421875,-4.1994781494140625,-0.7480149865150452,-7.07041597366333
1757088406682974700,9.737974609375,-4.600752830505371,-0.6645110249519348,-6.690476894378662
1757088406692527900,9.74752783203125,-4.770346164703369,-0.921314001083374,-6.021202087402344
1757088406702081000,9.7570810546875,-5.028544902801514,-1.1641509532928467,-5.222304821014404
1757088406711634000,9.766634033203125,-4.842878818511963,-1.4145129919052124,-5.188432216644287
1757088406721186800,9.776186767578125,-4.93903923034668,-1.3929729461669922,-4.945012092590332
1757088406730740000,9.785739990234376,-5.06766414642334,-1.126438021659851,-4.809922218322754
1757088406740292900,9.79529296875,-5.318045139312744,-0.8029659986495972,-4.807774066925049
1757088406749846000,9.804845947265624,-5.635870933532715,-0.5264359712600708,-4.905322074890137
1757088406759399200,9.814399169921876,-6.0983757972717285,-0.3721829950809479,-5.112714767456055
1757088406768952000,9.8239521484375,-6.532262802124023,-0.3554750084877014,-5.560520172119141
1757088406778505000,9.8335048828125,-6.763088226318359,-0.3508409857749939,-5.690408229827881
1757088406788057900,9.843057861328125,4.586700916290283,-0.9566980004310608,10.151829719543457
1757088406797611000,9.852611083984375,0.9600009918212891,-0.6860619783401489,10.394618034362793
1757088406807164200,9.8621640625,0.6459760069847107,-0.9022740125656128,11.698699951171875
1757088406816717000,9.871717041015625,-0.6758170127868652,-1.6010689735412598,8.9028959274292
1757088406826270200,9.881270263671874,-3.304887056350708,-2.290700912475586,3.824099063873291
1757088406835823000,9.890822998046875,4.0916428565979,-2.0658349990844727,1.6540089845657349
1757088406845376000,9.9003759765625,2.1998190879821777,-1.1351629495620728,-1.5732439756393433
1757088406854929200,9.90992919921875,-2.5942139625549316,-1.0537270307540894,-2.782623052597046
1757088406864481800,9.919481689453125,2.6700611114501953,0.6419990062713623,-2.5897200107574463
1757088406874035000,9.929034912109374,4.936145782470703,1.833765983581543,-1.8057609796524048
1757088406883588000,9.938588134765626,2.9098849296569824,1.3542660474777222,-0.9374120235443115
1757088406893141000,9.94814111328125,0.8423299789428711,0.7726269960403442,0.1459610015153885
1757088406902694100,9.957694091796874,-1.8050190210342407,0.7002429962158203,-0.09799499809741974
1757088406912247000,9.9672470703125,-2.826767921447754,0.6332089900970459,-0.03483600169420242
1757088406921800200,9.97680029296875,-2.8086130619049072,0.21751999855041504,0.9817259907722473
1757088406931353000,9.98635302734375,-2.2369730472564697,-0.3213520050048828,1.215636968612671
1757088406940906200,9.99590625,-1.605409026145935,-0.5969820022583008,0.9743099808692932
1757088406950459100,10.005459228515624,-0.9160720109939575,-0.5409839749336243,0.7777400016784668
1757088406960012000,10.015011962890625,-0.4467880129814148,-0.4174570143222809,0.6867750287055969
1757088406969565200,10.024565185546875,0.048934001475572586,-0.3980869948863983,1.1556450128555298
1757088406979118000,10.0341181640625,0.419515997171402,-0.03305099904537201,0.9086269736289978
1757088406988671200,10.043671142578125,1.3943350315093994,0.2604149878025055,0.34751299023628235
1757088406998224100,10.05322412109375,1.4721189737319946,0.2926029860973358,-0.32153600454330444
1757088407007777300,10.06277734375,2.3697099685668945,0.31533101201057434,-0.5081629753112793
1757088407017330200,10.072330078125,2.4417600631713867,0.3732540011405945,-0.595766007900238
1757088407026883000,10.081883056640624,2.3455700874328613,0.5512470006942749,-0.32844001054763794
1757088407036436000,10.09143603515625,1.896955966949463,0.8821330070495605,0.0021389999892562628
1757088407045989000,10.100989013671875,1.2538549900054932,1.117817997932434,0.08815500140190125
1757088407055542300,10.110542236328126,0.48177000880241394,1.083212971687317,0.11040300130844116
1757088407065095200,10.12009521484375,-0.2968530058860779,0.7968230247497559,0.28756099939346313
1757088407074648000,10.12964794921875,-0.7119050025939941,0.41268500685691833,0.4086979925632477
1757088407084201200,10.139201171875,-0.7599890232086182,0.09440899640321732,0.4313099980354309
1757088407093754000,10.148754150390625,-0.6198899745941162,-0.06279599666595459,0.34048399329185486
1757088407103307300,10.158307373046876,-0.30340901017189026,-0.10006800293922424,0.24589499831199646
1757088407112860200,10.167860107421875,0.10486400127410889,-0.07230500131845474,0.06209700182080269
1757088407122413000,10.1774130859375,0.6910409927368164,0.03525400161743164,-0.027837000787258148
1757088407131966200,10.18696630859375,0.20436200499534607,0.4203450083732605,-0.12553100287914276
1757088407141519000,10.19651904296875,0.06445299834012985,0.6364380121231079,-0.27518001198768616
1757088407151072000,10.206072021484376,-0.4740400016307831,0.7584829926490784,-0.2888689935207367
1757088407160625200,10.215625244140625,-1.0319160223007202,0.613690972328186,-0.15896999835968018
1757088407170178300,10.22517822265625,-0.9695550203323364,0.4463300108909607,0.046480000019073486
1757088407179731200,10.234731201171876,-0.7596399784088135,0.3844720125198364,0.0626240000128746
