time,seconds_elapsed,z,y,x
1757088397034395100,0.08939501953125,5.181000232696533,-3.0169501304626465,5.545050144195557
1757088397043948000,0.098947998046875,4.612950325012207,-3.3570001125335693,5.28000020980835
1757088397063054300,0.118054443359375,3.0900001525878906,-4.381950378417969,7.2210001945495605
1757088397072607500,0.127607421875,2.367000102996826,-4.437000274658203,8.089950561523438
1757088397082160400,0.137160400390625,1.7610000371932983,-4.4320502281188965,8.457000732421875
1757088397091713500,0.146713623046875,2.2950000762939453,-4.279050350189209,9.418950080871582
1757088397101266400,0.156266357421875,2.5200002193450928,-4.1449503898620605,9.94800090789795
1757088397110819800,0.16581982421875,2.1060001850128174,-4.653000354766846,9.856950759887695
1757088397120373000,0.175373046875,2.3910000324249268,-5.008950233459473,9.865050315856934
1757088397129926000,0.18492578125,3.2290501594543457,-5.0530500411987305,9.607950210571289
1757088397139479000,0.19447900390625,3.586050271987915,-5.038050174713135,8.952000617980957
1757088397149032000,0.204031982421875,3.6670501232147217,-5.206050395965576,8.251049995422363
1757088397158585000,0.213585205078125,3.2290501594543457,-5.500050067901611,8.071050643920898
1757088397168138200,0.22313818359375,2.571000099182129,-5.862000465393066,8.689050674438477
1757088397177691400,0.23269140625,1.8360000848770142,-6.262050151824951,9.130050659179688
1757088397187244500,0.24224462890625,1.158000111579895,-6.396000385284424,9.493950843811035
1757088397196797400,0.25179736328125,0.24300001561641693,-6.124950408935547,9.855000495910645
1757088397206350600,0.2613505859375,-1.3020000457763672,-5.995950222015381,10.128000259399414
1757088397215903700,0.27090380859375,-2.4130501747131348,-6.100950241088867,11.098050117492676
1757088397225457000,0.280456787109375,-2.890050172805786,-6.049050331115723,12.199050903320312
1757088397235010000,0.290010009765625,-3.6700501441955566,-6.003000259399414,12.834000587463379
1757088397244563200,0.299563232421875,-3.5910000801086426,-6.135000228881836,13.53795051574707
1757088397254116000,0.3091162109375,-2.9110500812530518,-5.533950328826904,13.63800048828125
1757088397263669000,0.3186689453125,-2.599950075149536,-4.531050205230713,13.794000625610352
1757088397273222400,0.328222412109375,-3.0739500522613525,-3.742950201034546,14.20995044708252
1757088397282775600,0.337775634765625,-3.7990500926971436,-3.829050064086914,14.47605037689209
1757088397292328400,0.347328369140625,-4.474950313568115,-4.381950378417969,13.98495101928711
1757088397301881600,0.356881591796875,-4.104000091552734,-4.477950096130371,12.520051002502441
1757088397311434500,0.3664345703125,-2.848950147628784,-4.543050289154053,11.080950736999512
1757088397320988000,0.37598779296875,-1.8310500383377075,-4.867950439453125,10.176000595092773
1757088397330541000,0.385541015625,-1.4479501247406006,-5.218050479888916,9.312000274658203
1757088397340094000,0.395093994140625,-3.037950038909912,-5.728050231933594,7.9800004959106445
1757088397349647000,0.404647216796875,-2.997000217437744,-5.6509504318237305,6.309000492095947
1757088397359200000,0.414199951171875,-13.36500072479248,-7.15500020980835,5.5909504890441895
1757088397368753200,0.423753173828125,-21.334951400756836,-7.26300048828125,5.25600004196167
1757088397378306300,0.433306396484375,-8.136000633239746,-3.5940001010894775,4.068000316619873
1757088397397412600,0.45241259765625,3.828000068664551,-6.745050430297852,7.657050132751465
1757088397406965800,0.4619658203125,0.6580500602722168,-7.903950214385986,5.113950252532959
1757088397416519000,0.471518798828125,-3.0019500255584717,-4.750950336456299,2.8999500274658203
1757088397426071800,0.48107177734375,-2.977950096130371,-6.7759504318237305,6.943950176239014
1757088397435625000,0.490625,0.27900001406669617,-7.042050361633301,7.693050384521484
1757088397445177900,0.500177734375,2.8560001850128174,-6.529950141906738,6.607950210571289
1757088397454731000,0.50973095703125,2.8530001640319824,-7.806000232696533,6.805050373077393
1757088397464284400,0.519284423828125,1.6080000400543213,-8.158050537109375,5.581050395965576
1757088397473837300,0.52883740234375,1.0120500326156616,-6.742950439453125,5.313000202178955
1757088397483390500,0.538390380859375,-1.543950080871582,-6.814950466156006,6.0169501304626465
1757088397492943400,0.547943359375,-1.009950041770935,-6.6739501953125,5.9760003089904785
1757088397502496500,0.55749658203125,0.4330500066280365,-6.298050403594971,5.425950050354004
1757088397512049700,0.567049560546875,-0.1290000081062317,-6.802950382232666,6.561000347137451
1757088397521602800,0.576602783203125,-1.1590501070022583,-6.8959503173828125,6.805050373077393
1757088397531156000,0.586156005859375,-1.3309500217437744,-7.285950183868408,8.356050491333008
1757088397540708900,0.595708984375,-0.5940000414848328,-7.119000434875488,8.256000518798828
1757088397550262000,0.605261962890625,-0.2580000162124634,-7.198050498962402,9.051000595092773
1757088397559815200,0.614815185546875,-0.4120500087738037,-9.456000328063965,9.438000679016113
1757088397569368300,0.624368408203125,-0.45000001788139343,-10.558950424194336,7.992000579833984
1757088397578921200,0.633921142578125,2.7340500354766846,-10.57395076751709,7.0849504470825195
1757088397588474600,0.643474609375,3.8560502529144287,-11.12700080871582,8.839950561523438
1757088397598027500,0.653027587890625,2.1880500316619873,-10.437000274658203,7.249950408935547
1757088397607580700,0.66258056640625,0.8830500245094299,-9.325950622558594,4.225950241088867
1757088397617133800,0.6721337890625,-0.814050018787384,-8.271000862121582,1.6639500856399536
1757088397626686700,0.681686767578125,-1.5730500221252441,-7.198050498962402,0.6799500584602356
1757088397636240000,0.691239990234375,-2.095050096511841,-6.13200044631958,0.06195000186562538
1757088397645793000,0.70079296875,-3.088050127029419,-4.401000022888184,-1.0690500736236572
1757088397655346200,0.71034619140625,-0.7180500626564026,-4.255050182342529,-0.7960500121116638
1757088397664899300,0.7198994140625,0.700950026512146,-4.921050071716309,-0.45600003004074097
1757088397674452200,0.7294521484375,-1.4479501247406006,-4.939950466156006,2.3299500942230225
1757088397684005400,0.73900537109375,-1.5700501203536987,-6.1080002784729,6.253950119018555
1757088397693558500,0.74855859375,-2.6569502353668213,-3.9150002002716064,3.6630001068115234
1757088397703111700,0.758111572265625,-3.5839502811431885,-2.9700000286102295,1.5679501295089722
1757088397712664600,0.76766455078125,-3.778050184249878,-3.0799500942230225,1.0870500802993774
1757088397722217700,0.7772177734375,-2.578050136566162,-3.3379502296447754,1.2450000047683716
1757088397731771000,0.78677099609375,0.6889500617980957,-3.7360501289367676,1.1059499979019165
1757088397741324000,0.796323974609375,3.7819502353668213,-4.0159502029418945,0.4549500346183777
1757088397750877200,0.805877197265625,6.2440505027771,-4.509000301361084,-0.11400000751018524
1757088397760430000,0.81543017578125,5.3620500564575195,-4.321950435638428,-0.3630000054836273
1757088397769983000,0.82498291015625,3.1620001792907715,-5.0530500411987305,-0.7339500188827515
1757088397779536400,0.834536376953125,2.0460000038146973,-6.010050296783447,0.23205001652240753
1757088397789089500,0.844089599609375,1.8019500970840454,-6.391050338745117,0.8359500169754028
1757088397798642400,0.853642333984375,1.8139500617980957,-7.264950275421143,-0.5299500226974487
1757088397808195600,0.863195556640625,-2.202000141143799,-10.152000427246094,0.814050018787384
1757088397817748700,0.872748779296875,-1.3210500478744507,-23.08905029296875,3.6630001068115234
1757088397827302000,0.882302001953125,-1.6780500411987305,-42.877952575683594,0.9940500259399414
1757088397836854800,0.891854736328125,-0.8710500597953796,-43.03995132446289,-2.2489500045776367
1757088397846408000,0.901407958984375,0.0880500078201294,-38.62800216674805,-1.045050024986267
1757088397855961000,0.910961181640625,-1.5420000553131104,-32.53200149536133,2.1450002193450928
1757088397865514200,0.92051416015625,-3.6850502490997314,-23.641950607299805,5.362950325012207
1757088397875067400,0.9300673828125,-3.6439502239227295,-16.61894989013672,5.562000274658203
1757088397884620300,0.939620361328125,-7.414950370788574,-12.853050231933594,9.607950210571289
1757088397894173400,0.94917333984375,-3.181950092315674,-9.678000450134277,8.350950241088867
1757088397903726600,0.9587265625,1.7569501399993896,-5.814000129699707,2.7199501991271973
1757088397913279700,0.96827978515625,2.9250001907348633,-5.170050144195557,-3.0990002155303955
1757088397922832600,0.97783251953125,3.1050002574920654,-5.3110504150390625,-5.800050258636475
1757088397932385800,0.9873857421875,2.473050117492676,-5.014050006866455,-7.048050403594971
1757088397941939000,0.99693896484375,0.6940500140190125,-4.88700008392334,-7.102950572967529
1757088397951492400,1.006492431640625,-3.117000102996826,-6.046050071716309,-6.59505033493042
1757088397961045200,1.016045166015625,-5.430000305175781,-8.232000350952148,-5.833950042724609
1757088397970598100,1.02559814453125,-4.147050380706787,-10.07295036315918,-4.999950408935547
1757088397980151300,1.0351513671875,-1.7359501123428345,-11.086050987243652,-4.275000095367432
1757088397989704700,1.04470458984375,-0.37095001339912415,-11.254050254821777,-2.8720500469207764
1757088397999257600,1.054257568359375,0.030000001192092896,-10.978050231933594,-0.6330000162124634
1757088398008810500,1.063810546875,-0.1980000138282776,-10.741050720214844,0.38805001974105835
1757088398018363600,1.07336376953125,-0.47895002365112305,-10.492050170898438,0.034050002694129944
1757088398027916500,1.08291650390625,-0.42600002884864807,-10.174050331115723,-0.1469999998807907
1757088398037469700,1.0924697265625,-0.24195000529289246,-9.963000297546387,0.027000000700354576
1757088398047023000,1.102023193359375,-0.2560500204563141,-9.943950653076172,-0.2050500065088272
1757088398056576000,1.111575927734375,-0.2650500237941742,-9.991950035095215,-0.39900001883506775
1757088398066129200,1.121129150390625,-0.13905000686645508,-10.045050621032715,-0.42705002427101135
1757088398075682300,1.130682373046875,-0.09495000541210175,-10.0489501953125,-0.5470499992370605
1757088398085235500,1.1402353515625,-0.24900001287460327,-10.033050537109375,-0.6790500283241272
1757088398094788600,1.14978857421875,-0.5070000290870667,-9.97800064086914,-0.8389500379562378
1757088398104341500,1.159341552734375,-0.6390000581741333,-9.967950820922852,-0.9280500411987305
1757088398113894400,1.168894287109375,-0.5910000205039978,-9.9660005569458,-0.9949500560760498
1757088398123447800,1.17844775390625,-0.5550000071525574,-9.997050285339355,-1.0069500207901
1757088398133000700,1.188000732421875,-0.6490500569343567,-10.015950202941895,-1.0120500326156616
1757088398142553900,1.197553955078125,-0.8070000410079956,-10.0420503616333,-1.0549499988555908
1757088398152107000,1.20710693359375,-0.843000054359436,-10.023000717163086,-1.13100004196167
1757088398161660200,1.21666015625,-0.7320000529289246,-9.99000072479248,-1.171950101852417
1757088398171213300,1.22621337890625,-0.6270000338554382,-9.937050819396973,-1.2390000820159912
1757088398180766200,1.23576611328125,-0.5580000281333923,-9.862950325012207,-1.3060500621795654
1757088398190319400,1.2453193359375,-0.5380499958992004,-9.820050239562988,-1.3759500980377197
1757088398199872300,1.254872314453125,-0.48600003123283386,-9.826950073242188,-1.4070000648498535
1757088398209425700,1.26442578125,-0.42600002884864807,-9.829050064086914,-1.380000114440918
1757088398218978600,1.273978515625,-0.4069500267505646,-9.895950317382812,-1.3540500402450562
1757088398228531700,1.28353173828125,-0.3559500277042389,-9.934950828552246,-1.2610501050949097
1757088398238084600,1.293084716796875,-0.33000001311302185,-9.994050025939941,-1.158000111579895
1757088398247638000,1.302637939453125,-0.3060000240802765,-10.00200080871582,-1.071000099182129
1757088398257191000,1.31219091796875,-0.2850000262260437,-10.011000633239746,-1.0380001068115234
1757088398266744000,1.321744140625,-0.32100000977516174,-9.970050811767578,-0.9949500560760498
1757088398276297200,1.331297119140625,-0.37095001339912415,-9.927000045776367,-0.9880500435829163
1757088398285850000,1.34085009765625,-0.40905001759529114,-9.927000045776367,-1.0309500694274902
1757088398295403300,1.3504033203125,-0.4210500121116638,-9.967950820922852,-1.0639500617980957
1757088398304956400,1.359956298828125,-0.42600002884864807,-9.973050117492676,-1.0999500751495361
1757088398314509600,1.369509521484375,-0.4069500267505646,-9.985050201416016,-1.1290500164031982
1757088398324062500,1.3790625,-0.3829500079154968,-9.970050811767578,-1.1500500440597534
1757088398333615600,1.38861572265625,-0.361050009727478,-9.975000381469727,-1.1790000200271606
1757088398343168800,1.398168701171875,-0.3450000286102295,-9.951000213623047,-1.1740500926971436
1757088398352722000,1.407721923828125,-0.2650500237941742,-9.895950317382812,-1.1770501136779785
1757088398362274800,1.41727490234375,-0.1980000138282776,-9.910950660705566,-1.1839500665664673
1757088398371828000,1.426827880859375,-0.16995000839233398,-9.906000137329102,-1.1380500793457031
1757088398381381000,1.436381103515625,-0.1579500138759613,-9.925050735473633,-1.0740000009536743
1757088398390934000,1.44593408203125,-0.15300001204013824,-9.970050811767578,-1.0470000505447388
1757088398400487400,1.4554873046875,-0.19395001232624054,-10.026000022888184,-1.0279500484466553
1757088398410040300,1.465040283203125,-0.2370000183582306,-10.0489501953125,-1.0000500679016113
1757088398419593500,1.474593505859375,-0.26805001497268677,-10.069050788879395,-0.9919500350952148
1757088398429146400,1.484146484375,-0.28200000524520874,-10.06095027923584,-1.0000500679016113
1757088398438699500,1.493699462890625,-0.26100000739097595,-10.047000885009766,-1.0360500812530518
1757088398448252700,1.503252685546875,-0.2370000183582306,-10.011000633239746,-1.1069999933242798
1757088398457805800,1.512805908203125,-0.2179500162601471,-9.99000072479248,-1.1910001039505005
1757088398467358700,1.522358642578125,-0.2179500162601471,-9.970050811767578,-1.2630000114440918
1757088398476911900,1.531911865234375,-0.23400001227855682,-9.973050117492676,-1.29705011844635
1757088398486465000,1.541465087890625,-0.20805001258850098,-9.958050727844238,-1.3200000524520874
1757088398496018200,1.55101806640625,-0.18900001049041748,-9.939000129699707,-1.3369500637054443
1757088398505571300,1.5605712890625,-0.17505000531673431,-9.910950660705566,-1.308000087738037
1757088398515124200,1.570124267578125,-0.16500000655651093,-9.906000137329102,-1.2850500345230103
1757088398524677400,1.579677490234375,-0.14595000445842743,-9.922950744628906,-1.2510000467300415
1757088398534230500,1.58923046875,-0.11700000613927841,-9.954000473022461,-1.2250500917434692
1757088398543783700,1.59878369140625,-0.09105000644922256,-9.987000465393066,-1.2199500799179077
1757088398553336600,1.608336669921875,-0.06705000251531601,-10.011000633239746,-1.2439500093460083
1757088398562889500,1.617889404296875,-0.0690000057220459,-10.021050453186035,-1.2649500370025635
1757088398572442600,1.627442626953125,-0.0880500078201294,-10.011000633239746,-1.2889500856399536
1757088398581996000,1.63699609375,-0.1770000010728836,-9.987000465393066,-1.2769500017166138
1757088398591549000,1.646548828125,-0.226950004696846,-9.999000549316406,-1.2610501050949097
1757088398601102000,1.65610205078125,-0.2749500274658203,-9.994050025939941,-1.2439500093460083
1757088398610655000,1.665655029296875,-0.31800001859664917,-10.006050109863281,-1.2370500564575195
1757088398620208000,1.6752080078125,-0.3469500243663788,-10.021050453186035,-1.2559500932693481
1757088398629761300,1.68476123046875,-0.33705002069473267,-10.009050369262695,-1.2510000467300415
1757088398639314400,1.694314453125,-0.3330000042915344,-10.015950202941895,-1.240950107574463
1757088398648867300,1.703867431640625,-0.31800001859664917,-9.97800064086914,-1.2169500589370728
1757088398658420500,1.71342041015625,-0.3160500228404999,-9.958050727844238,-1.1770501136779785
1757088398667973600,1.7229736328125,-0.2850000262260437,-9.946950912475586,-1.1220000982284546
1757088398677526800,1.73252685546875,-0.2939999997615814,-9.939000129699707,-1.1100000143051147
1757088398687079700,1.74207958984375,-0.2850000262260437,-9.943950653076172,-1.0930500030517578
1757088398696632800,1.7516328125,-0.2939999997615814,-9.9660005569458,-1.0909500122070312
1757088398706186000,1.76118603515625,-0.3130500018596649,-9.997050285339355,-1.0950000286102295
1757088398715739100,1.7707392578125,-0.2939999997615814,-10.015950202941895,-1.0879501104354858
1757088398725292300,1.780292236328125,-0.286950021982193,-10.011000633239746,-1.0810500383377075
1757088398734845200,1.78984521484375,-0.25095000863075256,-9.97800064086914,-1.0669500827789307
1757088398744398300,1.7993984375,-0.2179500162601471,-9.961050033569336,-1.0639500617980957
1757088398753951200,1.808951171875,-0.18405000865459442,-9.954000473022461,-1.0690500736236572
1757088398763504600,1.818504638671875,-0.17205001413822174,-9.949050903320312,-1.0830000638961792
1757088398773057500,1.8280576171875,-0.16005000472068787,-9.961050033569336,-1.1100000143051147
1757088398782610700,1.837610595703125,-0.18195000290870667,-9.973050117492676,-1.1380500793457031
1757088398792163600,1.84716357421875,-0.1980000138282776,-9.985050201416016,-1.1500500440597534
1757088398801717000,1.856717041015625,-0.22200001776218414,-9.97800064086914,-1.1380500793457031
1757088398811270000,1.866269775390625,-0.2440500110387802,-9.967950820922852,-1.158000111579895
1757088398820823000,1.875822998046875,-0.25095000863075256,-9.97800064086914,-1.15500009059906
1757088398830376000,1.8853759765625,-0.27300000190734863,-9.979950904846191,-1.1700000762939453
1757088398839929000,1.89492919921875,-0.2850000262260437,-9.963000297546387,-1.194000005722046
1757088398849482200,1.904482177734375,-0.286950021982193,-9.939000129699707,-1.215000033378601
1757088398859035400,1.914035400390625,-0.29205000400543213,-9.937050819396973,-1.215000033378601
1757088398868588300,1.92358837890625,-0.28200000524520874,-9.930000305175781,-1.227000117301941
1757088398878141400,1.933141357421875,-0.2650500237941742,-9.939000129699707,-1.2030000686645508
1757088398887694600,1.942694580078125,-0.24900001287460327,-9.939000129699707,-1.194000005722046
1757088398897247700,1.952247802734375,-0.21300001442432404,-9.9660005569458,-1.1650500297546387
1757088398906800600,1.961800537109375,-0.18195000290870667,-9.97800064086914,-1.1620500087738037
1757088398916353800,1.971353759765625,-0.1579500138759613,-9.985050201416016,-1.1620500087738037
1757088398925906700,1.98090673828125,-0.14595000445842743,-9.994050025939941,-1.1890500783920288
1757088398935459800,1.9904599609375,-0.12195000797510147,-9.979950904846191,-1.2079501152038574
1757088398945013000,2.000012939453125,-0.14805001020431519,-9.954000473022461,-1.2460500001907349
1757088398954566100,2.009566162109375,-0.1770000010728836,-9.930000305175781,-1.2649500370025635
1757088398964119000,2.019119140625,-0.20805001258850098,-9.910950660705566,-1.2559500932693481
1757088398973672200,2.028672119140625,-0.23895001411437988,-9.886950492858887,-1.2250500917434692
1757088398983225300,2.038225341796875,-0.26805001497268677,-9.903000831604004,-1.201050043106079
1757088398992778500,2.047778564453125,-0.24900001287460327,-9.925050735473633,-1.194000005722046
1757088399002331400,2.057331298828125,-0.22005000710487366,-9.963000297546387,-1.1670000553131104
1757088399011884500,2.066884521484375,-0.1980000138282776,-9.982050895690918,-1.1770501136779785
1757088399021437400,2.0764375,-0.1770000010728836,-9.975000381469727,-1.2060000896453857
1757088399030990600,2.085990478515625,-0.1579500138759613,-9.999000549316406,-1.2060000896453857
1757088399040543700,2.095543701171875,-0.16005000472068787,-9.997050285339355,-1.2370500564575195
1757088399050097000,2.105096923828125,-0.14805001020431519,-9.961050033569336,-1.2679500579833984
1757088399059649800,2.11464990234375,-0.14595000445842743,-9.922950744628906,-1.300950050354004
1757088399069203000,2.124202880859375,-0.1789500117301941,-9.877050399780273,-1.3180500268936157
1757088399078755800,2.133755859375,-0.18195000290870667,-9.891000747680664,-1.3519500494003296
1757088399088309000,2.14330908203125,-0.1980000138282776,-9.910950660705566,-1.3519500494003296
1757088399097862100,2.152862060546875,-0.2370000183582306,-9.973050117492676,-1.3300501108169556
1757088399107415300,2.162415283203125,-0.25394999980926514,-10.01400089263916,-1.2919501066207886
1757088399116968200,2.17196826171875,-0.28005000948905945,-10.045050621032715,-1.2250500917434692
1757088399126521300,2.181521240234375,-0.31095001101493835,-10.047000885009766,-1.1910001039505005
1757088399136074500,2.191074462890625,-0.3349500298500061,-10.021050453186035,-1.1959500312805176
1757088399145627600,2.200627685546875,-0.32295000553131104,-10.023000717163086,-1.201050043106079
1757088399155180500,2.2101806640625,-0.2770500183105469,-10.011000633239746,-1.1959500312805176
1757088399164733700,2.219733642578125,-0.25095000863075256,-9.997050285339355,-1.231950044631958
1757088399174287000,2.229287109375,-0.226950004696846,-10.00200080871582,-1.2529500722885132
1757088399183840000,2.238840087890625,-0.20805001258850098,-9.967950820922852,-1.2580500841140747
1757088399193393000,2.248392822265625,-0.1980000138282776,-9.958050727844238,-1.2580500841140747
1757088399202946000,2.257946044921875,-0.1770000010728836,-9.963000297546387,-1.2529500722885132
1757088399212499000,2.2674990234375,-0.15300001204013824,-9.961050033569336,-1.2439500093460083
1757088399222052000,2.277052001953125,-0.11700000613927841,-9.979950904846191,-1.2340500354766846
1757088399231605500,2.28660546875,-0.10500000417232513,-9.999000549316406,-1.2220500707626343
1757088399241158400,2.296158447265625,-0.0880500078201294,-10.021050453186035,-1.228950023651123
1757088399250711600,2.305711669921875,-0.06000000238418579,-10.021050453186035,-1.2340500354766846
1757088399260264400,2.315264404296875,-0.06195000186562538,-9.997050285339355,-1.2510000467300415
1757088399269817600,2.324817626953125,-0.05505000427365303,-9.963000297546387,-1.2649500370025635
1757088399279370800,2.334370849609375,-0.05205000191926956,-9.937050819396973,-1.27305006980896
1757088399288923600,2.343923583984375,-0.04800000041723251,-9.954000473022461,-1.2799500226974487
1757088399298476800,2.353476806640625,-0.019050000235438347,-9.9660005569458,-1.2750000953674316
1757088399308030000,2.363030029296875,0.006000000052154064,-9.99000072479248,-1.287000060081482
1757088399317583000,2.3725830078125,0.025950001552700996,-9.975000381469727,-1.3230000734329224
1757088399327136000,2.382135986328125,0.0499500036239624,-9.967950820922852,-1.3590000867843628
1757088399336689200,2.391689208984375,0.05700000375509262,-9.954000473022461,-1.3560000658035278
1757088399346242300,2.4012421875,0.030000001192092896,-9.931950569152832,-1.366050124168396
1757088399355795200,2.410795166015625,0.009000000543892384,-9.943950653076172,-1.3560000658035278
1757088399365348400,2.420348388671875,-0.025950001552700996,-9.961050033569336,-1.3129500150680542
1757088399374901500,2.429901611328125,-0.05205000191926956,-9.973050117492676,-1.287000060081482
1757088399384454400,2.439454345703125,-0.09105000644922256,-9.985050201416016,-1.2490500211715698
1757088399394007600,2.449007568359375,-0.10305000841617584,-9.979950904846191,-1.2370500564575195
1757088399403560700,2.458560791015625,-0.09300000220537186,-9.97800064086914,-1.210050106048584
1757088399413113900,2.46811376953125,-0.08595000207424164,-9.967950820922852,-1.1890500783920288
1757088399422666800,2.477666748046875,-0.07395000010728836,-9.9660005569458,-1.1820000410079956
1757088399432220000,2.487219970703125,-0.07200000435113907,-10.003950119018555,-1.1620500087738037
1757088399441772800,2.496772705078125,-0.05505000427365303,-10.0489501953125,-1.171950101852417
1757088399451326000,2.506325927734375,-0.06000000238418579,-10.069050788879395,-1.1860500574111938
1757088399460879000,2.515879150390625,-0.09795000404119492,-10.09695053100586,-1.2030000686645508
1757088399470432300,2.525432373046875,-0.10305000841617584,-10.123950004577637,-1.210050106048584
1757088399479985200,2.534985107421875,-0.09300000220537186,-10.123950004577637,-1.2340500354766846
1757088399489538300,2.544538330078125,-0.05205000191926956,-10.08495044708252,-1.2490500211715698
1757088399499091500,2.554091552734375,-0.025950001552700996,-10.033050537109375,-1.270050048828125
1757088399508644600,2.56364453125,0.0019500000635161996,-9.997050285339355,-1.2799500226974487
1757088399518197500,2.573197509765625,0.016050001606345177,-9.958050727844238,-1.3060500621795654
1757088399527750700,2.582750732421875,0.016050001606345177,-9.970050811767578,-1.308000087738037
1757088399537303800,2.5923037109375,0.034950003027915955,-9.97800064086914,-1.3159500360488892
1757088399546856700,2.601856689453125,0.037950001657009125,-10.015950202941895,-1.2820500135421753
1757088399556409900,2.611409912109375,0.037950001657009125,-10.023000717163086,-1.2580500841140747
1757088399565963000,2.620962890625,0.05400000140070915,-10.011000633239746,-1.227000117301941
1757088399575516000,2.630515869140625,0.037950001657009125,-10.021050453186035,-1.2079501152038574
1757088399585069000,2.640069091796875,0.046950001269578934,-10.003950119018555,-1.2060000896453857
1757088399594622000,2.6496220703125,0.05700000375509262,-9.99000072479248,-1.210050106048584
1757088399604175400,2.65917529296875,0.06195000186562538,-9.973050117492676,-1.2370500564575195
1757088399613728300,2.668728271484375,0.06405000388622284,-9.987000465393066,-1.27305006980896
1757088399623281200,2.67828125,0.06195000186562538,-9.985050201416016,-1.29705011844635
1757088399632834600,2.68783447265625,0.032999999821186066,-9.982050895690918,-1.2990000247955322
1757088399642387500,2.697387451171875,0.004050000105053186,-9.939000129699707,-1.2649500370025635
1757088399651940600,2.706940673828125,-0.004950000438839197,-9.913050651550293,-1.2340500354766846
1757088399661493500,2.716493408203125,-0.036000002175569534,-9.882000923156738,-1.2060000896453857
1757088399671046700,2.726046630859375,-0.10005000233650208,-9.894000053405762,-1.1670000553131104
1757088399680599800,2.735599853515625,-0.16500000655651093,-9.913050651550293,-1.13100004196167
1757088399690153000,2.745153076171875,-0.24195000529289246,-9.949050903320312,-1.117050051689148
1757088399699705900,2.754705810546875,-0.32100000977516174,-10.009050369262695,-1.0909500122070312
1757088399709259000,2.764259033203125,-0.39705002307891846,-10.06095027923584,-1.0999500751495361
1757088399718812200,2.773812255859375,-0.43995001912117004,-10.10205078125,-1.1050500869750977
1757088399728365300,2.783365234375,-0.4759500324726105,-10.09695053100586,-1.1359500885009766
1757088399737918200,2.792918212890625,-0.4429500102996826,-10.069050788879395,-1.1620500087738037
1757088399747471400,2.802471435546875,-0.4159500300884247,-10.003950119018555,-1.1670000553131104
1757088399757024300,2.812024169921875,-0.3829500079154968,-9.931950569152832,-1.1860500574111938
1757088399766577400,2.821577392578125,-0.35895001888275146,-9.918000221252441,-1.1820000410079956
1757088399776130300,2.83113037109375,-0.32295000553131104,-9.967950820922852,-1.1839500665664673
1757088399785683500,2.840683349609375,-0.27300000190734863,-10.05405044555664,-1.2529500722885132
1757088399795236600,2.850236572265625,-0.22005000710487366,-10.150050163269043,-1.396950125694275
1757088399804789800,2.859789794921875,-0.16500000655651093,-10.20300006866455,-1.5169501304626465
1757088399814343000,2.869343017578125,-0.1360500007867813,-10.23900032043457,-1.633950114250183
1757088399823896000,2.87889599609375,-0.13905000686645508,-10.240950584411621,-1.6920000314712524
1757088399833449000,2.888448974609375,-0.18900001049041748,-10.204950332641602,-1.7590501308441162
1757088399843001900,2.898001953125,-0.28005000948905945,-10.183950424194336,-1.7749500274658203
1757088399852555000,2.907554931640625,-0.37095001339912415,-10.159950256347656,-1.7950501441955566
1757088399862108000,2.91710791015625,-0.4830000102519989,-10.179000854492188,-1.8400501012802124
1757088399871661300,2.926661376953125,-0.6490500569343567,-10.140000343322754,-1.8450000286102295
1757088399881214200,2.936214111328125,-0.8590500354766846,-10.093050003051758,-1.7749500274658203
1757088399890767400,2.945767333984375,-0.9979500770568848,-10.051950454711914,-1.7160000801086426
1757088399900320300,2.9553203125,-0.8710500597953796,-9.954000473022461,-1.665000081062317
1757088399909873400,2.964873291015625,-0.6700500249862671,-9.793050765991211,-1.6050000190734863
1757088399919426600,2.974426513671875,-0.5260500311851501,-9.736050605773926,-1.6320000886917114
1757088399928979700,2.983979736328125,-0.41895002126693726,-9.738000869750977,-1.6200001239776611
1757088399938532600,2.99353271484375,-0.2560500204563141,-9.66195011138916,-1.4980500936508179
1757088399948085800,3.003085693359375,-0.04005000367760658,-9.565950393676758,-1.4310001134872437
1757088399957639000,3.012638916015625,0.037950001657009125,-9.41295051574707,-1.324950098991394
1757088399967192000,3.022192138671875,-0.025950001552700996,-9.22095012664795,-1.3039500713348389
1757088399976745000,3.031744873046875,-0.2179500162601471,-9.037050247192383,-1.2199500799179077
1757088399986297900,3.0412978515625,-0.5119500160217285,-8.875950813293457,-1.1599500179290771
1757088399995851000,3.05085107421875,-0.7710000276565552,-8.721000671386719,-1.227000117301941
1757088400005404200,3.060404052734375,-0.9139500260353088,-8.67495059967041,-1.3519500494003296
1757088400014957300,3.069957275390625,-0.8449500203132629,-8.677950859069824,-1.5480000972747803
1757088400024510200,3.07951025390625,-0.7080000042915344,-8.733000755310059,-1.4040000438690186
1757088400034063400,3.0890634765625,-0.6220500469207764,-8.742000579833984,-1.0669500827789307
1757088400043616300,3.0986162109375,-0.5239500403404236,-8.599050521850586,-0.8149500489234924
1757088400053169400,3.10816943359375,-0.8659500479698181,-8.539050102233887,-0.625950038433075
1757088400062722600,3.11772265625,-1.503000020980835,-8.569950103759766,-0.6840000152587891
1757088400072275700,3.127275634765625,-2.4370501041412354,-8.52405071258545,-0.7219500541687012
1757088400081828600,3.13682861328125,-3.321000099182129,-8.505000114440918,-0.5380499958992004
1757088400091381800,3.1463818359375,-3.5050501823425293,-8.533950805664062,-0.7050000429153442
1757088400100935000,3.155934814453125,-3.1939501762390137,-8.43600082397461,-0.6640500426292419
1757088400110488000,3.165488037109375,-2.479950189590454,-8.445000648498535,-0.8509500622749329
1757088400120041000,3.175041015625,-1.3069500923156738,-8.503050804138184,-1.2220500707626343
1757088400129594000,3.184593994140625,-0.364050030708313,-8.457000732421875,-1.2510000467300415
1757088400139147300,3.194147216796875,-0.6270000338554382,-8.530950546264648,-1.495050072669983
1757088400148700400,3.203700439453125,-1.5319501161575317,-8.97705078125,-1.8520500659942627
1757088400158253300,3.21325341796875,-2.3560500144958496,-9.742950439453125,-2.236950159072876
1757088400167806200,3.22280615234375,-3.2560501098632812,-10.657950401306152,-2.4979500770568848
1757088400177359400,3.232359375,-4.147050380706787,-11.449950218200684,-2.926950216293335
1757088400186912500,3.24191259765625,-3.6940500736236572,-12.15195083618164,-2.76705002784729
1757088400196465700,3.251465576171875,-4.61400032043457,-12.1399507522583,-1.3900500535964966
1757088400206018600,3.2610185546875,-5.170950412750244,-11.6850004196167,-0.12105000764131546
1757088400215571700,3.27057177734375,-5.2069501876831055,-10.926000595092773,1.1710500717163086
1757088400225124600,3.28012451171875,-5.728950500488281,-9.907950401306152,2.323050022125244
1757088400234677800,3.289677734375,-5.016000270843506,-9.832050323486328,1.5040500164031982
1757088400244231200,3.299231201171875,-4.354950428009033,-9.738000869750977,1.1040000915527344
1757088400253783800,3.30878369140625,-3.4549500942230225,-9.607050895690918,1.0320000648498535
1757088400263337000,3.3183369140625,-4.068000316619873,-8.830950736999512,0.5580000281333923
1757088400272889900,3.327889892578125,-4.587000370025635,-7.546950340270996,-0.17100000381469727
1757088400282443000,3.337443115234375,-4.779000282287598,-6.472050189971924,-1.158000111579895
1757088400291996200,3.34699609375,-4.687950134277344,-5.5410003662109375,-1.689000129699707
1757088400301549300,3.35654931640625,-5.410950183868408,-5.0530500411987305,-2.7330000400543213
1757088400311102200,3.366102294921875,-5.350950241088867,-5.019000053405762,-3.183000087738037
1757088400320655400,3.3756552734375,-5.214000225067139,-4.959000110626221,-3.681000232696533
1757088400330208300,3.385208251953125,-5.559000492095947,-4.843950271606445,-4.323000431060791
1757088400339761400,3.394761474609375,-6.313050270080566,-4.73205041885376,-4.336950302124023
1757088400349314600,3.404314453125,-7.113000392913818,-4.380000114440918,-4.392000198364258
1757088400358867700,3.41386767578125,-7.483950138092041,-3.9130501747131348,-4.060050010681152
1757088400368420600,3.423420654296875,-7.563000202178955,-3.2779500484466553,-3.765000104904175
1757088400377973800,3.432973876953125,-7.872000217437744,-2.8690500259399414,-2.829000234603882
1757088400387526700,3.442526611328125,-8.176050186157227,-3.123000144958496,-1.579050064086914
1757088400397080000,3.452080078125,-8.284049987792969,-4.063950061798096,-0.2530499994754791
1757088400406633000,3.461633056640625,-8.19795036315918,-4.216950416564941,0.970050036907196
1757088400416186000,3.47118603515625,-8.06100082397461,-4.06095027923584,1.1850000619888306
1757088400425739000,3.480739013671875,-7.549050331115723,-3.9079501628875732,1.128000020980835
1757088400435292000,3.4902919921875,-7.495950222015381,-3.5080502033233643,0.20595000684261322
1757088400444845300,3.49984521484375,-8.212050437927246,-3.184950113296509,-1.426050066947937
1757088400454398500,3.5093984375,-8.78700065612793,-3.232950210571289,-2.4430501461029053
1757088400463951400,3.518951416015625,-8.859000205993652,-3.2860500812530518,-3.085050106048584
1757088400473504300,3.528504150390625,-8.988000869750977,-3.432000160217285,-3.157050132751465
1757088400483057400,3.538057373046875,-9.178950309753418,-3.5299501419067383,-2.8909502029418945
1757088400492610300,3.5476103515625,-9.211050033569336,-3.850950241088867,-2.836050033569336
1757088400502163700,3.557163818359375,-9.511950492858887,-4.069050312042236,-2.7690000534057617
1757088400511716600,3.566716552734375,-9.547950744628906,-4.087950229644775,-2.7280502319335938
1757088400521269500,3.57626953125,-9.361050605773926,-3.9660000801086426,-2.8429501056671143
1757088400530822700,3.58582275390625,-9.390000343322754,-3.8149502277374268,-2.7589502334594727
1757088400540375800,3.595375732421875,-9.498000144958496,-3.511050224304199,-2.596950054168701
1757088400549929000,3.604928955078125,-9.445050239562988,-3.3000001907348633,-2.4220499992370605
1757088400559481900,3.61448193359375,-9.991050720214844,-3.271050214767456,-1.9480501413345337
1757088400569035000,3.624034912109375,-10.108050346374512,-3.403050184249878,-1.6270500421524048
1757088400578588000,3.633587890625,-10.159050941467285,-3.0990002155303955,-1.5430500507354736
1757088400588141000,3.64314111328125,-10.225950241088867,-2.6269500255584717,-1.9999500513076782
1757088400597694200,3.652694091796875,-10.834050178527832,-1.9210500717163086,-2.356950044631958
1757088400607247000,3.6622470703125,-11.44005012512207,-1.5520501136779785,-2.2900500297546387
1757088400616800300,3.67180029296875,-11.635950088500977,-1.915950059890747,-1.2630000114440918
1757088400626353200,3.681353271484375,-11.956950187683105,-2.373000144958496,0.06195000186562538
1757088400635906300,3.69090625,-11.047050476074219,-2.686950206756592,0.6780000329017639
1757088400645459500,3.70045947265625,-9.642000198364258,-2.4280500411987305,0.687000036239624
1757088400655012600,3.7100126953125,-9.189000129699707,-1.984950065612793,0.49605002999305725
1757088400664565500,3.7195654296875,-9.646050453186035,-1.746000051498413,-0.046950001269578934
1757088400674118400,3.729118408203125,-10.362000465393066,-1.3440001010894775,-0.5539500117301941
1757088400683671600,3.738671630859375,-10.780950546264648,-0.8959500193595886,-0.7290000319480896
1757088400693224700,3.748224609375,-10.839000701904297,-0.6040500402450562,-0.544950008392334
1757088400702777900,3.75777783203125,-11.00100040435791,-0.21900001168251038,-0.9490500688552856
1757088400712330800,3.767330810546875,-10.954050064086914,-0.07005000114440918,-0.9850500226020813
1757088400721884000,3.7768837890625,-10.94895076751709,-0.15405000746250153,-1.078950047492981
1757088400731437000,3.78643701171875,-10.96095085144043,-0.2880000174045563,-1.3920000791549683
1757088400740990200,3.795990234375,-10.981950759887695,-0.5269500017166138,-1.1959500312805176
1757088400750543000,3.805543212890625,-11.21505069732666,-0.6640500426292419,-0.8389500379562378
1757088400760096000,3.815095947265625,-11.20995044708252,-0.8149500489234924,-0.5110500454902649
1757088400769649200,3.824649169921875,-10.96095085144043,-0.8820000290870667,-0.40800002217292786
1757088400779202300,3.834202392578125,-10.705050468444824,-0.859950065612793,-0.35295000672340393
1757088400788755500,3.84375537109375,-10.537050247192383,-0.7140000462532043,-0.35805001854896545
1757088400798308400,3.853308349609375,-10.309950828552246,-0.625950038433075,-0.28095000982284546
1757088400807861500,3.862861572265625,-10.081950187683105,-0.48900002241134644,-0.004050000105053186
1757088400817414400,3.872414306640625,-9.940950393676758,-0.3960000276565552,-0.043950002640485764
1757088400826967600,3.881967529296875,-9.919050216674805,-0.31200000643730164,0.15600000321865082
1757088400836520400,3.8915205078125,-9.993000030517578,-0.18000000715255737,0.2970000207424164
1757088400846073600,3.901073486328125,-9.996000289916992,-0.027000000700354576,0.3330000042915344
1757088400855626800,3.910626708984375,-9.946050643920898,-0.0580500029027462,0.4549500346183777
1757088400865179600,3.9201796875,-9.867000579833984,-0.13199999928474426,0.45000001788139343
1757088400874732800,3.92973291015625,-9.727950096130371,-0.3450000286102295,0.5580000281333923
1757088400884286200,3.9392861328125,-9.64905071258545,-0.3840000033378601,0.6180000305175781
1757088400893839000,3.948839111328125,-9.5910005569458,-0.37905001640319824,0.7140000462532043
1757088400903392000,3.95839208984375,-9.52695083618164,-0.40800002217292786,0.7950000166893005
1757088400912945000,3.96794482421875,-9.547950744628906,-0.42705002427101135,0.8329500555992126
1757088400922498000,3.977498046875,-9.652950286865234,-0.40995001792907715,0.8119500279426575
1757088400932051200,3.98705126953125,-9.723000526428223,-0.40005001425743103,0.814050018787384
1757088400941604400,3.996604248046875,-9.838050842285156,-0.34800001978874207,0.8359500169754028
1757088400951157200,4.0061572265625,-9.898050308227539,-0.28995001316070557,0.7570500373840332
1757088400960710400,4.01571044921875,-9.82800006866455,-0.25905001163482666,0.6679500341415405
1757088400970263300,4.02526318359375,-9.652950286865234,-0.18000000715255737,0.5770500302314758
1757088400989369300,4.044369384765625,-9.481050491333008,-0.35295000672340393,0.43605002760887146
1757088400998922500,4.053922607421875,-9.5149507522583,-0.4720500111579895,0.283050000667572
1757088401008475600,4.0634755859375,-9.63900089263916,-0.5820000171661377,0.23205001652240753
1757088401018028500,4.073028564453125,-9.730050086975098,-0.7330500483512878,0.1579500138759613
1757088401027581700,4.082581787109375,-9.819000244140625,-0.7669500112533569,0.06705000251531601
1757088401037134800,4.092134765625,-9.88800048828125,-0.6210000514984131,0.05295000225305557
1757088401046688000,4.10168798828125,-10.168050765991211,-0.625950038433075,0.07905000448226929
1757088401056241000,4.111240966796875,-10.38900089263916,-0.7069500088691711,0.17505000531673431
1757088401065793800,4.120793701171875,-10.37700080871582,-0.8269500136375427,0.22500000894069672
1757088401075347000,4.130346923828125,-10.140000343322754,-0.8550000190734863,0.27105000615119934
1757088401084900400,4.139900390625,-10.008000373840332,-0.7570500373840332,0.15300001204013824
1757088401094453200,4.149453369140625,-10.000950813293457,-0.7399500608444214,-0.031950000673532486
1757088401104006100,4.159006103515625,-9.967050552368164,-0.817050039768219,-0.2569500207901001
1757088401113559300,4.168559326171875,-9.867000579833984,-0.9610500335693359,-0.38700002431869507
1757088401123112400,4.178112548828125,-9.646050453186035,-1.0660500526428223,-0.29805001616477966
1757088401132665300,4.187665283203125,-9.543000221252441,-1.0950000286102295,-0.20205001533031464
1757088401142218500,4.197218505859375,-9.424050331115723,-1.0350000858306885,-0.1399500072002411
1757088401151771400,4.206771484375,-9.36405086517334,-0.970050036907196,-0.1279500126838684
1757088401161324500,4.216324462890625,-9.472050666809082,-0.7860000133514404,-0.17595000565052032
1757088401170877700,4.225877685546875,-9.546000480651855,-0.5920500159263611,-0.15900000929832458
1757088401180430800,4.235430908203125,-9.478950500488281,-0.6180000305175781,-0.3960000276565552
1757088401189983700,4.244983642578125,-9.469050407409668,-0.6780000329017639,-0.3720000088214874
1757088401199536600,4.25453662109375,-9.510000228881836,-0.5320500135421753,-0.3150000274181366
1757088401209089800,4.26408984375,-9.472050666809082,-0.6540000438690186,-0.3630000054836273
1757088401218643000,4.273642822265625,-9.5910005569458,-0.8479500412940979,-0.2569500207901001
1757088401228196000,4.283196044921875,-9.634050369262695,-0.6930000185966492,-0.12105000764131546
1757088401237749000,4.2927490234375,-9.642000198364258,-0.5730000138282776,-0.11400000751018524
1757088401247302000,4.302302001953125,-9.634050369262695,-0.5509500503540039,-0.07800000160932541
1757088401256855000,4.31185498046875,-9.631950378417969,-0.5490000247955322,-0.04905000329017639
1757088401266408000,4.321407958984375,-9.61500072479248,-0.5590500235557556,-0.06300000101327896
1757088401275961000,4.330961181640625,-9.630000114440918,-0.6210000514984131,-0.10695000737905502
1757088401285514200,4.34051416015625,-9.676950454711914,-0.7260000109672546,-0.16395001113414764
1757088401295067400,4.3500673828125,-9.687000274658203,-0.8389500379562378,-0.2070000171661377
1757088401304620300,4.359620361328125,-9.661050796508789,-0.8869500160217285,-0.22605000436306
1757088401314173200,4.369173095703125,-9.62700080871582,-0.8719500303268433,-0.2050500065088272
1757088401323726300,4.378726318359375,-9.63900089263916,-0.8460000157356262,-0.24795001745224
1757088401333279500,4.388279541015625,-9.63900089263916,-0.8839500546455383,-0.2770500183105469
1757088401342832600,4.39783251953125,-9.62505054473877,-0.8629500269889832,-0.24795001745224
1757088401352385800,4.4073857421875,-9.661050796508789,-0.8530500531196594,-0.24795001745224
1757088401361938400,4.4169384765625,-9.694050788879395,-0.8119500279426575,-0.24300001561641693
1757088401371491600,4.42649169921875,-9.721050262451172,-0.8389500379562378,-0.20205001533031464
1757088401381044700,4.436044677734375,-9.780000686645508,-0.7980000376701355,-0.1469999998807907
1757088401390597600,4.44559765625,-9.808950424194336,-0.7960500121116638,-0.10395000129938126
1757088401400150800,4.45515087890625,-9.795000076293945,-0.7279500365257263,-0.12105000764131546
1757088401409704000,4.464703857421875,-9.802050590515137,-0.7740000486373901,-0.06105000153183937
1757088401419256800,4.4742568359375,-9.819000244140625,-0.8460000157356262,-0.11100000888109207
1757088401428810000,4.48381005859375,-9.784950256347656,-0.8550000190734863,-0.06300000101327896
1757088401438363000,4.49336279296875,-9.778050422668457,-0.8389500379562378,-0.06599999964237213
1757088401447916000,4.502916015625,-9.759000778198242,-0.9510000348091125,-0.05895000323653221
1757088401457469200,4.51246923828125,-9.727950096130371,-1.059000015258789,-0.04200000315904617
1757088401467022000,4.52202197265625,-9.733050346374512,-0.9150000214576721,0.016950000077486038
1757088401476575200,4.5315751953125,-9.682050704956055,-0.906000018119812,0
1757088401486128000,4.541128173828125,-9.706050872802734,-0.8389500379562378,0.04605000093579292
1757088401495681500,4.550681640625,-9.685050010681152,-0.8269500136375427,0.039000000804662704
1757088401505234400,4.560234375,-9.682050704956055,-0.8749500513076782,0.022050000727176666
1757088401514787600,4.56978759765625,-9.715950012207031,-0.8890500664710999,0.05505000427365303
1757088401524340500,4.579340576171875,-9.685050010681152,-0.9180000424385071,0.07695000618696213
1757088401533893600,4.5888935546875,-9.742050170898438,-0.9340500235557556,0.031050002202391624
1757088401543446500,4.598446533203125,-9.744000434875488,-0.8869500160217285,0.010050000622868538
1757088401552999700,4.607999755859375,-9.780000686645508,-0.8959500193595886,-0.05400000140070915
1757088401562552600,4.617552490234375,-9.79995059967041,-1.0210500955581665,-0.07800000160932541
1757088401572105700,4.627105712890625,-9.814050674438477,-0.9780000448226929,-0.09495000541210175
1757088401581659000,4.636658935546875,-9.747000694274902,-0.8580000400543213,-0.1380000114440918
1757088401591212000,4.6462119140625,-9.703950881958008,-0.8530500531196594,-0.15195000171661377
1757088401600765000,4.655764892578125,-9.667950630187988,-0.8820000290870667,-0.18300001323223114
1757088401610317800,4.66531787109375,-9.652950286865234,-0.8940000534057617,-0.17805001139640808
1757088401619871000,4.67487109375,-9.670050621032715,-0.8410500288009644,-0.1469999998807907
1757088401629423900,4.684423828125,-9.661050796508789,-0.7690500617027283,-0.1279500126838684
1757088401638977000,4.69397705078125,-9.667950630187988,-0.7879500389099121,-0.0799500048160553
1757088401648530200,4.7035302734375,-9.699000358581543,-0.8119500279426575,-0.06795000284910202
1757088401658083000,4.7130830078125,-9.711000442504883,-0.7279500365257263,-0.06795000284910202
1757088401667636200,4.72263623046875,-9.712950706481934,-0.6930000185966492,-0.06599999964237213
1757088401677189400,4.732189453125,-9.703950881958008,-0.7399500608444214,-0.08295000344514847
1757088401686742500,4.741742431640625,-9.727950096130371,-0.736050009727478,-0.06599999964237213
1757088401696295400,4.75129541015625,-9.724950790405273,-0.7120500206947327,-0.07304999977350235
1757088401705848300,4.760848388671875,-9.685050010681152,-0.7429500222206116,-0.05595000088214874
1757088401715401500,4.7704013671875,-9.673050880432129,-0.6970500349998474,-0.06105000153183937
1757088401724954600,4.77995458984375,-9.682050704956055,-0.673050045967102,-0.05400000140070915
1757088401734507800,4.7895078125,-9.688950538635254,-0.6970500349998474,-0.07500000298023224
1757088401744060700,4.799060791015625,-9.688950538635254,-0.778950035572052,-0.11100000888109207
1757088401753613600,4.808613525390625,-9.730050086975098,-0.736050009727478,-0.06795000284910202
1757088401763166700,4.818166748046875,-9.723000526428223,-0.7330500483512878,-0.046950001269578934
1757088401772719900,4.827719970703125,-9.685050010681152,-0.7570500373840332,-0.00795000046491623
1757088401782272800,4.837272705078125,-9.691950798034668,-0.7810500264167786,0
1757088401791826000,4.846825927734375,-9.675000190734863,-0.8100000619888306,0.010050000622868538
1757088401801378800,4.85637890625,-9.687000274658203,-0.8550000190734863,0.004950000438839197
1757088401810932000,4.865931884765625,-9.715950012207031,-0.8869500160217285,-0.010950000956654549
1757088401820484900,4.87548486328125,-9.709050178527832,-0.8959500193595886,0.003000000026077032
1757088401830038000,4.8850380859375,-9.739950180053711,-0.8940000534057617,0.019050000235438347
1757088401839591200,4.894591064453125,-9.736950874328613,-0.9390000700950623,0
1757088401849144000,4.90414404296875,-9.739950180053711,-0.9780000448226929,0.012000000104308128
1757088401858697200,4.913697265625,-9.727950096130371,-0.973050057888031,0.024000000208616257
1757088401868250000,4.92325,-9.744000434875488,-0.9580500721931458,0.019050000235438347
1757088401877803300,4.93280322265625,-9.733050346374512,-0.9510000348091125,0.039000000804662704
1757088401887356400,4.9423564453125,-9.721050262451172,-0.9510000348091125,0.0499500036239624
1757088401896909600,4.95190966796875,-9.699000358581543,-0.9439500570297241,0.06495000422000885
1757088401906462500,4.96146240234375,-9.687000274658203,-0.9199500679969788,0.06000000238418579
1757088401916015400,4.971015380859375,-9.687000274658203,-0.931950032711029,0.0580500029027462
1757088401925568500,4.980568603515625,-9.711000442504883,-0.9220500588417053,0.06000000238418579
1757088401935121400,4.990121337890625,-9.715950012207031,-0.9079500436782837,0.07695000618696213
1757088401944674800,4.9996748046875,-9.727950096130371,-0.8940000534057617,0.08400000631809235
1757088401954227700,5.009227783203125,-9.727950096130371,-0.8820000290870667,0.07200000435113907
1757088401963780600,5.018780517578125,-9.723000526428223,-0.8530500531196594,0.04305000230669975
1757088401973333800,5.028333740234375,-9.735000610351562,-0.8479500412940979,0.016950000077486038
1757088401982887000,5.037886962890625,-9.724950790405273,-0.8550000190734863,-0.006000000052154064
1757088401992439800,5.047439697265625,-9.724950790405273,-0.8410500288009644,-0.022950001060962677
1757088402001993000,5.056992919921875,-9.718050003051758,-0.8530500531196594,-0.034950003027915955
1757088402011545900,5.0665458984375,-9.703950881958008,-0.8580000400543213,-0.05895000323653221
1757088402021099000,5.07609912109375,-9.688950538635254,-0.843000054359436,-0.07800000160932541
1757088402030652200,5.085652099609375,-9.687000274658203,-0.8359500169754028,-0.08505000174045563
1757088402040205300,5.095205322265625,-9.685050010681152,-0.8340000510215759,-0.11100000888109207
1757088402049758200,5.10475830078125,-9.700950622558594,-0.8340000510215759,-0.12105000764131546
1757088402059311000,5.11431103515625,-9.718050003051758,-0.8530500531196594,-0.1380000114440918
1757088402068864300,5.1238642578125,-9.739950180053711,-0.8530500531196594,-0.13305000960826874
1757088402078417400,5.13341748046875,-9.724950790405273,-0.8550000190734863,-0.14505000412464142
1757088402087970600,5.142970458984375,-9.744000434875488,-0.8790000677108765,-0.15405000746250153
1757088402097523500,5.1525234375,-9.730050086975098,-0.8770500421524048,-0.1399500072002411
1757088402107076400,5.162076416015625,-9.709050178527832,-0.8530500531196594,-0.12300000339746475
1757088402116629500,5.17162939453125,-9.675000190734863,-0.8749500513076782,-0.12600000202655792
1757088402126182700,5.1811826171875,-9.670050621032715,-0.8820000290870667,-0.1189500093460083
1757088402135735600,5.190735595703125,-9.673050880432129,-0.8580000400543213,-0.11400000751018524
1757088402145288700,5.200288818359375,-9.676950454711914,-0.8670000433921814,-0.09195000678300858
1757088402154841900,5.209841796875,-9.679950714111328,-0.8700000643730164,-0.1189500093460083
1757088402164394800,5.219394775390625,-9.682050704956055,-0.8770500421524048,-0.11400000751018524
1757088402173947600,5.22894775390625,-9.703950881958008,-0.8749500513076782,-0.10905000567436218
1757088402183500500,5.23850048828125,-9.706050872802734,-0.8670000433921814,-0.09195000678300858
1757088402193053700,5.2480537109375,-9.712950706481934,-0.8359500169754028,-0.06300000101327896
1757088402202606800,5.25760693359375,-9.709050178527832,-0.8460000157356262,-0.07800000160932541
1757088402212160000,5.267159912109375,-9.715950012207031,-0.8550000190734863,-0.08295000344514847
1757088402221713000,5.276712890625,-9.703950881958008,-0.8580000400543213,-0.07304999977350235
1757088402231265800,5.286265869140625,-9.706050872802734,-0.8749500513076782,-0.05895000323653221
1757088402240819000,5.29581884765625,-9.718050003051758,-0.8670000433921814,-0.04200000315904617
1757088402250372000,5.3053720703125,-9.723000526428223,-0.8910000324249268,-0.019950000569224358
1757088402259925200,5.31492529296875,-9.711000442504883,-0.8869500160217285,-0.016050001606345177
1757088402269478100,5.32447802734375,-9.703950881958008,-0.8839500546455383,-0.030000001192092896
1757088402279031000,5.334031005859375,-9.691950798034668,-0.8670000433921814,-0.043950002640485764
1757088402288584200,5.343584228515625,-9.675000190734863,-0.8509500622749329,-0.046950001269578934
1757088402298137300,5.353137451171875,-9.62700080871582,-0.8719500303268433,0.11505000293254852
1757088402307690200,5.362690185546875,-9.688950538635254,-0.8239500522613525,-0.07800000160932541
1757088402317243400,5.372243408203125,-9.687000274658203,-0.7960500121116638,-0.1399500072002411
1757088402326796300,5.38179638671875,-9.718050003051758,-0.8550000190734863,-0.07095000147819519
1757088402336349400,5.391349365234375,-9.759000778198242,-0.8790000677108765,-0.031950000673532486
1757088402345902300,5.40090234375,-9.76395034790039,-0.8770500421524048,-0.030000001192092896
1757088402355455500,5.41045556640625,-9.744000434875488,-0.8890500664710999,-0.022950001060962677
1757088402365008600,5.420008544921875,-9.711000442504883,-0.8790000677108765,-0.00795000046491623
1757088402374561800,5.429561767578125,-9.697050094604492,-0.8650500178337097,-0.0010500000789761543
1757088402384114700,5.43911474609375,-9.664950370788574,-0.8770500421524048,-0.004050000105053186
1757088402393667600,5.44866748046875,-9.673050880432129,-0.8770500421524048,-0.010950000956654549
1757088402403220700,5.458220703125,-9.682050704956055,-0.8749500513076782,-0.016050001606345177
1757088402412773600,5.467773681640625,-9.687000274658203,-0.859950065612793,-0.019950000569224358
1757088402422326800,5.477326904296875,-9.688950538635254,-0.8700000643730164,-0.022950001060962677
1757088402431879700,5.486879638671875,-9.711000442504883,-0.8890500664710999,0
1757088402441432800,5.496432861328125,-9.730050086975098,-0.9010500311851501,-0.016050001606345177
1757088402450985700,5.50598583984375,-9.733050346374512,-0.9010500311851501,-0.016050001606345177
1757088402460539000,5.515538818359375,-9.715950012207031,-0.8770500421524048,-0.019950000569224358
1757088402470092000,5.525092041015625,-9.694050788879395,-0.8770500421524048,-0.030000001192092896
1757088402479645200,5.534645263671875,-9.694050788879395,-0.8839500546455383,-0.04200000315904617
1757088402489198000,5.544197998046875,-9.694050788879395,-0.8790000677108765,-0.04905000329017639
1757088402498751000,5.5537509765625,-9.699000358581543,-0.8890500664710999,-0.04200000315904617
1757088402508304100,5.56330419921875,-9.712950706481934,-0.8869500160217285,-0.05400000140070915
1757088402517857300,5.572857177734375,-9.700950622558594,-0.8700000643730164,-0.05100000277161598
1757088402527410200,5.58241015625,-9.709050178527832,-0.8749500513076782,-0.06795000284910202
1757088402536963300,5.59196337890625,-9.711000442504883,-0.8700000643730164,-0.07500000298023224
1757088402546516200,5.60151611328125,-9.691950798034668,-0.8670000433921814,-0.0799500048160553
1757088402556069400,5.6110693359375,-9.703950881958008,-0.8580000400543213,-0.09000000357627869
1757088402565622300,5.620622314453125,-9.703950881958008,-0.8719500303268433,-0.07500000298023224
1757088402575175400,5.630175537109375,-9.691950798034668,-0.8670000433921814,-0.07095000147819519
1757088402584728600,5.639728515625,-9.706050872802734,-0.8770500421524048,-0.07095000147819519
1757088402594281500,5.649281494140625,-9.709050178527832,-0.8670000433921814,-0.05895000323653221
1757088402603834400,5.65883447265625,-9.721050262451172,-0.859950065612793,-0.05400000140070915
1757088402613387500,5.668387451171875,-9.718050003051758,-0.8530500531196594,-0.05895000323653221
1757088402622940700,5.677940673828125,-9.709050178527832,-0.8580000400543213,-0.04005000367760658
1757088402632493600,5.68749365234375,-9.694050788879395,-0.8460000157356262,-0.05895000323653221
1757088402642046700,5.697046630859375,-9.691950798034668,-0.8530500531196594,-0.043950002640485764
1757088402651599600,5.706599609375,-9.703950881958008,-0.8580000400543213,-0.05400000140070915
1757088402661152800,5.71615283203125,-9.706050872802734,-0.8719500303268433,-0.04005000367760658
1757088402670706000,5.725705810546875,-9.703950881958008,-0.8820000290870667,-0.043950002640485764
1757088402680258800,5.7352587890625,-9.711000442504883,-0.8839500546455383,-0.030000001192092896
1757088402689812000,5.74481201171875,-9.706050872802734,-0.8749500513076782,-0.031950000673532486
1757088402699364900,5.75436474609375,-9.703950881958008,-0.8770500421524048,-0.037050001323223114
1757088402708917800,5.763917724609375,-9.700950622558594,-0.8890500664710999,-0.031950000673532486
1757088402718471000,5.773470947265625,-9.697050094604492,-0.8790000677108765,-0.022950001060962677
1757088402728024000,5.783024169921875,-9.706050872802734,-0.8700000643730164,-0.013050000183284283
1757088402737577200,5.7925771484375,-9.699000358581543,-0.8629500269889832,-0.025050001218914986
1757088402747130000,5.802130126953125,-9.700950622558594,-0.8629500269889832,-0.030000001192092896
1757088402756683000,5.81168310546875,-9.712950706481934,-0.8839500546455383,-0.022950001060962677
1757088402766236200,5.821236083984375,-9.718050003051758,-0.8790000677108765,-0.022950001060962677
1757088402775789300,5.830789306640625,-9.711000442504883,-0.8670000433921814,-0.016050001606345177
1757088402785342200,5.84034228515625,-9.699000358581543,-0.859950065612793,-0.010950000956654549
1757088402794895400,5.849895263671875,-9.703950881958008,-0.8650500178337097,-0.016050001606345177
1757088402804448300,5.8594482421875,-9.700950622558594,-0.8650500178337097,-0.0010500000789761543
1757088402814001700,5.869001708984375,-9.700950622558594,-0.8580000400543213,-0.010950000956654549
1757088402823554600,5.878554443359375,-9.700950622558594,-0.8700000643730164,-0.031950000673532486
1757088402833107500,5.888107421875,-9.715950012207031,-0.8650500178337097,-0.022950001060962677
1757088402842660600,5.89766064453125,-9.711000442504883,-0.8580000400543213,-0.030000001192092896
1757088402852213800,5.9072138671875,-9.711000442504883,-0.8700000643730164,-0.031950000673532486
1757088402861766400,5.916766357421875,-9.715950012207031,-0.8700000643730164,-0.034950003027915955
1757088402871319800,5.92631982421875,-9.711000442504883,-0.8650500178337097,-0.028050001710653305
1757088402880872700,5.935872802734375,-9.700950622558594,-0.8670000433921814,-0.04200000315904617
1757088402890425900,5.94542578125,-9.700950622558594,-0.8580000400543213,-0.037050001323223114
1757088402899978800,5.954978759765625,-9.699000358581543,-0.8629500269889832,-0.04005000367760658
1757088402909531600,5.96453173828125,-9.711000442504883,-0.8719500303268433,-0.06105000153183937
1757088402919085000,5.9740849609375,-9.727950096130371,-0.8719500303268433,-0.031950000673532486
1757088402928638000,5.983637939453125,-9.721050262451172,-0.8820000290870667,-0.05100000277161598
1757088402938191000,5.993191162109375,-9.711000442504883,-0.8839500546455383,-0.037050001323223114
1757088402947744000,6.002743896484375,-9.694050788879395,-0.8719500303268433,-0.04200000315904617
1757088402957297000,6.012296875,-9.688950538635254,-0.8700000643730164,-0.046950001269578934
1757088402966850000,6.02185009765625,-9.685050010681152,-0.8670000433921814,-0.05895000323653221
1757088402976403000,6.03140283203125,-9.676950454711914,-0.8359500169754028,-0.05400000140070915
1757088402985956000,6.0409560546875,-9.694050788879395,-0.8460000157356262,-0.04005000367760658
1757088402995509200,6.05050927734375,-9.711000442504883,-0.8719500303268433,-0.037050001323223114
1757088403005062100,6.060062255859375,-9.724950790405273,-0.8770500421524048,-0.034950003027915955
1757088403014615300,6.069615234375,-9.739950180053711,-0.8890500664710999,-0.043950002640485764
1757088403024168200,6.079168212890625,-9.727950096130371,-0.8770500421524048,-0.030000001192092896
1757088403033721300,6.088721435546875,-9.711000442504883,-0.8670000433921814,-0.04005000367760658
1757088403043274500,6.0982744140625,-9.685050010681152,-0.8629500269889832,-0.046950001269578934
1757088403052827400,6.107827392578125,-9.676950454711914,-0.8700000643730164,-0.046950001269578934
1757088403062380300,6.11738037109375,-9.676950454711914,-0.8790000677108765,-0.06300000101327896
1757088403071933400,6.126933349609375,-9.706050872802734,-0.8749500513076782,-0.05595000088214874
1757088403081486300,6.136486328125,-9.712950706481934,-0.8670000433921814,-0.031950000673532486
1757088403091039500,6.14603955078125,-9.736950874328613,-0.8770500421524048,-0.018000001087784767
1757088403100592600,6.155592529296875,-9.735000610351562,-0.8650500178337097,-0.018000001087784767
1757088403110145500,6.1651455078125,-9.733050346374512,-0.8910000324249268,-0.016050001606345177
1757088403119698700,6.17469873046875,-9.711000442504883,-0.8719500303268433,-0.019950000569224358
1757088403129251600,6.18425146484375,-9.697050094604492,-0.8770500421524048,-0.04005000367760658
1757088403138804700,6.1938046875,-9.675000190734863,-0.8629500269889832,-0.022950001060962677
1757088403148357600,6.203357666015625,-9.667950630187988,-0.8700000643730164,-0.04200000315904617
1757088403157910800,6.212910888671875,-9.699000358581543,-0.8650500178337097,-0.046950001269578934
1757088403167463700,6.222463623046875,-9.706050872802734,-0.859950065612793,-0.034950003027915955
1757088403177016800,6.232016845703125,-9.712950706481934,-0.859950065612793,-0.019950000569224358
1757088403186570000,6.241570068359375,-9.712950706481934,-0.8550000190734863,-0.025050001218914986
1757088403196123000,6.251122802734375,-9.699000358581543,-0.859950065612793,-0.018000001087784767
1757088403205676000,6.260676025390625,-9.691950798034668,-0.8700000643730164,-0.025050001218914986
1757088403215229000,6.27022900390625,-9.691950798034668,-0.8820000290870667,-0.010950000956654549
1757088403224781800,6.27978173828125,-9.691950798034668,-0.8670000433921814,-0.030000001192092896
1757088403234335200,6.289335205078125,-9.703950881958008,-0.8629500269889832,-0.010950000956654549
1757088403243888000,6.29888818359375,-9.718050003051758,-0.8629500269889832,-0.016050001606345177
1757088403253441300,6.308441162109375,-9.712950706481934,-0.8770500421524048,-0.013050000183284283
1757088403262994200,6.317994140625,-9.724950790405273,-0.8910000324249268,-0.016050001606345177
1757088403272547000,6.327547119140625,-9.727950096130371,-0.9010500311851501,0.004950000438839197
1757088403282100200,6.337100341796875,-9.711000442504883,-0.8700000643730164,-0.013050000183284283
1757088403291653400,6.3466533203125,-9.688950538635254,-0.8790000677108765,-0.025050001218914986
1757088403301206300,6.356206298828125,-9.675000190734863,-0.8910000324249268,-0.037050001323223114
1757088403310759400,6.365759521484375,-9.675000190734863,-0.8719500303268433,-0.06795000284910202
1757088403320312300,6.375312255859375,-9.682050704956055,-0.8629500269889832,-0.06105000153183937
1757088403329865200,6.384865234375,-9.682050704956055,-0.8479500412940979,-0.06105000153183937
1757088403339418400,6.39441845703125,-9.699000358581543,-0.8340000510215759,-0.05895000323653221
1757088403348971300,6.40397119140625,-9.709050178527832,-0.8239500522613525,-0.06599999964237213
1757088403358524400,6.4135244140625,-9.711000442504883,-0.8119500279426575,-0.06795000284910202
1757088403368077600,6.42307763671875,-9.699000358581543,-0.8100000619888306,-0.06105000153183937
1757088403377630500,6.43263037109375,-9.700950622558594,-0.8080500364303589,-0.05595000088214874
1757088403387183600,6.44218359375,-9.694050788879395,-0.8239500522613525,-0.04200000315904617
1757088403396736500,6.451736572265625,-9.711000442504883,-0.8359500169754028,-0.031950000673532486
1757088403406289400,6.461289306640625,-9.715950012207031,-0.843000054359436,-0.034950003027915955
1757088403415842600,6.470842529296875,-9.718050003051758,-0.843000054359436,-0.018000001087784767
1757088403425395700,6.480395751953125,-9.712950706481934,-0.8580000400543213,-0.0010500000789761543
1757088403434948600,6.489948486328125,-9.712950706481934,-0.8770500421524048,0.0070500001311302185
1757088403444501800,6.499501708984375,-9.718050003051758,-0.8839500546455383,0
1757088403454054700,6.5090546875,-9.711000442504883,-0.8959500193595886,0.003000000026077032
1757088403463607800,6.51860791015625,-9.703950881958008,-0.9130500555038452,-0.016050001606345177
1757088403473161000,6.528160888671875,-9.699000358581543,-0.9439500570297241,-0.016050001606345177
1757088403482713900,6.5377138671875,-9.711000442504883,-0.9340500235557556,-0.00795000046491623
1757088403492266800,6.547266845703125,-9.718050003051758,-0.9420000314712524,0
1757088403501820000,6.55681982421875,-9.768000602722168,-0.9150000214576721,0.004950000438839197
1757088403511373000,6.566373046875,-9.78795051574707,-0.9340500235557556,0.022050000727176666
1757088403520926000,6.575926025390625,-9.756000518798828,-0.9679500460624695,0.18195000290870667
1757088403530479000,6.58547900390625,-9.754050254821777,-0.9300000667572021,0.16500000655651093
1757088403540032000,6.595031982421875,-9.688950538635254,-0.9220500588417053,0.07395000010728836
1757088403549585200,6.604585205078125,-9.618000030517578,-0.8839500546455383,0.05295000225305557
1757088403559138000,6.614137939453125,-9.59595012664795,-0.8770500421524048,0.031050002202391624
1757088403568691200,6.623691162109375,-9.60300064086914,-0.8479500412940979,-0.00795000046491623
1757088403578244400,6.633244384765625,-9.61305046081543,-0.7999500632286072,0.003000000026077032
1757088403587797200,6.64279736328125,-9.62505054473877,-0.7519500255584717,-0.10695000737905502
1757088403597350100,6.65235009765625,-9.691950798034668,-0.6589500308036804,-0.1279500126838684
1757088403606903300,6.6619033203125,-9.687000274658203,-0.6970500349998474,-0.1189500093460083
1757088403616456400,6.67145654296875,-9.727950096130371,-0.6760500073432922,-0.1660500019788742
1757088403626009300,6.68100927734375,-9.742050170898438,-0.6520500183105469,-0.1380000114440918
1757088403635562500,6.6905625,-9.747000694274902,-0.7189500331878662,0.019050000235438347
1757088403645115400,6.700115478515625,-9.747000694274902,-0.7690500617027283,-0.05400000140070915
1757088403654668500,6.70966845703125,-9.730050086975098,-0.736050009727478,-0.13500000536441803
1757088403664221400,6.719221435546875,-9.715950012207031,-0.7020000219345093,-0.15195000171661377
1757088403673774300,6.7287744140625,-9.711000442504883,-0.7210500240325928,-0.09000000357627869
1757088403683327500,6.738327392578125,-9.715950012207031,-0.7690500617027283,-0.07800000160932541
1757088403692880600,6.747880615234375,-9.715950012207031,-0.8550000190734863,-0.1399500072002411
1757088403702433500,6.75743359375,-9.697050094604492,-0.9030000567436218,-0.15405000746250153
1757088403711986400,6.766986328125,-9.673050880432129,-0.9130500555038452,-0.14205001294612885
1757088403721539600,6.77653955078125,-9.676950454711914,-0.9100500345230103,-0.1469999998807907
1757088403731092700,6.7860927734375,-9.675000190734863,-0.9439500570297241,-0.13005000352859497
1757088403740645600,6.795645751953125,-9.709050178527832,-0.8820000290870667,-0.12105000764131546
1757088403750198800,6.80519873046875,-9.739950180053711,-0.9079500436782837,-0.11595000326633453
1757088403759751700,6.814751708984375,-9.735000610351562,-0.9180000424385071,-0.08700000494718552
1757088403769304600,6.8243046875,-9.735000610351562,-0.9270000457763672,-0.07800000160932541
1757088403778857700,6.833857666015625,-9.733050346374512,-0.9439500570297241,-0.0970500037074089
1757088403788411000,6.843410888671875,-9.730050086975098,-0.931950032711029,-0.08700000494718552
1757088403797963800,6.8529638671875,-9.706050872802734,-0.9130500555038452,-0.1189500093460083
1757088403807517000,6.862516845703125,-9.699000358581543,-0.9030000567436218,-0.14205001294612885
1757088403817069800,6.87206982421875,-9.667950630187988,-0.831000030040741,-0.12105000764131546
1757088403826623000,6.881623046875,-9.663000106811523,-0.8290500640869141,-0.1189500093460083
1757088403836176000,6.89117578125,-9.664950370788574,-0.8269500136375427,-0.10200000554323196
1757088403845729000,6.90072900390625,-9.688950538635254,-0.8080500364303589,-0.07500000298023224
1757088403855282000,6.910281982421875,-9.687000274658203,-0.7879500389099121,-0.028050001710653305
1757088403864835300,6.91983544921875,-9.703950881958008,-0.7909500598907471,-0.0010500000789761543
1757088403874388200,6.92938818359375,-9.735000610351562,-0.7980000376701355,0.034050002694129944
1757088403883941000,6.938941162109375,-9.744000434875488,-0.7980000376701355,0.0499500036239624
1757088403893494300,6.948494384765625,-9.742050170898438,-0.8100000619888306,0.06000000238418579
1757088403903047200,6.958047119140625,-9.742050170898438,-0.8119500279426575,0.06000000238418579
1757088403912600300,6.967600341796875,-9.727950096130371,-0.8340000510215759,0.06000000238418579
1757088403922153200,6.9771533203125,-9.721050262451172,-0.8190000653266907,0.06495000422000885
1757088403931706000,6.9867060546875,-9.724950790405273,-0.8479500412940979,0.07005000114440918
1757088403941259300,6.99625927734375,-9.730050086975098,-0.8629500269889832,0.07200000435113907
1757088403950812400,7.0058125,-9.733050346374512,-0.8700000643730164,0.06705000251531601
1757088403960365300,7.015365234375,-9.742050170898438,-0.8479500412940979,0.06195000186562538
1757088403969918500,7.02491845703125,-9.735000610351562,-0.8530500531196594,0.04305000230669975
1757088403979471400,7.034471435546875,-9.718050003051758,-0.8550000190734863,0.034050002694129944
1757088403989024300,7.044024169921875,-9.715950012207031,-0.8290500640869141,0.016950000077486038
1757088403998577400,7.053577392578125,-9.697050094604492,-0.8239500522613525,-0.0010500000789761543
1757088404008130300,7.06313037109375,-9.694050788879395,-0.8119500279426575,-0.05895000323653221
1757088404017683500,7.072683349609375,-9.688950538635254,-0.8359500169754028,-0.07095000147819519
1757088404027236600,7.082236572265625,-9.699000358581543,-0.8100000619888306,-0.08700000494718552
1757088404036789500,7.09178955078125,-9.700950622558594,-0.7639500498771667,-0.08700000494718552
1757088404046342700,7.1013427734375,-9.711000442504883,-0.7930500507354736,-0.08700000494718552
1757088404055895600,7.1108955078125,-9.723000526428223,-0.7810500264167786,-0.08505000174045563
1757088404065448700,7.12044873046875,-9.706050872802734,-0.7639500498771667,-0.06300000101327896
1757088404075001600,7.130001708984375,-9.700950622558594,-0.8050500154495239,-0.06105000153183937
1757088404084554800,7.1395546875,-9.711000442504883,-0.8269500136375427,-0.06300000101327896
1757088404094107600,7.149107666015625,-9.718050003051758,-0.831000030040741,-0.05400000140070915
1757088404103660500,7.15866064453125,-9.700950622558594,-0.8119500279426575,-0.05895000323653221
1757088404113213700,7.168213623046875,-9.706050872802734,-0.817050039768219,-0.034950003027915955
1757088404122766800,7.177766845703125,-9.706050872802734,-0.8239500522613525,-0.034950003027915955
1757088404132320000,7.187320068359375,-9.697050094604492,-0.843000054359436,-0.031950000673532486
1757088404141873000,7.196872802734375,-9.706050872802734,-0.8509500622749329,-0.016050001606345177
1757088404151425800,7.20642578125,-9.723000526428223,-0.8239500522613525,-0.034950003027915955
1757088404160978700,7.215978759765625,-9.685050010681152,-0.8410500288009644,-0.030000001192092896
1757088404170531800,7.22553173828125,-9.687000274658203,-0.7879500389099121,-0.013050000183284283
1757088404180085000,7.2350849609375,-9.688950538635254,-0.7909500598907471,-0.013050000183284283
1757088404189638000,7.244637939453125,-9.700950622558594,-0.7740000486373901,-0.034950003027915955
1757088404199191000,7.25419091796875,-9.711000442504883,-0.7600500583648682,-0.00795000046491623
1757088404208744000,7.263743896484375,-9.688950538635254,-0.8479500412940979,0.003000000026077032
1757088404218296800,7.273296875,-9.735000610351562,-0.7500000596046448,0.16500000655651093
1757088404227850000,7.28285009765625,-9.747000694274902,-0.7669500112533569,0.07695000618696213
1757088404237403100,7.292403076171875,-9.724950790405273,-0.7980000376701355,0.036000002175569534
1757088404246956000,7.3019560546875,-9.739950180053711,-0.8340000510215759,-0.013050000183284283
1757088404256509200,7.31150927734375,-9.706050872802734,-0.8100000619888306,-0.006000000052154064
1757088404266062000,7.32106201171875,-9.694050788879395,-0.8050500154495239,0.016950000077486038
1757088404275615200,7.330615234375,-9.703950881958008,-0.8149500489234924,-0.09000000357627869
1757088404285168000,7.340168212890625,-9.735000610351562,-0.7930500507354736,-0.1879500150680542
1757088404294721300,7.34972119140625,-9.77595043182373,-0.8869500160217285,0.003000000026077032
1757088404304274400,7.3592744140625,-9.78795051574707,-0.5850000381469727,-0.016050001606345177
1757088404313827300,7.368827392578125,-9.535950660705566,-0.2659500241279602,0.6079500317573547
1757088404323380200,7.378380126953125,-9.715950012207031,-1.1040000915527344,-0.018000001087784767
1757088404332933000,7.38793310546875,-9.778050422668457,-1.3680000305175781,-0.7099500298500061
1757088404342486000,7.397486083984375,-9.61500072479248,-0.7330500483512878,0.12495000660419464
1757088404352039400,7.407039306640625,-9.711000442504883,-0.6540000438690186,0.04800000041723251
1757088404361592300,7.41659228515625,-9.700950622558594,-0.6450000405311584,-0.12105000764131546
1757088404371145500,7.4261455078125,-9.795000076293945,-0.7189500331878662,-0.00795000046491623
1757088404380698400,7.435698486328125,-9.814050674438477,-0.970050036907196,-0.08700000494718552
1757088404390251300,7.445251220703125,-9.730050086975098,-0.9490500688552856,-0.13305000960826874
1757088404399804400,7.454804443359375,-9.700950622558594,-0.8239500522613525,-0.05895000323653221
1757088404409357600,7.464357666015625,-9.667950630187988,-0.8479500412940979,-0.04200000315904617
1757088404418910500,7.473910400390625,-9.667950630187988,-0.8890500664710999,-0.13005000352859497
1757088404428463600,7.483463623046875,-9.685050010681152,-0.8340000510215759,-0.14505000412464142
1757088404438016500,7.4930166015625,-9.727950096130371,-0.9370500445365906,-0.25005000829696655
1757088404447569700,7.502569580078125,-9.742050170898438,-0.9010500311851501,-0.22905001044273376
1757088404457122800,7.512122802734375,-9.709050178527832,-0.7740000486373901,-0.07800000160932541
1757088404466675700,7.52167578125,-9.703950881958008,-0.7309500575065613,-0.018000001087784767
1757088404476228600,7.531228515625,-9.64905071258545,-0.7620000243186951,-0.04200000315904617
1757088404485781800,7.54078173828125,-9.622050285339355,-0.7140000462532043,-0.07800000160932541
1757088404495334700,7.550334716796875,-9.697050094604492,-0.7050000429153442,-0.08700000494718552
1757088404504887800,7.5598876953125,-9.706050872802734,-0.7309500575065613,-0.12600000202655792
1757088404514441000,7.56944091796875,-9.697050094604492,-0.7189500331878662,-0.07500000298023224
1757088404523993900,7.578993896484375,-9.675000190734863,-0.7639500498771667,-0.04905000329017639
1757088404533546800,7.588546630859375,-9.679950714111328,-0.8119500279426575,-0.06105000153183937
1757088404543099600,7.598099609375,-9.727950096130371,-0.8119500279426575,-0.022950001060962677
1757088404552652800,7.60765283203125,-9.723000526428223,-0.775950014591217,0.015000000596046448
1757088404562206000,7.6172060546875,-9.718050003051758,-0.7140000462532043,0.05295000225305557
1757088404571758800,7.6267587890625,-9.688950538635254,-0.6490500569343567,0.1290000081062317
1757088404581312000,7.63631201171875,-9.679950714111328,-0.7260000109672546,0.16995000839233398
1757088404590865000,7.645864990234375,-9.739950180053711,-0.7620000243186951,0.11505000293254852
1757088404600417800,7.655417724609375,-9.772950172424316,-0.7690500617027283,0.05295000225305557
1757088404609971000,7.664970947265625,-9.778050422668457,-0.8190000653266907,0.036000002175569534
1757088404619524000,7.674524169921875,-9.756000518798828,-0.8770500421524048,0.028950002044439316
1757088404629077000,7.684076904296875,-9.756000518798828,-0.8959500193595886,0.05505000427365303
1757088404638630100,7.693630126953125,-9.754050254821777,-0.8719500303268433,0.010050000622868538
1757088404648183000,7.70318310546875,-9.709050178527832,-0.7930500507354736,0
1757088404657736200,7.712736083984375,-9.664950370788574,-0.7519500255584717,0.09795000404119492
1757088404667289000,7.7222890625,-9.699000358581543,-0.8700000643730164,0.10095000267028809
1757088404676842200,7.73184228515625,-9.699000358581543,-0.8959500193595886,-0.0010500000789761543
1757088404686395100,7.74139501953125,-9.730050086975098,-0.9030000567436218,-0.10200000554323196
1757088404695948300,7.7509482421875,-9.768000602722168,-0.8719500303268433,-0.16200000047683716
1757088404705501200,7.760501220703125,-9.780000686645508,-0.8050500154495239,-0.1570500135421753
1757088404715054000,7.77005419921875,-9.744000434875488,-0.7909500598907471,-0.17100000381469727
1757088404724607200,7.779607177734375,-9.700950622558594,-0.817050039768219,-0.208950012922287
1757088404734160100,7.78916015625,-9.699000358581543,-0.7620000243186951,-0.17595000565052032
1757088404743713300,7.79871337890625,-9.727950096130371,-0.7170000076293945,-0.10200000554323196
1757088404753266400,7.808266357421875,-9.756000518798828,-0.7909500598907471,-0.18300001323223114
1757088404762819300,7.8178193359375,-9.667950630187988,-0.8650500178337097,-0.2550000250339508
1757088404772372200,7.827372314453125,-9.646050453186035,-0.8460000157356262,-0.25995001196861267
1757088404781925400,7.83692529296875,-9.643950462341309,-0.7980000376701355,-0.2530499994754791
1757088404791478500,7.846478515625,-9.64905071258545,-0.817050039768219,-0.24795001745224
1757088404801031400,7.856031494140625,-9.675000190734863,-0.8629500269889832,-0.23595000803470612
1757088404810584300,7.865584228515625,-9.721050262451172,-0.7879500389099121,-0.23100000619888306
1757088404820137500,7.875137451171875,-9.733050346374512,-0.6850500106811523,-0.18300001323223114
1757088404829690600,7.884690673828125,-9.733050346374512,-0.7450500130653381,-0.322050005197525
1757088404839243500,7.894243408203125,-9.760950088500977,-0.7740000486373901,-0.12300000339746475
1757088404848796700,7.903796630859375,-9.715950012207031,-0.7960500121116638,-0.14505000412464142
1757088404858349600,7.913349609375,-9.652950286865234,-0.7840500473976135,-0.11400000751018524
1757088404867902500,7.92290234375,-9.673050880432129,-0.8340000510215759,-0.010950000956654549
1757088404877455600,7.93245556640625,-9.630000114440918,-0.8550000190734863,0.004950000438839197
1757088404887008800,7.9420087890625,-9.606000900268555,-0.7909500598907471,0.1270500123500824
1757088404896561700,7.951561767578125,-9.634050369262695,-0.831000030040741,0.36900001764297485
1757088404906114800,7.96111474609375,-9.766050338745117,-0.9079500436782837,0.29205000400543213
1757088404915667700,7.970667724609375,-9.82800006866455,-1.0279500484466553,0.15105000138282776
1757088404925220600,7.980220703125,-9.868950843811035,-1.1430000066757202,0
1757088404934773800,7.989773681640625,-9.84000015258789,-1.1929500102996826,-0.1980000138282776
1757088404944327000,7.999326904296875,-9.691950798034668,-1.0879501104354858,-0.10395000129938126
1757088404953879800,8.0088798828125,-9.586050033569336,-1.0249500274658203,0.1680000126361847
1757088404963432700,8.0184326171875,-9.607950210571289,-1.072950005531311,0.28995001316070557
1757088404972985900,8.02798583984375,-9.709050178527832,-1.2169500589370728,0.1080000028014183
1757088404982539000,8.0375390625,-9.619950294494629,-1.396950125694275,0.09405000507831573
1757088404992092000,8.047091796875,-9.715950012207031,-1.3870500326156616,0.37905001640319824
1757088405001645000,8.05664501953125,-9.766050338745117,-1.1400001049041748,0.48900002241134644
1757088405011198000,8.066197998046874,-9.880950927734375,-1.0110000371932983,0.15600000321865082
1757088405020750800,8.075750732421875,-10.06095027923584,-1.15500009059906,0.09105000644922256
1757088405030304000,8.085303955078125,-9.724950790405273,-1.1710500717163086,-0.10905000567436218
1757088405039857000,8.09485693359375,-9.652950286865234,-1.1329500675201416,-0.034950003027915955
1757088405049410000,8.10441015625,-9.631950378417969,-0.9510000348091125,0.3379500210285187
1757088405058963200,8.113963134765624,-9.53895092010498,-0.5920500159263611,0.5560500025749207
1757088405068516000,8.12351611328125,-9.579000473022461,-0.5299500226974487,0.5940000414848328
1757088405078069000,8.133069091796875,-9.634050369262695,-0.6709500551223755,0.19395001232624054
1757088405087622000,8.142621826171874,-9.567000389099121,-0.6280500292778015,-0.22095000743865967
1757088405097175000,8.152175048828125,-9.483000755310059,-0.4909500181674957,-0.018000001087784767
1757088405106728200,8.161728271484375,-9.457050323486328,-0.43605002760887146,0.5580000281333923
1757088405116281000,8.171281005859376,-9.711000442504883,-0.4120500087738037,1.0660500526428223
1757088405125834200,8.180834228515625,-9.784950256347656,-0.30705001950263977,1.2790501117706299
1757088405135387100,8.19038720703125,-9.867000579833984,-0.3859500288963318,1.1610000133514404
1757088405144940300,8.199940185546875,-9.664950370788574,-0.62295001745224,0.8449500203132629
1757088405154493200,8.2094931640625,-10.105950355529785,-0.34095001220703125,0.6780000329017639
1757088405164046000,8.219046142578126,-10.567950248718262,2.5530002117156982,1.5280500650405884
1757088405173599200,8.22859912109375,-8.574000358581543,0.2950500249862671,1.686000108718872
1757088405183152000,8.238152099609374,-8.728950500488281,-1.686000108718872,0.4339500069618225
1757088405192705300,8.247705322265626,-9.60300064086914,-2.3400001525878906,-0.1980000138282776
1757088405202258200,8.257258056640625,-10.105950355529785,-1.237950086593628,0.6199500560760498
1757088405211811300,8.266811279296874,-10.19895076751709,-0.5299500226974487,1.068000078201294
1757088405221364200,8.2763642578125,-10.02495002746582,-2.4190502166748047,1.3150500059127808
1757088405230917000,8.285917236328125,-9.651000022888184,-6.027000427246094,1.1299500465393066
1757088405240470300,8.29547021484375,-10.053000450134277,-3.76200008392334,-0.3840000033378601
1757088405250023400,8.3050234375,-10.128000259399414,-0.9510000348091125,0.35895001888275146
1757088405259576300,8.314576416015624,-9.62505054473877,0.2350500077009201,0.7069500088691711
1757088405269129200,8.324129150390625,-9.190950393676758,0.4510500133037567,0.9439500570297241
1757088405278682000,8.33368212890625,-9.091050148010254,-0.29805001616477966,0.9079500436782837
1757088405288235300,8.3432353515625,-9.02595043182373,-1.1239500045776367,1.0060499906539917
1757088405297788200,8.3527880859375,-9.226950645446777,-0.8239500522613525,1.054050087928772
1757088405307341300,8.36234130859375,-9.91200065612793,-0.7480500340461731,1.3189500570297241
1757088405316894500,8.37189453125,-11.097000122070312,-0.7690500617027283,1.915950059890747
1757088405326447400,8.381447265625,-8.86305046081543,-1.297950029373169,1.968000054359436
1757088405336000300,8.391000244140624,-8.760000228881836,-1.2310500144958496,0.5320500135421753
1757088405345553400,8.400553466796875,-9.661050796508789,-0.9439500570297241,0.34005001187324524
1757088405355106300,8.410106201171875,-10.015050888061523,-0.1680000126361847,0.3829500079154968
1757088405364659500,8.419659423828126,-10.410000801086426,0.5710500478744507,0.2160000056028366
1757088405374212600,8.429212646484375,-10.22295093536377,0.00795000046491623,0.10605000704526901
1757088405383765500,8.438765625,-9.91395092010498,-0.778950035572052,0.8410500288009644
1757088405393318400,8.448318359375,-9.543000221252441,-1.2499500513076782,0.7830000519752502
1757088405402871300,8.457871337890625,-9.58395004272461,-1.1590501070022583,0.742050051689148
1757088405412424700,8.4674248046875,-9.756000518798828,-0.6180000305175781,0.8689500689506531
1757088405421977600,8.4769775390625,-9.79995059967041,-0.4630500078201294,0.4909500181674957
1757088405431530500,8.486530517578124,-9.694050788879395,-0.6180000305175781,0.6589500308036804
1757088405441083600,8.496083740234376,-9.850050926208496,-0.5509500503540039,0.25905001163482666
1757088405450636500,8.505636474609375,-9.487950325012207,-0.7639500498771667,0.8650500178337097
1757088405460189400,8.515189453125,-9.58905029296875,-0.8550000190734863,1.1950500011444092
1757088405469742600,8.52474267578125,-9.891000747680664,-1.0420500040054321,0.7470000386238098
1757088405479295500,8.53429541015625,-9.606000900268555,-1.1020500659942627,1.0030500888824463
1757088405488848600,8.5438486328125,-9.739950180053711,-1.01295006275177,0.775950014591217
1757088405498401500,8.553401611328125,-9.832950592041016,-0.8580000400543213,0.6250500082969666
1757088405507954700,8.56295458984375,-9.730050086975098,-0.7330500483512878,0.47700002789497375
1757088405517507600,8.572507568359375,-9.744000434875488,-0.62295001745224,0.24000000953674316
1757088405527060700,8.582060791015625,-9.567000389099121,-0.8770500421524048,0.06195000186562538
1757088405536614000,8.59161376953125,-9.586050033569336,-0.9180000424385071,0.2970000207424164
1757088405546166800,8.601166748046875,-9.586050033569336,-1.1239500045776367,0.7470000386238098
1757088405555719700,8.6107197265625,-9.744000434875488,-1.0060499906539917,0.6970500349998474
1757088405565272600,8.6202724609375,-9.790050506591797,-0.7639500498771667,0.7300500273704529
1757088405574825700,8.62982568359375,-9.711000442504883,-0.7260000109672546,0.5010000467300415
1757088405584379000,8.63937890625,-9.771000862121582,-0.7450500130653381,0.4740000367164612
1757088405593931800,8.648931884765625,-9.424050331115723,-0.4410000145435333,-0.14505000412464142
1757088405603485000,8.65848486328125,-9.469050407409668,-0.17805001139640808,-0.5110500454902649
1757088405613037800,8.668037841796876,-9.663000106811523,-0.0580500029027462,-0.37005001306533813
1757088405622590700,8.6775908203125,-9.661050796508789,-0.18495000898838043,-0.21405000984668732
1757088405632144000,8.687143798828124,-9.754050254821777,-0.40995001792907715,-0.322050005197525
1757088405641696800,8.69669677734375,-9.792000770568848,-0.7120500206947327,0.2370000183582306
1757088405651249700,8.706249755859375,-10.027050018310547,-1.321950078010559,0.9340500235557556
1757088405660802800,8.715802734375,-10.209000587463379,-1.6290000677108765,0.9289500713348389
1757088405670356000,8.72535595703125,-10.16295051574707,-1.7560501098632812,0.4429500102996826
1757088405679908900,8.734908935546875,-9.937950134277344,-1.8709501028060913,0.24000000953674316
1757088405689462000,8.7444619140625,-9.675000190734863,-2.4120001792907715,0.7740000486373901
1757088405699015200,8.75401513671875,-9.76395034790039,-2.8590002059936523,1.321950078010559
1757088405708568000,8.763568115234374,-9.844950675964355,-3.241950035095215,1.3699500560760498
1757088405718121000,8.773120849609375,-9.807000160217285,-2.7559502124786377,1.3240500688552856
1757088405727673900,8.782673828125,-9.91200065612793,-2.236950159072876,1.4970000982284546
1757088405737227000,8.79222705078125,-9.985950469970703,-2.2900500297546387,1.8199501037597656
1757088405746780000,8.80177978515625,-10.02495002746582,-2.515050172805786,1.6000500917434692
1757088405756333000,8.8113330078125,-9.736950874328613,-3.421950101852417,1.3510500192642212
1757088405765886200,8.82088623046875,-9.744000434875488,-4.096950054168701,0.7159500122070312
1757088405775439000,8.830439208984375,-9.736950874328613,-4.377000331878662,0.46905001997947693
1757088405784992000,8.839991943359376,-9.687000274658203,-3.859950065612793,-0.7549500465393066
1757088405794545200,8.849545166015625,-9.164999961853027,-3.5779502391815186,-1.327950119972229
1757088405804098000,8.85909814453125,-9.421050071716309,-2.365950107574463,-0.5659500360488892
1757088405813651000,8.86865087890625,-10.141950607299805,-0.8700000643730164,0.9360000491142273
1757088405823204000,8.8782041015625,-10.317000389099121,-0.859950065612793,1.8870000839233398
1757088405832757200,8.88775732421875,-10.314000129699707,-1.4080500602722168,2.442000150680542
1757088405842310100,8.89731005859375,-9.879000663757324,-1.168950080871582,3.0390000343322754
1757088405851863000,8.906863037109375,-9.630000114440918,-1.228950023651123,3.501000165939331
1757088405861416200,8.916416259765626,-9.519000053405762,-1.2790501117706299,3.2089500427246094
1757088405870969000,8.925968994140625,-9.361050605773926,-1.6930500268936157,2.2009501457214355
1757088405880522000,8.93552197265625,-9.493050575256348,-2.0089499950408936,1.8049501180648804
1757088405890075100,8.9450751953125,-8.353050231933594,-3.037050247192383,0.6300000548362732
1757088405899628300,8.954628173828125,-6.76800012588501,-3.5590500831604004,1.3980001211166382
1757088405909181200,8.96418115234375,-5.416050434112549,-2.196000099182129,1.9990501403808594
1757088405918734000,8.973734130859375,-6.361050128936768,-1.1119500398635864,3.391050100326538
1757088405928287200,8.983287353515625,-9.495000839233398,1.0140000581741333,6.7069501876831055
1757088405937840000,8.992840087890626,-12.261000633239746,-0.037050001323223114,8.395050048828125
1757088405947393300,9.002393310546875,-12.56505012512207,-2.347050189971924,7.255050182342529
1757088405956946200,9.0119462890625,-11.734050750732422,-2.8279502391815186,4.762050151824951
1757088405966499300,9.021499267578125,-9.164999961853027,-1.4490001201629639,3.7980000972747803
1757088405976052200,9.03105224609375,-6.724950313568115,-1.7170500755310059,2.8279502391815186
1757088405985605400,9.04060546875,-6.345000267028809,-0.5680500268936157,2.8660502433776855
1757088405995158300,9.050158203125,-5.740950107574463,-0.6970500349998474,3.6130502223968506
1757088406004711400,9.05971142578125,-7.603950500488281,-1.6810500621795654,4.710000038146973
1757088406014264600,9.0692646484375,-9.031050682067871,-3.3100502490997314,4.2619500160217285
1757088406023817200,9.078817138671875,-9.62505054473877,-2.5189502239227295,3.5629501342773438
1757088406033370400,9.088370361328124,-8.128050804138184,-1.3339500427246094,4.82895040512085
1757088406042923300,9.09792333984375,-7.471950531005859,-0.6160500049591064,5.602950096130371
1757088406052476400,9.107476318359375,-7.609050273895264,-0.775950014591217,5.325000286102295
1757088406062029300,9.117029296875,-9.097949981689453,-4.236000061035156,5.725050449371338
1757088406071582500,9.12658251953125,-10.518000602722168,-4.174050331115723,6.240000247955322
1757088406081135400,9.13613525390625,-8.81100082397461,-2.754000186920166,4.648050308227539
1757088406090688300,9.145688232421875,-6.820950508117676,-3.7789502143859863,3.826050281524658
1757088406100241400,9.155241455078125,-5.875050067901611,-7.890000343322754,4.888950347900391
1757088406109794300,9.164794189453126,-3.80400013923645,-3.6690001487731934,9.151050567626953
1757088406119347500,9.174347412109375,-4.230000019073486,-4.736999988555908,10.1089506149292
1757088406128900400,9.183900390625,-4.491000175476074,-5.0209503173828125,9.550950050354004
1757088406138453500,9.19345361328125,-7.575000286102295,-6.408000469207764,10.819950103759766
1757088406148006400,9.20300634765625,-7.957950592041016,-7.384950160980225,13.111050605773926
1757088406157559600,9.2125595703125,-7.414950370788574,-8.365950584411621,10.573050498962402
1757088406167112400,9.222112548828125,-7.317000389099121,-5.059950351715088,6.871950149536133
1757088406176665600,9.23166552734375,-4.123050212860107,-3.550950050354004,7.735950469970703
1757088406186218500,9.241218505859376,-2.7240002155303955,-5.503050327301025,7.480050563812256
1757088406195771400,9.250771484375,-4.786050319671631,-6.463050365447998,5.7370500564575195
1757088406205324500,9.260324462890624,-6.270000457763672,-6.7069501876831055,4.638000011444092
1757088406214877700,9.269877685546875,-6.8710503578186035,-5.716050148010254,4.099050045013428
1757088406224430800,9.279430908203125,-7.627950191497803,-5.8470001220703125,3.7350001335144043
1757088406233983500,9.2889833984375,-9.400050163269043,-5.26800012588501,4.573050022125244
1757088406243536600,9.29853662109375,-9.01395034790039,-2.6080501079559326,6.883950233459473
1757088406253089500,9.308089599609374,-6.3919501304626465,-5.008950233459473,10.272000312805176
1757088406262642400,9.317642333984375,-4.474950313568115,-8.305950164794922,6.048000335693359
1757088406272195600,9.327195556640625,-3.337050199508667,-6.625950336456299,4.663950443267822
1757088406281748500,9.33674853515625,-2.1259500980377197,-5.782950401306152,6.891000270843506
1757088406291301600,9.346301513671875,-2.9880001544952393,-5.749050140380859,8.665050506591797
1757088406300854500,9.3558544921875,-4.7719502449035645,-5.926050186157227,9.742950439453125
1757088406310407700,9.36540771484375,-5.179050445556641,-5.994000434875488,10.051050186157227
1757088406319960600,9.374960693359375,-4.34505033493042,-6.051000118255615,9.988950729370117
1757088406329513500,9.384513427734374,-5.257950305938721,-6.973050117492676,10.255050659179688
1757088406339066600,9.394066650390625,-6.874050140380859,-6.586950302124023,10.147050857543945
1757088406348619500,9.40361962890625,-4.803000450134277,-5.28000020980835,9.369000434875488
1757088406358172700,9.413172607421876,-2.949000120162964,-4.801050186157227,9.580050468444824
1757088406367725600,9.4227255859375,-3.4740002155303955,-4.765050411224365,10.695000648498535
1757088406377278700,9.43227880859375,-6.547950267791748,-4.753050327301025,12.690000534057617
1757088406386831600,9.44183154296875,-6.879000186920166,-4.249950408935547,11.134050369262695
1757088406396384800,9.451384765625,-4.9609503746032715,-4.0489501953125,9.522000312805176
1757088406405937700,9.460937744140624,-6.28695011138916,-3.8269500732421875,11.905050277709961
1757088406415490800,9.47049072265625,-5.9730000495910645,-3.252000093460083,12.0600004196167
1757088406425043700,9.480043701171875,-5.277000427246094,-3.42900013923645,12.256950378417969
1757088406434596600,9.4895966796875,-4.5199503898620605,-3.5850002765655518,12.928950309753418
1757088406444149800,9.499149658203125,-3.766050100326538,-3.5370001792907715,13.94205093383789
1757088406453702700,9.50870263671875,-3.076050043106079,-3.3000001907348633,14.874000549316406
1757088406463255800,9.518255859375,-2.449050188064575,-3.3070502281188965,15.253951072692871
1757088406472809000,9.52780908203125,-1.0320000648498535,-3.373950242996216,15.21405029296875
1757088406482361600,9.537361572265626,2.479950189590454,-2.8980002403259277,14.068950653076172
1757088406491914800,9.546914794921875,5.968050479888916,-2.2699501514434814,12.703950881958008
1757088406501467600,9.556467529296874,8.193000793457031,-1.4419500827789307,11.614950180053711
1757088406511020800,9.566020751953126,9.622050285339355,-0.30195000767707825,11.253000259399414
1757088406520573700,9.57557373046875,9.663000106811523,0.05100000277161598,11.368050575256348
1757088406530126800,9.585126953125,7.716000556945801,-0.22305001318454742,12.120000839233398
1757088406539679700,9.5946796875,4.82895040512085,-1.1569499969482422,12.393000602722168
1757088406549233000,9.60423291015625,2.1660001277923584,-1.1239500045776367,12.265950202941895
1757088406558785800,9.613785888671876,1.8499500751495361,-0.6420000195503235,11.964000701904297
1757088406568338700,9.623338623046875,3.0450000762939453,-0.9889500737190247,11.287050247192383
1757088406577891800,9.632891845703124,4.122000217437744,-1.5400500297546387,10.1089506149292
1757088406587445000,9.642445068359375,3.2440502643585205,-2.4019501209259033,8.833050727844238
1757088406596998000,9.651997802734375,3.5329501628875732,-1.6050000190734863,7.987950325012207
1757088406606550800,9.66155078125,5.479950428009033,-1.2859500646591187,6.823950290679932
1757088406616104000,9.67110400390625,6.370050430297852,-1.5019500255584717,5.634000301361084
1757088406625656800,9.68065673828125,5.8030500411987305,-1.8130500316619873,5.038050174713135
1757088406635209700,9.690209716796875,5.0370001792907715,-1.8510000705718994,3.9940502643585205
1757088406644763000,9.699762939453125,3.8329501152038574,-1.3410000801086426,3.010050058364868
1757088406654316000,9.70931591796875,2.737950086593628,-0.6589500308036804,1.7430000305175781
1757088406663869000,9.718868896484375,1.921950101852417,0.16395001113414764,1.0270500183105469
1757088406673421800,9.728421875,1.3830000162124634,0.8629500269889832,0.8290500640869141
1757088406682974700,9.737974609375,1.1650500297546387,1.1329500675201416,1.0350000858306885
1757088406692527900,9.74752783203125,1.1839500665664673,1.0230000019073486,1.5229500532150269
1757088406702081000,9.7570810546875,1.141050100326538,0.8910000324249268,2.116950035095215
1757088406711634000,9.766634033203125,1.5390000343322754,0.7189500331878662,1.9440001249313354
1757088406721186800,9.776186767578125,1.6470000743865967,0.7879500389099121,1.984950065612793
1757088406730740000,9.785739990234376,1.7160000801086426,1.072950005531311,1.9200000762939453
1757088406740292900,9.79529296875,1.659000039100647,1.384950041770935,1.7260501384735107
1757088406749846000,9.804845947265624,1.5289500951766968,1.6170001029968262,1.437000036239624
1757088406759399200,9.814399169921876,1.2510000467300415,1.6909500360488892,1.0420500040054321
1757088406768952000,9.8239521484375,1.002000093460083,1.5859500169754028,0.4069500267505646
1757088406778505000,9.8335048828125,0.9550500512123108,1.4209500551223755,0.09405000507831573
1757088406788057900,9.843057861328125,12.556950569152832,0.6760500073432922,15.62505054473877
1757088406797611000,9.852611083984375,9.294000625610352,0.9540000557899475,15.295050621032715
1757088406807164200,9.8621640625,9.3589506149292,0.8560500144958496,15.84105110168457
1757088406816717000,9.871717041015625,8.394000053405762,0.3739500045776367,12.064950942993164
1757088406826270200,9.881270263671874,6.0259504318237305,-0.04605000093579292,5.839950084686279
1757088406835823000,9.890822998046875,13.51305103302002,0.48000001907348633,2.614950180053711
1757088406845376000,9.9003759765625,11.580000877380371,1.6939500570297241,-1.171950101852417
1757088406854929200,9.90992919921875,6.727050304412842,1.9810501337051392,-2.53695011138916
1757088406864481800,9.919481689453125,11.940000534057617,3.8239502906799316,-2.2639501094818115
1757088406874035000,9.929034912109374,14.149950981140137,5.16795015335083,-1.4089500904083252
1757088406883588000,9.938588134765626,12.064050674438477,4.843950271606445,-0.5160000324249268
1757088406893141000,9.94814111328125,9.93600082397461,4.41795015335083,0.5700000524520874
1757088406902694100,9.957694091796874,7.234950542449951,4.4730000495910645,0.3520500063896179
1757088406912247000,9.9672470703125,6.177000522613525,4.485000133514404,0.4740000367164612
1757088406921800200,9.97680029296875,6.178950309753418,4.096950054168701,1.5540000200271606
1757088406931353000,9.98635302734375,6.756000518798828,3.541950225830078,1.815000057220459
1757088406940906200,9.99590625,7.411950588226318,3.2119500637054443,1.5559500455856323
1757088406950459100,10.005459228515624,8.145000457763672,3.163950204849243,1.3579500913619995
1757088406960012000,10.015011962890625,8.674050331115723,3.1470000743865967,1.2049500942230225
1757088406969565200,10.024565185546875,9.235950469970703,3.003000259399414,1.5780000686645508
1757088406979118000,10.0341181640625,9.664950370788574,3.220950126647949,1.207050085067749
1757088406988671200,10.043671142578125,10.684950828552246,3.3930001258850098,0.5080500245094299
1757088406998224100,10.05322412109375,10.800000190734863,3.3169500827789307,-0.2550000250339508
1757088407007777300,10.06277734375,11.724000930786133,3.2569501399993896,-0.4990500211715698
1757088407017330200,10.072330078125,11.812950134277344,3.262050151824951,-0.609000027179718
1757088407026883000,10.081883056640624,11.724000930786133,3.4150502681732178,-0.33900001645088196
1757088407036436000,10.09143603515625,11.27595043182373,3.742950201034546,0.004950000438839197
1757088407045989000,10.100989013671875,10.630050659179688,3.9900002479553223,0.10605000704526901
1757088407055542300,10.110542236328126,9.837000846862793,4.021049976348877,0.14100000262260437
1757088407065095200,10.12009521484375,9.03795051574707,3.799950122833252,0.33105000853538513
1757088407074648000,10.12964794921875,8.607000350952148,3.4650001525878906,0.45795002579689026
1757088407084201200,10.139201171875,8.5489501953125,3.175950050354004,0.4740000367164612
1757088407093754000,10.148754150390625,8.683050155639648,3.037050247192383,0.364050030708313
1757088407103307300,10.158307373046876,8.995050430297852,3.015000104904175,0.24195000529289246
1757088407112860200,10.167860107421875,9.397050857543945,3.0610501766204834,0.024000000208616257
1757088407122413000,10.1774130859375,9.973950386047363,3.195000171661377,-0.09495000541210175
1757088407131966200,10.18696630859375,9.463950157165527,3.6469502449035645,-0.20205001533031464
1757088407141519000,10.19651904296875,9.295950889587402,3.942000150680542,-0.35100001096725464
1757088407151072000,10.206072021484376,8.725950241088867,4.150050163269043,-0.364950031042099
1757088407160625200,10.215625244140625,8.142000198364258,4.0759501457214355,-0.23595000803470612
1757088407170178300,10.22517822265625,8.190000534057617,3.9469501972198486,-0.031950000673532486
1757088407179731200,10.234731201171876,8.394000053405762,3.901050090789795,-0.030000001192092896
