time,seconds_elapsed,gyro_x,gyro_y,gyro_z,acc_x,acc_y,acc_z,grav_x,grav_y,grav_z
1757088397043948000,0.098947998046875,2.780524969100952,-4.777987480163574,2.284287452697754,-1.2060539722442627,0.877810001373291,11.940507888793944,5.819622993469238,-4.235732078552246,-6.660400867462158
1757088397063054300,0.118054443359375,3.2191500663757324,-4.456787586212158,2.559287548065185,-3.6952719688415527,-0.5365610122680664,13.165523529052734,5.887026786804199,-4.199612140655518,-6.617433071136475
1757088397072607500,0.127607421875,3.2667250633239746,-4.301549911499023,2.635050058364868,-4.935822010040283,-0.6552240252494812,13.431512832641602,5.96122407913208,-4.176950931549072,-6.551438808441162
1757088397082160400,0.137160400390625,3.3375375270843506,-4.148787498474121,2.610574960708618,-5.991690158843994,-0.7135120034217834,13.17079734802246,6.057925224304199,-4.151136875152588,-6.454092025756836
1757088397091713500,0.146713623046875,3.353487491607666,-4.002212524414063,2.5823874473571777,-5.868497848510742,-0.6554160118103027,13.466731071472168,6.175164222717285,-4.120565891265869,-6.3234171867370605
1757088397101266400,0.156266357421875,3.327775001525879,-3.5660624504089355,2.6423375606536865,-5.865629196166992,-0.8561450242996216,13.823844909667969,6.303512096405029,-4.073254108428955,-6.184141159057617
1757088397110819800,0.16581982421875,3.336437463760376,-3.205674886703491,2.649625062942505,-6.475069999694824,-1.6994420289993286,13.572532653808594,6.441621780395508,-4.009157180786133,-6.036849021911621
1757088397120373000,0.175373046875,3.346199989318848,-2.888050079345703,2.6166250705718994,-6.3602399826049805,-2.3891820907592773,13.429697036743164,6.588235855102539,-3.928410053253174,-5.88205623626709
1757088397129926000,0.18492578125,3.362012386322021,-2.5264248847961426,2.6826250553131104,-5.669474124908447,-2.7707810401916504,13.039241790771484,6.742211818695068,-3.830738067626953,-5.7205491065979
1757088397139479000,0.19447900390625,3.377962589263916,-2.527662515640259,2.8439126014709477,-5.450987815856934,-3.108362913131714,12.23462200164795,6.903101921081543,-3.715468883514404,-5.551612854003906
1757088397149032000,0.204031982421875,3.4145374298095703,-2.858762502670288,3.0967750549316406,-5.606682777404785,-3.383193016052246,10.864866256713867,7.075846195220947,-3.594839096069336,-5.349265098571777
1757088397158585000,0.213585205078125,3.503774881362915,-3.23743748664856,3.3961124420166016,-6.233898162841797,-3.779767036437988,9.982152938842772,7.258042812347412,-3.469104051589966,-5.111760139465332
1757088397168138200,0.22313818359375,3.561112403869629,-3.5538249015808105,3.6759250164031982,-7.006083011627197,-4.536004066467285,10.328487396240234,7.445929050445557,-3.323633909225464,-4.8606858253479
1757088397177691400,0.23269140625,3.5941123962402344,-3.6993000507354736,3.9263124465942383,-7.835737228393555,-5.347947120666504,10.46737575531006,7.638544082641602,-3.157560110092163,-4.594529151916504
1757088397187244500,0.24224462890625,3.636874914169312,-3.69682502746582,4.115650177001953,-8.582564353942871,-5.904599189758301,10.512931823730469,7.834621906280518,-2.9703569412231445,-4.312452793121338
1757088397196797400,0.25179736328125,3.658874988555908,-3.5502500534057617,4.252462387084961,-9.537598609924316,-6.060593128204346,10.553140640258787,8.032719612121582,-2.761826992034912,-4.014310836791992
1757088397215903700,0.27090380859375,3.6088249683380127,-2.7462875843048096,4.115650177001953,-12.19113540649414,-6.848133087158203,11.218212127685549,8.42924690246582,-2.2832980155944824,-3.3740530014038086
1757088397225457000,0.280456787109375,3.491537570953369,-2.328562498092652,3.909262418746948,-12.632831573486328,-7.159812927246094,12.071508407592772,8.625402450561523,-2.015975952148437,-3.034627914428711
1757088397235010000,0.290010009765625,3.324199914932251,-1.6993625164031982,3.6551625728607178,-13.36509895324707,-7.446456909179687,12.507678031921388,8.819141387939453,-1.7320460081100464,-2.685287952423096
1757088397244563200,0.299563232421875,3.1189124584198,-1.373075008392334,3.3252999782562256,-13.230146408081056,-7.872896194458008,13.03741455078125,8.991003036499023,-1.4500190019607544,-2.334368944168091
1757088397254116000,0.3091162109375,2.84033751487732,-1.132449984550476,3.0674874782562256,-12.489103317260742,-7.537796020507812,12.983277320861816,9.130571365356444,-1.157539963722229,-2.0044219493865967
1757088397263669000,0.3186689453125,2.538662433624268,-0.8623999953269958,2.8927249908447266,-12.113142013549805,-6.7808918952941895,13.008691787719728,9.241029739379885,-0.8559250235557556,-1.6981209516525269
1757088397273222400,0.328222412109375,2.174562454223633,-0.5777750015258789,2.727862596511841,-12.52097511291504,-6.22283411026001,13.323850631713867,9.325671195983888,-0.5459809899330139,-1.4180999994277954
1757088397282775600,0.337775634765625,1.7469375133514404,-0.2858625054359436,2.5078625679016118,-13.1820068359375,-6.519205093383789,13.520780563354492,9.386553764343262,-0.2302860021591186,-1.1679660081863403
1757088397292328400,0.347328369140625,1.31573748588562,-0.1245749965310096,2.20989990234375,-13.797298431396484,-7.257411003112793,12.983857154846191,9.433332443237305,0.0779249966144561,-0.924127995967865
1757088397301881600,0.356881591796875,0.949162483215332,0.0281875003129243,1.8836125135421755,-13.37330436706543,-7.511261940002441,11.494272232055664,9.467705726623535,0.3772549927234649,-0.6870930194854736
1757088397311434500,0.3664345703125,0.7073000073432922,0.1845249980688095,1.6783249378204346,-12.070751190185549,-7.717194080352783,10.050636291503906,9.491175651550291,0.6669999957084656,-0.4573250114917755
1757088397320988000,0.37598779296875,0.5460125207901001,0.2810499966144562,1.5965124368667605,-11.006497383117676,-8.177748680114746,9.153387069702148,9.504950523376465,0.9465659856796264,-0.2346599996089935
1757088397330541000,0.385541015625,0.4372499883174896,0.2492875009775161,1.5819374322891235,-10.59359073638916,-8.421480178833008,7.801421165466309,9.510321617126465,1.2032439708709717,0.0049569997936487
1757088397340094000,0.395093994140625,0.3907749950885772,0.2065249979496002,1.4804625511169434,-12.141825675964355,-8.798995018005371,6.013174057006836,9.50175952911377,1.4479360580444336,0.2340130060911178
1757088397349647000,0.404647216796875,0.4604874849319458,0.3067624866962433,1.2544125318527222,-12.06386947631836,-8.52884578704834,3.922223091125488,9.481879234313965,1.677847981452942,0.4489000141620636
1757088397359200000,0.414199951171875,0.6413000226020813,0.4618625044822693,0.6851624846458435,-22.422637939453125,-10.077211380004885,3.226156949996948,9.455889701843262,1.8902629613876345,0.6491060256958008
1757088397368753200,0.423753173828125,0.7671124935150146,1.2413499355316162,-1.1596750020980835,-30.452472686767575,-10.067270278930664,2.977735042572021,9.428129196166992,2.076188087463379,0.82989102602005
1757088397378306300,0.433306396484375,1.0016875267028809,1.5394500494003296,-1.9647375345230105,-17.27434539794922,-6.12269401550293,1.5642470121383667,9.397989273071287,2.227159023284912,1.006052017211914
1757088397397412600,0.45241259765625,0.9736375212669371,-0.5570124983787537,-0.7271000146865845,-5.368334770202637,-9.021159172058104,5.124600887298584,9.338809967041016,2.44466495513916,1.310490965843201
1757088397406965800,0.4619658203125,0.7915874719619751,-1.5331250429153442,-0.1493249982595443,-8.516242027282715,-9.669958114624023,2.134352922439575,9.308658599853516,2.49561095237732,1.4655170440673828
1757088397416519000,0.471518798828125,1.0774500370025637,-1.7469375133514404,-0.0906125009059906,-12.127450942993164,-6.477200984954834,-0.2510280013084411,9.27776336669922,2.5263659954071045,1.6166739463806152
1757088397426071800,0.48107177734375,1.1544499397277832,-1.4220249652862549,-0.1968999952077865,-11.965886116027832,-8.086523056030273,3.244645118713379,9.242399215698242,2.5197010040283203,1.785328030586243
1757088397435625000,0.490625,1.089687466621399,-1.101925015449524,-0.2263250052928924,-8.556683540344238,-7.89467716217041,3.5271120071411133,9.202303886413574,2.4754180908203125,1.9686199426651
1757088397445177900,0.500177734375,1.0774500370025637,-0.949162483215332,-0.0125124994665384,-5.842569828033447,-6.933882236480713,2.098987102508545,9.158369064331056,2.3954219818115234,2.1613540649414062
1757088397454731000,0.50973095703125,1.0334500074386597,-0.6560124754905701,0.2417249977588653,-5.705023765563965,-7.763846874237059,2.018238067626953,9.110672950744627,2.280800104141236,2.3614299297332764
1757088397464284400,0.519284423828125,1.0639749765396118,-0.4397250115871429,0.1915374994277954,-6.803695201873779,-7.6250901222229,0.5701119899749756,9.058968544006348,2.130160093307495,2.567667007446289
1757088397473837300,0.52883740234375,1.1006875038146973,-0.0878624990582466,0.1671999990940094,-7.396546840667725,-6.170793056488037,0.300705999135971,9.01032257080078,1.967046976089477,2.7705230712890625
1757088397483390500,0.538390380859375,1.1006875038146973,0.1442375034093856,-0.0710875019431114,-9.740081787109377,-5.776381015777588,0.7332130074501038,8.95399284362793,1.7713650465011597,2.9846460819244385
1757088397492943400,0.547943359375,0.9772124886512756,0.1502874940633773,-0.2311374992132187,-8.974942207336426,-5.173050880432129,0.4553419947624206,8.888745307922363,1.5446770191192627,3.209414005279541
1757088397502496500,0.55749658203125,0.940637469291687,-0.0585750006139278,-0.2238499969244003,-7.524819850921631,-4.730553150177002,-0.0860090032219886,8.825576782226562,1.3075939416885376,3.433480024337769
1757088397512049700,0.567049560546875,0.866112470626831,-0.3786749839782715,-0.1736624985933303,-7.820154190063477,-4.81846809387207,0.8091030120849609,8.75137710571289,1.0429010391235352,3.6699259281158447
1757088397521602800,0.576602783203125,0.7158250212669373,-0.5227749943733215,-0.254375010728836,-8.534805297851562,-4.511489868164063,0.7986360192298889,8.662923812866211,0.7634819746017456,3.894723892211914
1757088397531156000,0.586156005859375,0.5288249850273132,-0.5179625153541565,-0.3826625049114227,-8.668590545654297,-4.844458103179932,2.3259310722351074,8.574618339538574,0.4878210127353668,4.097880840301514
1757088397540708900,0.595708984375,0.3639625012874603,-0.2674374878406524,-0.5182374715805054,-7.903493881225586,-4.6196160316467285,2.215250968933105,8.486794471740723,0.2189739942550659,4.280558109283447
1757088397550262000,0.605261962890625,0.2601499855518341,0.0354750007390975,-0.5757125020027161,-7.556441783905029,-4.643462181091309,3.0189099311828613,8.398799896240234,-0.054866999387741,4.463906764984131
1757088397559815200,0.614815185546875,0.1476749926805496,0.6708624958992004,-0.6575250029563904,-7.731951236724853,-6.846889972686768,3.4572649002075195,8.308958053588867,-0.325543999671936,4.649072170257568
1757088397569368300,0.624368408203125,0.1623875051736831,1.251112461090088,-0.8333874940872192,-7.820159912109375,-7.882969856262207,2.103003025054932,8.220532417297363,-0.5857800245285034,4.81834602355957
1757088397578921200,0.633921142578125,0.3151499927043915,1.4929749965667725,-0.9153375029563904,-4.695184230804443,-7.815075874328613,1.3092859983444214,8.132306098937988,-0.8418620228767395,4.984025001525879
1757088397588474600,0.643474609375,0.3309625089168548,1.8473124504089355,-0.6550499796867371,-3.655487060546875,-8.303361892700195,3.2049670219421387,8.048100471496582,-1.0968300104141235,5.139145851135254
1757088397598027500,0.653027587890625,0.3187249898910522,1.473449945449829,-0.5952374935150146,-5.386592864990234,-7.553927898406982,1.7300339937210083,7.968114852905273,-1.3292889595031738,5.266147136688232
1757088397607580700,0.66258056640625,0.5802500247955322,0.7221499681472778,-0.7050999999046326,-6.502119064331055,-5.949244022369385,-1.2704689502716064,7.881144046783447,-1.584460973739624,5.383440971374512
1757088397617133800,0.6721337890625,1.103024959564209,0.1759999990463256,-0.9275749921798706,-8.178397178649902,-4.770343780517578,-3.783714056015015,7.799991130828857,-1.8249720335006716,5.470889091491699
1757088397626686700,0.681686767578125,1.810462474822998,-0.7035874724388123,-1.4162499904632568,-8.852139472961426,-3.5045299530029297,-4.75476598739624,7.722104072570801,-2.052259922027588,5.53433895111084
1757088397636240000,0.691239990234375,2.4946625232696533,-1.5160750150680542,-2.0429749488830566,-9.220548629760742,-2.1688220500946045,-5.3855509757995605,7.643434047698975,-2.2706410884857178,5.5812668800354
1757088397645793000,0.70079296875,3.0639123916625977,-2.4409000873565674,-2.5756499767303467,-9.985007286071776,-0.1051540002226829,-6.560629844665527,7.560301780700684,-2.483341932296753,5.616469860076904
1757088397655346200,0.71034619140625,3.436537504196167,-3.304674863815308,-2.6929373741149902,-7.325162887573242,0.3959400057792663,-6.353933811187744,7.47001314163208,-2.6892590522766118,5.6437530517578125
1757088397664899300,0.7198994140625,3.7736873626708975,-3.856874942779541,-2.294600009918213,-5.593684196472168,0.0732370018959045,-6.0777459144592285,7.364307880401611,-2.91035795211792,5.674163818359375
1757088397674452200,0.7294521484375,3.927687406539917,-2.9906249046325684,-1.675162434577942,-7.500992774963379,0.3634760081768036,-3.273966073989868,7.257142066955566,-3.1236140727996826,5.6901631355285645
1757088397684005400,0.73900537109375,3.1934375762939453,1.7654999494552612,-0.6012874841690063,-7.350780963897705,-0.421099990606308,0.7399299740791321,7.147921085357666,-3.332958936691284,5.689819812774658
1757088397693558500,0.74855859375,2.3761374950408936,5.04446268081665,0.1903000026941299,-8.703974723815918,1.881777048110962,-1.43538498878479,7.052328109741211,-3.5444600582122803,5.66917896270752
1757088397703111700,0.758111572265625,2.128087520599365,5.384087562561035,0.1352999955415725,-9.889184951782228,2.918768882751465,-3.093957901000977,6.983030796051025,-3.739659070968628,5.614727973937988
1757088397712664600,0.76766455078125,2.0365123748779297,4.33097505569458,-0.2396624982357025,-10.254586219787598,2.910283088684082,-3.195255994796753,6.938053131103516,-3.919924020767212,5.528544902801514
1757088397722217700,0.7772177734375,1.8997000455856323,2.609612464904785,-0.7015249729156494,-9.117889404296877,2.770569086074829,-2.765204906463623,6.898146152496338,-4.103265762329102,5.427549839019775
1757088397731771000,0.78677099609375,1.7151750326156616,0.5963374972343445,-0.934862494468689,-5.817032814025879,2.495954990386963,-2.765810012817383,6.85798978805542,-4.289888858795166,5.319136142730713
1757088397741324000,0.796323974609375,1.6149375438690186,-1.1434500217437744,-0.668524980545044,-2.6413300037384038,2.316658973693848,-3.390749931335449,6.814312934875488,-4.478794097900391,5.20984411239624
1757088397750877200,0.805877197265625,1.6418875455856323,-2.235612392425537,0.0596750006079673,-0.1010859981179237,1.8804179430007932,-3.997172117233277,6.765574932098389,-4.667829990386963,5.10490608215332
1757088397760430000,0.81543017578125,1.7494125366210938,-2.5789499282836914,0.8354499936103821,-0.936972975730896,2.0820140838623047,-4.295032024383545,6.712081909179688,-4.854222774505615,5.007003784179688
1757088397769983000,0.82498291015625,1.9742250442504885,-2.2320375442504883,1.3301750421524048,-3.1346969604492188,1.345993995666504,-4.679709911346436,6.655487060546875,-5.036214828491211,4.915466785430908
1757088397779536400,0.834536376953125,2.251562595367432,-1.3743125200271606,1.552512526512146,-4.293832778930664,0.3788320124149322,-3.6578469276428223,6.596899032592773,-5.2144951820373535,4.8282341957092285
1757088397789089500,0.844089599609375,2.420137405395508,-0.3627249896526336,1.624699950218201,-4.623870849609375,-0.0124340001493692,-2.929007053375244,6.539490222930908,-5.389252185821533,4.740471839904785
1757088397798642400,0.853642333984375,2.630237579345703,0.2395250052213668,1.6037999391555786,-4.7179999351501465,-0.893215000629425,-4.121120929718018,6.496851921081543,-5.5389790534973145,4.645132064819336
1757088397808195600,0.863195556640625,2.809812545776367,-0.103812500834465,1.4096499681472778,-8.499359130859375,-3.423909902572632,-2.538809061050415,6.443465232849121,-5.700396060943604,4.540388107299805
1757088397817748700,0.872748779296875,2.822050094604492,-1.0126874446868896,1.0308375358581543,-7.652799129486084,-16.333637237548828,0.4310759902000427,6.396069049835205,-5.853485107421875,4.430260181427002
1757088397827302000,0.882302001953125,3.465825080871582,-1.9997999668121336,0.6729249954223633,-7.99241304397583,-36.05774688720703,-2.134592056274414,6.355492115020752,-5.996294975280762,4.314281940460205
1757088397836854800,0.891854736328125,4.6472249031066895,-2.104987382888794,0.1072499975562095,-7.1314778327941895,-36.092071533203125,-5.199627876281738,6.323671817779541,-6.128900051116943,4.187211990356445
1757088397846408000,0.901407958984375,5.591712474822998,-2.5789499282836914,-0.0490874983370304,-6.09813404083252,-31.52484130859375,-3.7733030319213863,6.3026652336120605,-6.251481056213379,4.045730113983154
1757088397855961000,0.910961181640625,5.916625022888184,-3.520824909210205,0.077962502837181,-7.645584106445312,-25.285005569458008,-0.3828409910202026,6.293087005615234,-6.364115238189697,3.891113996505737
1757088397865514200,0.92051416015625,5.528187274932861,-4.291787624359131,-0.0063249999657273,-9.687176704406738,-16.264745712280273,2.9730899333953857,6.29058313369751,-6.46779203414917,3.7304399013519287
1757088397875067400,0.9300673828125,4.710750102996826,-3.768874883651733,-0.1407999992370605,-9.552559852600098,-9.129404067993164,3.291954040527344,6.296999931335449,-6.557922840118408,3.5682408809661865
1757088397884620300,0.939620361328125,2.808574914932251,-2.400612592697144,-0.7906249761581421,-13.21529769897461,-5.258963108062744,7.4064202308654785,6.284692764282227,-6.647779941558838,3.423402070999145
1757088397894173400,0.94917333984375,0.1061500012874603,-1.407312512397766,-1.441825032234192,-8.846948623657227,-2.0029098987579346,6.0800957679748535,6.252693176269531,-6.73713493347168,3.303849935531616
1757088397903726600,0.9587265625,-1.8485499620437624,-1.815412521362305,-1.1461999416351318,-3.781960010528565,1.880632996559143,0.2158609926700592,6.205842018127441,-6.822367191314697,3.2149391174316406
1757088397913279700,0.96827978515625,-2.2896499633789062,-2.049987554550171,-0.5695250034332275,-2.5200040340423584,2.496782064437866,-5.88021993637085,6.151169776916504,-6.900259017944336,3.153409004211426
1757088397922832600,0.97783251953125,-1.9390250444412231,-1.7872250080108645,-0.0270875003188848,-2.288984060287476,2.303255081176758,-8.815048217773438,6.095559120178223,-6.969396114349365,3.110493898391724
1757088397932385800,0.9873857421875,-1.3121625185012815,-1.1214499473571775,0.4248749911785126,-2.964745044708252,2.698401927947998,-9.71406364440918,6.04624605178833,-7.038403034210205,3.051475048065185
1757088397941939000,0.99693896484375,-0.6781499981880188,-0.1819124966859817,0.6887375116348267,-4.78959321975708,2.7719030380249023,-9.82842254638672,6.003173828125,-7.101892948150635,2.9935920238494877
1757088397951492400,1.006492431640625,-0.2139499932527542,0.4240500032901764,0.5801125168800354,-8.423530578613281,1.8717989921569824,-8.900894165039062,5.953473091125488,-7.177576065063477,2.9122679233551025
1757088397961045200,1.016045166015625,0.0695749968290329,0.358049988746643,0.1304875016212463,-10.75412368774414,-0.3192839920520782,-8.116074562072754,5.904789924621582,-7.253293037414551,2.829094886779785
1757088397970598100,1.02559814453125,0.2527250051498413,0.075762502849102,-0.2714250087738037,-9.45188331604004,-2.1412270069122314,-7.259881019592285,5.852991104125977,-7.330445766448975,2.7475008964538574
1757088397980151300,1.0351513671875,0.4140124917030334,-0.0512874983251094,-0.3777124881744385,-7.011061191558838,-3.1260440349578857,-6.505568981170654,5.795413017272949,-7.409523963928223,2.670738935470581
1757088397989704700,1.04470458984375,0.5092999935150146,-0.0426249988377094,-0.272662490606308,-5.624646186828613,-3.269167900085449,-5.065867900848389,5.731445789337158,-7.490170955657959,2.600895881652832
1757088397999257600,1.054257568359375,0.4434374868869781,0.0721874982118606,-0.1090374961495399,-5.215582847595215,-2.9791479110717773,-2.7897379398345947,5.678950786590576,-7.5537109375,2.5410149097442627
1757088398008810500,1.063810546875,0.2686749994754791,0.2175250053405761,0.0144375003874301,-5.192843914031982,-2.553061008453369,-1.6545209884643557,5.612099170684815,-7.625371932983398,2.4815258979797363
1757088398018363600,1.07336376953125,0.1660999953746795,0.3433375060558319,0.076724998652935,-5.224873065948486,-2.128525972366333,-1.8854429721832275,5.533699035644531,-7.702577114105225,2.42106294631958
1757088398027916500,1.08291650390625,0.1391499936580658,0.3995749950408935,0.0962499976158142,-4.935663223266602,-1.6520609855651855,-1.938202977180481,5.4461750984191895,-7.781259059906006,2.363101005554199
1757088398037469700,1.0924697265625,0.1036750003695488,0.3592875003814697,0.1035374999046325,-4.528456211090088,-1.3048850297927856,-1.6525310277938845,5.351171016693115,-7.859035968780518,2.3106939792633057
1757088398047023000,1.102023193359375,0.0719124972820282,0.3641000092029571,0.0877249985933303,-4.326434135437012,-1.1604429483413696,-1.7684680223464966,5.249499797821045,-7.935879230499268,2.262415885925293
1757088398056576000,1.111575927734375,0.0621500015258789,0.4081000089645386,0.0609125010669231,-4.125911235809326,-1.093332052230835,-1.8400880098342896,5.142388820648193,-8.011958122253418,2.2149229049682617
1757088398066129200,1.121129150390625,0.0378125011920928,0.3898124992847442,0.0522499978542327,-3.801654100418091,-1.0452070236206057,-1.7533040046691897,5.030105113983154,-8.087431907653809,2.1676599979400635
1757088398075682300,1.130682373046875,0.0096249999478459,0.296999990940094,0.0669625028967857,-3.5712809562683105,-0.960541009902954,-1.7622259855270386,4.913871765136719,-8.1621675491333,2.118263959884644
1757088398085235500,1.1402353515625,-0.0111375004053115,0.1710499972105026,0.081675000488758,-3.5375359058380127,-0.8610190153121948,-1.787703037261963,4.795050144195557,-8.236980438232422,2.060091972351074
1757088398094788600,1.14978857421875,-0.0221375003457069,0.0599500015377998,0.0754875019192695,-3.602940082550049,-0.7269780039787292,-1.843101024627685,4.672850131988525,-8.314783096313477,1.9850239753723145
1757088398104341500,1.159341552734375,-0.0318999998271465,-0.0170499999076128,0.0584375001490116,-3.5411601066589355,-0.6445239782333374,-1.830119013786316,4.545652866363525,-8.397625923156738,1.89110004901886
1757088398113894400,1.168894287109375,-0.0453750006854534,-0.057337500154972,0.0547249987721443,-3.310241937637329,-0.5781940221786499,-1.7988300323486328,4.411877155303955,-8.48627758026123,1.7805559635162354
1757088398123447800,1.17844775390625,-0.055137500166893,-0.0598125010728836,0.0681999996304512,-3.102744102478028,-0.5538420081138611,-1.7175159454345703,4.26733922958374,-8.572790145874023,1.6827679872512815
1757088398133000700,1.188000732421875,-0.0648999959230423,-0.0463375002145767,0.080437496304512,-3.029046058654785,-0.5233209729194641,-1.6341029405593872,4.112152099609375,-8.664457321166992,1.5776050090789795
1757088398142553900,1.197553955078125,-0.062424998730421,-0.0280499998480081,0.0706750005483627,-3.019237995147705,-0.5039070248603821,-1.590756058692932,3.95746111869812,-8.745475769042969,1.4891170263290403
1757088398152107000,1.20710693359375,-0.0538999997079372,-0.015812499448657,0.0522499978542327,-2.892023086547852,-0.443897008895874,-1.5800009965896606,3.793729066848755,-8.828792572021484,1.3974330425262451
1757088398161660000,1.216659912109375,-0.0453750006854534,0.0049499999731779,0.0437249988317489,-2.6317169666290283,-0.3758339881896972,-1.534065008163452,3.623433113098145,-8.912871360778809,1.3025649785995483
1757088398171213300,1.22621337890625,-0.0367125011980533,0.0428999997675418,0.048675000667572,-2.3897619247436523,-0.294295996427536,-1.5134379863739014,3.447796106338501,-8.99699592590332,1.2047560214996338
1757088398180766200,1.23576611328125,-0.0306624993681907,0.0917124971747398,0.0571999996900558,-2.195127010345459,-0.195928007364273,-1.4918969869613647,3.266982078552246,-9.081103324890137,1.104351043701172
1757088398190319400,1.2453193359375,-0.0221375003457069,0.1259499937295913,0.0609125010669231,-2.0585238933563232,-0.1323789954185485,-1.4721319675445557,3.080636978149414,-9.165499687194824,1.001358985900879
1757088398199872300,1.254872314453125,-0.0136124994605779,0.1357125043869018,0.0609125010669231,-1.8973220586776731,-0.1226890012621879,-1.4164079427719116,2.901495933532715,-9.241287231445312,0.8996679782867432
1757088398209425700,1.26442578125,-0.0086624994874,0.1209999993443489,0.0644875019788742,-1.7380969524383545,-0.1114130020141601,-1.309298038482666,2.7297909259796143,-9.308981895446776,0.8001090288162231
1757088398218978600,1.273978515625,0.0010999999940395,0.1014750003814697,0.0644875019788742,-1.6259230375289917,-0.1671870052814483,-1.2080509662628174,2.565260887145996,-9.369338989257812,0.7032660245895386
1757088398228531700,1.28353173828125,0.0060499999672174,0.084425002336502,0.0620125010609626,-1.490064024925232,-0.1963620036840438,-1.049180030822754,2.407594919204712,-9.423328399658203,0.6086919903755188
1757088398238084600,1.293084716796875,0.0108624994754791,0.0721874982118606,0.0609125010669231,-1.3841029405593872,-0.2486660033464431,-0.8902209997177124,2.256767988204956,-9.471431732177734,0.5171329975128174
1757088398247638000,1.302637939453125,0.0108624994754791,0.058712501078844,0.0609125010669231,-1.2861340045928955,-0.2495660036802292,-0.7561579942703247,2.1127429008483887,-9.514098167419434,0.429297000169754
1757088398257191000,1.31219091796875,0.0083875004202127,0.0514249987900257,0.0632499977946281,-1.1960179805755615,-0.2539809942245483,-0.6797119975090027,1.9751590490341189,-9.551983833312988,0.3450900018215179
1757088398266744000,1.321744140625,0.0035749999806284,0.0464750006794929,0.0644875019788742,-1.165173053741455,-0.2087370008230209,-0.5988039970397949,1.843600034713745,-9.585623741149902,0.2645330131053924
1757088398276297200,1.331297119140625,-0.0013749999925494,0.0452375002205371,0.0644875019788742,-1.149482011795044,-0.1616459935903549,-0.5565990209579468,1.7180919647216797,-9.615325927734377,0.1875340044498443
1757088398285850000,1.34085009765625,-0.0049499999731779,0.0501874983310699,0.0620125010609626,-1.1230850219726562,-0.1583209931850433,-0.5645849704742432,1.5990079641342163,-9.641244888305664,0.1140310019254684
1757088398295403300,1.3504033203125,-0.0086624994874,0.053762499243021,0.0609125010669231,-1.0732189416885376,-0.1964060068130493,-0.5637030005455017,1.4865050315856934,-9.663651466369627,0.0438870005309581
1757088398304956400,1.359956298828125,-0.0098999999463558,0.0562375001609325,0.0596750006079673,-1.0192190408706665,-0.1992730051279068,-0.5653330087661743,1.380213975906372,-9.682954788208008,-0.0230550002306699
1757088398314509600,1.369509521484375,-0.0098999999463558,0.0574750006198883,0.0584375001490116,-0.945497989654541,-0.2099959999322891,-0.5602319836616516,1.2797739505767822,-9.699548721313477,-0.0870240032672882
1757088398324062500,1.3790625,-0.0061874999664723,0.0574750006198883,0.0609125010669231,-0.8715459704399109,-0.1950130015611648,-0.5482710003852844,1.1851869821548462,-9.713689804077148,-0.1482589989900589
1757088398333615600,1.38861572265625,-0.0013749999925494,0.053762499243021,0.0596750006079673,-0.8038830161094666,-0.1997350007295608,-0.5434229969978333,1.0966869592666626,-9.725546836853027,-0.2068510055541992
1757088398343168800,1.398168701171875,0.0035749999806284,0.0501874983310699,0.0547249987721443,-0.7440170049667358,-0.1760729998350143,-0.5066530108451843,1.014186978340149,-9.735345840454102,-0.2626729905605316
1757088398362274800,1.41727490234375,0.0133375003933906,0.0379500016570091,0.0499125011265277,-0.5301539897918701,-0.1372040063142776,-0.4551340043544769,0.8657990097999573,-9.749919891357422,-0.3658789992332458
1757088398371828000,1.426827880859375,0.0170499999076128,0.0318999998271465,0.0499125011265277,-0.4738819897174835,-0.1335050016641616,-0.3835180103778839,0.7991300225257874,-9.75519561767578,-0.4129180014133453
1757088398381381000,1.436381103515625,0.0181499999016523,0.0219999998807907,0.0510125011205673,-0.4367760121822357,-0.1535550057888031,-0.2978839874267578,0.737076997756958,-9.759405136108398,-0.4565460085868835
1757088398390934000,1.44593408203125,0.0170499999076128,0.0111375004053115,0.0522499978542327,-0.4087640047073364,-0.1998520046472549,-0.2536379992961883,0.6792899966239929,-9.762728691101074,-0.4967280030250549
1757088398400487400,1.4554873046875,0.015812499448657,0.0012374999932944,0.0547249987721443,-0.4256229996681213,-0.2555899918079376,-0.2191099971532821,0.6252779960632324,-9.765336990356444,-0.5336390137672424
1757088398410040300,1.465040283203125,0.0108624994754791,-0.0048124999739229,0.0547249987721443,-0.4438869953155517,-0.2800019979476928,-0.178068995475769,0.574675977230072,-9.767358779907228,-0.5674200057983398
1757088398419593500,1.474593505859375,0.0072874999605119,-0.0072874999605119,0.0510125011205673,-0.4495500028133392,-0.299564003944397,-0.1601250022649765,0.5270799994468689,-9.768901824951172,-0.5984650254249573
1757088398429146400,1.484146484375,0.0035749999806284,-0.0060499999672174,0.0449624992907047,-0.4384990036487579,-0.292820006608963,-0.1570650041103363,0.4821940064430237,-9.77004623413086,-0.6272220015525818
1757088398438699500,1.493699462890625,-0.0013749999925494,-0.0060499999672174,0.0400125011801719,-0.3936930000782013,-0.279092013835907,-0.1817169934511184,0.4398469924926758,-9.770844459533691,-0.6541479825973511
1757088398448252700,1.503252685546875,-0.0049499999731779,-0.0048124999739229,0.0339624993503093,-0.3485150039196014,-0.2441859990358352,-0.2390870004892349,0.3998660147190094,-9.771333694458008,-0.6796510219573975
1757088398457805800,1.512805908203125,-0.0074249999597668,-0.0010999999940395,0.0314874984323978,-0.3101209998130798,-0.2240719944238662,-0.3047069907188415,0.3622609972953796,-9.771524429321287,-0.7041720151901245
1757088398467358700,1.522358642578125,-0.0074249999597668,0.0037124999798834,0.0279124993830919,-0.2915680110454559,-0.2067119926214218,-0.3552849888801574,0.3270269930362701,-9.7714262008667,-0.7280049920082092
1757088398476911900,1.531911865234375,-0.0049499999731779,0.0086624994874,0.0204875003546476,-0.2891690135002136,-0.2110649943351745,-0.3666960000991821,0.2940700054168701,-9.771062850952148,-0.7511879801750183
1757088398486465000,1.541465087890625,-0.0001374999992549,0.0122375003993511,0.0144375003874301,-0.2456080019474029,-0.1988109946250915,-0.3679049909114837,0.2633439898490906,-9.770463943481444,-0.7737870216369629
1757088398496018200,1.55101806640625,0.0060499999672174,0.0159499999135732,0.0094875004142522,-0.2107619941234588,-0.181888997554779,-0.3615849912166595,0.2347729951143264,-9.769658088684082,-0.7958269715309143
1757088398505571300,1.5605712890625,0.0072874999605119,0.0184249989688396,0.0094875004142522,-0.1823430061340332,-0.1552120000123977,-0.3123509883880615,0.2082280069589615,-9.768686294555664,-0.8171989917755127
1757088398515124200,1.570124267578125,0.0120999999344348,0.0244750007987022,0.0119624994695186,-0.1602060049772262,-0.152330994606018,-0.2699100077152252,0.183555006980896,-9.76758861541748,-0.8378210067749023
1757088398524677400,1.579677490234375,0.0108624994754791,0.0391874983906745,0.0169124994426965,-0.1305949985980987,-0.1707099974155426,-0.2210399955511093,0.1606650054454803,-9.766406059265137,-0.8575320243835449
1757088398534230500,1.58923046875,0.0108624994754791,0.0574750006198883,0.0217249989509582,-0.0939029976725578,-0.2032130062580108,-0.1819069981575012,0.1395319998264312,-9.765169143676758,-0.8762829899787903
1757088398543783700,1.59878369140625,0.0083875004202127,0.0659999996423721,0.0254375003278255,-0.0617990009486675,-0.2379689961671829,-0.1657730042934417,0.1199560016393661,-9.763907432556152,-0.8940479755401611
1757088398553336600,1.608336669921875,0.0060499999672174,0.0647625029087066,0.0279124993830919,-0.0340000018477439,-0.2631900012493133,-0.1780869960784912,0.10173200070858,-9.762636184692385,-0.9108930230140686
1757088398562889500,1.617889404296875,0.0048124999739229,0.0489500015974044,0.0266750007867813,-0.0326690003275871,-0.2740980088710785,-0.1876620054244995,0.0847000032663345,-9.7613525390625,-0.9270309805870056
1757088398572442600,1.627442626953125,0.0060499999672174,0.0219999998807907,0.0290124993771314,-0.0477369986474514,-0.2659589946269989,-0.1988060027360916,0.0687199980020523,-9.760042190551758,-0.9427589774131776
1757088398581996000,1.63699609375,0.0060499999672174,-0.0010999999940395,0.0290124993771314,-0.1277530044317245,-0.2433619946241378,-0.1752469986677169,0.0534720011055469,-9.75870418548584,-0.958171010017395
1757088398591549000,1.646548828125,0.0060499999672174,-0.0072874999605119,0.0290124993771314,-0.1672129929065704,-0.256521999835968,-0.1485629975795745,0.0388749986886978,-9.757341384887695,-0.9733110070228576
1757088398601102000,1.65610205078125,0.0048124999739229,0.0049499999731779,0.0302499998360872,-0.2021930068731308,-0.2527790069580078,-0.1234569996595382,0.0248750001192092,-9.755949020385742,-0.9882519841194152
1757088398610655000,1.665655029296875,0.0060499999672174,0.0257124993950128,0.0327249988913536,-0.2307309955358505,-0.265735000371933,-0.1087879985570907,0.0114200003445148,-9.754526138305664,-1.0030299425125122
1757088398620208000,1.6752080078125,0.0060499999672174,0.0404249988496303,0.0302499998360872,-0.2437690049409866,-0.2811850011348724,-0.119948998093605,-0.0015480000292882,-9.75307273864746,-1.0176949501037598
1757088398629761300,1.68476123046875,0.0072874999605119,0.0452375002205371,0.0279124993830919,-0.2196090072393417,-0.2702510058879852,-0.1077010035514831,-0.0140829998999834,-9.75160026550293,-1.032170057296753
1757088398639314400,1.694314453125,0.0083875004202127,0.0477125011384487,0.0241999998688697,-0.2009710073471069,-0.2783859968185425,-0.0915620028972625,-0.026248000562191,-9.750129699707031,-1.0462510585784912
1757088398648867300,1.703867431640625,0.0108624994754791,0.0477125011384487,0.0192499998956918,-0.1738100051879882,-0.240893006324768,-0.0622689984738826,-0.0380919985473156,-9.748689651489258,-1.0596890449523926
1757088398658420500,1.71342041015625,0.0120999999344348,0.0439999997615814,0.0119624994695186,-0.1587930023670196,-0.2222950011491775,-0.0185289997607469,-0.0496390014886856,-9.747312545776367,-1.0722179412841797
1757088398667973600,1.7229736328125,0.0133375003933906,0.0404249988496303,0.0071499999612569,-0.1170589998364448,-0.2105000019073486,0.0365439988672733,-0.0607579983770847,-9.746023178100586,-1.0836399793624878
1757088398677526800,1.73252685546875,0.0108624994754791,0.0342375002801418,0.0059124999679625,-0.1160349994897842,-0.2034080028533935,0.0476749986410141,-0.0715470016002655,-9.744834899902344,-1.0938849449157717
1757088398687079700,1.74207958984375,0.0083875004202127,0.0269499998539686,0.0071499999612569,-0.097191996872425,-0.2081339955329895,0.0624609999358654,-0.0820140019059181,-9.743762016296388,-1.1028759479522705
1757088398696632800,1.7516328125,0.0060499999672174,0.0244750007987022,0.0082499999552965,-0.0976729989051818,-0.2295870035886764,0.0624990016222,-0.0922330021858215,-9.742796897888184,-1.1107250452041626
1757088398706185700,1.761185791015625,0.0060499999672174,0.0219999998807907,0.0107249999418854,-0.1074780002236366,-0.2606489956378937,0.0555609986186027,-0.102292001247406,-9.74193000793457,-1.117540955543518
1757088398715739100,1.7707392578125,0.0035749999806284,0.0257124993950128,0.0094875004142522,-0.0804530009627342,-0.2796440124511719,0.0599660016596317,-0.1122210025787353,-9.741151809692385,-1.1234500408172607
1757088398725292300,1.780292236328125,0.0035749999806284,0.029424998909235,0.0082499999552965,-0.0660910010337829,-0.2746660113334656,0.0641480013728141,-0.1221119984984397,-9.740453720092772,-1.1285699605941772
1757088398734845200,1.78984521484375,0.0035749999806284,0.0318999998271465,0.0071499999612569,-0.0252160001546144,-0.2408570051193237,0.0750840008258819,-0.1319620013236999,-9.73983097076416,-1.1329519748687744
1757088398744398300,1.7993984375,0.0035749999806284,0.0269499998539686,0.0071499999612569,0.0110659999772906,-0.2237789928913116,0.0742179974913597,-0.141756996512413,-9.739288330078123,-1.1365879774093628
1757088398753951200,1.808951171875,0.002337499987334,0.0134749999269843,0.0071499999612569,0.0451710000634193,-0.216277003288269,0.0665810033679008,-0.1513949930667877,-9.738826751708984,-1.1394840478897097
1757088398763504600,1.818504638671875,0.002337499987334,0.0024749999865889,0.0107249999418854,0.0565599985420703,-0.2112600058317184,0.0503749996423721,-0.1607999950647354,-9.738448143005373,-1.1416480541229248
1757088398773057500,1.8280576171875,0.002337499987334,-0.0120999999344348,0.0119624994695186,0.0670199990272522,-0.2231590002775192,0.0237220004200935,-0.1697009950876236,-9.738142013549805,-1.1432160139083862
1757088398782610700,1.837610595703125,0.0010999999940395,-0.0280499998480081,0.0131999999284744,0.0449509993195533,-0.2352499961853027,-0.003876999951899,-0.1780350059270858,-9.73788833618164,-1.1443450450897217
1757088398792163600,1.84716357421875,0.002337499987334,-0.0415249988436698,0.0131999999284744,0.028473999351263,-0.2474360018968582,-0.0140570001676678,-0.1857369989156723,-9.737675666809082,-1.1451460123062134
1757088398801717000,1.856717041015625,0.002337499987334,-0.0500499978661537,0.0131999999284744,0.0060549997724592,-0.2404170036315918,-0.0009970000246539,-0.1927880048751831,-9.737504959106444,-1.1456279754638672
1757088398811270000,1.866269775390625,0.002337499987334,-0.0525249987840652,0.0131999999284744,-0.0128709999844431,-0.2311519980430603,-0.0180040001869201,-0.1991849988698959,-9.73737335205078,-1.1458170413970947
1757088398820823000,1.875822998046875,0.0010999999940395,-0.0525249987840652,0.0131999999284744,-0.0171910002827644,-0.2409999966621399,-0.0138929998502135,-0.2049960047006607,-9.737278938293455,-1.145717978477478
1757088398830376000,1.8853759765625,0.002337499987334,-0.0525249987840652,0.0131999999284744,-0.0348439998924732,-0.2437829971313476,-0.0257520005106925,-0.2103099972009658,-9.73721408843994,-1.1454169750213623
1757088398839929000,1.89492919921875,0.0010999999940395,-0.0488125011324882,0.0144375003874301,-0.0425230003893375,-0.2275599986314773,-0.0460209995508194,-0.2151979953050613,-9.73716163635254,-1.1450330018997192
1757088398849482200,1.904482177734375,0.002337499987334,-0.0450999997556209,0.0156750008463859,-0.0407809987664222,-0.2043070048093795,-0.0626479983329773,-0.219661995768547,-9.737104415893556,-1.1447420120239258
1757088398859035400,1.914035400390625,0.0060499999672174,-0.0415249988436698,0.0169124994426965,-0.0414660014212131,-0.2026090025901794,-0.0576569996774196,-0.2238010019063949,-9.737019538879396,-1.1447010040283203
1757088398868588300,1.92358837890625,0.0072874999605119,-0.031624998897314,0.0192499998956918,-0.0286679994314908,-0.1961649954319,-0.0641179978847503,-0.2275709956884384,-9.736903190612791,-1.1449769735336304
1757088398878141400,1.933141357421875,0.0096249999478459,-0.0230999998748302,0.0192499998956918,-0.0097289998084306,-0.206277996301651,-0.0361590012907981,-0.2309859991073608,-9.736757278442385,-1.1455529928207395
1757088398887694600,1.942694580078125,0.0108624994754791,-0.0170499999076128,0.0192499998956918,0.0082130003720521,-0.2067119926214218,-0.0232239998877048,-0.2340060025453567,-9.736583709716797,-1.1464149951934814
1757088398897247700,1.952247802734375,0.0108624994754791,-0.0145749999210238,0.0181499999016523,0.0433360002934932,-0.2331999987363815,0.0069090002216398,-0.236518993973732,-9.73639965057373,-1.147454023361206
1757088398906800600,1.961800537109375,0.0108624994754791,-0.0170499999076128,0.0181499999016523,0.0719309970736503,-0.2452410012483596,0.0104259997606277,-0.2385109961032867,-9.736204147338867,-1.1486879587173462
1757088398916353800,1.971353759765625,0.0083875004202127,-0.0255750007927417,0.0181499999016523,0.0920419991016388,-0.2524200081825256,0.0112319998443126,-0.2399529963731765,-9.736000061035156,-1.1501120328903198
1757088398925906700,1.98090673828125,0.0035749999806284,-0.0353375002741813,0.0192499998956918,0.0994940027594566,-0.2620890140533447,-0.0133859999477863,-0.2409220039844513,-9.735776901245115,-1.1517939567565918
1757088398935459800,1.9904599609375,0.002337499987334,-0.0450999997556209,0.0204875003546476,0.1176149994134903,-0.2479020059108734,-0.0298599991947412,-0.2414599955081939,-9.735528945922852,-1.1537729501724243
1757088398945013000,2.000012939453125,0.002337499987334,-0.0536249987781047,0.022962499409914,0.0869489982724189,-0.2220460027456283,-0.0633350014686584,-0.2417539954185485,-9.73523998260498,-1.1561360359191897
1757088398954566100,2.009566162109375,0.0060499999672174,-0.0585750006139278,0.0241999998688697,0.0555929988622665,-0.1987870037555694,-0.0763610005378723,-0.2419449985027313,-9.734906196594238,-1.1588979959487915
1757088398964119000,2.019119140625,0.0083875004202127,-0.0622874982655048,0.0266750007867813,0.023489000275731,-0.1802970021963119,-0.0611709989607334,-0.2421620041131973,-9.73453426361084,-1.161955952644348
1757088398973672200,2.028672119140625,0.0133375003933906,-0.0598125010728836,0.0279124993830919,-0.0068589998409152,-0.1568869948387146,-0.0258699990808963,-0.2424450069665908,-9.73414421081543,-1.1651660203933716
1757088398983225300,2.038225341796875,0.015812499448657,-0.0512874983251094,0.0254375003278255,-0.0329350009560585,-0.1740420013666153,0.0007670000195503,-0.2428459972143173,-9.733742713928224,-1.1684210300445557
1757088398992778500,2.047778564453125,0.0170499999076128,-0.0426249988377094,0.022962499409914,-0.0120609998703002,-0.1958930045366287,0.0100450003519654,-0.243257001042366,-9.733333587646484,-1.171726942062378
1757088399002331400,2.057331298828125,0.015812499448657,-0.0390499979257583,0.0204875003546476,0.0169029999524354,-0.2342250049114227,0.0365279987454414,-0.2435490041971206,-9.732942581176758,-1.1749320030212402
1757088399011884500,2.066884521484375,0.0120999999344348,-0.0378125011920928,0.022962499409914,0.0372270010411739,-0.2533749938011169,0.0271499995142221,-0.2436359971761703,-9.732563018798828,-1.1780619621276855
1757088399021437400,2.0764375,0.0096249999478459,-0.0390499979257583,0.0254375003278255,0.0561770014464855,-0.2463250011205673,1.4000000192e-05,-0.2433989942073822,-9.732194900512695,-1.1811460256576538
1757088399030990600,2.085990478515625,0.0060499999672174,-0.0402874983847141,0.0266750007867813,0.0716549977660179,-0.2703059911727905,0.0010199999669566,-0.2427629977464676,-9.731854438781738,-1.1840959787368774
1757088399040543700,2.095543701171875,0.0035749999806284,-0.0415249988436698,0.0279124993830919,0.0657970011234283,-0.2681339979171753,-0.0276549998670816,-0.2417470067739486,-9.73153591156006,-1.1869230270385742
1757088399050097000,2.105096923828125,0.002337499987334,-0.0450999997556209,0.0266750007867813,0.0739270001649856,-0.2326509952545166,-0.0546149984002113,-0.240334004163742,-9.731230735778809,-1.189708948135376
1757088399059649800,2.11464990234375,0.0035749999806284,-0.0536249987781047,0.0290124993771314,0.0722569972276687,-0.1950259953737259,-0.0819529965519905,-0.2385559976100921,-9.730928421020508,-1.1925280094146729
1757088399069203000,2.124202880859375,0.0060499999672174,-0.0633874982595443,0.0302499998360872,0.0366030000150203,-0.150407001376152,-0.0913800001144409,-0.2365629971027374,-9.730609893798828,-1.1955139636993408
1757088399078755800,2.133755859375,0.0096249999478459,-0.0743874981999397,0.0314874984323978,0.0320580005645751,-0.1658709943294525,-0.1158709973096847,-0.2344029992818832,-9.730257034301758,-1.198781967163086
1757088399097862100,2.152862060546875,0.0170499999076128,-0.0866250023245811,0.0339624993503093,-0.0236600004136562,-0.2492630034685135,-0.0786809995770454,-0.2301920056343078,-9.72941780090332,-1.2063419818878174
1757088399107415300,2.162415283203125,0.0193875003606081,-0.0866250023245811,0.0364375002682209,-0.0391369983553886,-0.2905539870262146,-0.0360179990530014,-0.228421002626419,-9.728948593139648,-1.2104439735412598
1757088399116968200,2.17196826171875,0.0193875003606081,-0.0793375000357627,0.0351999998092651,-0.0626349970698356,-0.3217659890651703,0.0312239993363618,-0.2270189970731735,-9.72847843170166,-1.2144700288772583
1757088399126521300,2.181521240234375,0.015812499448657,-0.0683375000953674,0.0339624993503093,-0.0891079977154731,-0.3240079879760742,0.0627159997820854,-0.2261400073766708,-9.728025436401367,-1.2182610034942627
1757088399136074500,2.191074462890625,0.0120999999344348,-0.0560999996960163,0.0314874984323978,-0.1069009974598884,-0.297571986913681,0.0560769997537136,-0.2257850021123886,-9.727601051330566,-1.2217179536819458
1757088399145627600,2.200627685546875,0.0083875004202127,-0.0463375002145767,0.0279124993830919,-0.0893469974398613,-0.2998600006103515,0.0494280010461807,-0.2258410006761551,-9.727216720581056,-1.224774956703186
1757088399155180500,2.2101806640625,0.0035749999806284,-0.0378125011920928,0.0254375003278255,-0.0407689996063709,-0.2876529991626739,0.0518090017139911,-0.2260989993810653,-9.726877212524414,-1.227431058883667
1757088399164733700,2.219733642578125,-0.0013749999925494,-0.0305249989032745,0.0254375003278255,-0.012887000106275,-0.2732389867305755,0.0152240004390478,-0.2263969928026199,-9.726566314697266,-1.2298450469970703
1757088399174287000,2.229287109375,-0.0026124999858438,-0.0268124993890523,0.0241999998688697,0.0113199995830655,-0.2780880033969879,-0.0059239999391138,-0.2265740036964416,-9.726271629333496,-1.2321439981460571
1757088399183840000,2.238840087890625,-0.0037124999798834,-0.0268124993890523,0.0217249989509582,0.0299219992011785,-0.2446500062942505,-0.009952999651432,-0.2266380041837692,-9.725988388061523,-1.2343759536743164
1757088399193393000,2.248392822265625,-0.0037124999798834,-0.0268124993890523,0.0169124994426965,0.0389060005545616,-0.2351589947938919,-0.0091709997504949,-0.2266609966754913,-9.725702285766602,-1.2366410493850708
1757088399202946000,2.257946044921875,-0.0037124999798834,-0.024337500333786,0.0131999999284744,0.0590500012040138,-0.2399690002202987,-0.0039440002292394,-0.2266750037670135,-9.725415229797363,-1.2389169931411743
1757088399212499000,2.2674990234375,-0.0013749999925494,-0.0230999998748302,0.0094875004142522,0.0806830003857612,-0.2375359982252121,0.0057600000873208,-0.2267030030488968,-9.725135803222656,-1.2411190271377563
1757088399222052000,2.277052001953125,-0.0013749999925494,-0.024337500333786,0.0082499999552965,0.1124899983406066,-0.256523996591568,0.0148050002753734,-0.2267100065946579,-9.72486686706543,-1.243245005607605
1757088399231605500,2.28660546875,-0.0013749999925494,-0.0268124993890523,0.0094875004142522,0.1197599992156028,-0.2754029929637909,0.0254890006035566,-0.2266539931297302,-9.72462272644043,-1.2451839447021484
1757088399241158400,2.296158447265625,-0.0037124999798834,-0.0255750007927417,0.0094875004142522,0.1311530023813247,-0.2966740131378174,0.0171099994331598,-0.2265229970216751,-9.724414825439451,-1.2468550205230713
1757088399250711600,2.305711669921875,-0.0049499999731779,-0.0218624994158744,0.0107249999418854,0.1531450003385543,-0.2963989973068237,0.0113350003957748,-0.2262569963932037,-9.724254608154297,-1.2481679916381836
1757088399260264400,2.315264404296875,-0.0074249999597668,-0.0195249989628791,0.0119624994695186,0.1444469988346099,-0.2723079919815063,-0.0055060000158846,-0.2257840037345886,-9.724145889282228,-1.2491090297698977
1757088399269817600,2.324817626953125,-0.0074249999597668,-0.0182875003665685,0.0107249999418854,0.1454139947891235,-0.2387800067663192,-0.0189299993216991,-0.2251069992780685,-9.724091529846191,-1.24964702129364
1757088399279370800,2.334370849609375,-0.0086624994874,-0.0133375003933906,0.0082499999552965,0.1421010047197342,-0.2124979943037033,-0.0247680004686117,-0.2242089956998825,-9.724088668823242,-1.2498149871826172
1757088399288923600,2.343923583984375,-0.0086624994874,-0.0097624994814395,0.0082499999552965,0.1412709951400756,-0.2293449938297271,-0.0304140001535415,-0.2229990065097808,-9.724126815795898,-1.2497140169143677
1757088399298476800,2.353476806640625,-0.0098999999463558,-0.0035749999806284,0.004674999974668,0.1634979993104934,-0.2413190007209777,-0.0246450006961822,-0.2213979959487915,-9.724194526672363,-1.2494449615478516
1757088399308030000,2.363030029296875,-0.0098999999463558,0.0024749999865889,0.004674999974668,0.1822970062494278,-0.2653020024299621,-0.0352119989693164,-0.2192790061235427,-9.724265098571776,-1.249235987663269
1757088399317583000,2.3725830078125,-0.0098999999463558,0.0074249999597668,0.0034374999813735,0.1934310048818588,-0.2512350082397461,-0.067731000483036,-0.2165270000696182,-9.72431182861328,-1.2492979764938354
1757088399327136000,2.382135986328125,-0.0098999999463558,0.0111375004053115,0.0059124999679625,0.2082889974117279,-0.2445739954710006,-0.09841900318861,-0.2130119949579239,-9.72432804107666,-1.2497129440307615
1757088399336689200,2.391689208984375,-0.0074249999597668,0.0074249999597668,0.0094875004142522,0.2060990035533905,-0.2307309955358505,-0.0908859968185424,-0.2087499946355819,-9.724312782287598,-1.250478982925415
1757088399355795200,2.410795166015625,-0.0013749999925494,0.0024749999865889,0.0119624994695186,0.1446429938077926,-0.2223819941282272,-0.0799589976668357,-0.1987839937210083,-9.724163055419922,-1.2531189918518066
1757088399365348400,2.420348388671875,-0.0001374999992549,0.0086624994874,0.0107249999418854,0.1052389964461326,-0.2394189983606338,-0.0343890003859996,-0.1934240013360977,-9.724061965942385,-1.2546889781951904
1757088399374901500,2.429901611328125,-0.0001374999992549,0.0122375003993511,0.0107249999418854,0.0771220028400421,-0.2514710128307342,-0.0072639998979866,-0.1880020052194595,-9.723958969116213,-1.2562600374221802
1757088399384454400,2.439454345703125,0.0010999999940395,0.017187500372529,0.0071499999612569,0.0396719984710216,-0.2632760107517242,0.0296979993581771,-0.1826539933681488,-9.723870277404783,-1.2577250003814695
1757088399394007600,2.449007568359375,0.002337499987334,0.0219999998807907,0.004674999974668,0.0294649992138147,-0.2582750022411346,0.039877999573946,-0.1774629950523376,-9.723793029785156,-1.259078025817871
1757088399403560700,2.458560791015625,0.002337499987334,0.0257124993950128,0.0009624999947845,0.040557000786066,-0.2554939985275268,0.0630830004811286,-0.1724639981985092,-9.72373390197754,-1.260267972946167
1757088399413113900,2.46811376953125,0.0048124999739229,0.0269499998539686,-0.0002749999985098,0.0488969981670379,-0.2454269975423813,0.080775998532772,-0.1677280068397522,-9.723689079284668,-1.2612919807434082
1757088399422666800,2.477666748046875,0.002337499987334,0.0269499998539686,-0.0027499999850988,0.0615129992365837,-0.2424879968166351,0.0837109982967376,-0.1632589995861053,-9.723658561706545,-1.262168049812317
1757088399432220000,2.487219970703125,0.002337499987334,0.0281875003129243,-0.0050874999724328,0.0646060034632682,-0.280115008354187,0.0975499972701072,-0.1590940058231353,-9.72364902496338,-1.2628380060195925
1757088399441772800,2.496772705078125,-0.0001374999992549,0.0232375003397464,-0.0075624999590218,0.0812349990010261,-0.3249579966068268,0.0829700008034706,-0.1552589982748031,-9.723657608032228,-1.263306975364685
1757088399451326000,2.506325927734375,-0.0037124999798834,0.0208999998867511,-0.0125124994665384,0.077004000544548,-0.3435519933700561,0.0642070025205612,-0.1517670005559921,-9.72368621826172,-1.2635600566864014
1757088399460879000,2.515879150390625,-0.0074249999597668,0.017187500372529,-0.0185624994337558,0.0418459996581077,-0.371847003698349,0.0436850003898143,-0.1487440019845962,-9.723737716674805,-1.26357901096344
1757088399470432300,2.525432373046875,-0.0098999999463558,0.0232375003397464,-0.025849999859929,0.0410300008952617,-0.3977839946746826,0.0329339988529682,-0.1462039947509765,-9.723811149597168,-1.2633509635925293
1757088399479985200,2.534985107421875,-0.0123749999329447,0.032999999821186,-0.0345125012099742,0.0547280013561248,-0.3975520133972168,0.0066840001381933,-0.1441510021686554,-9.72390079498291,-1.2629319429397583
1757088399489538300,2.544538330078125,-0.0159499999135732,0.0439999997615814,-0.0405624993145465,0.0977760031819343,-0.3590869903564453,-0.0091749997809529,-0.1425410062074661,-9.723997116088867,-1.262387990951538
1757088399499091500,2.554091552734375,-0.0184249989688396,0.0562375001609325,-0.0430375002324581,0.1252389997243881,-0.3064180016517639,-0.0308379996567964,-0.1413639932870865,-9.724096298217772,-1.2617690563201904
1757088399508644600,2.56364453125,-0.0184249989688396,0.0672374963760376,-0.0442750006914138,0.153669998049736,-0.270581990480423,-0.0397609993815422,-0.1405729949474334,-9.724206924438477,-1.2610119581222534
1757088399518197500,2.573197509765625,-0.017187500372529,0.0721874982118606,-0.0466125011444091,0.1672279983758926,-0.232571005821228,-0.0636510029435157,-0.1401959955692291,-9.72432804107666,-1.2601170539855957
1757088399527750700,2.582750732421875,-0.0159499999135732,0.0684750005602836,-0.0490874983370304,0.1666370034217834,-0.2448540031909942,-0.0635730028152465,-0.1402579993009567,-9.724459648132324,-1.2590889930725098
1757088399537303800,2.5923037109375,-0.0123749999329447,0.062424998730421,-0.0552750006318092,0.1846590042114257,-0.2524060010910034,-0.0677269995212555,-0.1406410038471222,-9.724605560302734,-1.2579230070114136
1757088399546856700,2.601856689453125,-0.0098999999463558,0.0549999997019767,-0.0600874982774257,0.1862139999866485,-0.2908270061016083,-0.0332259982824325,-0.1412830054759979,-9.724774360656738,-1.2565480470657349
1757088399556409900,2.611409912109375,-0.0098999999463558,0.0477125011384487,-0.0650374963879585,0.1857800036668777,-0.2979480028152466,-0.009711000137031,-0.1420779973268509,-9.724960327148438,-1.2550289630889893
1757088399565963000,2.620962890625,-0.0086624994874,0.0439999997615814,-0.0698499977588653,0.2015929967164993,-0.2857170104980469,0.0195049997419118,-0.1429139971733093,-9.725163459777832,-1.2533739805221558
1757088399575516000,2.630515869140625,-0.0098999999463558,0.0464750006794929,-0.0735625028610229,0.1852339953184127,-0.2949120104312897,0.0356220006942749,-0.1437280029058456,-9.725378036499023,-1.251634955406189
1757088399585069000,2.640069091796875,-0.0111375004053115,0.0549999997019767,-0.0808499976992607,0.1954219937324524,-0.2777760028839111,0.0350040011107921,-0.1444839984178543,-9.72559928894043,-1.249835968017578
1757088399594622000,2.6496220703125,-0.0159499999135732,0.058712501078844,-0.0857999995350837,0.2055220007896423,-0.263043999671936,0.0272720009088516,-0.1451900005340576,-9.725820541381836,-1.2480449676513672
1757088399604175400,2.65917529296875,-0.0184249989688396,0.0562375001609325,-0.088137499988079,0.2107180058956146,-0.2461069971323013,-0.0005009999731555,-0.1458590030670166,-9.72602653503418,-1.2463760375976562
1757088399613728300,2.668728271484375,-0.0196624994277954,0.0526624992489814,-0.0906125009059906,0.2135390043258667,-0.2605330049991607,-0.0360010005533695,-0.1465159952640533,-9.726202011108398,-1.2449389696121216
1757088399623281200,2.67828125,-0.0184249989688396,0.0501874983310699,-0.0930875018239021,0.2118690013885498,-0.2583830058574676,-0.0581049993634223,-0.1471759974956512,-9.726330757141112,-1.2438600063323977
1757088399632834600,2.68783447265625,-0.0123749999329447,0.0439999997615814,-0.0980374962091445,0.1857959926128387,-0.2563430070877075,-0.0580420009791851,-0.1479739993810653,-9.726410865783691,-1.2431540489196775
1757088399642387500,2.697387451171875,-0.0049499999731779,0.0379500016570091,-0.1016125008463859,0.16143399477005,-0.2135010063648224,-0.0230599995702505,-0.1489630043506622,-9.726449012756348,-1.242741942405701
1757088399651940600,2.706940673828125,0.0010999999940395,0.032999999821186,-0.1016125008463859,0.1564490050077438,-0.187292993068695,0.0084760002791881,-0.1500249952077865,-9.726457595825195,-1.242537021636963
1757088399661493500,2.716493408203125,0.0048124999739229,0.0306624993681907,-0.0980374962091445,0.1310299932956695,-0.1561799943447113,0.0365509986877441,-0.1511729955673217,-9.726447105407717,-1.2424789667129517
1757088399671046700,2.726046630859375,0.0072874999605119,0.0281875003129243,-0.091849997639656,0.0748099982738494,-0.1679659932851791,0.0722469985485076,-0.152536004781723,-9.726433753967283,-1.2424050569534302
1757088399680599800,2.735599853515625,0.0083875004202127,0.0232375003397464,-0.0870374962687492,0.0212249998003244,-0.1867589950561523,0.1036859974265098,-0.154335007071495,-9.726430892944336,-1.2421820163726809
1757088399690153000,2.745153076171875,0.0072874999605119,0.0196624994277954,-0.0845625028014183,-0.0409630015492439,-0.2222799956798553,0.1126819998025894,-0.1567990034818649,-9.726447105407717,-1.2416969537734983
1757088399699705900,2.754705810546875,0.0048124999739229,0.017187500372529,-0.0870374962687492,-0.1018389984965324,-0.2816289961338043,0.1318940073251724,-0.1601849943399429,-9.726491928100586,-1.2408219575881958
1757088399709259000,2.764259033203125,0.002337499987334,0.0134749999269843,-0.0955625027418136,-0.1564480066299438,-0.3339790105819702,0.115566998720169,-0.1647119969129562,-9.726570129394531,-1.2394870519638062
1757088399718812200,2.773812255859375,-0.0049499999731779,0.0086624994874,-0.1053249984979629,-0.1756460070610046,-0.3744249939918518,0.1037430018186569,-0.1704629957675933,-9.726676940917969,-1.237676978111267
1757088399728365300,2.783365234375,-0.0123749999329447,0.0061874999664723,-0.1150875017046928,-0.186158999800682,-0.3696689903736114,0.0670180022716522,-0.1775410026311874,-9.726798057556152,-1.235435962677002
1757088399737918200,2.792918212890625,-0.0196624994277954,0.0074249999597668,-0.1187999993562698,-0.1301220059394836,-0.3411000072956085,0.0363290011882782,-0.1857870072126388,-9.72691822052002,-1.2329280376434326
1757088399747471400,2.802471435546875,-0.0269499998539686,0.0111375004053115,-0.1175625026226043,-0.0839340016245842,-0.2766039967536926,0.0274160001426935,-0.1950470060110092,-9.72702693939209,-1.230234980583191
1757088399757024300,2.812024169921875,-0.0331375002861022,0.0281875003129243,-0.1138499975204467,-0.0335660018026828,-0.2049999982118606,0.0052769999019801,-0.2051970064640045,-9.727112770080566,-1.227488994598389
1757088399766577400,2.821577392578125,-0.0404249988496303,0.0574750006198883,-0.1126125007867813,0.0051660002209246,-0.1907159984111786,0.0062989997677505,-0.2160660028457641,-9.727174758911133,-1.2247060537338257
1757088399776130300,2.83113037109375,-0.0489500015974044,0.0941874980926513,-0.1187999993562698,0.0538880005478858,-0.2409150004386901,-0.0007680000271648,-0.2275449931621551,-9.72722053527832,-1.2218400239944458
1757088399785683500,2.840683349609375,-0.0574750006198883,0.1247124969959259,-0.1321374922990799,0.1148770004510879,-0.3272800147533417,-0.0722739994525909,-0.2395330071449279,-9.727243423461914,-1.2190170288085938
1757088399795236600,2.850236572265625,-0.0661375001072883,0.1405249983072281,-0.1518000066280365,0.1765830069780349,-0.4239400029182434,-0.2116100043058395,-0.2519530057907104,-9.72721004486084,-1.2164829969406128
1757088399804789800,2.859789794921875,-0.0697124972939491,0.1332374960184097,-0.1748999953269958,0.2391590029001236,-0.4781250059604645,-0.321518987417221,-0.2647260129451751,-9.727105140686035,-1.2144180536270142
1757088399814343000,2.869343017578125,-0.0734250023961067,0.1051874980330467,-0.2006125003099441,0.2754319906234741,-0.5162109732627869,-0.4238539934158325,-0.2778410017490387,-9.726902961730955,-1.2130099534988403
1757088399823896000,2.87889599609375,-0.0746624991297721,0.0746624991297721,-0.2250874936580658,0.2821829915046692,-0.5211510062217712,-0.4641430079936981,-0.2912800014019012,-9.726592063903809,-1.2123379707336426
1757088399833449000,2.888448974609375,-0.0771375000476837,0.053762499243021,-0.254375010728836,0.2457450032234192,-0.4883820116519928,-0.511264979839325,-0.3051919937133789,-9.726137161254885,-1.2125890254974363
1757088399843001900,2.898001953125,-0.079475000500679,0.0477125011384487,-0.2886124849319458,0.1758569926023483,-0.4703460037708282,-0.5083820223808289,-0.3199299871921539,-9.72551155090332,-1.2138019800186155
1757088399852555000,2.907554931640625,-0.083187498152256,0.0526624992489814,-0.3239499926567077,0.1130819991230964,-0.4503160119056701,-0.5081660151481628,-0.3357920050621032,-9.724691390991213,-1.2160160541534424
1757088399862108000,2.91710791015625,-0.0892374962568283,0.0659999996423721,-0.3581874966621399,0.0331160016357898,-0.4735009968280792,-0.5360329747200012,-0.352862000465393,-9.723660469055176,-1.2192410230636597
1757088399871661300,2.926661376953125,-0.0904750004410743,0.0917124971747398,-0.3862375020980835,-0.0894050002098083,-0.439846009016037,-0.5239440202713013,-0.3715119957923889,-9.722379684448242,-1.2235349416732788
1757088399881214200,2.936214111328125,-0.0941874980926513,0.1357125043869018,-0.4119499921798706,-0.2452680021524429,-0.3969089984893799,-0.4425939917564392,-0.3921830058097839,-9.720830917358398,-1.2286920547485352
1757088399890767400,2.945767333984375,-0.0979000031948089,0.2212374955415725,-0.4388999938964844,-0.3210760056972503,-0.36142298579216,-0.3753710091114044,-0.4151009917259216,-9.718996047973633,-1.2345739603042605
1757088399900320300,2.9553203125,-0.1051874980330467,0.3653374910354614,-0.4620000123977661,-0.1371770054101944,-0.2678860127925873,-0.3216679990291595,-0.439767986536026,-9.716913223266602,-1.2409650087356567
1757088399909873400,2.964873291015625,-0.1099999994039535,0.5205749869346619,-0.4742375016212463,0.1103110015392303,-0.111065000295639,-0.2620289921760559,-0.4655579924583435,-9.714637756347656,-1.2476969957351685
1757088399919426600,2.974426513671875,-0.1064250022172927,0.6316750049591064,-0.4914250075817108,0.2927579879760742,-0.0569749996066093,-0.2871989905834198,-0.4920180141925812,-9.712196350097656,-1.2547669410705566
1757088399928979700,2.983979736328125,-0.1002374961972236,0.6879125237464905,-0.523187518119812,0.4346309900283813,-0.0623730011284351,-0.2748279869556427,-0.5190590023994446,-9.709611892700195,-1.262073993682861
1757088399938532600,2.99353271484375,-0.0954250022768974,0.7013875246047974,-0.5597624778747559,0.6240720152854919,0.012614999897778,-0.1582079976797104,-0.5464379787445068,-9.706953048706056,-1.2693140506744385
1757088399948085800,3.003085693359375,-0.0892374962568283,0.6806250214576721,-0.5879499912261963,0.8546810150146484,0.1080180034041404,-0.0985419973731041,-0.573731005191803,-9.7042875289917,-1.276332974433899
1757088399957639000,3.012638916015625,-0.084425002336502,0.6402000188827515,-0.6122875213623047,0.945052981376648,0.261696994304657,-0.004141999874264,-0.6008530259132385,-9.70164966583252,-1.282994031906128
1757088399967192000,3.022192138671875,-0.0746624991297721,0.6096749901771545,-0.6440500020980835,0.8974350094795227,0.4528459906578064,0.0084490003064274,-0.6281859874725342,-9.698987007141112,-1.2894409894943235
1757088399976745000,3.031744873046875,-0.0599500015377998,0.5999125242233276,-0.6905249953269958,0.7378110289573669,0.6355609893798828,0.0814799964427948,-0.6565790176391602,-9.696249961853027,-1.2954519987106323
1757088399986297900,3.0412978515625,-0.0538999997079372,0.5974375009536743,-0.7552874684333801,0.4978770017623901,0.7920929789543152,0.1289470046758651,-0.6872490048408508,-9.693365097045898,-1.3006290197372437
1757088399995851000,3.05085107421875,-0.0441375002264976,0.6023874878883362,-0.8333874940872192,0.3147760033607483,0.9403240084648132,0.0559579990804195,-0.7213180065155029,-9.690183639526367,-1.3050169944763184
1757088400005404200,3.060404052734375,-0.0136124994605779,0.6096749901771545,-0.916575014591217,0.2591759860515594,0.9748830199241638,-0.0638329982757568,-0.7594119906425476,-9.686564445495604,-1.308892011642456
1757088400014957300,3.069957275390625,0.0426249988377094,0.6133875250816345,-0.9849125146865844,0.4134199917316437,0.9589170217514038,-0.2388229966163635,-0.801289975643158,-9.68239402770996,-1.31297504901886
1757088400024510200,3.07951025390625,0.1000999957323074,0.5828624963760376,-1.0338624715805054,0.6252170205116272,0.8915169835090637,-0.079134002327919,-0.8462409973144531,-9.67776584625244,-1.316864013671875
1757088400034063400,3.0890634765625,0.1318625062704086,0.5498625040054321,-1.0643874406814575,0.7795479893684387,0.8726530075073242,0.2555339932441711,-0.8935449719429016,-9.672846794128418,-1.319623947143555
1757088400043616300,3.0986162109375,0.1343374997377395,0.5083374977111816,-1.0851500034332275,0.9837329983711244,0.999521017074585,0.5121899843215942,-0.9447389841079712,-9.667285919189451,-1.3216789960861206
1757088400053169400,3.10816943359375,0.1476749926805496,0.4228124916553497,-1.130387544631958,0.7502740025520325,1.040624976158142,0.708558976650238,-0.9997509717941284,-9.66098690032959,-1.32321298122406
1757088400062722600,3.11772265625,0.1819124966859817,0.3678124845027923,-1.231724977493286,0.2306980043649673,0.9874500036239624,0.6618379950523376,-1.058495044708252,-9.653820037841797,-1.3244409561157229
1757088400072275700,3.127275634765625,0.2479124963283538,0.4350500106811523,-1.4112999439239502,-0.5137450098991394,0.9988970160484314,0.6074410080909729,-1.1239629983901978,-9.645197868347168,-1.3242679834365845
1757088400081828600,3.13682861328125,0.2991999983787536,0.5511000156402588,-1.6838250160217283,-1.1420350074768066,0.9664869904518129,0.7661679983139038,-1.199038028717041,-9.634257316589355,-1.3224459886550903
1757088400091381800,3.1463818359375,0.354200005531311,0.7294374704360962,-1.994024991989136,-1.0479730367660522,0.8714569807052612,0.5833950042724609,-1.2851829528808594,-9.620233535766602,-1.3196940422058103
1757088400100935000,3.155934814453125,0.3774375021457672,0.8784874677658081,-2.270124912261963,-0.4643549919128418,0.8969740271568298,0.6039760112762451,-1.3826290369033811,-9.602757453918455,-1.3159459829330444
1757088400110488000,3.165488037109375,0.3944875001907348,0.9261999726295472,-2.470599889755249,0.4810659885406494,0.8175960183143616,0.4085280001163482,-1.489730954170227,-9.581960678100586,-1.3117059469223022
1757088400120041000,3.175041015625,0.426250010728836,0.8724374771118164,-2.5474624633789062,1.8892829418182373,0.6800410151481628,0.0493110008537769,-1.6068780422210691,-9.557308197021484,-1.3080400228500366
1757088400129594000,3.184593994140625,0.4531999826431274,0.5791500210762024,-2.510887384414673,3.0589840412139893,0.6405829787254333,0.0418360009789466,-1.7340110540390017,-9.52849006652832,-1.3057119846343994
1757088400139147300,3.194147216796875,0.4652999937534332,0.107524998486042,-2.446125030517578,3.008538007736206,0.4780510067939758,-0.1657570004463195,-1.871032953262329,-9.495274543762209,-1.305583953857422
1757088400148700400,3.203700439453125,0.4434374868869781,-0.492249995470047,-2.443650007247925,2.1962709426879883,-0.0195770002901554,-0.4294120073318481,-2.012126922607422,-9.459423065185549,-1.310657024383545
1757088400158253300,3.21325341796875,0.3982000052928924,-1.4330250024795532,-2.481600046157837,1.482285976409912,-0.8535490036010742,-0.6870149970054626,-2.1578519344329834,-9.420202255249023,-1.322572946548462
1757088400167806200,3.22280615234375,0.2551999986171722,-2.284562587738037,-2.5218875408172607,0.7599989771842957,-1.866696000099182,-0.8407250046730042,-2.3108789920806885,-9.37613582611084,-1.3403899669647217
1757088400177359400,3.232359375,0.1049124971032142,-2.5972375869750977,-2.6269373893737797,0.0461179986596107,-2.7639360427856445,-1.158689022064209,-2.4700169563293457,-9.327027320861816,-1.3643569946289062
1757088400186912500,3.24191259765625,-0.0074249999597668,-2.363899946212769,-2.714937448501587,0.6814600229263306,-3.576457023620605,-0.9021260142326356,-2.6345229148864746,-9.272738456726074,-1.3934290409088137
1757088400196465700,3.251465576171875,-0.1894749999046325,-2.05356240272522,-2.7527499198913574,-0.0512229986488819,-3.678577899932861,0.5468519926071167,-2.803961038589477,-9.213293075561523,-1.4258790016174316
1757088400206018600,3.2610185546875,-0.4288625121116638,-2.064562559127808,-2.815037488937378,-0.4218910038471222,-3.340828895568848,1.873231053352356,-2.978519916534424,-9.148666381835938,-1.4601320028305054
1757088400215571700,3.27057177734375,-0.6866750121116638,-2.1562750339508057,-2.772274971008301,-0.2798860073089599,-2.6967649459838867,3.211458921432495,-3.158207893371582,-9.078908920288086,-1.4958490133285522
1757088400225124600,3.28012451171875,-0.9494374990463256,-2.0352749824523926,-2.71370005607605,-0.6298320293426514,-1.790560960769653,4.386466026306152,-3.3430891036987305,-9.004049301147461,-1.5328799486160278
1757088400234677800,3.289677734375,-1.110587477684021,-1.6871249675750732,-2.599987506866455,0.2507379949092865,-1.8208149671554563,3.565593957901001,-3.531023979187012,-8.924684524536133,-1.5695470571517944
1757088400244231200,3.299231201171875,-1.110587477684021,-1.2875499725341797,-2.4058375358581543,1.0155810117721558,-1.7502659559249878,2.977318048477173,-3.7187130451202393,-8.845117568969727,-1.5964319705963137
1757088400253783800,3.30878369140625,-1.0592999458312988,-0.8953999876976013,-2.205362558364868,1.9719270467758176,-1.6139780282974243,2.714423894882202,-3.903342008590698,-8.766881942749023,-1.613224983215332
1757088400263337000,3.3183369140625,-0.938437521457672,-0.4104374945163727,-2.15283751487732,1.452483057975769,-0.8674079775810242,2.0653650760650635,-4.083178043365479,-8.68889045715332,-1.622074007987976
1757088400272889900,3.327889892578125,-0.7771499752998352,-0.0108624994754791,-2.283600091934204,1.0843770503997805,0.3330770134925842,1.2023470401763916,-4.257828235626221,-8.609334945678711,-1.6255669593811035
1757088400282443000,3.337443115234375,-0.5779125094413757,0.1417624950408935,-2.487649917602539,1.0804109573364258,1.2785340547561646,0.1649329960346222,-4.427935123443604,-8.526613235473633,-1.627269983291626
1757088400291996200,3.34699609375,-0.3422375023365021,0.1930499970912933,-2.6757500171661377,1.3700480461120603,2.0618560314178467,-0.4026870131492615,-4.594357967376709,-8.440122604370117,-1.6281750202178955
1757088400301549300,3.35654931640625,-0.1247124969959259,0.1857624948024749,-2.8235623836517334,0.8521170020103455,2.385627031326294,-1.4664920568466189,-4.759439945220947,-8.34889030456543,-1.628519058227539
1757088400311102200,3.366102294921875,0.052387498319149,-0.1428624987602234,-2.8663249015808105,1.1115330457687378,2.244270086288452,-1.904252052307129,-4.922749996185303,-8.25291633605957,-1.6288870573043823
1757088400320655400,3.3756552734375,0.1929125040769577,-0.5790125131607056,-2.762512445449829,1.4301799535751345,2.1287550926208496,-2.3527839183807373,-5.08385181427002,-8.152423858642578,-1.6306660175323486
1757088400330208300,3.385208251953125,0.3359124958515167,-0.805062472820282,-2.5854125022888184,1.2478619813919067,2.073169946670532,-2.920254945755005,-5.242428779602051,-8.047819137573242,-1.6343239545822144
1757088400339761400,3.394761474609375,0.4189625084400177,-0.7842999696731567,-2.3996500968933105,0.6678959727287292,1.946802020072937,-2.660116910934448,-5.4050798416137695,-7.933885097503662,-1.6470520496368408
1757088400349314600,3.404314453125,0.420199990272522,-0.5325375199317932,-2.216362476348877,0.0456519983708858,2.0432889461517334,-2.4816670417785645,-5.5711212158203125,-7.810566902160644,-1.6650619506835938
1757088400358867700,3.41386767578125,0.3737249970436096,-0.1526249945163726,-2.0355498790740967,-0.1456609964370727,2.248189926147461,-1.9760750532150269,-5.737254142761231,-7.679074764251709,-1.6863479614257812
1757088400368420600,3.423420654296875,0.3162499964237213,0.1637624949216842,-1.8572125434875488,-0.0432059988379478,2.613694906234741,-1.554479956626892,-5.903619766235352,-7.539371967315674,-1.7084590196609497
1757088400377973800,3.432973876953125,0.3029125034809112,0.2419999986886978,-1.779112458229065,-0.1604689955711364,2.7470200061798096,-0.5605040192604065,-6.070425033569336,-7.39141321182251,-1.7286529541015625
1757088400387526700,3.442526611328125,0.2833875119686126,0.1392875015735626,-1.78763747215271,-0.2795659899711609,2.239190101623535,0.6675509810447693,-6.237143039703369,-7.236456871032715,-1.7441450357437134
1757088400397080000,3.452080078125,0.2649624943733215,0.1149500012397766,-1.774162530899048,-0.2314389944076538,1.1060550212860107,1.88872504234314,-6.402293205261231,-7.077750205993652,-1.7515039443969729
1757088400406633000,3.461633056640625,0.3529624938964844,0.2248124927282333,-1.7986375093460083,0.0063919997774064,0.7812470197677612,2.9368040561676025,-6.5661301612854,-6.916211128234863,-1.7478270530700684
1757088400416186000,3.47118603515625,0.4409624934196472,0.3275249898433685,-1.8401625156402588,0.2878369987010956,0.7631670236587524,2.9672720432281494,-6.728616237640381,-6.7515549659729,-1.733731985092163
1757088400425739000,3.480739013671875,0.4507249891757965,0.2004749923944473,-1.8657374382019043,0.88823002576828,0.7591170072555542,2.914172887802124,-6.887148857116699,-6.584379196166992,-1.7199560403823853
1757088400435292000,3.4902919921875,0.3321999907493591,-0.0340999998152256,-1.882925033569336,1.0228559970855713,1.0007610321044922,2.0096991062164307,-7.044577121734619,-6.410433769226074,-1.7164679765701294
1757088400444845300,3.49984521484375,0.2723875045776367,-0.1648624986410141,-1.8939249515533447,0.4154300093650818,1.1077719926834106,0.3888140022754669,-7.204625129699707,-6.225447177886963,-1.7231340408325195
1757088400454398500,3.5093984375,0.2699125111103058,-0.1551000028848648,-1.8951624631881716,-0.0670809969305992,0.8414369821548462,-0.5665270090103149,-7.364603042602539,-6.030998229980469,-1.7416609525680542
1757088400463951400,3.518951416015625,0.3004375100135803,-0.0536249987781047,-1.8646374940872192,-0.0633630007505416,0.5816959738731384,-1.1244399547576904,-7.520785808563232,-5.830337047576904,-1.7710139751434326
1757088400473504300,3.528504150390625,0.3504875004291534,0.0342375002801418,-1.8266874551773071,-0.1279000043869018,0.2452580034732818,-1.1229009628295898,-7.670828819274902,-5.626635074615479,-1.8065840005874636
1757088400483057400,3.538057373046875,0.370012491941452,0.1099999994039535,-1.7729250192642212,-0.259548008441925,-0.0273679997771978,-0.8115209937095642,-7.8139328956604,-5.421614170074463,-1.8462389707565308
1757088400492610300,3.5476103515625,0.3712500035762787,0.2175250053405761,-1.726449966430664,-0.2410299926996231,-0.4949190020561218,-0.7282130122184753,-7.949262142181396,-5.217490196228027,-1.8882999420166016
1757088400502163700,3.557163818359375,0.4017750024795532,0.3360500037670135,-1.6984000205993652,-0.4962779879570007,-0.8452140092849731,-0.6526380181312561,-8.076935768127441,-5.0154900550842285,-1.930171012878418
1757088400511716600,3.566716552734375,0.4127750098705292,0.4313375055789947,-1.6763999462127686,-0.4883440136909485,-0.987725019454956,-0.6148620247840881,-8.19769287109375,-4.816090106964111,-1.9694199562072756
1757088400521269500,3.57626953125,0.444537490606308,0.5266249775886536,-1.6495875120162964,-0.2616519927978515,-0.9834610223770142,-0.7317889928817749,-8.312322616577148,-4.619322776794434,-2.0048599243164062
1757088400530822700,3.58582275390625,0.4787749946117401,0.5974375009536743,-1.6275874376296997,-0.250012993812561,-0.9502120018005372,-0.6595799922943115,-8.420262336730957,-4.428621768951416,-2.0259950160980225
1757088400540375800,3.595375732421875,0.5092999935150146,0.5693874955177307,-1.638587474822998,-0.3146139979362488,-0.7748069763183594,-0.513463020324707,-8.521482467651367,-4.244259834289551,-2.0346200466156006
1757088400549929000,3.604928955078125,0.5460125207901001,0.5058624744415283,-1.643399953842163,-0.21977099776268,-0.69582599401474,-0.3562090098857879,-8.615824699401855,-4.066412925720215,-2.033729076385498
1757088400559481900,3.61448193359375,0.5545374751091003,0.4263874888420105,-1.6410624980926514,-0.7203289866447449,-0.8000019788742065,0.077794998884201,-8.703359603881836,-3.8953680992126474,-2.024478912353516
1757088400569035000,3.624034912109375,0.5387250185012817,0.3763374984264374,-1.633637547492981,-0.7930399775505066,-1.0871009826660156,0.3775340020656585,-8.78354263305664,-3.7303578853607178,-2.0112850666046143
1757088400578588000,3.633587890625,0.4995374977588653,0.432574987411499,-1.5676374435424805,-0.8014919757843018,-0.902283012866974,0.399832010269165,-8.856569290161133,-3.572087049484253,-1.996103048324585
1757088400588141000,3.64314111328125,0.4727250039577484,0.5229125022888184,-1.4810124635696411,-0.8300269842147827,-0.56038498878479,-0.1013839989900589,-8.923728942871094,-3.416935920715332,-1.9839890003204343
1757088400597694200,3.652694091796875,0.4531999826431274,0.5291000008583069,-1.4088250398635864,-1.4017540216445925,0.0110799996182322,-0.4970589876174927,-8.985127449035645,-3.263622045516968,-1.978698968887329
1757088400607247000,3.6622470703125,0.4494875073432922,0.5425750017166138,-1.355062484741211,-1.9738019704818728,0.2495709955692291,-0.4709750115871429,-9.040961265563965,-3.112482070922852,-1.98061203956604
1757088400616800300,3.67180029296875,0.420199990272522,0.5376250147819519,-1.3122999668121338,-2.1390910148620605,-0.2404550015926361,0.5144550204277039,-9.093948364257812,-2.9629011154174805,-1.9802199602127075
1757088400626353200,3.681353271484375,0.3529624938964844,0.5033875107765198,-1.3050124645233154,-2.431350946426392,-0.822272002696991,1.8005889654159546,-9.14426612854004,-2.81500506401062,-1.9769480228424072
1757088400635906300,3.69090625,0.2466749995946884,0.4203374981880188,-1.3050124645233154,-1.4960410594940186,-1.2588980197906494,2.3811280727386475,-9.190434455871582,-2.671771049499512,-1.9713339805603027
1757088400645459500,3.70045947265625,0.1684374958276748,0.5315750241279602,-1.192674994468689,-0.0524300001561641,-1.0542110204696655,2.211138963699341,-9.233903884887695,-2.536763906478882,-1.9536319971084597
1757088400655012600,3.7100126953125,0.0731500014662742,0.6048625111579895,-1.052150011062622,0.4333260059356689,-0.667277991771698,1.8500670194625852,-9.275259017944336,-2.409310102462769,-1.9232640266418457
1757088400664565500,3.7195654296875,0.002337499987334,0.6439124941825867,-0.9458624720573424,0.0021029999479651,-0.4897080063819885,1.1731369495391846,-9.314680099487305,-2.288283109664917,-1.882557034492493
1757088400674118400,3.729118408203125,-0.0453750006854534,0.7134875059127808,-0.877387523651123,-0.690837025642395,-0.1676079928874969,0.5591800212860107,-9.352254867553713,-2.1719720363616943,-1.834251046180725
1757088400683671600,3.738671630859375,-0.0941874980926513,0.7892500162124634,-0.8285750150680542,-1.0927009582519531,0.2044679969549179,0.3103779852390289,-9.38820457458496,-2.0592141151428223,-1.780832052230835
1757088400693224700,3.748224609375,-0.1662375032901764,0.8344874978065491,-0.7565249800682068,-1.1344809532165527,0.42808398604393,0.4157409965991974,-9.422616004943848,-1.9496519565582275,-1.7230360507965088
1757088400702777900,3.75777783203125,-0.2127124965190887,0.8552500009536743,-0.6624749898910522,-1.28342604637146,0.7539780139923096,-0.0702790021896362,-9.45552921295166,-1.8432790040969849,-1.6613179445266724
1757088400712330800,3.767330810546875,-0.2382874935865402,0.8100125193595886,-0.5597624778747559,-1.2239680290222168,0.8523370027542114,-0.1836050003767013,-9.48702335357666,-1.7402939796447754,-1.5958280563354492
1757088400721884000,3.7768837890625,-0.2480500042438507,0.7416750192642212,-0.4547125101089477,-1.209825038909912,0.7280660271644592,-0.3480939865112304,-9.516965866088867,-1.641163945198059,-1.5273629426956177
1757088400731437000,3.78643701171875,-0.2297624945640564,0.6366249918937683,-0.3619000017642975,-1.2145440578460691,0.5618420243263245,-0.722898006439209,-9.54511547088623,-1.5468610525131226,-1.4566750526428225
1757088400740990200,3.795990234375,-0.2065249979496002,0.5523374676704407,-0.2799499928951263,-1.230455994606018,0.2976030111312866,-0.5796599984169006,-9.571436882019045,-1.4579030275344849,-1.3842090368270874
1757088400750543000,3.805543212890625,-0.1809500008821487,0.4936249852180481,-0.2238499969244003,-1.4581589698791504,0.1412969976663589,-0.2703219950199127,-9.595720291137695,-1.3746000528335571,-1.3113750219345093
1757088400760096000,3.815095947265625,-0.1626625061035156,0.4923875033855438,-0.1859000027179718,-1.4493910074234009,-0.0260290000587701,0.0105490004643797,-9.61797046661377,-1.2982419729232788,-1.2372390031814575
1757088400769649200,3.824649169921875,-0.1381874978542328,0.5559124946594238,-0.1566125005483627,-1.1965800523757937,-0.1070220023393631,0.0606199987232685,-9.638320922851562,-1.2271499633789062,-1.1635340452194214
1757088400779202300,3.834202392578125,-0.112475000321865,0.6146249771118164,-0.1370874941349029,-0.9364929795265198,-0.0972009971737861,0.0491189993917942,-9.656940460205078,-1.1619600057601929,-1.088696002960205
1757088400788755500,3.84375537109375,-0.0892374962568283,0.6194375157356262,-0.1456124931573867,-0.7650499939918518,0.0298250000923872,-0.0181540008634328,-9.673931121826172,-1.1025609970092771,-1.0126789808273315
1757088400798308400,3.853308349609375,-0.0697124972939491,0.5608624815940857,-0.1639000028371811,-0.5339969992637634,0.0947029963135719,0.0014349999837577,-9.689416885375977,-1.0484880208969116,-0.9358599781990052
1757088400807861500,3.862861572265625,-0.0661375001072883,0.4813874959945678,-0.182325005531311,-0.3027240037918091,0.2002840042114257,0.2177579998970031,-9.703539848327637,-0.9991750121116638,-0.8580549955368042
1757088400817414400,3.872414306640625,-0.0453750006854534,0.4093374907970428,-0.1896124929189682,-0.1580870002508163,0.2588930130004883,0.1283349990844726,-9.716404914855955,-0.9543489813804626,-0.7798290252685547
1757088400826967600,3.881967529296875,-0.0049499999731779,0.3605250120162964,-0.1835625022649765,-0.1333460062742233,0.3057279884815216,0.2769629955291748,-9.728154182434082,-0.9138240218162536,-0.7007189989089966
1757088400836520400,3.8915205078125,0.0120999999344348,0.2993375062942505,-0.1590874940156936,-0.2046149969100952,0.3972949981689453,0.3666479885578155,-9.73814296722412,-0.8739879727363586,-0.6280080080032349
1757088400846073600,3.901073486328125,0.024337500333786,0.2664749920368194,-0.1358499974012375,-0.2042780071496963,0.5062440037727356,0.3550379872322082,-9.746606826782228,-0.8347370028495789,-0.5613970160484314
1757088400855626800,3.910626708984375,0.0280499998480081,0.2407625019550323,-0.1150875017046928,-0.1520140022039413,0.4370540082454681,0.4277369976043701,-9.753865242004396,-0.7966769933700562,-0.4989869892597198
1757088400865179600,3.9201796875,0.0353375002741813,0.2162874937057495,-0.0991374999284744,-0.0717459991574287,0.3326550126075744,0.3787199854850769,-9.760038375854492,-0.7611150145530701,-0.4396840035915375
1757088400874732800,3.92973291015625,0.0280499998480081,0.1857624948024749,-0.0870374962687492,0.0673749968409538,0.1046350002288818,0.4410080015659332,-9.765368461608888,-0.7285889983177185,-0.3818089962005615
1757088400884286200,3.9392861328125,0.0328624993562698,0.1637624949216842,-0.0820875018835067,0.1462650001049041,0.0551050007343292,0.4563359916210174,-9.769906997680664,-0.6989259719848633,-0.3256579935550689
1757088400893839000,3.948839111328125,0.0303875003010034,0.1344749927520752,-0.0820875018835067,0.2033510059118271,0.0491669997572898,0.5070440173149109,-9.773734092712402,-0.6717060208320618,-0.2713220119476318
1757088400903392000,3.95839208984375,0.024337500333786,0.1099999994039535,-0.0857999995350837,0.2673099935054779,0.01180399954319,0.543159008026123,-9.776948928833008,-0.6465590000152588,-0.2185930013656616
1757088400912945000,3.96794482421875,0.0193875003606081,0.075762502849102,-0.0833249986171722,0.2448869943618774,-0.0142010003328323,0.5397949814796448,-9.779650688171388,-0.6230930089950562,-0.1673360019922256
1757088400922498000,3.977498046875,0.0170499999076128,0.0342375002801418,-0.0857999995350837,0.1388040035963058,-0.005373999942094,0.4845759868621826,-9.781953811645508,-0.6008380055427551,-0.1174530014395713
1757088400932051200,3.98705126953125,0.024337500333786,0.0001374999992549,-0.0833249986171722,0.0687019973993301,-0.0037410000804811,0.4586260020732879,-9.783942222595217,-0.5794259905815125,-0.0688069984316825
1757088400941604400,3.996604248046875,0.0280499998480081,-0.0328624993562698,-0.0820875018835067,-0.046714000403881,0.038307998329401,0.4558410048484802,-9.785677909851074,-0.5584740042686462,-0.0213149990886449
1757088400951157200,4.0061572265625,0.0268124993890523,-0.0488125011324882,-0.0820875018835067,-0.1067129969596862,0.0823879987001419,0.3600749969482422,-9.78720760345459,-0.5376780033111572,0.0246559996157884
1757088400960710400,4.01571044921875,0.031624998897314,-0.0438624992966651,-0.0710875019431114,-0.037261001765728,0.1002869978547096,0.2599599957466125,-9.788549423217772,-0.5169169902801514,0.0685610026121139
1757088400970263300,4.02526318359375,0.0401500016450881,-0.0378125011920928,-0.0417999997735023,0.1377429962158203,0.1652850061655044,0.1621270030736923,-9.789706230163574,-0.4960429966449737,0.1094790026545524
1757088400989369300,4.044369384765625,0.0463375002145767,-0.0230999998748302,0.0754875019192695,0.309808999300003,-0.00450100004673,0.0154670001938939,-9.791438102722168,-0.4572159945964813,0.1827690005302429
1757088400998922500,4.053922607421875,0.0426249988377094,-0.0206249989569187,0.1219625025987625,0.275965005159378,-0.1048690006136894,-0.1286350041627884,-9.792000770568848,-0.4411210119724273,0.2144539952278137
1757088401008475600,4.0634755859375,0.0268124993890523,-0.0133375003933906,0.1255374997854232,0.150967001914978,-0.1904380023479461,-0.1678889989852905,-9.79237174987793,-0.4279919862747192,0.2431519925594329
1757088401018028500,4.073028564453125,0.0035749999806284,-0.0230999998748302,0.0901999995112419,0.0594450011849403,-0.3131519854068756,-0.2264710068702697,-9.792553901672363,-0.4181169867515564,0.2684440016746521
1757088401027581700,4.082581787109375,-0.0184249989688396,-0.0622874982655048,0.0499125011265277,-0.0293119996786117,-0.3224549889564514,-0.2938530147075653,-9.792579650878906,-0.4114600121974945,0.2899760007858276
1757088401037134800,4.092134765625,-0.0233750008046627,-0.128150001168251,0.0449624992907047,-0.0983510017395019,-0.1625899970531463,-0.2789599895477295,-9.792489051818848,-0.407707005739212,0.3076690137386322
1757088401046688000,4.10168798828125,-0.0246124994009733,-0.1733874976634979,0.073012501001358,-0.3782060146331787,-0.15242700278759,-0.2221720069646835,-9.792313575744627,-0.406605988740921,0.321370005607605
1757088401056241000,4.111240966796875,-0.0404249988496303,-0.1588124930858612,0.0974875018000602,-0.598809003829956,-0.2138410061597824,-0.1042080000042915,-9.792057991027832,-0.4080120027065277,0.3317489922046661
1757088401065793800,4.120793701171875,-0.0709500014781951,-0.1135749965906143,0.1097249984741211,-0.5878159999847412,-0.3071489930152893,-0.040107000619173,-9.791740417480469,-0.4114859998226166,0.3391650021076202
1757088401075347000,4.130346923828125,-0.1076624989509582,-0.0548624992370605,0.1267749965190887,-0.3522520065307617,-0.3068490028381347,0.0099320001900196,-9.79135513305664,-0.4169720113277435,0.3441259860992431
1757088401084900400,4.139900390625,-0.1369500011205673,-0.0195249989628791,0.1572999954223632,-0.2218240052461624,-0.1833550035953521,-0.1002309992909431,-9.790926933288574,-0.4242599904537201,0.3464770019054413
1757088401094453200,4.149453369140625,-0.1527625024318695,0.029424998909235,0.1572999954223632,-0.2157019972801208,-0.1436260044574737,-0.2744579911231994,-9.79047966003418,-0.4331290125846863,0.3459370136260986
1757088401104006100,4.159006103515625,-0.1552374958992004,0.0636624991893768,0.1500124931335449,-0.1832640022039413,-0.194811001420021,-0.4782939851284027,-9.790021896362305,-0.4436120092868805,0.3422510027885437
1757088401113559300,4.168559326171875,-0.1552374958992004,0.0989999994635582,0.1207249984145164,-0.084135003387928,-0.3086250126361847,-0.5834569931030273,-9.78952980041504,-0.4559839963912964,0.3356760144233703
1757088401123112400,4.178112548828125,-0.1539999991655349,0.1002374961972236,0.0864875018596649,0.1342709958553314,-0.3817049860954284,-0.4768919944763183,-9.788976669311523,-0.4703660011291504,0.326784998178482
1757088401132665300,4.187665283203125,-0.1601874977350235,0.0746624991297721,0.0559624992311,0.2353300005197525,-0.380515992641449,-0.3672539889812469,-9.78835391998291,-0.4867759943008423,0.3159840106964111
1757088401142218500,4.197218505859375,-0.1662375032901764,0.0439999997615814,0.0290124993771314,0.353532999753952,-0.2976450026035309,-0.2926680147647857,-9.787663459777832,-0.5050050020217896,0.3037280142307281
1757088401151771400,4.206771484375,-0.1747625023126602,0.0208999998867511,0.0181499999016523,0.4122669994831085,-0.2157479971647262,-0.267630010843277,-9.786914825439451,-0.5247589945793152,0.290242999792099
1757088401161324500,4.216324462890625,-0.1797125041484832,0.029424998909235,0.0107249999418854,0.3043980002403259,-0.0272550005465745,-0.301270991563797,-9.786149978637695,-0.5454189777374268,0.2757030129432678
1757088401170877700,4.225877685546875,-0.1845249980688095,0.0477125011384487,0.0009624999947845,0.2309769988059997,0.1579860001802444,-0.2738600075244903,-9.785425186157228,-0.5659409761428833,0.2603479921817779
1757088401180430800,4.235430908203125,-0.1784749925136566,0.0514249987900257,-0.0027499999850988,0.2987770140171051,0.124948002398014,-0.4870449900627136,-9.784753799438477,-0.5857009887695312,0.2438129931688308
1757088401189983700,4.244983642578125,-0.1649999916553497,0.032999999821186,0.002199999988079,0.3087109923362732,0.0628309994935989,-0.4401760101318359,-9.784116744995115,-0.6043819785118103,0.2265879958868026
1757088401199536600,4.25453662109375,-0.1539999991655349,0.0098999999463558,0.004674999974668,0.2689279913902282,0.1982659995555877,-0.3622789978981018,-9.783550262451172,-0.6213030219078064,0.2088930010795593
1757088401209089800,4.26408984375,-0.1332374960184097,-0.0195249989628791,0.0071499999612569,0.3075090050697326,0.0737309977412223,-0.3850939869880676,-9.783024787902832,-0.636696994304657,0.1907259970903396
1757088401218643000,4.273642822265625,-0.1149500012397766,-0.0378125011920928,-0.0002749999985098,0.1872320026159286,-0.1123680025339126,-0.260697990655899,-9.782478332519531,-0.6512709856033325,0.172786995768547
1757088401228196000,4.283196044921875,-0.1051874980330467,-0.0402874983847141,-0.0087999999523162,0.1443260014057159,0.0406490005552768,-0.1139509975910186,-9.781923294067385,-0.665024995803833,0.155798003077507
1757088401237749000,4.2927490234375,-0.0929500013589859,-0.0353375002741813,-0.0148499999195337,0.1378789991140365,0.1503729969263076,-0.097860001027584,-9.781390190124512,-0.6775310039520264,0.1398849934339523
1757088401247302000,4.302302001953125,-0.079475000500679,-0.0328624993562698,-0.0222750008106231,0.1458799988031387,0.1605869978666305,-0.055757001042366,-9.78091526031494,-0.6884710192680359,0.1247730031609535
1757088401256855000,4.31185498046875,-0.0697124972939491,-0.0340999998152256,-0.0307999998331069,0.1491030007600784,0.1513600051403045,-0.0226729996502399,-9.780529975891112,-0.6975100040435791,0.1101339980959892
1757088401266408000,4.321407958984375,-0.0599500015377998,-0.0390499979257583,-0.0345125012099742,0.166604995727539,0.1310880035161972,-0.0315620005130767,-9.780255317687988,-0.7045620083808899,0.0954490005970001
1757088401275961000,4.330961181640625,-0.0501874983310699,-0.0450999997556209,-0.0320375002920627,0.152647003531456,0.0625419989228248,-0.0663489997386932,-9.78006362915039,-0.7100329995155334,0.0807060003280639
1757088401285514200,4.34051416015625,-0.0367125011980533,-0.0475750006735324,-0.0295624993741512,0.1046980023384094,-0.0426150001585483,-0.1123609989881515,-9.779921531677246,-0.7143660187721252,0.0660170018672943
1757088401295067400,4.3500673828125,-0.0233750008046627,-0.0402874983847141,-0.0295624993741512,0.0945789963006973,-0.1485349982976913,-0.1427810043096542,-9.779808044433594,-0.717756986618042,0.0517549999058246
1757088401304620300,4.359620361328125,-0.0123749999329447,-0.0328624993562698,-0.0307999998331069,0.1201890036463737,-0.1874109953641891,-0.1494539976119995,-9.779728889465332,-0.7201060056686401,0.0380759984254837
1757088401314173200,4.369173095703125,-0.0001374999992549,-0.0280499998480081,-0.0332750007510185,0.1530729979276657,-0.1654309928417205,-0.1177119985222816,-9.77971076965332,-0.721222996711731,0.0247859992086887
1757088401323726300,4.378726318359375,0.0096249999478459,-0.0218624994158744,-0.0405624993145465,0.1406320035457611,-0.1341850012540817,-0.1492069959640503,-9.779765129089355,-0.7210890054702759,0.0116090001538395
1757088401333279500,4.388279541015625,0.0218624994158744,-0.0182875003665685,-0.0503249987959861,0.140066996216774,-0.1665769964456558,-0.1655869930982589,-9.779866218566896,-0.720100998878479,-0.0015679999487474
1757088401342832600,4.39783251953125,0.0268124993890523,-0.0218624994158744,-0.0600874982774257,0.1540520042181015,-0.1415300071239471,-0.126470997929573,-9.78000545501709,-0.7184249758720398,-0.0146120004355907
1757088401352385800,4.4073857421875,0.0291499998420476,-0.0255750007927417,-0.0710875019431114,0.1178959980607032,-0.1304160058498382,-0.1163659989833831,-9.780137062072754,-0.7166190147399902,-0.0274480003863573
1757088401361938400,4.4169384765625,0.0353375002741813,-0.031624998897314,-0.0808499976992607,0.0843830034136772,-0.0916889980435371,-0.1017540022730827,-9.780229568481444,-0.7151489853858948,-0.0402439981698989
1757088401371491600,4.42649169921875,0.0401500016450881,-0.0415249988436698,-0.0833249986171722,0.0579850003123283,-0.1187359988689422,-0.053226001560688,-9.780280113220217,-0.7139779925346375,-0.0522379986941814
1757088401381044700,4.436044677734375,0.0438624992966651,-0.0390499979257583,-0.0772750005125999,-0.0017379999626427,-0.0807410031557083,0.0057950001209974,-9.780320167541504,-0.712785005569458,-0.0632829964160919
1757088401390597600,4.44559765625,0.0488125011324882,-0.0255750007927417,-0.0662750005722045,-0.0303360000252723,-0.0801419988274574,0.0489079989492893,-9.78032112121582,-0.7120329737663269,-0.0733079984784126
1757088401400150800,4.45515087890625,0.0548624992370605,-0.015812499448657,-0.0503249987959861,-0.015684999525547,-0.0170680005103349,0.0322589986026287,-9.780323028564451,-0.7112039923667908,-0.0820840001106262
1757088401409704000,4.464703857421875,0.0560999996960163,-0.0097624994814395,-0.0345125012099742,-0.0228300001472234,-0.0622510015964508,0.0882240012288093,-9.780355453491213,-0.7099990248680115,-0.0897139981389045
1757088401419256800,4.4742568359375,0.0536249987781047,0.0024749999865889,-0.0235124994069337,-0.0399429984390735,-0.1287550032138824,0.0359760001301765,-9.780359268188477,-0.7091900110244751,-0.096730999648571
1757088401428810000,4.48381005859375,0.0488125011324882,0.0086624994874,-0.0173249989748001,-0.0068180002272129,-0.1320150047540664,0.0786819979548454,-9.78030776977539,-0.7091969847679138,-0.1030450016260147
1757088401438363000,4.49336279296875,0.0426249988377094,0.0147124994546175,-0.0148499999195337,5.09999990754e-05,-0.1099729984998703,0.0709299966692924,-9.780200004577637,-0.7100350260734558,-0.1087799966335296
1757088401447916000,4.502916015625,0.0353375002741813,0.0184249989688396,-0.0160875003784894,0.018427999690175,-0.2111140042543411,0.0722619965672493,-9.780011177062988,-0.7120230197906494,-0.1140059977769851
1757088401457469200,4.51246923828125,0.0291499998420476,0.0219999998807907,-0.0148499999195337,0.0483260005712509,-0.3016659915447235,0.0821650028228759,-9.779723167419434,-0.7154060006141663,-0.1186150014400482
1757088401467022000,4.52202197265625,0.0206249989569187,0.0232375003397464,-0.0160875003784894,0.0430420003831386,-0.1501079946756363,0.1319379955530166,-9.779390335083008,-0.7194979786872864,-0.1223039999604225
1757088401476575200,4.5315751953125,0.0145749999210238,0.017187500372529,-0.0112749999389052,0.0928179994225502,-0.1328900009393692,0.1071539968252182,-9.779035568237305,-0.7239630222320557,-0.1250199973583221
1757088401486128000,4.541128173828125,0.0108624994754791,0.0147124994546175,-0.0112749999389052,0.0687170028686523,-0.0626040026545524,0.1426510065793991,-9.778700828552246,-0.7282590270042419,-0.1266019940376281
1757088401495681500,4.550681640625,0.0083875004202127,0.0122375003993511,-0.0112749999389052,0.0901549980044364,-0.0481479987502098,0.1266579926013946,-9.778395652770996,-0.732230007648468,-0.1271190047264099
1757088401505234400,4.560234375,0.0108624994754791,0.0122375003993511,-0.0112749999389052,0.0921979993581771,-0.0909269973635673,0.1025749966502189,-9.778104782104492,-0.7360749840736389,-0.1267610043287277
1757088401514787600,4.56978759765625,0.0120999999344348,0.0086624994874,-0.0112749999389052,0.0583099983632564,-0.099822998046875,0.1276099979877472,-9.777819633483888,-0.7399479746818542,-0.1253979951143264
1757088401524340500,4.579340576171875,0.0096249999478459,0.0086624994874,-0.0038499999791383,0.0888750031590461,-0.1208939999341964,0.1398800015449524,-9.777533531188965,-0.7439079880714417,-0.1229540035128593
1757088401533893600,4.5888935546875,0.0083875004202127,0.0037124999798834,0.0009624999947845,0.0307580009102821,-0.1293250024318695,0.0887229964137077,-9.77723503112793,-0.748108983039856,-0.1197070032358169
1757088401543446500,4.598446533203125,0.0072874999605119,-0.0072874999605119,0.0034374999813735,0.0279440004378557,-0.0760959982872009,0.0640849992632865,-9.776927947998049,-0.7525010108947754,-0.1158000007271766
1757088401552999700,4.607999755859375,0.0035749999806284,-0.0120999999344348,0.004674999974668,-0.0084330001845955,-0.0801590010523796,0.0006569999968633,-9.776596069335938,-0.7572680115699768,-0.1114630028605461
1757088401562552600,4.617552490234375,0.002337499987334,-0.0072874999605119,0.004674999974668,-0.0286250002682209,-0.1925069987773895,-0.0212450008839368,-9.776217460632324,-0.7626780271530151,-0.1068369969725608
1757088401572105700,4.627105712890625,-0.0026124999858438,0.0012374999932944,0.0059124999679625,-0.0437749996781349,-0.1403450071811676,-0.0359669998288154,-9.775790214538574,-0.7686759829521179,-0.1021149978041648
1757088401581659000,4.636658935546875,-0.0013749999925494,0.0074249999597668,0.0071499999612569,0.0230490006506443,-0.018410999327898,-0.0751809999346733,-9.775346755981444,-0.7748749852180481,-0.0975869968533515
1757088401591212000,4.6462119140625,-0.0013749999925494,0.0086624994874,0.0082499999552965,0.065932996571064,-0.0114719998091459,-0.0851309970021247,-9.774879455566406,-0.7813799977302551,-0.0932739973068237
1757088401600765000,4.655764892578125,-0.0037124999798834,0.0074249999597668,0.0071499999612569,0.1014809980988502,-0.036455001682043,-0.1101619973778724,-9.774391174316406,-0.7880570292472839,-0.0894600003957748
1757088401610317800,4.66531787109375,-0.0001374999992549,0.0061874999664723,0.0009624999947845,0.1154780015349388,-0.0446989983320236,-0.0997409969568252,-9.773902893066406,-0.7946540117263794,-0.0860259979963302
1757088401619871000,4.67487109375,0.002337499987334,0.0074249999597668,-0.0038499999791383,0.0986950024962425,0.0079169999808073,-0.065210998058319,-9.773432731628418,-0.8009330034255981,-0.0830210000276565
1757088401629423900,4.684423828125,0.0060499999672174,0.0001374999992549,-0.0075624999590218,0.1086400002241134,0.0752570033073425,-0.0432280004024505,-9.772995948791504,-0.8067229986190796,-0.0804260000586509
1757088401638977000,4.69397705078125,0.0096249999478459,-0.0072874999605119,-0.0063249999657273,0.1017159968614578,0.0530509985983371,0.0052550002001225,-9.772610664367676,-0.8117899894714355,-0.0781529992818832
1757088401648530200,4.7035302734375,0.0133375003933906,-0.0060499999672174,-0.0015124999918043,0.0706899985671043,0.0279099997133016,0.0169980004429817,-9.772292137145996,-0.8159390091896057,-0.0762109979987144
1757088401658083000,4.7130830078125,0.0145749999210238,-0.002337499987334,0.0009624999947845,0.0592200011014938,0.1059430018067359,0.0164470002055168,-9.772024154663086,-0.8194029927253723,-0.0747470036149025
1757088401667636200,4.72263623046875,0.015812499448657,0.0001374999992549,0.0071499999612569,0.0574270002543926,0.1349129974842071,0.0179639998823404,-9.771810531616213,-0.8221390247344971,-0.0736389979720115
1757088401677189400,4.732189453125,0.0218624994158744,0.0001374999992549,0.0131999999284744,0.0672679990530014,0.0838280022144317,0.0013940000208094,-9.771617889404297,-0.8245519995689392,-0.0730409994721412
1757088401686742500,4.741742431640625,0.0230999998748302,0.0061874999664723,0.0169124994426965,0.0435959994792938,0.0855600014328956,0.0167939998209476,-9.771445274353027,-0.8266890048980713,-0.0728150010108947
1757088401696295400,4.75129541015625,0.0255750007927417,0.0147124994546175,0.0181499999016523,0.0463530011475086,0.1053659990429878,0.0079640001058578,-9.771307945251465,-0.8283630013465881,-0.0728729963302612
1757088401705848300,4.760848388671875,0.0280499998480081,0.0159499999135732,0.0192499998956918,0.0872299969196319,0.0724119991064071,0.022121999412775,-9.771197319030762,-0.8296719789505005,-0.0732249990105629
1757088401715401500,4.7704013671875,0.031624998897314,0.0184249989688396,0.0204875003546476,0.0995699986815452,0.1137190014123916,0.0149609996005892,-9.771133422851562,-0.8303890228271484,-0.0739229992032051
1757088401724954600,4.77995458984375,0.0340999998152256,0.017187500372529,0.0217249989509582,0.09043999761343,0.1324049979448318,0.0196189992129802,-9.771123886108398,-0.8304269909858704,-0.0747769996523857
1757088401734507800,4.7895078125,0.0365750007331371,0.0134749999269843,0.0217249989509582,0.0835629999637603,0.1048469990491867,-0.0027050001081079,-9.771153450012209,-0.830016016960144,-0.0757469981908798
1757088401744060700,4.799060791015625,0.0378125011920928,0.0086624994874,0.0254375003278255,0.083417996764183,0.0250519998371601,-0.0368110015988349,-9.771196365356444,-0.829410970211029,-0.0767470002174377
1757088401753613600,4.808613525390625,0.0340999998152256,0.0111375004053115,0.0254375003278255,0.0428170002996921,0.0670140013098716,0.0052269999869167,-9.771295547485352,-0.8281409740447998,-0.0775920003652572
1757088401763166700,4.818166748046875,0.0303875003010034,0.0122375003993511,0.0241999998688697,0.0501240007579326,0.0681189969182014,0.0243950001895427,-9.771441459655762,-0.8263530135154724,-0.0782160013914108
1757088401772719900,4.827719970703125,0.0303875003010034,0.0122375003993511,0.0241999998688697,0.0884400010108947,0.0445029996335506,0.0582490004599094,-9.771598815917969,-0.8244709968566895,-0.0784220024943351
1757088401782272800,4.837272705078125,0.0280499998480081,0.017187500372529,0.0279124993830919,0.0811249986290931,0.0225559994578361,0.0625950023531913,-9.77175998687744,-0.8225809931755066,-0.0781470015645027
1757088401791826000,4.846825927734375,0.0268124993890523,0.0196624994277954,0.0314874984323978,0.0975959971547126,-0.0022169998846948,0.0664450004696846,-9.77192497253418,-0.8207020163536072,-0.0772809982299804
1757088401801378800,4.85637890625,0.024337500333786,0.0159499999135732,0.0327249988913536,0.0851129963994026,-0.0413060002028942,0.0568570010364055,-9.77208423614502,-0.8189560174942017,-0.0758929997682571
1757088401810932000,4.865931884765625,0.0206249989569187,0.0134749999269843,0.0314874984323978,0.0557690002024173,-0.0648680031299591,0.0367380008101463,-9.772211074829102,-0.8175910115242004,-0.0741659998893737
1757088401820484900,4.87548486328125,0.0181499999016523,0.0111375004053115,0.0266750007867813,0.0623550005257129,-0.0671809986233711,0.0473180003464221,-9.77229118347168,-0.8168140053749084,-0.0721089988946914
1757088401839591200,4.894591064453125,0.0096249999478459,0.0111375004053115,0.0192499998956918,0.0324289985001087,-0.0959409996867179,0.0373330004513263,-9.772335052490234,-0.8166519999504089,-0.0673509985208511
1757088401849144000,4.90414404296875,0.0060499999672174,0.0111375004053115,0.0169124994426965,0.0292109996080398,-0.1246410012245178,0.0455179996788501,-9.772272109985352,-0.8175730109214783,-0.0647339969873428
1757088401858697200,4.913697265625,0.002337499987334,0.0122375003993511,0.0156750008463859,0.0404269993305206,-0.1111050024628639,0.0530840009450912,-9.772138595581056,-0.8192790150642395,-0.0619410015642643
1757088401868250000,4.92325,0.0010999999940395,0.0122375003993511,0.0119624994695186,0.0230609998106956,-0.0897430032491684,0.0444069989025592,-9.771965026855469,-0.8214939832687378,-0.0589440017938613
1757088401877803300,4.93280322265625,-0.0013749999925494,0.0086624994874,0.0107249999418854,0.0344929993152618,-0.0764160007238388,0.0591109991073608,-9.771748542785645,-0.8241699934005737,-0.05579200014472
1757088401887356400,4.9423564453125,-0.0037124999798834,0.0074249999597668,0.0082499999552965,0.0459689982235431,-0.0707800015807151,0.0662859976291656,-9.771490097045898,-0.8273339867591858,-0.0524829998612403
1757088401896909600,4.95190966796875,-0.0049499999731779,0.0049499999731779,0.0071499999612569,0.0670780017971992,-0.0586859993636608,0.0755079984664917,-9.771201133728027,-0.8308349847793579,-0.0490470007061958
1757088401906462500,4.96146240234375,-0.0061874999664723,0.0012374999932944,0.0082499999552965,0.0787400007247924,-0.0313020013272762,0.0664680004119873,-9.77087688446045,-0.8347169756889343,-0.0455170013010501
1757088401916015400,4.971015380859375,-0.0074249999597668,-0.0010999999940395,0.0082499999552965,0.0783850029110908,-0.0393409989774227,0.0604199990630149,-9.770515441894531,-0.8390589952468872,-0.0419300012290477
1757088401925568500,4.980568603515625,-0.0074249999597668,-0.0048124999739229,0.0094875004142522,0.0541560016572475,-0.0266200006008148,0.0595769993960857,-9.770121574401855,-0.8437389731407166,-0.038221001625061
1757088401935121400,4.990121337890625,-0.0074249999597668,-0.0072874999605119,0.0094875004142522,0.0491669997572898,-0.0101370001211762,0.0725449994206428,-9.769726753234863,-0.8484439849853516,-0.034230999648571
1757088401944674800,4.9996748046875,-0.0049499999731779,-0.0097624994814395,0.0059124999679625,0.0371229983866214,0.0049990001134574,0.0759899988770484,-9.769322395324709,-0.8532440066337585,-0.0301079992204904
1757088401954227700,5.009227783203125,-0.0026124999858438,-0.0120999999344348,0.004674999974668,0.0371280014514923,0.0168990008533,0.0614279992878437,-9.768911361694336,-0.8581060171127319,-0.0259739998728036
1757088401963780600,5.018780517578125,-0.0013749999925494,-0.0133375003933906,0.0034374999813735,0.0420809984207153,0.0438309982419014,0.0320280008018016,-9.768508911132812,-0.8628609776496887,-0.022028999403119
1757088401973333800,5.028333740234375,-0.0001374999992549,-0.015812499448657,0.004674999974668,0.0302879996597766,0.0467020012438297,0.0068169999867677,-9.768121719360352,-0.8674200177192688,-0.018402000889182
1757088401982887000,5.037886962890625,0.0010999999940395,-0.015812499448657,0.004674999974668,0.0399879999458789,0.0381669998168945,-0.014674000442028,-9.767756462097168,-0.8717139959335327,-0.015184000134468
1757088401992439800,5.047439697265625,0.0035749999806284,-0.0170499999076128,0.004674999974668,0.0401830002665519,0.0504360012710094,-0.0280220005661249,-9.76742458343506,-0.8755829930305481,-0.012377000413835
1757088402001993000,5.056992919921875,0.0048124999739229,-0.015812499448657,0.004674999974668,0.0474830009043216,0.0372049994766712,-0.0361879989504814,-9.767129898071287,-0.879010021686554,-0.0099269999191164
1757088402011545900,5.0665458984375,0.0035749999806284,-0.015812499448657,0.004674999974668,0.0619250014424324,0.0315739996731281,-0.0551659986376762,-9.766868591308594,-0.8820329904556274,-0.0079159997403621
1757088402021099000,5.07609912109375,0.0048124999739229,-0.0182875003665685,0.004674999974668,0.0764300003647804,0.0443929992616176,-0.0682860016822815,-9.766640663146973,-0.8846669793128967,-0.0064229997806251
1757088402030652200,5.085652099609375,0.0048124999739229,-0.0195249989628791,0.004674999974668,0.0789799988269805,0.0497139990329742,-0.0692450031638145,-9.766453742980955,-0.8868020176887512,-0.0054029999300837
1757088402040205300,5.095205322265625,0.002337499987334,-0.0206249989569187,0.0071499999612569,0.0815109983086586,0.0504529997706413,-0.0880929976701736,-9.766315460205078,-0.8883739709854126,-0.0049479999579489
1757088402049758200,5.10475830078125,0.002337499987334,-0.0218624994158744,0.0071499999612569,0.0648780018091201,0.0488069988787174,-0.0899489969015121,-9.76622200012207,-0.8894259929656982,-0.0050989999435842
1757088402059311000,5.11431103515625,0.002337499987334,-0.0206249989569187,0.0082499999552965,0.0481299981474876,0.0292249992489814,-0.0985869988799095,-9.766158103942873,-0.8901069760322571,-0.0058499998413026
1757088402068864300,5.1238642578125,0.0010999999940395,-0.0182875003665685,0.0094875004142522,0.0265810005366802,0.0288260001689195,-0.086667001247406,-9.766121864318848,-0.8904610276222229,-0.0071809999644756
1757088402078417400,5.13341748046875,-0.0001374999992549,-0.0170499999076128,0.0107249999418854,0.0409180000424385,0.0263780001550912,-0.0913349986076355,-9.766109466552734,-0.8905310034751892,-0.0091159995645284
1757088402087970600,5.142970458984375,-0.0001374999992549,-0.0145749999210238,0.0082499999552965,0.0216259993612766,0.0034229999873787,-0.0937170013785362,-9.766111373901367,-0.8904039859771729,-0.0116689996793866
1757088402097523500,5.1525234375,-0.0013749999925494,-0.0120999999344348,0.0082499999552965,0.0358799993991851,0.0066869999282062,-0.0736159980297088,-9.766122817993164,-0.8901489973068237,-0.0147200003266334
1757088402107076400,5.162076416015625,-0.0026124999858438,-0.0072874999605119,0.0071499999612569,0.0574520006775856,0.0300779994577169,-0.0528599992394447,-9.766153335571287,-0.8896690011024475,-0.0181549992412328
1757088402116629500,5.17162939453125,-0.0026124999858438,-0.0035749999806284,0.0082499999552965,0.0908529981970787,0.009527999907732,-0.0516639985144138,-9.766190528869627,-0.8890820145606995,-0.0219299998134374
1757088402126182700,5.1811826171875,-0.0001374999992549,-0.002337499987334,0.0071499999612569,0.0955040007829666,0.0036090000066906,-0.0416000001132488,-9.766233444213867,-0.8884530067443848,-0.0260390006005764
1757088402135735600,5.190735595703125,0.0010999999940395,-0.0010999999940395,0.0071499999612569,0.0931110009551048,0.0273550003767013,-0.0344740003347396,-9.766279220581056,-0.8877750039100647,-0.030451999977231
1757088402145288700,5.200288818359375,0.0035749999806284,0.0001374999992549,0.0059124999679625,0.0882909968495369,0.0180009994655847,-0.0120660001412034,-9.76632308959961,-0.8871110081672668,-0.0350380018353462
1757088402154841900,5.209841796875,0.0035749999806284,-0.0010999999940395,0.0034374999813735,0.0858689993619918,0.0157130006700754,-0.0359539985656738,-9.766357421875,-0.8865439891815186,-0.0397789999842643
1757088402164394800,5.219394775390625,0.0060499999672174,-0.002337499987334,0.0034374999813735,0.0834110006690025,0.0090279998257756,-0.0289999991655349,-9.766379356384276,-0.8860960006713867,-0.044573001563549
1757088402173947600,5.22894775390625,0.0083875004202127,-0.002337499987334,0.0034374999813735,0.0618270002305507,0.0116410003975033,-0.0224380008876323,-9.76639461517334,-0.8857280015945435,-0.0493320003151893
1757088402183500500,5.23850048828125,0.0083875004202127,-0.002337499987334,0.002199999988079,0.0594579987227916,0.0184920001775026,-0.0049740001559257,-9.766401290893556,-0.8854479789733887,-0.0539559982717037
1757088402193053700,5.2480537109375,0.0083875004202127,0.0001374999992549,0.0034374999813735,0.0524690002202987,0.0476009994745254,0.0225319992750883,-9.766411781311035,-0.8851289749145508,-0.0583290010690689
1757088402202606800,5.25760693359375,0.0072874999605119,0.0024749999865889,0.0059124999679625,0.057362001389265,0.0369209982454776,0.0076040001586079,-9.766422271728516,-0.884797990322113,-0.062424998730421
1757088402212160000,5.267159912109375,0.0072874999605119,0.0024749999865889,0.0094875004142522,0.0501979999244213,0.0271569993346929,0.0025559999048709,-9.766427993774414,-0.884535014629364,-0.0662069991230964
1757088402221713000,5.276712890625,0.0072874999605119,0.0037124999798834,0.0119624994695186,0.0621550008654594,0.0250109992921352,0.0112279998138546,-9.766423225402832,-0.8843770027160645,-0.0696320012211799
1757088402231265800,5.286265869140625,0.0072874999605119,0.0024749999865889,0.0119624994695186,0.0596680007874965,0.0094330003485083,0.0240230001509189,-9.76640796661377,-0.8843610286712646,-0.0726040005683898
1757088402240819000,5.29581884765625,0.0096249999478459,-0.0010999999940395,0.0082499999552965,0.0476830005645751,0.0169140007346868,0.0386929996311664,-9.766386032104492,-0.8844429850578308,-0.0750859975814819
1757088402250372000,5.3053720703125,0.0096249999478459,-0.002337499987334,0.0059124999679625,0.0427929982542991,-0.005630999803543,0.0571409985423088,-9.766359329223633,-0.8846150040626526,-0.077005997300148
1757088402259925200,5.31492529296875,0.0083875004202127,-0.0010999999940395,0.0034374999813735,0.0547109991312027,3.70000016118e-05,0.058603998273611,-9.766329765319824,-0.8848519921302795,-0.078404001891613
1757088402269478100,5.32447802734375,0.0072874999605119,0.0024749999865889,0.0009624999947845,0.0618689991533756,0.0029339999891817,0.0415770001709461,-9.766300201416016,-0.8851159811019897,-0.0793029963970184
1757088402279031000,5.334031005859375,0.002337499987334,0.0049499999731779,0.0009624999947845,0.0738930031657219,0.0192729998379945,0.0252650007605552,-9.766280174255373,-0.8853099942207336,-0.0797460004687309
1757088402288584200,5.343584228515625,-0.0013749999925494,0.0074249999597668,-0.0002749999985098,0.0907929986715316,0.0346460007131099,0.0209190007299184,-9.76627254486084,-0.8853909969329834,-0.0798040032386779
1757088402298137300,5.353137451171875,-0.0159499999135732,0.0379500016570091,0.0082499999552965,0.1386789977550506,0.0140880001708865,0.1694539934396743,-9.766263961791992,-0.885549008846283,-0.0789479985833168
1757088402307690200,5.362690185546875,-0.0159499999135732,0.0428999997675418,0.0094875004142522,0.0766230002045631,0.059943001717329,-0.0271470006555318,-9.766270637512209,-0.8855559825897217,-0.0777790024876594
1757088402317243400,5.372243408203125,-0.0136124994605779,0.0159499999135732,0.0059124999679625,0.0793529972434043,0.0847729966044426,-0.085775002837181,-9.766300201416016,-0.8853049874305725,-0.0766479969024658
1757088402326796300,5.38179638671875,-0.0123749999329447,0.0134749999269843,0.0071499999612569,0.0482539981603622,0.0246290005743503,-0.0167149994522333,-9.766332626342772,-0.8850489854812622,-0.0753810033202171
1757088402336349400,5.391349365234375,-0.0123749999329447,0.0122375003993511,0.004674999974668,0.0075059998780488,0.0013480000197887,0.0191370006650686,-9.766363143920898,-0.884814977645874,-0.0739490017294883
1757088402345902300,5.40090234375,-0.0098999999463558,0.0061874999664723,0.0034374999813735,0.0026960000395774,0.0040890001691877,0.0196669995784759,-9.76639461517334,-0.8845930099487305,-0.0723000019788742
1757088402355455500,5.41045556640625,-0.0086624994874,0.0061874999664723,0.002199999988079,0.0217719990760087,-0.0068879998289048,0.0246929991990327,-9.766424179077148,-0.8843950033187866,-0.0704360008239746
1757088402365008600,5.420008544921875,-0.0086624994874,0.0086624994874,0.0034374999813735,0.0552459992468357,0.0033660000190138,0.035971000790596,-9.766454696655272,-0.8842210173606873,-0.0683280006051063
1757088402374561800,5.429561767578125,-0.0074249999597668,0.0098999999463558,0.0034374999813735,0.0696329995989799,0.0176219996064901,0.0397230014204978,-9.766485214233398,-0.8840579986572266,-0.0660139992833137
1757088402384114700,5.43911474609375,-0.0074249999597668,0.0086624994874,0.0009624999947845,0.1007269993424415,0.0061650001443922,0.0343459993600845,-9.766504287719728,-0.884020984172821,-0.0636119991540908
1757088402393667600,5.44866748046875,-0.0049499999731779,0.0074249999597668,0.0009624999947845,0.0935119986534118,0.0066129998303949,0.0249000005424022,-9.766515731811523,-0.8840619921684265,-0.061124999076128
1757088402403220700,5.458220703125,-0.0037124999798834,0.0049499999731779,-0.0002749999985098,0.0839290022850036,0.0091270003467798,0.0184909999370574,-9.766526222229004,-0.8841180205345154,-0.058568999171257
1757088402412773600,5.467773681640625,-0.0037124999798834,0.0012374999932944,-0.0015124999918043,0.0792189985513687,0.0226419996470212,0.0127919996157288,-9.76654052734375,-0.8841189742088318,-0.0560140013694763
1757088402422326800,5.477326904296875,-0.0026124999858438,-0.0010999999940395,-0.0015124999918043,0.0768520012497901,0.0127990003675222,0.0099160000681877,-9.76656436920166,-0.8840479850769043,-0.0535130016505718
1757088402431879700,5.486879638671875,-0.0013749999925494,-0.0035749999806284,-0.0015124999918043,0.0552409999072551,-0.0056199999526143,0.0322580002248287,-9.766581535339355,-0.8839989900588989,-0.05103600025177
1757088402441432800,5.496432861328125,-0.0013749999925494,-0.002337499987334,-0.0015124999918043,0.0359760001301765,-0.0163150001317262,0.0148379998281598,-9.766599655151367,-0.8839430212974548,-0.0486809983849525
1757088402450985700,5.50598583984375,-0.0013749999925494,-0.0010999999940395,-0.0015124999918043,0.033475000411272,-0.0151239996775984,0.014100999571383,-9.766615867614746,-0.883903980255127,-0.0464560016989707
1757088402460539000,5.515538818359375,-0.0001374999992549,0.0001374999992549,-0.0015124999918043,0.0502509996294975,0.0086610000580549,0.0087909996509552,-9.766633987426758,-0.8838310241699219,-0.0443379990756511
1757088402470091800,5.525091796875,0.0010999999940395,0.0012374999932944,-0.0015124999918043,0.0718030035495758,0.008623999543488,-0.0008249999955296,-9.76664924621582,-0.8837779760360718,-0.0423149988055229
1757088402479645200,5.534645263671875,-0.0001374999992549,0.0012374999932944,-0.0015124999918043,0.0717659965157508,0.0018179999897256,-0.0121520003303885,-9.766656875610352,-0.8838120102882385,-0.04042199999094
1757088402489198000,5.544197998046875,0.0010999999940395,0.0001374999992549,-0.0015124999918043,0.0717559978365898,0.0066869999282062,-0.0181879997253417,-9.766661643981934,-0.8838009834289551,-0.0392999984323978
1757088402498751000,5.5537509765625,0.0010999999940395,-0.002337499987334,-0.0015124999918043,0.0669090002775192,-0.002288999967277,-0.0101110003888607,-9.76665496826172,-0.8839219808578491,-0.0383559986948967
1757088402508304100,5.56330419921875,-0.0001374999992549,0.0001374999992549,-0.0015124999918043,0.0525080002844333,0.0004579999949783,-0.0207899995148181,-9.766629219055176,-0.8842549920082092,-0.037296000868082
1757088402517857300,5.572857177734375,-0.0001374999992549,0.0001374999992549,-0.0015124999918043,0.064528003334999,0.0166539996862411,-0.0173099990934133,-9.76660442352295,-0.8845750093460083,-0.0363090001046657
1757088402527410200,5.58241015625,-0.0013749999925494,0.0012374999932944,-0.0002749999985098,0.0573539994657039,0.0116849998012185,-0.0322050005197525,-9.766584396362305,-0.8848519921302795,-0.0355370007455349
1757088402536963300,5.59196337890625,-0.0026124999858438,0.0012374999932944,-0.0015124999918043,0.0550040006637573,0.0159019995480775,-0.0372250005602836,-9.766565322875977,-0.8850839734077454,-0.0349670015275478
1757088402546516200,5.60151611328125,-0.0026124999858438,0.0024749999865889,-0.0027499999850988,0.0742119997739791,0.0176049992442131,-0.039801999926567,-9.766552925109863,-0.8852310180664062,-0.0346149988472461
1757088402556069400,5.6110693359375,-0.0026124999858438,0.0012374999932944,-0.0027499999850988,0.0623430013656616,0.0259189996868371,-0.046629000455141,-9.766549110412598,-0.8852810263633728,-0.0345560014247894
