time,seconds_elapsed,z,y,x
1757088397043948000,0.098947998046875,2.780524969100952,-4.777987480163574,2.284287452697754
1757088397063054300,0.118054443359375,3.2191500663757324,-4.456787586212158,2.5592875480651855
1757088397072607500,0.127607421875,3.2667250633239746,-4.301549911499023,2.635050058364868
1757088397082160400,0.137160400390625,3.3375375270843506,-4.148787498474121,2.610574960708618
1757088397091713500,0.146713623046875,3.353487491607666,-4.0022125244140625,2.5823874473571777
1757088397101266400,0.156266357421875,3.327775001525879,-3.5660624504089355,2.6423375606536865
1757088397110819800,0.16581982421875,3.336437463760376,-3.205674886703491,2.649625062942505
1757088397120373000,0.175373046875,3.3461999893188477,-2.888050079345703,2.6166250705718994
1757088397129926000,0.18492578125,3.3620123863220215,-2.5264248847961426,2.6826250553131104
1757088397139479000,0.19447900390625,3.377962589263916,-2.527662515640259,2.8439126014709473
1757088397149032000,0.204031982421875,3.4145374298095703,-2.858762502670288,3.0967750549316406
1757088397158585000,0.213585205078125,3.503774881362915,-3.2374374866485596,3.3961124420166016
1757088397168138200,0.22313818359375,3.561112403869629,-3.5538249015808105,3.6759250164031982
1757088397177691400,0.23269140625,3.5941123962402344,-3.6993000507354736,3.9263124465942383
1757088397187244500,0.24224462890625,3.6368749141693115,-3.6968250274658203,4.115650177001953
1757088397196797400,0.25179736328125,3.658874988555908,-3.5502500534057617,4.252462387084961
1757088397206350600,0.2613505859375,3.663825035095215,-3.175149917602539,4.264699935913086
1757088397215903700,0.27090380859375,3.6088249683380127,-2.7462875843048096,4.115650177001953
1757088397225457000,0.280456787109375,3.491537570953369,-2.3285624980926514,3.9092624187469482
1757088397235010000,0.290010009765625,3.324199914932251,-1.6993625164031982,3.6551625728607178
1757088397244563200,0.299563232421875,3.1189124584198,-1.373075008392334,3.3252999782562256
1757088397254116000,0.3091162109375,2.8403375148773193,-1.132449984550476,3.0674874782562256
1757088397263669000,0.3186689453125,2.5386624336242676,-0.8623999953269958,2.8927249908447266
1757088397273222400,0.328222412109375,2.174562454223633,-0.5777750015258789,2.727862596511841
1757088397282775600,0.337775634765625,1.7469375133514404,-0.2858625054359436,2.5078625679016113
1757088397292328400,0.347328369140625,1.3157374858856201,-0.12457499653100967,2.20989990234375
1757088397301881600,0.356881591796875,0.949162483215332,0.028187500312924385,1.8836125135421753
1757088397311434500,0.3664345703125,0.7073000073432922,0.1845249980688095,1.6783249378204346
1757088397320988000,0.37598779296875,0.5460125207901001,0.2810499966144562,1.5965124368667603
1757088397330541000,0.385541015625,0.4372499883174896,0.24928750097751617,1.5819374322891235
1757088397340094000,0.395093994140625,0.39077499508857727,0.20652499794960022,1.4804625511169434
1757088397349647000,0.404647216796875,0.4604874849319458,0.3067624866962433,1.2544125318527222
1757088397359200000,0.414199951171875,0.6413000226020813,0.4618625044822693,0.6851624846458435
1757088397368753200,0.423753173828125,0.7671124935150146,1.2413499355316162,-1.1596750020980835
1757088397378306300,0.433306396484375,1.0016875267028809,1.5394500494003296,-1.9647375345230103
1757088397397412600,0.45241259765625,0.9736375212669373,-0.5570124983787537,-0.7271000146865845
1757088397406965800,0.4619658203125,0.7915874719619751,-1.5331250429153442,-0.14932499825954437
1757088397416519000,0.471518798828125,1.0774500370025635,-1.7469375133514404,-0.0906125009059906
1757088397426071800,0.48107177734375,1.1544499397277832,-1.4220249652862549,-0.19689999520778656
1757088397435625000,0.490625,1.089687466621399,-1.101925015449524,-0.22632500529289246
1757088397445177900,0.500177734375,1.0774500370025635,-0.949162483215332,-0.01251249946653843
1757088397454731000,0.50973095703125,1.0334500074386597,-0.6560124754905701,0.24172499775886536
1757088397464284400,0.519284423828125,1.0639749765396118,-0.43972501158714294,0.1915374994277954
1757088397473837300,0.52883740234375,1.1006875038146973,-0.08786249905824661,0.1671999990940094
1757088397483390500,0.538390380859375,1.1006875038146973,0.14423750340938568,-0.07108750194311142
1757088397492943400,0.547943359375,0.9772124886512756,0.15028749406337738,-0.2311374992132187
1757088397502496500,0.55749658203125,0.940637469291687,-0.05857500061392784,-0.22384999692440033
1757088397512049700,0.567049560546875,0.866112470626831,-0.3786749839782715,-0.17366249859333038
1757088397521602800,0.576602783203125,0.7158250212669373,-0.5227749943733215,-0.25437501072883606
1757088397531156000,0.586156005859375,0.5288249850273132,-0.5179625153541565,-0.38266250491142273
1757088397540708900,0.595708984375,0.3639625012874603,-0.26743748784065247,-0.5182374715805054
1757088397550262000,0.605261962890625,0.2601499855518341,0.035475000739097595,-0.5757125020027161
1757088397559815200,0.614815185546875,0.14767499268054962,0.6708624958992004,-0.6575250029563904
1757088397569368300,0.624368408203125,0.16238750517368317,1.251112461090088,-0.8333874940872192
1757088397578921200,0.633921142578125,0.3151499927043915,1.4929749965667725,-0.9153375029563904
1757088397588474600,0.643474609375,0.33096250891685486,1.8473124504089355,-0.6550499796867371
1757088397598027500,0.653027587890625,0.31872498989105225,1.473449945449829,-0.5952374935150146
1757088397607580700,0.66258056640625,0.5802500247955322,0.7221499681472778,-0.7050999999046326
1757088397617133800,0.6721337890625,1.103024959564209,0.17599999904632568,-0.9275749921798706
1757088397626686700,0.681686767578125,1.810462474822998,-0.7035874724388123,-1.4162499904632568
1757088397636240000,0.691239990234375,2.4946625232696533,-1.5160750150680542,-2.0429749488830566
1757088397645793000,0.70079296875,3.0639123916625977,-2.4409000873565674,-2.5756499767303467
1757088397655346200,0.71034619140625,3.436537504196167,-3.3046748638153076,-2.6929373741149902
1757088397664899300,0.7198994140625,3.7736873626708984,-3.856874942779541,-2.294600009918213
1757088397674452200,0.7294521484375,3.927687406539917,-2.9906249046325684,-1.675162434577942
1757088397684005400,0.73900537109375,3.1934375762939453,1.7654999494552612,-0.6012874841690063
1757088397693558500,0.74855859375,2.3761374950408936,5.04446268081665,0.19030000269412994
1757088397703111700,0.758111572265625,2.1280875205993652,5.384087562561035,0.13529999554157257
1757088397712664600,0.76766455078125,2.0365123748779297,4.33097505569458,-0.23966249823570251
1757088397722217700,0.7772177734375,1.8997000455856323,2.609612464904785,-0.7015249729156494
1757088397731771000,0.78677099609375,1.7151750326156616,0.5963374972343445,-0.934862494468689
1757088397741324000,0.796323974609375,1.6149375438690186,-1.1434500217437744,-0.668524980545044
1757088397750877200,0.805877197265625,1.6418875455856323,-2.235612392425537,0.05967500060796738
1757088397760430000,0.81543017578125,1.7494125366210938,-2.5789499282836914,0.8354499936103821
1757088397769983000,0.82498291015625,1.9742250442504883,-2.2320375442504883,1.3301750421524048
1757088397779536400,0.834536376953125,2.2515625953674316,-1.3743125200271606,1.552512526512146
1757088397789089500,0.844089599609375,2.420137405395508,-0.36272498965263367,1.6246999502182007
1757088397798642400,0.853642333984375,2.630237579345703,0.23952500522136688,1.6037999391555786
1757088397808195600,0.863195556640625,2.809812545776367,-0.10381250083446503,1.4096499681472778
1757088397817748700,0.872748779296875,2.822050094604492,-1.0126874446868896,1.0308375358581543
1757088397827302000,0.882302001953125,3.465825080871582,-1.9997999668121338,0.6729249954223633
1757088397836854800,0.891854736328125,4.6472249031066895,-2.104987382888794,0.10724999755620956
1757088397846408000,0.901407958984375,5.591712474822998,-2.5789499282836914,-0.04908749833703041
1757088397855961000,0.910961181640625,5.916625022888184,-3.520824909210205,0.07796250283718109
1757088397865514200,0.92051416015625,5.528187274932861,-4.291787624359131,-0.006324999965727329
1757088397875067400,0.9300673828125,4.710750102996826,-3.7688748836517334,-0.14079999923706055
1757088397884620300,0.939620361328125,2.808574914932251,-2.4006125926971436,-0.7906249761581421
1757088397894173400,0.94917333984375,0.10615000128746033,-1.4073125123977661,-1.441825032234192
1757088397903726600,0.9587265625,-1.8485499620437622,-1.8154125213623047,-1.1461999416351318
1757088397913279700,0.96827978515625,-2.2896499633789062,-2.049987554550171,-0.5695250034332275
1757088397922832600,0.97783251953125,-1.9390250444412231,-1.7872250080108643,-0.02708750031888485
1757088397932385800,0.9873857421875,-1.3121625185012817,-1.1214499473571777,0.4248749911785126
1757088397941939000,0.99693896484375,-0.6781499981880188,-0.18191249668598175,0.6887375116348267
1757088397951492400,1.006492431640625,-0.2139499932527542,0.4240500032901764,0.5801125168800354
1757088397961045200,1.016045166015625,0.0695749968290329,0.35804998874664307,0.13048750162124634
1757088397970598100,1.02559814453125,0.2527250051498413,0.07576250284910202,-0.2714250087738037
1757088397980151300,1.0351513671875,0.41401249170303345,-0.05128749832510948,-0.3777124881744385
1757088397989704700,1.04470458984375,0.5092999935150146,-0.04262499883770943,-0.272662490606308
1757088397999257600,1.054257568359375,0.44343748688697815,0.07218749821186066,-0.10903749614953995
1757088398008810500,1.063810546875,0.2686749994754791,0.21752500534057617,0.014437500387430191
1757088398018363600,1.07336376953125,0.16609999537467957,0.3433375060558319,0.07672499865293503
1757088398027916500,1.08291650390625,0.1391499936580658,0.39957499504089355,0.09624999761581421
1757088398037469700,1.0924697265625,0.1036750003695488,0.3592875003814697,0.10353749990463257
1757088398047023000,1.102023193359375,0.0719124972820282,0.36410000920295715,0.08772499859333038
1757088398056576000,1.111575927734375,0.062150001525878906,0.4081000089645386,0.06091250106692314
1757088398066129200,1.121129150390625,0.037812501192092896,0.38981249928474426,0.05224999785423279
1757088398075682300,1.130682373046875,0.009624999947845936,0.296999990940094,0.06696250289678574
1757088398085235500,1.1402353515625,-0.011137500405311584,0.17104999721050262,0.08167500048875809
1757088398094788600,1.14978857421875,-0.02213750034570694,0.059950001537799835,0.07548750191926956
1757088398104341500,1.159341552734375,-0.03189999982714653,-0.0170499999076128,0.05843750014901161
1757088398113894400,1.168894287109375,-0.045375000685453415,-0.057337500154972076,0.05472499877214432
1757088398123447800,1.17844775390625,-0.055137500166893005,-0.059812501072883606,0.0681999996304512
1757088398133000700,1.188000732421875,-0.0648999959230423,-0.04633750021457672,0.08043749630451202
1757088398142553900,1.197553955078125,-0.062424998730421066,-0.028049999848008156,0.07067500054836273
1757088398152107000,1.20710693359375,-0.05389999970793724,-0.015812499448657036,0.05224999785423279
1757088398161660000,1.216659912109375,-0.045375000685453415,0.00494999997317791,0.04372499883174896
1757088398171213300,1.22621337890625,-0.03671250119805336,0.042899999767541885,0.04867500066757202
1757088398180766200,1.23576611328125,-0.030662499368190765,0.09171249717473984,0.05719999969005585
1757088398190319400,1.2453193359375,-0.02213750034570694,0.12594999372959137,0.06091250106692314
1757088398199872300,1.254872314453125,-0.013612499460577965,0.13571250438690186,0.06091250106692314
1757088398209425700,1.26442578125,-0.008662499487400055,0.12099999934434891,0.0644875019788742
1757088398218978600,1.273978515625,0.0010999999940395355,0.10147500038146973,0.0644875019788742
1757088398228531700,1.28353173828125,0.006049999967217445,0.08442500233650208,0.06201250106096268
1757088398238084600,1.293084716796875,0.010862499475479126,0.07218749821186066,0.06091250106692314
1757088398247638000,1.302637939453125,0.010862499475479126,0.05871250107884407,0.06091250106692314
1757088398257191000,1.31219091796875,0.008387500420212746,0.05142499879002571,0.06324999779462814
1757088398266744000,1.321744140625,0.0035749999806284904,0.04647500067949295,0.0644875019788742
1757088398276297200,1.331297119140625,-0.0013749999925494194,0.045237500220537186,0.0644875019788742
1757088398285850000,1.34085009765625,-0.00494999997317791,0.050187498331069946,0.06201250106096268
1757088398295403300,1.3504033203125,-0.008662499487400055,0.05376249924302101,0.06091250106692314
1757088398304956400,1.359956298828125,-0.00989999994635582,0.05623750016093254,0.05967500060796738
1757088398314509600,1.369509521484375,-0.00989999994635582,0.057475000619888306,0.05843750014901161
1757088398324062500,1.3790625,-0.006187499966472387,0.057475000619888306,0.06091250106692314
1757088398333615600,1.38861572265625,-0.0013749999925494194,0.05376249924302101,0.05967500060796738
1757088398343168800,1.398168701171875,0.0035749999806284904,0.050187498331069946,0.05472499877214432
1757088398352722000,1.407721923828125,0.008387500420212746,0.04399999976158142,0.04867500066757202
1757088398362274800,1.41727490234375,0.013337500393390656,0.037950001657009125,0.049912501126527786
1757088398371828000,1.426827880859375,0.0170499999076128,0.03189999982714653,0.049912501126527786
1757088398381381000,1.436381103515625,0.018149999901652336,0.02199999988079071,0.05101250112056732
1757088398390934000,1.44593408203125,0.0170499999076128,0.011137500405311584,0.05224999785423279
1757088398400487400,1.4554873046875,0.015812499448657036,0.0012374999932944775,0.05472499877214432
1757088398410040300,1.465040283203125,0.010862499475479126,-0.004812499973922968,0.05472499877214432
1757088398419593500,1.474593505859375,0.007287499960511923,-0.007287499960511923,0.05101250112056732
1757088398429146400,1.484146484375,0.0035749999806284904,-0.006049999967217445,0.04496249929070473
1757088398438699500,1.493699462890625,-0.0013749999925494194,-0.006049999967217445,0.04001250118017197
1757088398448252700,1.503252685546875,-0.00494999997317791,-0.004812499973922968,0.03396249935030937
1757088398457805800,1.512805908203125,-0.007424999959766865,-0.0010999999940395355,0.03148749843239784
1757088398467358700,1.522358642578125,-0.007424999959766865,0.0037124999798834324,0.027912499383091927
1757088398476911900,1.531911865234375,-0.00494999997317791,0.008662499487400055,0.020487500354647636
1757088398486465000,1.541465087890625,-0.00013749999925494194,0.01223750039935112,0.014437500387430191
1757088398496018200,1.55101806640625,0.006049999967217445,0.015949999913573265,0.009487500414252281
1757088398505571300,1.5605712890625,0.007287499960511923,0.018424998968839645,0.009487500414252281
1757088398515124200,1.570124267578125,0.01209999993443489,0.02447500079870224,0.011962499469518661
1757088398524677400,1.579677490234375,0.010862499475479126,0.03918749839067459,0.01691249944269657
1757088398534230500,1.58923046875,0.010862499475479126,0.057475000619888306,0.021724998950958252
1757088398543783700,1.59878369140625,0.008387500420212746,0.06599999964237213,0.025437500327825546
1757088398553336600,1.608336669921875,0.006049999967217445,0.06476250290870667,0.027912499383091927
1757088398562889500,1.617889404296875,0.004812499973922968,0.04895000159740448,0.02667500078678131
1757088398572442600,1.627442626953125,0.006049999967217445,0.02199999988079071,0.029012499377131462
1757088398581996000,1.63699609375,0.006049999967217445,-0.0010999999940395355,0.029012499377131462
1757088398591549000,1.646548828125,0.006049999967217445,-0.007287499960511923,0.029012499377131462
1757088398601102000,1.65610205078125,0.004812499973922968,0.00494999997317791,0.030249999836087227
1757088398610655000,1.665655029296875,0.006049999967217445,0.025712499395012856,0.03272499889135361
1757088398620208000,1.6752080078125,0.006049999967217445,0.040424998849630356,0.030249999836087227
1757088398629761300,1.68476123046875,0.007287499960511923,0.045237500220537186,0.027912499383091927
1757088398639314400,1.694314453125,0.008387500420212746,0.047712501138448715,0.02419999986886978
1757088398648867300,1.703867431640625,0.010862499475479126,0.047712501138448715,0.01924999989569187
1757088398658420500,1.71342041015625,0.01209999993443489,0.04399999976158142,0.011962499469518661
1757088398667973600,1.7229736328125,0.013337500393390656,0.040424998849630356,0.007149999961256981
1757088398677526800,1.73252685546875,0.010862499475479126,0.03423750028014183,0.005912499967962503
1757088398687079700,1.74207958984375,0.008387500420212746,0.02694999985396862,0.007149999961256981
1757088398696632800,1.7516328125,0.006049999967217445,0.02447500079870224,0.008249999955296516
1757088398706185700,1.761185791015625,0.006049999967217445,0.02199999988079071,0.010724999941885471
1757088398715739100,1.7707392578125,0.0035749999806284904,0.025712499395012856,0.009487500414252281
1757088398725292300,1.780292236328125,0.0035749999806284904,0.029424998909235,0.008249999955296516
1757088398734845200,1.78984521484375,0.0035749999806284904,0.03189999982714653,0.007149999961256981
1757088398744398300,1.7993984375,0.0035749999806284904,0.02694999985396862,0.007149999961256981
1757088398753951200,1.808951171875,0.002337499987334013,0.01347499992698431,0.007149999961256981
1757088398763504600,1.818504638671875,0.002337499987334013,0.002474999986588955,0.010724999941885471
1757088398773057500,1.8280576171875,0.002337499987334013,-0.01209999993443489,0.011962499469518661
1757088398782610700,1.837610595703125,0.0010999999940395355,-0.028049999848008156,0.013199999928474426
1757088398792163600,1.84716357421875,0.002337499987334013,-0.04152499884366989,0.013199999928474426
1757088398801717000,1.856717041015625,0.002337499987334013,-0.05004999786615372,0.013199999928474426
1757088398811270000,1.866269775390625,0.002337499987334013,-0.05252499878406525,0.013199999928474426
1757088398820823000,1.875822998046875,0.0010999999940395355,-0.05252499878406525,0.013199999928474426
1757088398830376000,1.8853759765625,0.002337499987334013,-0.05252499878406525,0.013199999928474426
1757088398839929000,1.89492919921875,0.0010999999940395355,-0.04881250113248825,0.014437500387430191
1757088398849482200,1.904482177734375,0.002337499987334013,-0.045099999755620956,0.015675000846385956
1757088398859035400,1.914035400390625,0.006049999967217445,-0.04152499884366989,0.01691249944269657
1757088398868588300,1.92358837890625,0.007287499960511923,-0.03162499889731407,0.01924999989569187
1757088398878141400,1.933141357421875,0.009624999947845936,-0.023099999874830246,0.01924999989569187
1757088398887694600,1.942694580078125,0.010862499475479126,-0.0170499999076128,0.01924999989569187
1757088398897247700,1.952247802734375,0.010862499475479126,-0.014574999921023846,0.018149999901652336
1757088398906800600,1.961800537109375,0.010862499475479126,-0.0170499999076128,0.018149999901652336
1757088398916353800,1.971353759765625,0.008387500420212746,-0.025575000792741776,0.018149999901652336
1757088398925906700,1.98090673828125,0.0035749999806284904,-0.035337500274181366,0.01924999989569187
1757088398935459800,1.9904599609375,0.002337499987334013,-0.045099999755620956,0.020487500354647636
1757088398945013000,2.000012939453125,0.002337499987334013,-0.05362499877810478,0.022962499409914017
1757088398954566100,2.009566162109375,0.006049999967217445,-0.05857500061392784,0.02419999986886978
1757088398964119000,2.019119140625,0.008387500420212746,-0.06228749826550484,0.02667500078678131
1757088398973672200,2.028672119140625,0.013337500393390656,-0.059812501072883606,0.027912499383091927
1757088398983225300,2.038225341796875,0.015812499448657036,-0.05128749832510948,0.025437500327825546
1757088398992778500,2.047778564453125,0.0170499999076128,-0.04262499883770943,0.022962499409914017
1757088399002331400,2.057331298828125,0.015812499448657036,-0.03904999792575836,0.020487500354647636
1757088399011884500,2.066884521484375,0.01209999993443489,-0.037812501192092896,0.022962499409914017
1757088399021437400,2.0764375,0.009624999947845936,-0.03904999792575836,0.025437500327825546
1757088399030990600,2.085990478515625,0.006049999967217445,-0.04028749838471413,0.02667500078678131
1757088399040543700,2.095543701171875,0.0035749999806284904,-0.04152499884366989,0.027912499383091927
1757088399050097000,2.105096923828125,0.002337499987334013,-0.045099999755620956,0.02667500078678131
1757088399059649800,2.11464990234375,0.0035749999806284904,-0.05362499877810478,0.029012499377131462
1757088399069203000,2.124202880859375,0.006049999967217445,-0.06338749825954437,0.030249999836087227
1757088399078755800,2.133755859375,0.009624999947845936,-0.07438749819993973,0.03148749843239784
1757088399088309000,2.14330908203125,0.013337500393390656,-0.08181250095367432,0.03272499889135361
1757088399097862100,2.152862060546875,0.0170499999076128,-0.08662500232458115,0.03396249935030937
1757088399107415300,2.162415283203125,0.0193875003606081,-0.08662500232458115,0.0364375002682209
1757088399116968200,2.17196826171875,0.0193875003606081,-0.07933750003576279,0.03519999980926514
1757088399126521300,2.181521240234375,0.015812499448657036,-0.06833750009536743,0.03396249935030937
1757088399136074500,2.191074462890625,0.01209999993443489,-0.05609999969601631,0.03148749843239784
1757088399145627600,2.200627685546875,0.008387500420212746,-0.04633750021457672,0.027912499383091927
1757088399155180500,2.2101806640625,0.0035749999806284904,-0.037812501192092896,0.025437500327825546
1757088399164733700,2.219733642578125,-0.0013749999925494194,-0.030524998903274536,0.025437500327825546
1757088399174287000,2.229287109375,-0.002612499985843897,-0.02681249938905239,0.02419999986886978
1757088399183840000,2.238840087890625,-0.0037124999798834324,-0.02681249938905239,0.021724998950958252
1757088399193393000,2.248392822265625,-0.0037124999798834324,-0.02681249938905239,0.01691249944269657
1757088399202946000,2.257946044921875,-0.0037124999798834324,-0.02433750033378601,0.013199999928474426
1757088399212499000,2.2674990234375,-0.0013749999925494194,-0.023099999874830246,0.009487500414252281
1757088399222052000,2.277052001953125,-0.0013749999925494194,-0.02433750033378601,0.008249999955296516
1757088399231605500,2.28660546875,-0.0013749999925494194,-0.02681249938905239,0.009487500414252281
1757088399241158400,2.296158447265625,-0.0037124999798834324,-0.025575000792741776,0.009487500414252281
1757088399250711600,2.305711669921875,-0.00494999997317791,-0.02186249941587448,0.010724999941885471
1757088399260264400,2.315264404296875,-0.007424999959766865,-0.01952499896287918,0.011962499469518661
1757088399269817600,2.324817626953125,-0.007424999959766865,-0.018287500366568565,0.010724999941885471
1757088399279370800,2.334370849609375,-0.008662499487400055,-0.013337500393390656,0.008249999955296516
1757088399288923600,2.343923583984375,-0.008662499487400055,-0.00976249948143959,0.008249999955296516
1757088399298476800,2.353476806640625,-0.00989999994635582,-0.0035749999806284904,0.004674999974668026
1757088399308030000,2.363030029296875,-0.00989999994635582,0.002474999986588955,0.004674999974668026
1757088399317583000,2.3725830078125,-0.00989999994635582,0.007424999959766865,0.0034374999813735485
1757088399327136000,2.382135986328125,-0.00989999994635582,0.011137500405311584,0.005912499967962503
1757088399336689200,2.391689208984375,-0.007424999959766865,0.007424999959766865,0.009487500414252281
1757088399346242300,2.4012421875,-0.00494999997317791,0.002474999986588955,0.010724999941885471
1757088399355795200,2.410795166015625,-0.0013749999925494194,0.002474999986588955,0.011962499469518661
1757088399365348400,2.420348388671875,-0.00013749999925494194,0.008662499487400055,0.010724999941885471
1757088399374901500,2.429901611328125,-0.00013749999925494194,0.01223750039935112,0.010724999941885471
1757088399384454400,2.439454345703125,0.0010999999940395355,0.01718750037252903,0.007149999961256981
1757088399394007600,2.449007568359375,0.002337499987334013,0.02199999988079071,0.004674999974668026
1757088399403560700,2.458560791015625,0.002337499987334013,0.025712499395012856,0.0009624999947845936
1757088399413113900,2.46811376953125,0.004812499973922968,0.02694999985396862,-0.0002749999985098839
1757088399422666800,2.477666748046875,0.002337499987334013,0.02694999985396862,-0.002749999985098839
1757088399432220000,2.487219970703125,0.002337499987334013,0.028187500312924385,-0.005087499972432852
1757088399441772800,2.496772705078125,-0.00013749999925494194,0.023237500339746475,-0.007562499959021807
1757088399451326000,2.506325927734375,-0.0037124999798834324,0.020899999886751175,-0.01251249946653843
1757088399460879000,2.515879150390625,-0.007424999959766865,0.01718750037252903,-0.018562499433755875
1757088399470432300,2.525432373046875,-0.00989999994635582,0.023237500339746475,-0.025849999859929085
1757088399479985200,2.534985107421875,-0.012374999932944775,0.032999999821186066,-0.03451250120997429
1757088399489538300,2.544538330078125,-0.015949999913573265,0.04399999976158142,-0.040562499314546585
1757088399499091500,2.554091552734375,-0.018424998968839645,0.05623750016093254,-0.043037500232458115
1757088399508644600,2.56364453125,-0.018424998968839645,0.0672374963760376,-0.04427500069141388
1757088399518197500,2.573197509765625,-0.01718750037252903,0.07218749821186066,-0.04661250114440918
1757088399527750700,2.582750732421875,-0.015949999913573265,0.06847500056028366,-0.04908749833703041
1757088399537303800,2.5923037109375,-0.012374999932944775,0.062424998730421066,-0.055275000631809235
1757088399546856700,2.601856689453125,-0.00989999994635582,0.054999999701976776,-0.060087498277425766
1757088399556409900,2.611409912109375,-0.00989999994635582,0.047712501138448715,-0.06503749638795853
1757088399565963000,2.620962890625,-0.008662499487400055,0.04399999976158142,-0.06984999775886536
1757088399575516000,2.630515869140625,-0.00989999994635582,0.04647500067949295,-0.07356250286102295
1757088399585069000,2.640069091796875,-0.011137500405311584,0.054999999701976776,-0.08084999769926071
1757088399594622000,2.6496220703125,-0.015949999913573265,0.05871250107884407,-0.08579999953508377
1757088399604175400,2.65917529296875,-0.018424998968839645,0.05623750016093254,-0.08813749998807907
1757088399613728300,2.668728271484375,-0.01966249942779541,0.052662499248981476,-0.0906125009059906
1757088399623281200,2.67828125,-0.018424998968839645,0.050187498331069946,-0.09308750182390213
1757088399632834600,2.68783447265625,-0.012374999932944775,0.04399999976158142,-0.09803749620914459
1757088399642387500,2.697387451171875,-0.00494999997317791,0.037950001657009125,-0.10161250084638596
1757088399651940600,2.706940673828125,0.0010999999940395355,0.032999999821186066,-0.10161250084638596
1757088399661493500,2.716493408203125,0.004812499973922968,0.030662499368190765,-0.09803749620914459
1757088399671046700,2.726046630859375,0.007287499960511923,0.028187500312924385,-0.09184999763965607
1757088399680599800,2.735599853515625,0.008387500420212746,0.023237500339746475,-0.08703749626874924
1757088399690153000,2.745153076171875,0.007287499960511923,0.01966249942779541,-0.0845625028014183
1757088399699705900,2.754705810546875,0.004812499973922968,0.01718750037252903,-0.08703749626874924
1757088399709259000,2.764259033203125,0.002337499987334013,0.01347499992698431,-0.09556250274181366
1757088399718812200,2.773812255859375,-0.00494999997317791,0.008662499487400055,-0.10532499849796295
1757088399728365300,2.783365234375,-0.012374999932944775,0.006187499966472387,-0.11508750170469284
1757088399737918200,2.792918212890625,-0.01966249942779541,0.007424999959766865,-0.11879999935626984
1757088399747471400,2.802471435546875,-0.02694999985396862,0.011137500405311584,-0.11756250262260437
1757088399757024300,2.812024169921875,-0.033137500286102295,0.028187500312924385,-0.11384999752044678
1757088399766577400,2.821577392578125,-0.040424998849630356,0.057475000619888306,-0.11261250078678131
1757088399776130300,2.83113037109375,-0.04895000159740448,0.09418749809265137,-0.11879999935626984
1757088399785683500,2.840683349609375,-0.057475000619888306,0.1247124969959259,-0.1321374922990799
1757088399795236600,2.850236572265625,-0.06613750010728836,0.1405249983072281,-0.1518000066280365
1757088399804789800,2.859789794921875,-0.06971249729394913,0.13323749601840973,-0.17489999532699585
1757088399814343000,2.869343017578125,-0.07342500239610672,0.10518749803304672,-0.20061250030994415
1757088399823896000,2.87889599609375,-0.07466249912977219,0.07466249912977219,-0.2250874936580658
1757088399833449000,2.888448974609375,-0.07713750004768372,0.05376249924302101,-0.25437501072883606
1757088399843001900,2.898001953125,-0.07947500050067902,0.047712501138448715,-0.2886124849319458
1757088399852555000,2.907554931640625,-0.08318749815225601,0.052662499248981476,-0.32394999265670776
1757088399862108000,2.91710791015625,-0.08923749625682831,0.06599999964237213,-0.3581874966621399
1757088399871661300,2.926661376953125,-0.09047500044107437,0.09171249717473984,-0.3862375020980835
1757088399881214200,2.936214111328125,-0.09418749809265137,0.13571250438690186,-0.4119499921798706
1757088399890767400,2.945767333984375,-0.09790000319480896,0.22123749554157257,-0.4388999938964844
1757088399900320300,2.9553203125,-0.10518749803304672,0.3653374910354614,-0.4620000123977661
1757088399909873400,2.964873291015625,-0.10999999940395355,0.5205749869346619,-0.47423750162124634
1757088399919426600,2.974426513671875,-0.10642500221729279,0.6316750049591064,-0.4914250075817108
1757088399928979700,2.983979736328125,-0.10023749619722366,0.6879125237464905,-0.523187518119812
1757088399938532600,2.99353271484375,-0.09542500227689743,0.7013875246047974,-0.5597624778747559
1757088399948085800,3.003085693359375,-0.08923749625682831,0.6806250214576721,-0.5879499912261963
1757088399957639000,3.012638916015625,-0.08442500233650208,0.6402000188827515,-0.6122875213623047
1757088399967192000,3.022192138671875,-0.07466249912977219,0.6096749901771545,-0.6440500020980835
1757088399976745000,3.031744873046875,-0.059950001537799835,0.5999125242233276,-0.6905249953269958
1757088399986297900,3.0412978515625,-0.05389999970793724,0.5974375009536743,-0.7552874684333801
1757088399995851000,3.05085107421875,-0.04413750022649765,0.6023874878883362,-0.8333874940872192
1757088400005404200,3.060404052734375,-0.013612499460577965,0.6096749901771545,-0.916575014591217
1757088400014957300,3.069957275390625,0.04262499883770943,0.6133875250816345,-0.9849125146865845
1757088400024510200,3.07951025390625,0.10009999573230743,0.5828624963760376,-1.0338624715805054
1757088400034063400,3.0890634765625,0.13186250627040863,0.5498625040054321,-1.0643874406814575
1757088400043616300,3.0986162109375,0.13433749973773956,0.5083374977111816,-1.0851500034332275
1757088400053169400,3.10816943359375,0.14767499268054962,0.42281249165534973,-1.130387544631958
1757088400062722600,3.11772265625,0.18191249668598175,0.36781248450279236,-1.2317249774932861
1757088400072275700,3.127275634765625,0.24791249632835388,0.43505001068115234,-1.4112999439239502
1757088400081828600,3.13682861328125,0.29919999837875366,0.5511000156402588,-1.6838250160217285
1757088400091381800,3.1463818359375,0.35420000553131104,0.7294374704360962,-1.9940249919891357
1757088400100935000,3.155934814453125,0.3774375021457672,0.8784874677658081,-2.270124912261963
1757088400110488000,3.165488037109375,0.39448750019073486,0.9261999726295471,-2.470599889755249
1757088400120041000,3.175041015625,0.42625001072883606,0.8724374771118164,-2.5474624633789062
1757088400129594000,3.184593994140625,0.45319998264312744,0.5791500210762024,-2.510887384414673
1757088400139147300,3.194147216796875,0.4652999937534332,0.10752499848604202,-2.446125030517578
1757088400148700400,3.203700439453125,0.44343748688697815,-0.492249995470047,-2.443650007247925
1757088400158253300,3.21325341796875,0.39820000529289246,-1.4330250024795532,-2.481600046157837
1757088400167806200,3.22280615234375,0.25519999861717224,-2.284562587738037,-2.5218875408172607
1757088400177359400,3.232359375,0.10491249710321426,-2.5972375869750977,-2.6269373893737793
1757088400186912500,3.24191259765625,-0.007424999959766865,-2.3638999462127686,-2.714937448501587
1757088400196465700,3.251465576171875,-0.18947499990463257,-2.0535624027252197,-2.7527499198913574
1757088400206018600,3.2610185546875,-0.4288625121116638,-2.0645625591278076,-2.815037488937378
1757088400215571700,3.27057177734375,-0.6866750121116638,-2.1562750339508057,-2.772274971008301
1757088400225124600,3.28012451171875,-0.9494374990463257,-2.0352749824523926,-2.71370005607605
1757088400234677800,3.289677734375,-1.110587477684021,-1.6871249675750732,-2.599987506866455
1757088400244231200,3.299231201171875,-1.110587477684021,-1.2875499725341797,-2.4058375358581543
1757088400253783800,3.30878369140625,-1.0592999458312988,-0.8953999876976013,-2.205362558364868
1757088400263337000,3.3183369140625,-0.9384375214576721,-0.4104374945163727,-2.1528375148773193
1757088400272889900,3.327889892578125,-0.7771499752998352,-0.010862499475479126,-2.283600091934204
1757088400282443000,3.337443115234375,-0.5779125094413757,0.14176249504089355,-2.487649917602539
1757088400291996200,3.34699609375,-0.3422375023365021,0.19304999709129333,-2.6757500171661377
1757088400301549300,3.35654931640625,-0.1247124969959259,0.18576249480247498,-2.8235623836517334
1757088400311102200,3.366102294921875,0.05238749831914902,-0.1428624987602234,-2.8663249015808105
1757088400320655400,3.3756552734375,0.1929125040769577,-0.5790125131607056,-2.762512445449829
1757088400330208300,3.385208251953125,0.3359124958515167,-0.805062472820282,-2.5854125022888184
1757088400339761400,3.394761474609375,0.4189625084400177,-0.7842999696731567,-2.3996500968933105
1757088400349314600,3.404314453125,0.420199990272522,-0.5325375199317932,-2.216362476348877
1757088400358867700,3.41386767578125,0.3737249970436096,-0.15262499451637268,-2.0355498790740967
1757088400368420600,3.423420654296875,0.3162499964237213,0.16376249492168427,-1.8572125434875488
1757088400377973800,3.432973876953125,0.30291250348091125,0.24199999868869781,-1.779112458229065
1757088400387526700,3.442526611328125,0.28338751196861267,0.13928750157356262,-1.78763747215271
1757088400397080000,3.452080078125,0.26496249437332153,0.11495000123977661,-1.7741625308990479
1757088400406633000,3.461633056640625,0.3529624938964844,0.22481249272823334,-1.7986375093460083
1757088400416186000,3.47118603515625,0.4409624934196472,0.32752498984336853,-1.8401625156402588
1757088400425739000,3.480739013671875,0.4507249891757965,0.20047499239444733,-1.8657374382019043
1757088400435292000,3.4902919921875,0.33219999074935913,-0.0340999998152256,-1.882925033569336
1757088400444845300,3.49984521484375,0.2723875045776367,-0.1648624986410141,-1.8939249515533447
1757088400454398500,3.5093984375,0.2699125111103058,-0.1551000028848648,-1.8951624631881714
1757088400463951400,3.518951416015625,0.3004375100135803,-0.05362499877810478,-1.8646374940872192
1757088400473504300,3.528504150390625,0.35048750042915344,0.03423750028014183,-1.8266874551773071
1757088400483057400,3.538057373046875,0.370012491941452,0.10999999940395355,-1.7729250192642212
1757088400492610300,3.5476103515625,0.3712500035762787,0.21752500534057617,-1.726449966430664
1757088400502163700,3.557163818359375,0.4017750024795532,0.33605000376701355,-1.6984000205993652
1757088400511716600,3.566716552734375,0.4127750098705292,0.43133750557899475,-1.6763999462127686
1757088400521269500,3.57626953125,0.444537490606308,0.5266249775886536,-1.6495875120162964
1757088400530822700,3.58582275390625,0.4787749946117401,0.5974375009536743,-1.6275874376296997
1757088400540375800,3.595375732421875,0.5092999935150146,0.5693874955177307,-1.638587474822998
1757088400549929000,3.604928955078125,0.5460125207901001,0.5058624744415283,-1.643399953842163
1757088400559481900,3.61448193359375,0.5545374751091003,0.4263874888420105,-1.6410624980926514
1757088400569035000,3.624034912109375,0.5387250185012817,0.3763374984264374,-1.633637547492981
1757088400578588000,3.633587890625,0.49953749775886536,0.432574987411499,-1.5676374435424805
1757088400588141000,3.64314111328125,0.4727250039577484,0.5229125022888184,-1.4810124635696411
1757088400597694200,3.652694091796875,0.45319998264312744,0.5291000008583069,-1.4088250398635864
1757088400607247000,3.6622470703125,0.44948750734329224,0.5425750017166138,-1.355062484741211
1757088400616800300,3.67180029296875,0.420199990272522,0.5376250147819519,-1.3122999668121338
1757088400626353200,3.681353271484375,0.3529624938964844,0.5033875107765198,-1.3050124645233154
1757088400635906300,3.69090625,0.24667499959468842,0.4203374981880188,-1.3050124645233154
1757088400645459500,3.70045947265625,0.16843749582767487,0.5315750241279602,-1.192674994468689
1757088400655012600,3.7100126953125,0.07315000146627426,0.6048625111579895,-1.052150011062622
1757088400664565500,3.7195654296875,0.002337499987334013,0.6439124941825867,-0.9458624720573425
1757088400674118400,3.729118408203125,-0.045375000685453415,0.7134875059127808,-0.877387523651123
1757088400683671600,3.738671630859375,-0.09418749809265137,0.7892500162124634,-0.8285750150680542
1757088400693224700,3.748224609375,-0.1662375032901764,0.8344874978065491,-0.7565249800682068
1757088400702777900,3.75777783203125,-0.21271249651908875,0.8552500009536743,-0.6624749898910522
1757088400712330800,3.767330810546875,-0.23828749358654022,0.8100125193595886,-0.5597624778747559
1757088400721884000,3.7768837890625,-0.2480500042438507,0.7416750192642212,-0.45471251010894775
1757088400731437000,3.78643701171875,-0.2297624945640564,0.6366249918937683,-0.3619000017642975
1757088400740990200,3.795990234375,-0.20652499794960022,0.5523374676704407,-0.27994999289512634
1757088400750543000,3.805543212890625,-0.18095000088214874,0.4936249852180481,-0.22384999692440033
1757088400760096000,3.815095947265625,-0.16266250610351562,0.4923875033855438,-0.1859000027179718
1757088400769649200,3.824649169921875,-0.1381874978542328,0.5559124946594238,-0.15661250054836273
1757088400779202300,3.834202392578125,-0.11247500032186508,0.6146249771118164,-0.13708749413490295
1757088400788755500,3.84375537109375,-0.08923749625682831,0.6194375157356262,-0.14561249315738678
1757088400798308400,3.853308349609375,-0.06971249729394913,0.5608624815940857,-0.1639000028371811
1757088400807861500,3.862861572265625,-0.06613750010728836,0.48138749599456787,-0.18232500553131104
1757088400817414400,3.872414306640625,-0.045375000685453415,0.40933749079704285,-0.1896124929189682
1757088400826967600,3.881967529296875,-0.00494999997317791,0.3605250120162964,-0.1835625022649765
1757088400836520400,3.8915205078125,0.01209999993443489,0.2993375062942505,-0.15908749401569366
1757088400846073600,3.901073486328125,0.02433750033378601,0.26647499203681946,-0.1358499974012375
1757088400855626800,3.910626708984375,0.028049999848008156,0.24076250195503235,-0.11508750170469284
1757088400865179600,3.9201796875,0.035337500274181366,0.2162874937057495,-0.09913749992847443
1757088400874732800,3.92973291015625,0.028049999848008156,0.18576249480247498,-0.08703749626874924
1757088400884286200,3.9392861328125,0.032862499356269836,0.16376249492168427,-0.08208750188350677
1757088400893839000,3.948839111328125,0.030387500301003456,0.1344749927520752,-0.08208750188350677
1757088400903392000,3.95839208984375,0.02433750033378601,0.10999999940395355,-0.08579999953508377
1757088400912945000,3.96794482421875,0.0193875003606081,0.07576250284910202,-0.08332499861717224
1757088400922498000,3.977498046875,0.0170499999076128,0.03423750028014183,-0.08579999953508377
1757088400932051200,3.98705126953125,0.02433750033378601,0.00013749999925494194,-0.08332499861717224
1757088400941604400,3.996604248046875,0.028049999848008156,-0.032862499356269836,-0.08208750188350677
1757088400951157200,4.0061572265625,0.02681249938905239,-0.04881250113248825,-0.08208750188350677
1757088400960710400,4.01571044921875,0.03162499889731407,-0.04386249929666519,-0.07108750194311142
1757088400970263300,4.02526318359375,0.040150001645088196,-0.037812501192092896,-0.04179999977350235
1757088400989369300,4.044369384765625,0.04633750021457672,-0.023099999874830246,0.07548750191926956
1757088400998922500,4.053922607421875,0.04262499883770943,-0.020624998956918716,0.12196250259876251
1757088401008475600,4.0634755859375,0.02681249938905239,-0.013337500393390656,0.12553749978542328
1757088401018028500,4.073028564453125,0.0035749999806284904,-0.023099999874830246,0.09019999951124191
1757088401027581700,4.082581787109375,-0.018424998968839645,-0.06228749826550484,0.049912501126527786
1757088401037134800,4.092134765625,-0.023375000804662704,-0.12815000116825104,0.04496249929070473
1757088401046688000,4.10168798828125,-0.02461249940097332,-0.17338749766349792,0.07301250100135803
1757088401056241000,4.111240966796875,-0.040424998849630356,-0.1588124930858612,0.09748750180006027
1757088401065793800,4.120793701171875,-0.07095000147819519,-0.11357499659061432,0.1097249984741211
1757088401075347000,4.130346923828125,-0.10766249895095825,-0.05486249923706055,0.12677499651908875
1757088401084900400,4.139900390625,-0.13695000112056732,-0.01952499896287918,0.15729999542236328
1757088401094453200,4.149453369140625,-0.1527625024318695,0.029424998909235,0.15729999542236328
1757088401104006100,4.159006103515625,-0.15523749589920044,0.06366249918937683,0.15001249313354492
1757088401113559300,4.168559326171875,-0.15523749589920044,0.0989999994635582,0.12072499841451645
1757088401123112400,4.178112548828125,-0.15399999916553497,0.10023749619722366,0.08648750185966492
1757088401132665300,4.187665283203125,-0.1601874977350235,0.07466249912977219,0.05596249923110008
1757088401142218500,4.197218505859375,-0.1662375032901764,0.04399999976158142,0.029012499377131462
1757088401151771400,4.206771484375,-0.17476250231266022,0.020899999886751175,0.018149999901652336
1757088401161324500,4.216324462890625,-0.17971250414848328,0.029424998909235,0.010724999941885471
1757088401170877700,4.225877685546875,-0.1845249980688095,0.047712501138448715,0.0009624999947845936
1757088401180430800,4.235430908203125,-0.17847499251365662,0.05142499879002571,-0.002749999985098839
1757088401189983700,4.244983642578125,-0.16499999165534973,0.032999999821186066,0.002199999988079071
1757088401199536600,4.25453662109375,-0.15399999916553497,0.00989999994635582,0.004674999974668026
1757088401209089800,4.26408984375,-0.13323749601840973,-0.01952499896287918,0.007149999961256981
1757088401218643000,4.273642822265625,-0.11495000123977661,-0.037812501192092896,-0.0002749999985098839
1757088401228196000,4.283196044921875,-0.10518749803304672,-0.04028749838471413,-0.008799999952316284
1757088401237749000,4.2927490234375,-0.0929500013589859,-0.035337500274181366,-0.01484999991953373
1757088401247302000,4.302302001953125,-0.07947500050067902,-0.032862499356269836,-0.02227500081062317
1757088401256855000,4.31185498046875,-0.06971249729394913,-0.0340999998152256,-0.030799999833106995
1757088401266408000,4.321407958984375,-0.059950001537799835,-0.03904999792575836,-0.03451250120997429
1757088401275961000,4.330961181640625,-0.050187498331069946,-0.045099999755620956,-0.03203750029206276
1757088401285514200,4.34051416015625,-0.03671250119805336,-0.047575000673532486,-0.02956249937415123
1757088401295067400,4.3500673828125,-0.023375000804662704,-0.04028749838471413,-0.02956249937415123
1757088401304620300,4.359620361328125,-0.012374999932944775,-0.032862499356269836,-0.030799999833106995
1757088401314173200,4.369173095703125,-0.00013749999925494194,-0.028049999848008156,-0.033275000751018524
1757088401323726300,4.378726318359375,0.009624999947845936,-0.02186249941587448,-0.040562499314546585
1757088401333279500,4.388279541015625,0.02186249941587448,-0.018287500366568565,-0.050324998795986176
1757088401342832600,4.39783251953125,0.02681249938905239,-0.02186249941587448,-0.060087498277425766
1757088401352385800,4.4073857421875,0.02914999984204769,-0.025575000792741776,-0.07108750194311142
1757088401361938400,4.4169384765625,0.035337500274181366,-0.03162499889731407,-0.08084999769926071
1757088401371491600,4.42649169921875,0.040150001645088196,-0.04152499884366989,-0.08332499861717224
1757088401381044700,4.436044677734375,0.04386249929666519,-0.03904999792575836,-0.07727500051259995
1757088401390597600,4.44559765625,0.04881250113248825,-0.025575000792741776,-0.06627500057220459
1757088401400150800,4.45515087890625,0.05486249923706055,-0.015812499448657036,-0.050324998795986176
1757088401409704000,4.464703857421875,0.05609999969601631,-0.00976249948143959,-0.03451250120997429
1757088401419256800,4.4742568359375,0.05362499877810478,0.002474999986588955,-0.023512499406933784
1757088401428810000,4.48381005859375,0.04881250113248825,0.008662499487400055,-0.01732499897480011
1757088401438363000,4.49336279296875,0.04262499883770943,0.0147124994546175,-0.01484999991953373
1757088401447916000,4.502916015625,0.035337500274181366,0.018424998968839645,-0.016087500378489494
1757088401457469200,4.51246923828125,0.02914999984204769,0.02199999988079071,-0.01484999991953373
1757088401467022000,4.52202197265625,0.020624998956918716,0.023237500339746475,-0.016087500378489494
1757088401476575200,4.5315751953125,0.014574999921023846,0.01718750037252903,-0.011274999938905239
1757088401486128000,4.541128173828125,0.010862499475479126,0.0147124994546175,-0.011274999938905239
1757088401495681500,4.550681640625,0.008387500420212746,0.01223750039935112,-0.011274999938905239
1757088401505234400,4.560234375,0.010862499475479126,0.01223750039935112,-0.011274999938905239
1757088401514787600,4.56978759765625,0.01209999993443489,0.008662499487400055,-0.011274999938905239
1757088401524340500,4.579340576171875,0.009624999947845936,0.008662499487400055,-0.0038499999791383743
1757088401533893600,4.5888935546875,0.008387500420212746,0.0037124999798834324,0.0009624999947845936
1757088401543446500,4.598446533203125,0.007287499960511923,-0.007287499960511923,0.0034374999813735485
1757088401552999700,4.607999755859375,0.0035749999806284904,-0.01209999993443489,0.004674999974668026
1757088401562552600,4.617552490234375,0.002337499987334013,-0.007287499960511923,0.004674999974668026
1757088401572105700,4.627105712890625,-0.002612499985843897,0.0012374999932944775,0.005912499967962503
1757088401581659000,4.636658935546875,-0.0013749999925494194,0.007424999959766865,0.007149999961256981
1757088401591212000,4.6462119140625,-0.0013749999925494194,0.008662499487400055,0.008249999955296516
1757088401600765000,4.655764892578125,-0.0037124999798834324,0.007424999959766865,0.007149999961256981
1757088401610317800,4.66531787109375,-0.00013749999925494194,0.006187499966472387,0.0009624999947845936
1757088401619871000,4.67487109375,0.002337499987334013,0.007424999959766865,-0.0038499999791383743
1757088401629423900,4.684423828125,0.006049999967217445,0.00013749999925494194,-0.007562499959021807
1757088401638977000,4.69397705078125,0.009624999947845936,-0.007287499960511923,-0.006324999965727329
1757088401648530200,4.7035302734375,0.013337500393390656,-0.006049999967217445,-0.0015124999918043613
1757088401658083000,4.7130830078125,0.014574999921023846,-0.002337499987334013,0.0009624999947845936
1757088401667636200,4.72263623046875,0.015812499448657036,0.00013749999925494194,0.007149999961256981
1757088401677189400,4.732189453125,0.02186249941587448,0.00013749999925494194,0.013199999928474426
1757088401686742500,4.741742431640625,0.023099999874830246,0.006187499966472387,0.01691249944269657
1757088401696295400,4.75129541015625,0.025575000792741776,0.0147124994546175,0.018149999901652336
1757088401705848300,4.760848388671875,0.028049999848008156,0.015949999913573265,0.01924999989569187
1757088401715401500,4.7704013671875,0.03162499889731407,0.018424998968839645,0.020487500354647636
1757088401724954600,4.77995458984375,0.0340999998152256,0.01718750037252903,0.021724998950958252
1757088401734507800,4.7895078125,0.03657500073313713,0.01347499992698431,0.021724998950958252
1757088401744060700,4.799060791015625,0.037812501192092896,0.008662499487400055,0.025437500327825546
1757088401753613600,4.808613525390625,0.0340999998152256,0.011137500405311584,0.025437500327825546
1757088401763166700,4.818166748046875,0.030387500301003456,0.01223750039935112,0.02419999986886978
1757088401772719900,4.827719970703125,0.030387500301003456,0.01223750039935112,0.02419999986886978
1757088401782272800,4.837272705078125,0.028049999848008156,0.01718750037252903,0.027912499383091927
1757088401791826000,4.846825927734375,0.02681249938905239,0.01966249942779541,0.03148749843239784
1757088401801378800,4.85637890625,0.02433750033378601,0.015949999913573265,0.03272499889135361
1757088401810932000,4.865931884765625,0.020624998956918716,0.01347499992698431,0.03148749843239784
1757088401820484900,4.87548486328125,0.018149999901652336,0.011137500405311584,0.02667500078678131
1757088401830038000,4.8850380859375,0.014574999921023846,0.008662499487400055,0.022962499409914017
1757088401839591200,4.894591064453125,0.009624999947845936,0.011137500405311584,0.01924999989569187
1757088401849144000,4.90414404296875,0.006049999967217445,0.011137500405311584,0.01691249944269657
1757088401858697200,4.913697265625,0.002337499987334013,0.01223750039935112,0.015675000846385956
1757088401868250000,4.92325,0.0010999999940395355,0.01223750039935112,0.011962499469518661
1757088401877803300,4.93280322265625,-0.0013749999925494194,0.008662499487400055,0.010724999941885471
1757088401887356400,4.9423564453125,-0.0037124999798834324,0.007424999959766865,0.008249999955296516
1757088401896909600,4.95190966796875,-0.00494999997317791,0.00494999997317791,0.007149999961256981
1757088401906462500,4.96146240234375,-0.006187499966472387,0.0012374999932944775,0.008249999955296516
1757088401916015400,4.971015380859375,-0.007424999959766865,-0.0010999999940395355,0.008249999955296516
1757088401925568500,4.980568603515625,-0.007424999959766865,-0.004812499973922968,0.009487500414252281
1757088401935121400,4.990121337890625,-0.007424999959766865,-0.007287499960511923,0.009487500414252281
1757088401944674800,4.9996748046875,-0.00494999997317791,-0.00976249948143959,0.005912499967962503
1757088401954227700,5.009227783203125,-0.002612499985843897,-0.01209999993443489,0.004674999974668026
1757088401963780600,5.018780517578125,-0.0013749999925494194,-0.013337500393390656,0.0034374999813735485
1757088401973333800,5.028333740234375,-0.00013749999925494194,-0.015812499448657036,0.004674999974668026
1757088401982887000,5.037886962890625,0.0010999999940395355,-0.015812499448657036,0.004674999974668026
1757088401992439800,5.047439697265625,0.0035749999806284904,-0.0170499999076128,0.004674999974668026
1757088402001993000,5.056992919921875,0.004812499973922968,-0.015812499448657036,0.004674999974668026
1757088402011545900,5.0665458984375,0.0035749999806284904,-0.015812499448657036,0.004674999974668026
1757088402021099000,5.07609912109375,0.004812499973922968,-0.018287500366568565,0.004674999974668026
1757088402030652200,5.085652099609375,0.004812499973922968,-0.01952499896287918,0.004674999974668026
1757088402040205300,5.095205322265625,0.002337499987334013,-0.020624998956918716,0.007149999961256981
1757088402049758200,5.10475830078125,0.002337499987334013,-0.02186249941587448,0.007149999961256981
1757088402059311000,5.11431103515625,0.002337499987334013,-0.020624998956918716,0.008249999955296516
1757088402068864300,5.1238642578125,0.0010999999940395355,-0.018287500366568565,0.009487500414252281
1757088402078417400,5.13341748046875,-0.00013749999925494194,-0.0170499999076128,0.010724999941885471
1757088402087970600,5.142970458984375,-0.00013749999925494194,-0.014574999921023846,0.008249999955296516
1757088402097523500,5.1525234375,-0.0013749999925494194,-0.01209999993443489,0.008249999955296516
1757088402107076400,5.162076416015625,-0.002612499985843897,-0.007287499960511923,0.007149999961256981
1757088402116629500,5.17162939453125,-0.002612499985843897,-0.0035749999806284904,0.008249999955296516
1757088402126182700,5.1811826171875,-0.00013749999925494194,-0.002337499987334013,0.007149999961256981
1757088402135735600,5.190735595703125,0.0010999999940395355,-0.0010999999940395355,0.007149999961256981
1757088402145288700,5.200288818359375,0.0035749999806284904,0.00013749999925494194,0.005912499967962503
1757088402154841900,5.209841796875,0.0035749999806284904,-0.0010999999940395355,0.0034374999813735485
1757088402164394800,5.219394775390625,0.006049999967217445,-0.002337499987334013,0.0034374999813735485
1757088402173947600,5.22894775390625,0.008387500420212746,-0.002337499987334013,0.0034374999813735485
1757088402183500500,5.23850048828125,0.008387500420212746,-0.002337499987334013,0.002199999988079071
1757088402193053700,5.2480537109375,0.008387500420212746,0.00013749999925494194,0.0034374999813735485
1757088402202606800,5.25760693359375,0.007287499960511923,0.002474999986588955,0.005912499967962503
1757088402212160000,5.267159912109375,0.007287499960511923,0.002474999986588955,0.009487500414252281
1757088402221713000,5.276712890625,0.007287499960511923,0.0037124999798834324,0.011962499469518661
1757088402231265800,5.286265869140625,0.007287499960511923,0.002474999986588955,0.011962499469518661
1757088402240819000,5.29581884765625,0.009624999947845936,-0.0010999999940395355,0.008249999955296516
1757088402250372000,5.3053720703125,0.009624999947845936,-0.002337499987334013,0.005912499967962503
1757088402259925200,5.31492529296875,0.008387500420212746,-0.0010999999940395355,0.0034374999813735485
1757088402269478100,5.32447802734375,0.007287499960511923,0.002474999986588955,0.0009624999947845936
1757088402279031000,5.334031005859375,0.002337499987334013,0.00494999997317791,0.0009624999947845936
1757088402288584200,5.343584228515625,-0.0013749999925494194,0.007424999959766865,-0.0002749999985098839
1757088402298137300,5.353137451171875,-0.015949999913573265,0.037950001657009125,0.008249999955296516
1757088402307690200,5.362690185546875,-0.015949999913573265,0.042899999767541885,0.009487500414252281
1757088402317243400,5.372243408203125,-0.013612499460577965,0.015949999913573265,0.005912499967962503
1757088402326796300,5.38179638671875,-0.012374999932944775,0.01347499992698431,0.007149999961256981
1757088402336349400,5.391349365234375,-0.012374999932944775,0.01223750039935112,0.004674999974668026
1757088402345902300,5.40090234375,-0.00989999994635582,0.006187499966472387,0.0034374999813735485
1757088402355455500,5.41045556640625,-0.008662499487400055,0.006187499966472387,0.002199999988079071
1757088402365008600,5.420008544921875,-0.008662499487400055,0.008662499487400055,0.0034374999813735485
1757088402374561800,5.429561767578125,-0.007424999959766865,0.00989999994635582,0.0034374999813735485
1757088402384114700,5.43911474609375,-0.007424999959766865,0.008662499487400055,0.0009624999947845936
1757088402393667600,5.44866748046875,-0.00494999997317791,0.007424999959766865,0.0009624999947845936
1757088402403220700,5.458220703125,-0.0037124999798834324,0.00494999997317791,-0.0002749999985098839
1757088402412773600,5.467773681640625,-0.0037124999798834324,0.0012374999932944775,-0.0015124999918043613
1757088402422326800,5.477326904296875,-0.002612499985843897,-0.0010999999940395355,-0.0015124999918043613
1757088402431879700,5.486879638671875,-0.0013749999925494194,-0.0035749999806284904,-0.0015124999918043613
1757088402441432800,5.496432861328125,-0.0013749999925494194,-0.002337499987334013,-0.0015124999918043613
1757088402450985700,5.50598583984375,-0.0013749999925494194,-0.0010999999940395355,-0.0015124999918043613
1757088402460539000,5.515538818359375,-0.00013749999925494194,0.00013749999925494194,-0.0015124999918043613
1757088402470091800,5.525091796875,0.0010999999940395355,0.0012374999932944775,-0.0015124999918043613
1757088402479645200,5.534645263671875,-0.00013749999925494194,0.0012374999932944775,-0.0015124999918043613
1757088402489198000,5.544197998046875,0.0010999999940395355,0.00013749999925494194,-0.0015124999918043613
1757088402498751000,5.5537509765625,0.0010999999940395355,-0.002337499987334013,-0.0015124999918043613
1757088402508304100,5.56330419921875,-0.00013749999925494194,0.00013749999925494194,-0.0015124999918043613
1757088402517857300,5.572857177734375,-0.00013749999925494194,0.00013749999925494194,-0.0015124999918043613
1757088402527410200,5.58241015625,-0.0013749999925494194,0.0012374999932944775,-0.0002749999985098839
1757088402536963300,5.59196337890625,-0.002612499985843897,0.0012374999932944775,-0.0015124999918043613
1757088402546516200,5.60151611328125,-0.002612499985843897,0.002474999986588955,-0.002749999985098839
1757088402556069400,5.6110693359375,-0.002612499985843897,0.0012374999932944775,-0.002749999985098839
1757088402565622300,5.620622314453125,-0.002612499985843897,0.0012374999932944775,-0.0038499999791383743
1757088402575175400,5.630175537109375,-0.002612499985843897,0.0012374999932944775,-0.0038499999791383743
1757088402584728600,5.639728515625,-0.0013749999925494194,0.0012374999932944775,-0.002749999985098839
1757088402594281500,5.649281494140625,-0.0013749999925494194,0.0012374999932944775,-0.002749999985098839
1757088402603834400,5.65883447265625,-0.0013749999925494194,0.0012374999932944775,-0.002749999985098839
1757088402613387500,5.668387451171875,-0.0013749999925494194,0.002474999986588955,-0.002749999985098839
1757088402622940700,5.677940673828125,-0.00013749999925494194,0.002474999986588955,-0.002749999985098839
1757088402632493600,5.68749365234375,-0.00013749999925494194,0.002474999986588955,-0.002749999985098839
1757088402642046700,5.697046630859375,-0.00013749999925494194,0.002474999986588955,-0.0015124999918043613
1757088402651599600,5.706599609375,0.0010999999940395355,0.0012374999932944775,-0.0002749999985098839
1757088402661152800,5.71615283203125,0.0010999999940395355,0.0012374999932944775,0.0009624999947845936
1757088402670706000,5.725705810546875,0.0010999999940395355,0.0012374999932944775,0.0009624999947845936
1757088402680258800,5.7352587890625,0.0010999999940395355,0.0012374999932944775,0.0009624999947845936
1757088402689812000,5.74481201171875,0.0010999999940395355,0.0012374999932944775,-0.0002749999985098839
1757088402699364900,5.75436474609375,0.0010999999940395355,0.002474999986588955,-0.0015124999918043613
1757088402708917800,5.763917724609375,-0.00013749999925494194,0.00013749999925494194,-0.0015124999918043613
1757088402718471000,5.773470947265625,0.0010999999940395355,0.00013749999925494194,-0.002749999985098839
1757088402728024000,5.783024169921875,-0.00013749999925494194,0.00013749999925494194,-0.0015124999918043613
1757088402737577200,5.7925771484375,-0.00013749999925494194,0.00013749999925494194,-0.0015124999918043613
1757088402747130000,5.802130126953125,-0.00013749999925494194,-0.0010999999940395355,-0.0015124999918043613
1757088402756683000,5.81168310546875,-0.00013749999925494194,-0.0010999999940395355,-0.0015124999918043613
1757088402766236200,5.821236083984375,-0.00013749999925494194,0.00013749999925494194,-0.0015124999918043613
1757088402775789300,5.830789306640625,-0.00013749999925494194,0.00013749999925494194,-0.0015124999918043613
1757088402785342200,5.84034228515625,-0.0013749999925494194,0.00013749999925494194,-0.0015124999918043613
1757088402794895400,5.849895263671875,-0.00013749999925494194,0.00013749999925494194,-0.0015124999918043613
1757088402804448300,5.8594482421875,-0.00013749999925494194,0.0012374999932944775,-0.0015124999918043613
1757088402814001700,5.869001708984375,-0.0013749999925494194,0.00013749999925494194,-0.0015124999918043613
1757088402823554600,5.878554443359375,-0.002612499985843897,0.00013749999925494194,-0.0015124999918043613
1757088402833107500,5.888107421875,-0.002612499985843897,0.00013749999925494194,-0.0015124999918043613
1757088402842660600,5.89766064453125,-0.002612499985843897,0.00013749999925494194,-0.0002749999985098839
1757088402852213800,5.9072138671875,-0.002612499985843897,0.00013749999925494194,-0.0002749999985098839
1757088402861766400,5.916766357421875,-0.0013749999925494194,0.00013749999925494194,-0.0015124999918043613
1757088402871319800,5.92631982421875,-0.0013749999925494194,0.00013749999925494194,-0.0015124999918043613
1757088402880872700,5.935872802734375,-0.0013749999925494194,0.0012374999932944775,-0.0015124999918043613
1757088402890425900,5.94542578125,-0.00013749999925494194,0.0012374999932944775,-0.0002749999985098839
1757088402899978800,5.954978759765625,-0.00013749999925494194,0.00013749999925494194,0.0009624999947845936
1757088402909531600,5.96453173828125,0.0010999999940395355,-0.0010999999940395355,0.0009624999947845936
1757088402919085000,5.9740849609375,0.0010999999940395355,-0.0010999999940395355,0.002199999988079071
1757088402928638000,5.983637939453125,-0.00013749999925494194,-0.0010999999940395355,0.002199999988079071
1757088402938191000,5.993191162109375,-0.00013749999925494194,0.0012374999932944775,0.0009624999947845936
1757088402947744000,6.002743896484375,-0.00013749999925494194,0.002474999986588955,-0.0002749999985098839
1757088402957297000,6.012296875,-0.00013749999925494194,0.0037124999798834324,-0.0015124999918043613
1757088402966850000,6.02185009765625,-0.0013749999925494194,0.0037124999798834324,-0.002749999985098839
1757088402976403000,6.03140283203125,0.0010999999940395355,0.0012374999932944775,-0.0015124999918043613
1757088402985956000,6.0409560546875,0.0010999999940395355,-0.0010999999940395355,-0.0002749999985098839
1757088402995509200,6.05050927734375,0.0010999999940395355,-0.0035749999806284904,0.002199999988079071
1757088403005062100,6.060062255859375,-0.00013749999925494194,-0.0035749999806284904,0.002199999988079071
1757088403014615300,6.069615234375,-0.0013749999925494194,0.00013749999925494194,0.0034374999813735485
1757088403024168200,6.079168212890625,-0.002612499985843897,0.002474999986588955,0.0034374999813735485
1757088403033721300,6.088721435546875,-0.0037124999798834324,0.00494999997317791,0.002199999988079071
1757088403043274500,6.0982744140625,-0.002612499985843897,0.00494999997317791,0.002199999988079071
1757088403052827400,6.107827392578125,-0.00494999997317791,0.0037124999798834324,0.0009624999947845936
1757088403062380300,6.11738037109375,-0.00494999997317791,0.002474999986588955,-0.0015124999918043613
1757088403071933400,6.126933349609375,-0.00494999997317791,0.00013749999925494194,-0.0015124999918043613
1757088403081486300,6.136486328125,-0.002612499985843897,0.00013749999925494194,-0.0002749999985098839
1757088403091039500,6.14603955078125,-0.002612499985843897,0.00013749999925494194,-0.0002749999985098839
1757088403100592600,6.155592529296875,-0.0013749999925494194,0.0012374999932944775,0.0009624999947845936
1757088403110145500,6.1651455078125,-0.00013749999925494194,0.0012374999932944775,0.0009624999947845936
1757088403119698700,6.17469873046875,-0.00013749999925494194,0.0012374999932944775,-0.0002749999985098839
1757088403129251600,6.18425146484375,-0.00013749999925494194,0.0012374999932944775,-0.0015124999918043613
1757088403138804700,6.1938046875,-0.00013749999925494194,0.0012374999932944775,-0.0015124999918043613
1757088403148357600,6.203357666015625,-0.00013749999925494194,-0.0010999999940395355,-0.0002749999985098839
1757088403157910800,6.212910888671875,-0.00013749999925494194,-0.002337499987334013,-0.0015124999918043613
1757088403167463700,6.222463623046875,-0.00013749999925494194,-0.0035749999806284904,-0.0015124999918043613
1757088403177016800,6.232016845703125,-0.00013749999925494194,-0.0010999999940395355,-0.0015124999918043613
1757088403186570000,6.241570068359375,-0.0013749999925494194,0.00013749999925494194,-0.0002749999985098839
1757088403196123000,6.251122802734375,-0.00013749999925494194,0.0012374999932944775,0.0009624999947845936
1757088403205676000,6.260676025390625,-0.002612499985843897,0.0012374999932944775,0.0009624999947845936
1757088403215229000,6.27022900390625,-0.0013749999925494194,0.002474999986588955,-0.0002749999985098839
1757088403224781800,6.27978173828125,-0.002612499985843897,0.0012374999932944775,-0.002749999985098839
1757088403234335200,6.289335205078125,-0.002612499985843897,0.00013749999925494194,-0.0015124999918043613
1757088403243888000,6.29888818359375,-0.0013749999925494194,-0.0010999999940395355,-0.0015124999918043613
1757088403253441300,6.308441162109375,-0.0013749999925494194,-0.0010999999940395355,-0.0002749999985098839
1757088403262994200,6.317994140625,-0.0013749999925494194,-0.002337499987334013,0.002199999988079071
1757088403272547000,6.327547119140625,-0.0013749999925494194,0.00013749999925494194,0.0009624999947845936
1757088403282100200,6.337100341796875,-0.002612499985843897,0.0037124999798834324,0.0009624999947845936
1757088403291653400,6.3466533203125,-0.002612499985843897,0.00494999997317791,-0.0002749999985098839
1757088403301206300,6.356206298828125,-0.0037124999798834324,0.006187499966472387,-0.0002749999985098839
1757088403310759400,6.365759521484375,-0.0037124999798834324,0.006187499966472387,-0.002749999985098839
1757088403320312300,6.375312255859375,-0.00494999997317791,0.00494999997317791,-0.0038499999791383743
1757088403329865200,6.384865234375,-0.0037124999798834324,0.00494999997317791,-0.005087499972432852
1757088403339418400,6.39441845703125,-0.002612499985843897,0.002474999986588955,-0.0038499999791383743
1757088403348971300,6.40397119140625,-0.0037124999798834324,0.002474999986588955,-0.002749999985098839
1757088403358524400,6.4135244140625,-0.002612499985843897,0.002474999986588955,-0.002749999985098839
1757088403368077600,6.42307763671875,-0.0037124999798834324,0.002474999986588955,-0.0015124999918043613
1757088403377630500,6.43263037109375,-0.0013749999925494194,0.002474999986588955,-0.0015124999918043613
1757088403387183600,6.44218359375,-0.00013749999925494194,0.00013749999925494194,-0.0002749999985098839
1757088403396736500,6.451736572265625,-0.00013749999925494194,-0.002337499987334013,-0.0015124999918043613
1757088403406289400,6.461289306640625,0.0010999999940395355,-0.004812499973922968,-0.0015124999918043613
1757088403415842600,6.470842529296875,0.0010999999940395355,-0.007287499960511923,-0.002749999985098839
1757088403425395700,6.480395751953125,0.0010999999940395355,-0.0085249999538064,-0.0038499999791383743
1757088403434948600,6.489948486328125,-0.00013749999925494194,-0.0085249999538064,-0.0038499999791383743
1757088403444501800,6.499501708984375,0.002337499987334013,-0.0085249999538064,-0.002749999985098839
1757088403454054700,6.5090546875,0.0010999999940395355,-0.007287499960511923,-0.002749999985098839
1757088403463607800,6.51860791015625,0.0010999999940395355,-0.007287499960511923,-0.0038499999791383743
1757088403473161000,6.528160888671875,0.0010999999940395355,-0.006049999967217445,-0.005087499972432852
1757088403482713900,6.5377138671875,-0.00013749999925494194,-0.006049999967217445,-0.008799999952316284
1757088403492266800,6.547266845703125,0.0010999999940395355,-0.0085249999538064,-0.011274999938905239
1757088403501820000,6.55681982421875,0.0010999999940395355,-0.020624998956918716,-0.013612499460577965
1757088403511373000,6.566373046875,-0.002612499985843897,-0.035337500274181366,-0.023512499406933784
1757088403520926000,6.575926025390625,-0.007424999959766865,-0.028049999848008156,-0.021037500351667404
1757088403530479000,6.58547900390625,-0.008662499487400055,-0.0085249999538064,-0.018562499433755875
1757088403540032000,6.595031982421875,-0.006187499966472387,0.002474999986588955,-0.016087500378489494
1757088403549585200,6.604585205078125,-0.002612499985843897,0.002474999986588955,-0.016087500378489494
1757088403559138000,6.614137939453125,-0.0037124999798834324,0.011137500405311584,-0.01732499897480011
1757088403568691200,6.623691162109375,-0.00494999997317791,0.00494999997317791,-0.021037500351667404
1757088403578244400,6.633244384765625,-0.008662499487400055,-0.006049999967217445,-0.02461249940097332
1757088403587797200,6.64279736328125,-0.008662499487400055,0.0037124999798834324,-0.02227500081062317
1757088403597350100,6.65235009765625,-0.007424999959766865,-0.013337500393390656,-0.023512499406933784
1757088403606903300,6.6619033203125,-0.00989999994635582,-0.01952499896287918,-0.02461249940097332
1757088403616456400,6.67145654296875,-0.00989999994635582,-0.00976249948143959,-0.018562499433755875
1757088403626009300,6.68100927734375,-0.008662499487400055,-0.0170499999076128,-0.01732499897480011
1757088403635562500,6.6905625,-0.013612499460577965,-0.018287500366568565,-0.01251249946653843
1757088403645115400,6.700115478515625,-0.0147124994546175,-0.0035749999806284904,-0.007562499959021807
1757088403654668500,6.70966845703125,-0.013612499460577965,-0.002337499987334013,-0.0002749999985098839
1757088403664221400,6.719221435546875,-0.011137500405311584,-0.0035749999806284904,0.002199999988079071
1757088403673774300,6.7287744140625,-0.006187499966472387,-0.0085249999538064,0.004674999974668026
1757088403683327500,6.738327392578125,-0.006187499966472387,-0.007287499960511923,0.007149999961256981
1757088403692880600,6.747880615234375,-0.007424999959766865,-0.006049999967217445,0.008249999955296516
1757088403702433500,6.75743359375,-0.007424999959766865,-0.0035749999806284904,0.009487500414252281
1757088403711986400,6.766986328125,-0.006187499966472387,0.0012374999932944775,0.008249999955296516
1757088403721539600,6.77653955078125,-0.00494999997317791,0.002474999986588955,0.007149999961256981
1757088403731092700,6.7860927734375,-0.0013749999925494194,0.002474999986588955,0.007149999961256981
1757088403740645600,6.795645751953125,0.002337499987334013,0.00013749999925494194,0.007149999961256981
1757088403750198800,6.80519873046875,0.006049999967217445,0.0012374999932944775,0.005912499967962503
1757088403759751700,6.814751708984375,0.009624999947845936,0.0012374999932944775,0.002199999988079071
1757088403769304600,6.8243046875,0.01209999993443489,0.0037124999798834324,0.0009624999947845936
1757088403778857700,6.833857666015625,0.01209999993443489,0.006187499966472387,-0.0002749999985098839
1757088403788411000,6.843410888671875,0.010862499475479126,0.011137500405311584,-0.0002749999985098839
1757088403797963800,6.8529638671875,0.007287499960511923,0.0147124994546175,-0.0002749999985098839
1757088403807517000,6.862516845703125,0.002337499987334013,0.01966249942779541,0.002199999988079071
1757088403817069800,6.87206982421875,-0.00013749999925494194,0.01966249942779541,-0.0002749999985098839
1757088403826623000,6.881623046875,-0.002612499985843897,0.018424998968839645,-0.0015124999918043613
1757088403836176000,6.89117578125,-0.00494999997317791,0.015949999913573265,-0.0038499999791383743
1757088403845729000,6.90072900390625,-0.00494999997317791,0.0147124994546175,-0.006324999965727329
1757088403855282000,6.910281982421875,-0.002612499985843897,0.00989999994635582,-0.008799999952316284
1757088403864835300,6.91983544921875,0.0010999999940395355,0.00013749999925494194,-0.010037500411272049
1757088403874388200,6.92938818359375,0.0010999999940395355,0.0012374999932944775,-0.010037500411272049
1757088403883941000,6.938941162109375,0.0010999999940395355,0.002474999986588955,-0.010037500411272049
1757088403893494300,6.948494384765625,0.0010999999940395355,0.0037124999798834324,-0.008799999952316284
1757088403903047200,6.958047119140625,-0.00013749999925494194,0.006187499966472387,-0.0038499999791383743
1757088403912600300,6.967600341796875,-0.002612499985843897,0.007424999959766865,-0.0015124999918043613
1757088403922153200,6.9771533203125,-0.0037124999798834324,0.006187499966472387,-0.005087499972432852
1757088403931706000,6.9867060546875,-0.006187499966472387,0.0037124999798834324,-0.007562499959021807
1757088403941259300,6.99625927734375,-0.006187499966472387,0.002474999986588955,-0.008799999952316284
1757088403950812400,7.0058125,-0.006187499966472387,0.00013749999925494194,-0.010037500411272049
1757088403960365300,7.015365234375,-0.006187499966472387,0.002474999986588955,-0.010037500411272049
1757088403969918500,7.02491845703125,-0.006187499966472387,0.002474999986588955,-0.008799999952316284
1757088403979471400,7.034471435546875,-0.006187499966472387,0.0037124999798834324,-0.008799999952316284
1757088403989024300,7.044024169921875,-0.006187499966472387,0.00494999997317791,-0.008799999952316284
1757088403998577400,7.053577392578125,-0.006187499966472387,0.00494999997317791,-0.010037500411272049
1757088404008130300,7.06313037109375,-0.006187499966472387,0.0037124999798834324,-0.01251249946653843
1757088404017683500,7.072683349609375,-0.008662499487400055,0.0037124999798834324,-0.01251249946653843
1757088404027236600,7.082236572265625,-0.008662499487400055,0.0037124999798834324,-0.011274999938905239
1757088404036789500,7.09178955078125,-0.008662499487400055,0.0012374999932944775,-0.010037500411272049
1757088404046342700,7.1013427734375,-0.007424999959766865,-0.0010999999940395355,-0.005087499972432852
1757088404055895600,7.1108955078125,-0.006187499966472387,0.00013749999925494194,-0.002749999985098839
1757088404065448700,7.12044873046875,-0.006187499966472387,0.0012374999932944775,-0.0015124999918043613
1757088404075001600,7.130001708984375,-0.0037124999798834324,-0.0010999999940395355,0.0009624999947845936
1757088404084554800,7.1395546875,-0.002612499985843897,-0.002337499987334013,0.0009624999947845936
1757088404094107600,7.149107666015625,-0.002612499985843897,-0.002337499987334013,0.0009624999947845936
1757088404103660500,7.15866064453125,-0.0013749999925494194,-0.002337499987334013,0.0009624999947845936
1757088404113213700,7.168213623046875,-0.0013749999925494194,-0.0010999999940395355,0.002199999988079071
1757088404122766800,7.177766845703125,-0.00013749999925494194,-0.0010999999940395355,0.0009624999947845936
1757088404132320000,7.187320068359375,0.0010999999940395355,-0.0010999999940395355,0.002199999988079071
1757088404141873000,7.196872802734375,0.0035749999806284904,-0.0010999999940395355,-0.0002749999985098839
1757088404151425800,7.20642578125,0.004812499973922968,-0.0010999999940395355,-0.0015124999918043613
1757088404160978700,7.215978759765625,0.010862499475479126,0.006187499966472387,-0.016087500378489494
1757088404170531800,7.22553173828125,0.007287499960511923,0.00494999997317791,-0.01979999989271164
1757088404180085000,7.2350849609375,0.0035749999806284904,0.00494999997317791,-0.021037500351667404
1757088404189638000,7.244637939453125,0.006049999967217445,0.0012374999932944775,-0.016087500378489494
1757088404199191000,7.25419091796875,0.004812499973922968,-0.0010999999940395355,-0.011274999938905239
1757088404208744000,7.263743896484375,0.02914999984204769,-0.006049999967217445,-0.006324999965727329
1757088404218296800,7.273296875,0.028049999848008156,-0.0035749999806284904,-0.007562499959021807
1757088404227850000,7.28285009765625,0.02681249938905239,-0.0010999999940395355,-0.01484999991953373
1757088404237403100,7.292403076171875,0.025575000792741776,-0.007287499960511923,-0.018562499433755875
1757088404246956000,7.3019560546875,0.015812499448657036,-0.002337499987334013,-0.018562499433755875
1757088404256509200,7.31150927734375,0.010862499475479126,-0.0035749999806284904,-0.013612499460577965
1757088404266062000,7.32106201171875,0.0010999999940395355,-0.006049999967217445,-0.005087499972432852
1757088404275615200,7.330615234375,-0.015949999913573265,-0.010862499475479126,0.008249999955296516
1757088404285168000,7.340168212890625,-0.029424998909235,-0.030524998903274536,0.029012499377131462
1757088404294721300,7.34972119140625,-0.02694999985396862,-0.02681249938905239,0.029012499377131462
1757088404304274400,7.3592744140625,-0.029424998909235,-0.02433750033378601,0.022962499409914017
1757088404313827300,7.368827392578125,0.05486249923706055,-0.01952499896287918,-0.02708750031888485
1757088404323380200,7.378380126953125,-0.0013749999925494194,0.01718750037252903,-0.007562499959021807
1757088404332933000,7.38793310546875,-0.007424999959766865,0.047712501138448715,-0.01251249946653843
1757088404342486000,7.397486083984375,0.008387500420212746,-0.02681249938905239,-0.01251249946653843
1757088404352039400,7.407039306640625,-0.018424998968839645,0.00989999994635582,0.002199999988079071
1757088404361592300,7.41659228515625,-0.008662499487400055,-0.013337500393390656,0.005912499967962503
1757088404371145500,7.4261455078125,-0.00989999994635582,-0.028049999848008156,-0.0002749999985098839
1757088404380698400,7.435698486328125,-0.013612499460577965,-0.01952499896287918,-0.005087499972432852
1757088404390251300,7.445251220703125,-0.013612499460577965,-0.014574999921023846,-0.002749999985098839
1757088404399804400,7.454804443359375,-0.00989999994635582,-0.00976249948143959,0.002199999988079071
1757088404409357600,7.464357666015625,-0.006187499966472387,0.0012374999932944775,0.005912499967962503
1757088404418910500,7.473910400390625,-0.008662499487400055,0.007424999959766865,0.010724999941885471
1757088404428463600,7.483463623046875,-0.00989999994635582,0.006187499966472387,0.009487500414252281
1757088404438016500,7.4930166015625,-0.018424998968839645,0.002474999986588955,0.008249999955296516
1757088404447569700,7.502569580078125,-0.018424998968839645,-0.0010999999940395355,0.0009624999947845936
1757088404457122800,7.512122802734375,-0.012374999932944775,-0.0035749999806284904,-0.002749999985098839
1757088404466675700,7.52167578125,-0.00494999997317791,0.002474999986588955,-0.007562499959021807
1757088404476228600,7.531228515625,-0.0037124999798834324,0.008662499487400055,-0.013612499460577965
1757088404485781800,7.54078173828125,0.0035749999806284904,-0.007287499960511923,-0.011274999938905239
1757088404495334700,7.550334716796875,0.007287499960511923,-0.002337499987334013,-0.0015124999918043613
1757088404504887800,7.5598876953125,0.004812499973922968,0.007424999959766865,0.005912499967962503
1757088404514441000,7.56944091796875,0.010862499475479126,0.015949999913573265,0.0009624999947845936
1757088404523993900,7.578993896484375,0.010862499475479126,0.01223750039935112,-0.007562499959021807
1757088404533546800,7.588546630859375,0.013337500393390656,0.00989999994635582,-0.013612499460577965
1757088404543099600,7.598099609375,0.01209999993443489,0.007424999959766865,-0.016087500378489494
1757088404552652800,7.60765283203125,0.008387500420212746,0.007424999959766865,-0.01484999991953373
1757088404562206000,7.6172060546875,0.009624999947845936,0.002474999986588955,-0.01251249946653843
1757088404571758800,7.6267587890625,0.0170499999076128,-0.007287499960511923,-0.01732499897480011
1757088404581312000,7.63631201171875,0.02914999984204769,-0.020624998956918716,-0.02227500081062317
1757088404590865000,7.645864990234375,0.030387500301003456,-0.020624998956918716,-0.023512499406933784
1757088404600417800,7.655417724609375,0.025575000792741776,-0.020624998956918716,-0.018562499433755875
1757088404609971000,7.664970947265625,0.0193875003606081,-0.013337500393390656,-0.010037500411272049
1757088404619524000,7.674524169921875,0.01209999993443489,-0.007287499960511923,-0.0038499999791383743
1757088404629077000,7.684076904296875,-0.00013749999925494194,-0.004812499973922968,0.002199999988079071
1757088404638630100,7.693630126953125,-0.013612499460577965,-0.006049999967217445,0.005912499967962503
1757088404648183000,7.70318310546875,-0.013612499460577965,-0.004812499973922968,0.002199999988079071
1757088404657736200,7.712736083984375,-0.007424999959766865,-0.02928750030696392,-0.002749999985098839
1757088404667289000,7.7222890625,-0.0013749999925494194,-0.020624998956918716,-0.008799999952316284
1757088404676842200,7.73184228515625,-0.00013749999925494194,-0.015812499448657036,-0.01484999991953373
1757088404686395100,7.74139501953125,-0.008662499487400055,-0.0170499999076128,-0.0038499999791383743
1757088404695948300,7.7509482421875,-0.01718750037252903,-0.013337500393390656,0.013199999928474426
1757088404705501200,7.760501220703125,-0.02213750034570694,-0.0035749999806284904,0.021724998950958252
1757088404715054000,7.77005419921875,-0.025712499395012856,-0.0010999999940395355,0.020487500354647636
1757088404724607200,7.779607177734375,-0.030662499368190765,-0.007287499960511923,0.021724998950958252
1757088404734160100,7.78916015625,-0.029424998909235,-0.020624998956918716,0.027912499383091927
1757088404743713300,7.79871337890625,-0.02694999985396862,-0.028049999848008156,0.04001250118017197
1757088404753266400,7.808266357421875,-0.025712499395012856,-0.02186249941587448,0.04743750020861626
1757088404762819300,7.8178193359375,-0.023375000804662704,-0.006049999967217445,0.04743750020861626
1757088404772372200,7.827372314453125,-0.01966249942779541,0.0037124999798834324,0.04372499883174896
1757088404781925400,7.83692529296875,-0.0147124994546175,0.006187499966472387,0.03519999980926514
1757088404791478500,7.846478515625,-0.007424999959766865,0.01223750039935112,0.02419999986886978
1757088404801031400,7.856031494140625,-0.006187499966472387,0.0147124994546175,0.01691249944269657
1757088404810584300,7.865584228515625,-0.01718750037252903,0.02199999988079071,0.01924999989569187
1757088404820137500,7.875137451171875,-0.04647500067949295,0.03671250119805336,0.037675000727176666
1757088404829690600,7.884690673828125,-0.06613750010728836,0.05623750016093254,0.07919999957084656
1757088404839243500,7.894243408203125,-0.07590000331401825,0.04647500067949295,0.09624999761581421
1757088404848796700,7.903796630859375,-0.10889999568462372,0.062424998730421066,0.09501250088214874
1757088404858349600,7.913349609375,-0.13695000112056732,0.08799999952316284,0.09019999951124191
1757088404867902500,7.92290234375,-0.17723749577999115,0.11123749613761902,0.08772499859333038
1757088404877455600,7.93245556640625,-0.201712504029274,0.09047500044107437,0.08524999767541885
1757088404887008800,7.9420087890625,-0.17723749577999115,0.08071249723434448,0.07919999957084656
1757088404896561700,7.951561767578125,-0.16747500002384186,0.06476250290870667,0.06696250289678574
1757088404906114800,7.96111474609375,-0.20652499794960022,0.10023749619722366,0.06324999779462814
1757088404915667700,7.970667724609375,-0.28476250171661377,0.15771250426769257,0.07067500054836273
1757088404925220600,7.980220703125,-0.3910500109195709,0.1919499933719635,0.08167500048875809
1757088404934773800,7.989773681640625,-0.5010499954223633,0.18576249480247498,0.09624999761581421
1757088404944327000,7.999326904296875,-0.5608624815940857,0.1344749927520752,0.08043749630451202
1757088404963432700,8.0184326171875,-0.6830999851226807,0.10752499848604202,0.018149999901652336
1757088404972985900,8.02798583984375,-0.7893875241279602,0.16499999165534973,0.01924999989569187
1757088404982539000,8.0375390625,-0.7856749892234802,0.16499999165534973,0.018149999901652336
1757088404992092000,8.047091796875,-0.7734375,0.1882375031709671,0.011962499469518661
1757088405001645000,8.05664501953125,-0.8113874793052673,0.18205000460147858,-0.007562499959021807
1757088405011198000,8.066197998046874,-0.8650124669075012,0.1845249980688095,-0.007562499959021807
1757088405020750800,8.075750732421875,-0.9176750183105469,0.17847499251365662,-0.01251249946653843
1757088405030304000,8.085303955078125,-0.9127249717712402,0.12099999934434891,-0.033275000751018524
1757088405039857000,8.09485693359375,-0.829675018787384,0.1564749926328659,-0.02956249937415123
1757088405049410000,8.10441015625,-0.7404375076293945,0.12099999934434891,-0.03203750029206276
1757088405058963200,8.113963134765624,-0.7123875021934509,0.15152500569820404,-0.006324999965727329
1757088405068516000,8.12351611328125,-0.7746750116348267,0.2750000059604645,0.04001250118017197
1757088405078069000,8.133069091796875,-0.895675003528595,0.39957499504089355,0.07067500054836273
1757088405087622000,8.142621826171874,-0.9249625205993652,0.45210000872612,0.05348749831318855
1757088405097175000,8.152175048828125,-0.8284375071525574,0.32133749127388,0.004674999974668026
1757088405106728200,8.161728271484375,-0.6646749973297119,0.10023749619722366,-0.040562499314546585
1757088405116281000,8.171281005859376,-0.49857500195503235,0.007424999959766865,-0.052799999713897705
1757088405125834200,8.180834228515625,-0.32628750801086426,0.07342500239610672,-0.025849999859929085
1757088405135387100,8.19038720703125,-0.22123749554157257,0.19923749566078186,0.03148749843239784
1757088405144940300,8.199940185546875,-0.18700000643730164,0.23828749358654022,0.08896250277757645
1757088405154493200,8.2094931640625,-0.22852499783039093,0.3372874855995178,0.08524999767541885
1757088405164046000,8.219046142578126,-0.055137500166893005,1.2535874843597412,-0.3068999946117401
1757088405173599200,8.22859912109375,0.0340999998152256,1.700737476348877,-0.34595000743865967
1757088405183152000,8.238152099609374,-0.02461249940097332,1.0800625085830688,-0.13461250066757202
1757088405192705300,8.247705322265626,0.0035749999806284904,0.49857500195503235,0.025437500327825546
1757088405202258200,8.257258056640625,0.09515000134706497,0.16376249492168427,0.11219999939203262
1757088405211811300,8.266811279296874,0.2209624946117401,0.24199999868869781,0.17448750138282776
1757088405221364200,8.2763642578125,0.34443750977516174,0.31033748388290405,0.258774995803833
1757088405230917000,8.285917236328125,0.1293874979019165,-0.1293874979019165,0.38830000162124634
1757088405240470300,8.29547021484375,-0.2639999985694885,-0.42625001072883606,0.4468750059604645
1757088405250023400,8.3050234375,-0.5010499954223633,-0.3493874967098236,0.2685374915599823
1757088405259576300,8.314576416015624,-0.590149998664856,-0.15262499451637268,0.021724998950958252
1757088405269129200,8.324129150390625,-0.5461499691009521,0.03189999982714653,-0.1541374921798706
1757088405278682000,8.33368212890625,-0.45086249709129333,0.00989999994635582,-0.24213749170303345
1757088405288235300,8.3432353515625,-0.305525004863739,-0.18438750505447388,-0.36547499895095825
1757088405297788200,8.3527880859375,-0.1699499934911728,-0.2283875048160553,-0.4339500069618225
1757088405307341300,8.36234130859375,-0.037950001657009125,-0.1905750036239624,-0.3764750063419342
1757088405316894500,8.37189453125,0.13433749973773956,0.2162874937057495,-0.5622375011444092
1757088405326447400,8.381447265625,0.17710000276565552,0.35557499527931213,-0.6342874765396118
1757088405336000300,8.391000244140624,0.0719124972820282,-0.7976375222206116,-0.20308749377727509
1757088405345553400,8.400553466796875,0.05362499877810478,-1.8666999340057373,-0.006324999965727329
1757088405355106300,8.410106201171875,0.10862500220537186,-1.7786999940872192,0.03519999980926514
1757088405364659500,8.419659423828126,0.06710000336170197,-0.9138249754905701,0.030249999836087227
1757088405374212600,8.429212646484375,0.0695749968290329,-0.1905750036239624,-0.03684999793767929
1757088405383765500,8.438765625,0.062150001525878906,0.21271249651908875,-0.02708750031888485
1757088405393318400,8.448318359375,0.0719124972820282,0.2480500042438507,0.06091250106692314
1757088405402871300,8.457871337890625,0.12691250443458557,0.1919499933719635,0.13529999554157257
1757088405412424700,8.4674248046875,0.12443749606609344,0.17476250231266022,0.15496249496936798
1757088405421977600,8.4769775390625,0.12209999561309814,0.10147500038146973,0.09748750180006027
1757088405431530500,8.486530517578124,0.09157499670982361,0.09542500227689743,0.07177499681711197
1757088405441083600,8.496083740234376,0.07081250101327896,0.0989999994635582,0.06943749636411667
1757088405450636500,8.505636474609375,0.170912504196167,0.028187500312924385,0.05596249923110008
1757088405460189400,8.515189453125,0.1551000028848648,0.10876250267028809,0.09748750180006027
1757088405469742600,8.52474267578125,0.11715000122785568,0.09652499854564667,0.09872499853372574
1757088405479295500,8.53429541015625,0.12443749606609344,0.10876250267028809,0.07672499865293503
1757088405488848600,8.5438486328125,0.11838749796152115,0.14300000667572021,0.06696250289678574
1757088405498401500,8.553401611328125,0.11591249704360962,0.1344749927520752,0.07672499865293503
1757088405507954700,8.56295458984375,0.07933750003576279,-0.02186249941587448,0.0364375002682209
1757088405517507600,8.572507568359375,-0.00989999994635582,-0.1013374999165535,-0.010037500411272049
1757088405527060700,8.582060791015625,-0.07947500050067902,-0.16362500190734863,-0.07727500051259995
1757088405536614000,8.59161376953125,-0.08689999580383301,-0.12086249887943268,-0.09679999947547913
1757088405546166800,8.601166748046875,-0.10147500038146973,-0.09281250089406967,-0.07356250286102295
1757088405555719700,8.6107197265625,-0.11247500032186508,-0.057337500154972076,-0.023512499406933784
1757088405565272600,8.6202724609375,-0.10766249895095825,-0.07686249911785126,0.002199999988079071
1757088405574825700,8.62982568359375,-0.12099999934434891,-0.11604999750852585,-0.0015124999918043613
1757088405584379000,8.63937890625,-0.1821874976158142,-0.202674999833107,-0.060087498277425766
1757088405593931800,8.648931884765625,-0.25671249628067017,-0.4031499922275543,-0.1541374921798706
1757088405603485000,8.65848486328125,-0.31652501225471497,-0.48867499828338623,-0.1896124929189682
1757088405613037800,8.668037841796876,-0.4105750024318695,-0.4959625005722046,-0.16032500565052032
1757088405622590700,8.6775908203125,-0.5841000080108643,-0.49953749775886536,-0.07837499678134918
1757088405632144000,8.687143798828124,-0.6671500205993652,-0.4006749987602234,0.021724998950958252
1757088405641696800,8.69669677734375,-0.6733375191688538,-0.2186249941587448,0.12072499841451645
1757088405651249700,8.706249755859375,-0.7246249914169312,0.08442500233650208,0.2012999951839447
1757088405660802800,8.715802734375,-0.8674874901771545,0.3433375060558319,0.22577500343322754
1757088405670356000,8.72535595703125,-1.0580625534057617,0.6023874878883362,0.20377500355243683
1757088405679908900,8.734908935546875,-1.1558250188827515,0.8089125156402588,0.18301250040531158
1757088405689462000,8.7444619140625,-1.0922999382019043,0.7123875021934509,0.2012999951839447
1757088405699015200,8.75401513671875,-1.0740125179290771,0.5009124875068665,0.2745875120162964
1757088405708568000,8.763568115234374,-1.1545875072479248,0.4496249854564667,0.35282498598098755
1757088405718121000,8.773120849609375,-1.2071125507354736,0.5461499691009521,0.4433000087738037
1757088405727673900,8.782673828125,-1.1753499507904053,0.6488624811172485,0.4786374866962433
1757088405737227000,8.79222705078125,-1.1583000421524048,0.7734375,0.4298250079154968
1757088405746780000,8.80177978515625,-1.2047749757766724,0.7331500053405762,0.3540624976158142
1757088405756333000,8.8113330078125,-1.3073500394821167,0.6414374709129333,0.32711249589920044
1757088405765886200,8.82088623046875,-1.2903000116348267,0.6916249990463257,0.31735000014305115
1757088405775439000,8.830439208984375,-1.2963500022888184,0.8027250170707703,0.267300009727478
1757088405784992000,8.839991943359376,-1.180299997329712,0.8735374808311462,0.19772499799728394
1757088405794545200,8.849545166015625,-0.8344874978065491,0.9432500004768372,0.19277499616146088
1757088405804098000,8.85909814453125,-0.48262500762939453,1.0067750215530396,0.30524998903274536
1757088405813651000,8.86865087890625,-0.27871251106262207,1.2083499431610107,0.30524998903274536
1757088405823204000,8.8782041015625,-0.1601874977350235,1.525974988937378,0.3003000020980835
1757088405832757200,8.88775732421875,-0.06847500056028366,1.8778375387191772,0.30524998903274536
1757088405842310100,8.89731005859375,0.0035749999806284904,2.238224983215332,0.30758750438690186
1757088405851863000,8.906863037109375,-0.02213750034570694,2.554612398147583,0.33329999446868896
1757088405861416200,8.916416259765626,-0.19923749566078186,2.808850049972534,0.3480125069618225
1757088405870969000,8.925968994140625,-0.3470500111579895,2.753849983215332,0.40411248803138733
1757088405880522000,8.93552197265625,-0.4973374903202057,2.6976125240325928,0.47616249322891235
1757088405890075100,8.9450751953125,-0.4300999939441681,2.351799964904785,0.6216375231742859
1757088405899628300,8.954628173828125,-0.34952500462532043,1.7690750360488892,0.8512625098228455
1757088405909181200,8.96418115234375,-0.3507624864578247,1.7605500221252441,1.045549988746643
1757088405918734000,8.973734130859375,-0.23594999313354492,1.5199249982833862,1.260599970817566
1757088405928287000,8.983286865234374,-0.24447499215602875,1.5052125453948975,1.3448874950408936
1757088405937840000,8.992840087890626,-0.37757501006126404,1.9914125204086304,1.177549958229065
1757088405947393300,9.002393310546875,-0.5363875031471252,2.359225034713745,1.0467875003814697
1757088405956946200,9.0119462890625,-0.6133875250816345,2.0794124603271484,0.9770749807357788
1757088405966499300,9.021499267578125,-0.6353874802589417,1.8070249557495117,0.9037874937057495
1757088405976052200,9.03105224609375,-0.4680500030517578,1.4038749933242798,1.1726000308990479
1757088405985605400,9.04060546875,-0.2457125037908554,1.1668249368667603,1.4218875169754028
1757088405995158300,9.050158203125,-0.14066250622272491,1.3391125202178955,1.6392749547958374
1757088406004711400,9.05971142578125,-0.16747500002384186,1.215637445449829,1.7395124435424805
1757088406014264600,9.0692646484375,-0.45086249709129333,0.6414374709129333,1.730987548828125
1757088406023817200,9.078817138671875,-0.33976250886917114,0.590149998664856,1.4389375448226929
1757088406033370400,9.088370361328124,-0.24447499215602875,0.8210124969482422,1.1505999565124512
1757088406042923300,9.09792333984375,-0.19676250219345093,1.1032999753952026,1.1835999488830566
1757088406052476400,9.107476318359375,-0.1699499934911728,1.3659249544143677,1.3094124794006348
1757088406062029300,9.117029296875,0.17710000276565552,1.529687523841858,1.4999874830245972
1757088406071582500,9.12658251953125,0.3431999981403351,2.221174955368042,1.391224980354309
1757088406081135400,9.13613525390625,0.4324375092983246,2.417799949645996,1.2348874807357788
1757088406090688300,9.145688232421875,0.49101248383522034,2.4507999420166016,1.364412546157837
1757088406100241400,9.155241455078125,0.6767749786376953,2.483799934387207,1.6026999950408936
1757088406109794300,9.164794189453126,0.7891125082969666,2.196700096130371,1.772512435913086
1757088406119347500,9.174347412109375,0.6168249845504761,2.0745999813079834,1.906849980354309
1757088406128900400,9.183900390625,0.5300624966621399,1.9353125095367432,2.1108999252319336
1757088406138453500,9.19345361328125,0.4727250039577484,1.9535999298095703,1.9483749866485596
1757088406148006400,9.20300634765625,0.3797749876976013,2.141700029373169,1.5427500009536743
1757088406157559600,9.2125595703125,-0.07823749631643295,2.566849946975708,1.4206500053405762
1757088406167112400,9.222112548828125,-0.19318750500679016,2.332274913787842,1.2251249551773071
1757088406176665600,9.23166552734375,0.06462500244379044,2.3079373836517334,1.2544125318527222
1757088406186218500,9.241218505859376,-0.1662375032901764,2.1454124450683594,1.6869875192642212
1757088406195771400,9.250771484375,-0.3250499963760376,1.293874979019165,1.8090875148773193
1757088406205324500,9.260324462890624,-0.3862375020980835,0.8112499713897705,1.706512451171875
1757088406214877700,9.269877685546875,-0.2554749846458435,0.8002499938011169,1.5599374771118164
1757088406224430800,9.279430908203125,-0.08318749815225601,1.0507750511169434,1.3729374408721924
1757088406233983500,9.2889833984375,0.12691250443458557,1.4576375484466553,1.0590250492095947
1757088406243536600,9.29853662109375,0.5618249773979187,2.1234123706817627,0.6631624698638916
1757088406253089500,9.308089599609374,0.511775016784668,3.1264750957489014,0.5311625003814697
1757088406262642400,9.317642333984375,0.2747249901294708,3.0652875900268555,0.5593500137329102
1757088406272195600,9.327195556640625,0.36643749475479126,2.316462516784668,0.41263750195503235
1757088406281748500,9.33674853515625,0.33096250891685486,1.8693125247955322,0.5055875182151794
1757088406291301600,9.346301513671875,0.2576749920845032,1.7250750064849854,0.726687490940094
1757088406300854500,9.3558544921875,0.1391499936580658,1.8693125247955322,0.7987374663352966
1757088406310407700,9.36540771484375,0.10986249893903732,2.2016499042510986,0.7364500164985657
1757088406319960600,9.374960693359375,0.09515000134706497,2.6353249549865723,0.6814500093460083
1757088406329513500,9.384513427734374,0.030387500301003456,2.9138998985290527,0.5898749828338623
1757088406339066600,9.394066650390625,-0.10271249711513519,3.0542874336242676,0.3003000020980835
1757088406348619500,9.40361962890625,-0.17599999904632568,2.9554250240325928,0.13048750162124634
1757088406358172700,9.413172607421876,-0.23223750293254852,2.8283751010894775,0.19772499799728394
1757088406367725600,9.4227255859375,-0.35804998874664307,2.548562526702881,0.26606249809265137
1757088406377278700,9.43227880859375,-0.6231499910354614,2.208937406539917,0.06201250106096268
1757088406386831600,9.44183154296875,-0.8419125080108643,1.888837456703186,-0.31790000200271606
1757088406396384800,9.451384765625,-0.8394374847412109,1.8985999822616577,-0.5439500212669373
1757088406405937700,9.460937744140624,-0.9494374990463257,2.2004125118255615,-0.7882875204086304
1757088406415490800,9.47049072265625,-1.019012451171875,2.4740374088287354,-1.1022000312805176
1757088406425043700,9.480043701171875,-1.085012435913086,2.7868499755859375,-1.372249960899353
1757088406434596600,9.4895966796875,-1.1741124391555786,2.960237503051758,-1.6361124515533447
1757088406444149800,9.499149658203125,-1.3305875062942505,3.13004994392395,-1.8682124614715576
1757088406453702700,9.50870263671875,-1.5443999767303467,3.326812505722046,-2.0880749225616455
1757088406463255800,9.518255859375,-1.81431245803833,3.4978625774383545,-2.309312582015991
1757088406472809000,9.52780908203125,-2.112412452697754,3.681149959564209,-2.5487000942230225
1757088406482361600,9.537361572265626,-2.4202749729156494,3.696962594985962,-2.6036999225616455
1757088406491914800,9.546914794921875,-2.6365625858306885,3.524674892425537,-2.2690250873565674
1757088406501467600,9.556467529296874,-2.7990875244140625,3.303575038909912,-1.730162501335144
1757088406511020800,9.566020751953126,-2.9297125339508057,3.064187526702881,-1.0729124546051025
1757088406520573700,9.57557373046875,-3.027474880218506,2.8759500980377197,-0.35571250319480896
1757088406530126800,9.585126953125,-3.1679999828338623,2.836899995803833,0.18177500367164612
1757088406539679700,9.5946796875,-3.357337474822998,2.8051373958587646,0.3858250081539154
1757088406549233000,9.60423291015625,-3.5333375930786133,2.889425039291382,0.227012500166893
1757088406558785800,9.613785888671876,-3.6749625205993652,3.0384750366210938,-0.06132499873638153
1757088406568338700,9.623338623046875,-3.8399624824523926,3.2595748901367188,-0.20542499423027039
1757088406577891800,9.632891845703124,-3.9584875106811523,3.411099910736084,-0.17132499814033508
1757088406587445000,9.642445068359375,-4.022012710571289,3.483150005340576,-0.13461250066757202
1757088406596998000,9.651997802734375,-4.020774841308594,3.4599125385284424,-0.1933249980211258
1757088406606550800,9.66155078125,-4.040299892425537,3.386625051498413,-0.03932499885559082
1757088406616104000,9.67110400390625,-3.957249879837036,3.2962875366210938,0.3185875117778778
1757088406625656800,9.68065673828125,-3.8545374870300293,3.25600004196167,0.6301624774932861
1757088406635209700,9.690209716796875,-3.6542000770568848,2.8759500980377197,0.9355499744415283
1757088406644763000,9.699762939453125,-3.449049949645996,2.7916624546051025,1.0760749578475952
1757088406654316000,9.70931591796875,-3.1447625160217285,2.7061374187469482,1.1396000385284424
1757088406663869000,9.718868896484375,-2.769662380218506,2.6938998699188232,1.0931249856948853
1757088406673421800,9.728421875,-2.342175006866455,2.6133248805999756,0.9807875156402588
1757088406682974700,9.737974609375,-1.9340749979019165,2.6291375160217285,0.7877374887466431
1757088406692527900,9.74752783203125,-1.5749249458312988,2.726900100708008,0.5678749680519104
1757088406702081000,9.7570810546875,-1.3208249807357788,3.105712413787842,0.29782500863075256
1757088406711634000,9.766634033203125,-1.03496253490448,3.094712495803833,0.10724999755620956
1757088406721186800,9.776186767578125,-0.7807250022888184,3.0127625465393066,-0.07356250286102295
1757088406730740000,9.785739990234376,-0.5473874807357788,2.947999954223633,-0.2714250087738037
1757088406740292900,9.79529296875,-0.305525004863739,2.8857123851776123,-0.48042500019073486
1757088406749846000,9.804845947265624,-0.0611874982714653,2.825900077819824,-0.7112874984741211
1757088406759399200,9.814399169921876,0.20514999330043793,2.766087532043457,-0.9776250123977661
1757088406768952000,9.8239521484375,0.5264874696731567,2.7671875953674316,-1.2879624366760254
1757088406778505000,9.8335048828125,0.9211124777793884,2.746424913406372,-1.621399998664856
1757088406788057900,9.843057861328125,0.7243499755859375,4.300449848175049,-1.3319624662399292
1757088406797611000,9.852611083984375,-0.571862518787384,7.244874954223633,-0.272662490606308
1757088406807164200,9.8621640625,-1.6139750480651855,8.98947525024414,0.5934500098228455
1757088406816717000,9.871717041015625,-2.615799903869629,10.988175392150879,1.486512541770935
1757088406826270200,9.881270263671874,-3.0177125930786133,12.350387573242188,2.202475070953369
1757088406835823000,9.890822998046875,-3.022662401199341,11.006462097167969,2.890387535095215
1757088406845376000,9.9003759765625,-2.471562385559082,5.534375190734863,2.974674940109253
1757088406854929200,9.90992919921875,-1.7862625122070312,1.1790624856948853,2.242762565612793
1757088406864481800,9.919481689453125,-1.202299952507019,-1.3034999370574951,1.6282750368118286
1757088406874035000,9.929034912109374,-0.8784874677658081,-1.1116875410079956,1.680799961090088
1757088406883588000,9.938588134765626,-0.7441499829292297,-0.5582500100135803,1.7480374574661255
1757088406893141000,9.94814111328125,-0.6866750121116638,-0.3102000057697296,1.7517499923706055
1757088406902694100,9.957694091796874,-0.571862518787384,-0.5350124835968018,1.44388747215271
1757088406912247000,9.9672470703125,-0.4020499885082245,-0.8538749814033508,0.8952624797821045
1757088406921800200,9.97680029296875,-0.36781248450279236,-0.8941624760627747,0.30153748393058777
1757088406931353000,9.98635302734375,-0.4680500030517578,-0.5167250037193298,-0.22384999692440033
1757088406940906200,9.99590625,-0.5022875070571899,-0.013337500393390656,-0.6697624921798706
1757088406950459100,10.005459228515624,-0.4692874848842621,0.44481250643730164,-1.0459624528884888
1757088406960012000,10.015011962890625,-0.41304999589920044,1.0080125331878662,-1.3917750120162964
1757088406969565200,10.024565185546875,-0.41552498936653137,1.626212477684021,-1.5285874605178833
1757088406979118000,10.0341181640625,-0.3922874927520752,1.7447375059127808,-1.484587550163269
1757088406988671200,10.043671142578125,-0.33976250886917114,1.4416874647140503,-1.375825047492981
1757088406998224100,10.05322412109375,-0.27994999289512634,0.9725375175476074,-1.226775050163269
1757088407007777300,10.06277734375,-0.22247499227523804,0.5743374824523926,-0.926337480545044
1757088407017330200,10.072330078125,-0.14176249504089355,0.20776249468326569,-0.593999981880188
1757088407026883000,10.081883056640624,-0.07342500239610672,-0.05857500061392784,-0.2763749957084656
1757088407036436000,10.09143603515625,-0.04895000159740448,-0.17338749766349792,-0.03203750029206276
1757088407045989000,10.100989013671875,-0.028187500312924385,-0.170912504196167,0.12196250259876251
1757088407055542300,10.110542236328126,0.014574999921023846,-0.07562500238418579,0.19030000269412994
1757088407065095200,10.12009521484375,0.047575000673532486,0.07342500239610672,0.17806249856948853
1757088407074648000,10.12964794921875,0.06710000336170197,0.24076250195503235,0.12072499841451645
1757088407084201200,10.139201171875,0.07562500238418579,0.38733750581741333,0.08772499859333038
1757088407093754000,10.148754150390625,0.059812501072883606,0.45938751101493835,0.1060125008225441
1757088407103307300,10.158307373046876,0.007287499960511923,0.4581499993801117,0.16596250236034393
1757088407112860200,10.167860107421875,-0.04647500067949295,0.38609999418258667,0.2502500116825104
1757088407122413000,10.1774130859375,-0.08071249723434448,0.2750000059604645,0.39063748717308044
1757088407131966200,10.18696630859375,-0.12966249883174896,-0.014574999921023846,0.5238749980926514
1757088407141519000,10.19651904296875,-0.16142499446868896,-0.24186250567436218,0.49582499265670776
1757088407151072000,10.206072021484376,-0.1344749927520752,-0.23333749175071716,0.3821125030517578
1757088407160625200,10.215625244140625,-0.06971249729394913,-0.13557499647140503,0.14024999737739563
1757088407170178300,10.22517822265625,-0.06847500056028366,0.023237500339746475,-0.0943249985575676
1757088407179731200,10.234731201171876,-0.09790000319480896,0.15028749406337738,-0.23361249268054962
